time,seconds_elapsed,z,y,x
1790264091749034000,0.064033935546875,8.21695327758789,2.933600664138794,-3.6610186100006104
1790264091766288600,0.08128857421875,8.657232284545898,3.0556344985961914,-4.398007869720459
1790264091783543000,0.09854296875,9.068798065185547,2.871387243270874,-4.046263217926025
1790264091800797700,0.115797607421875,9.006584167480469,2.321038007736206,-2.50289249420166
1790264091818052400,0.13305224609375,9.525827407836914,1.9621145725250244,-1.8352949619293213
1790264091835306800,0.150306640625,9.942177772521973,1.8951154947280884,-2.1200408935546875
1790264091852561200,0.16756103515625,9.896714210510254,1.8544375896453857,-2.9718856811523438
1790264091869815800,0.18481591796875,9.980463027954102,1.5864413976669312,-3.81655216217041
1790264091887070200,0.2020703125,10.04985523223877,1.3232308626174927,-3.8261234760284424
1790264091904324900,0.219324951171875,9.982855796813965,1.490728497505188,-3.2279176712036133
1790264091921579500,0.23657958984375,9.650253295898438,1.94297194480896,-2.723032236099243
1790264091938834000,0.253833984375,9.004191398620605,2.218146562576294,-2.5698914527893066
1790264091956088600,0.271088623046875,7.238288402557373,1.9836499691009521,-1.7994025945663452
1790264091973343000,0.288343017578125,6.867401123046875,2.531606435775757,-2.6775684356689453
1790264091990597600,0.30559765625,7.51585578918457,3.8261234760284424,-5.355136871337891
1790264092007852000,0.32285205078125,6.606583118438721,3.8045880794525146,-6.2668023109436035
1790264092025106700,0.340106689453125,6.372086524963379,3.139383316040039,-5.733202934265137
1790264092042361000,0.357361083984375,8.26241683959961,2.541177749633789,-5.259424209594727
1790264092059615700,0.37461572265625,11.468798637390137,1.6151553392410278,-3.0388846397399902
1790264092076870100,0.3918701171875,12.031112670898438,1.7084753513336182,-3.077169895172119
1790264092094124800,0.409124755859375,12.959527015686035,0.5072783827781677,-1.8376877307891846
1790264092111379200,0.426379150390625,12.07179069519043,-0.1339980661869049,-1.2179467678070068
1790264092128633900,0.4436337890625,8.965906143188477,0.15553347766399384,-1.3926228284835815
1790264092145888300,0.46088818359375,8.595019340515137,1.5002998113632202,-0.8135597109794617
1790264092163143000,0.478142822265625,5.347958564758301,4.563112735748291,-1.7132610082626343
1790264092180397300,0.495397216796875,7.779066562652588,5.60399055480957,-4.878965377807617
1790264092197652000,0.51265185546875,7.865208148956299,3.950550079345703,-4.587040901184082
1790264092214906400,0.52990625,9.286544799804688,1.9405791759490967,-2.6703901290893555
1790264092232161000,0.5471611328125,10.06421184539795,1.581655740737915,-2.4837498664855957
1790264092249415400,0.56441552734375,9.535398483276367,1.423729419708252,-2.8666014671325684
1790264092266670000,0.581670166015625,8.271987915039062,1.8424733877182007,-2.6871397495269775
1790264092283924500,0.598924560546875,9.272188186645508,2.809173822402954,-0.42831525206565857
1790264092301179100,0.61617919921875,10.645668029785156,3.232703447341919,-0.07657032459974289
1790264092318433500,0.63343359375,9.509077072143555,2.6703901290893555,0.22492532432079315
1790264092335688200,0.650688232421875,9.267401695251465,2.251646041870117,-0.605384111404419
1790264092352942600,0.667942626953125,9.28893756866455,2.1296122074127197,-1.8711873292922974
1790264092370197200,0.685197265625,9.09272575378418,2.163111686706543,-1.6845471858978271
1790264092387451600,0.70245166015625,11.081161499023438,1.7467604875564575,0.11485548317432404
1790264092404706300,0.719706298828125,12.052647590637207,2.084148406982422,0.46420758962631226
1790264092421960700,0.736960693359375,12.3278226852417,1.588834285736084,0.18424734473228455
1790264092439215400,0.75421533203125,11.928220748901367,0.9690931439399719,0.20338992774486542
1790264092456469800,0.7714697265625,10.96630573272705,1.9669002294540405,-0.02392822690308094
1790264092473724400,0.788724365234375,9.17886734008789,2.4574289321899414,-0.22971096634864807
1790264092490978800,0.805978759765625,9.116654396057129,2.1511476039886475,-0.794417142868042
1790264092508233500,0.8232333984375,9.080761909484863,2.1822543144226074,-0.5623133182525635
1790264092525487900,0.84048779296875,8.70508861541748,2.4095723628997803,0.8638089895248413
1790264092542742500,0.857742431640625,8.336593627929688,2.6871397495269775,1.435693621635437
1790264092559997000,0.874996826171875,9.207581520080566,2.4670002460479736,-0.5670989751815796
1790264092577251600,0.89225146484375,9.877572059631348,1.6893328428268433,-2.400001049041748
1790264092594506000,0.909506103515625,9.525827407836914,1.521835207939148,-1.698904037475586
1790264092611760600,0.9267607421875,9.300901412963867,1.526620864868164,0.09092725813388824
1790264092629015000,0.94401513671875,10.013962745666504,1.2945170402526855,0.3517449200153351
1790264092646269700,0.961269775390625,10.487741470336914,0.7585247755050659,0.31106695532798767
1790264092663524000,0.978524169921875,10.743773460388184,0.8183453679084778,-0.23210379481315613
1790264092680778500,0.995778564453125,10.26760196685791,1.2586246728897095,-0.6843472719192505
1790264092698033200,1.013033203125,9.286544799804688,1.28255295753479,-0.6963114142417908
1790264092715287600,1.03028759765625,9.030512809753418,1.2610175609588623,-0.35892340540885925
1790264092732542200,1.047542236328125,10.066604614257812,1.0289137363433838,0.33738797903060913
1790264092749796900,1.064796875,10.53081226348877,1.0863415002822876,0.5000999569892883
1790264092767051300,1.08205126953125,10.04985523223877,1.4524433612823486,0.18424734473228455
1790264092784306000,1.099305908203125,9.674181938171387,1.6079767942428589,0.19621145725250244
1790264092801560300,1.116560302734375,9.851250648498535,1.892722725868225,0.46899324655532837
1790264092818815000,1.13381494140625,9.238688468933105,2.0243279933929443,0.8327022790908813
1790264092836069400,1.1510693359375,8.147561073303223,2.2061824798583984,1.0169496536254883
1790264092853323800,1.16832373046875,7.621140003204346,1.9621145725250244,0.9260223507881165
1790264092870578400,1.185578369140625,8.96829891204834,1.062413215637207,1.0791629552841187
1790264092887832800,1.202832763671875,10.085747718811035,0.33738797903060913,1.643869161605835
1790264092905087500,1.22008740234375,8.980263710021973,2.251646041870117,2.014756679534912
1790264092922342000,1.237341796875,7.740781307220459,2.6081767082214355,1.6462619304656982
1790264092939596500,1.254596435546875,8.2695951461792,1.6055840253829956,0.97148597240448
1790264092956851000,1.271850830078125,8.578269004821777,1.0408778190612793,1.4835500717163086
1790264092974105600,1.289105712890625,7.216753005981445,1.8424733877182007,2.6536402702331543
1790264092991360000,1.306360107421875,7.0061845779418945,2.249253273010254,3.314059257507324
1790264093008614700,1.32361474609375,8.542376518249512,2.179861545562744,2.1056840419769287
1790264093025869000,1.340869140625,9.714859962463379,2.2947168350219727,1.828116536140442
1790264093043123700,1.358123779296875,10.078569412231445,2.500499725341797,1.892722725868225
1790264093060378000,1.375378173828125,10.671989440917969,2.376072883605957,1.5792629718780518
1790264093077632800,1.3926328125,11.229516983032227,2.4885356426239014,0.9786644577980042
1790264093094887200,1.40988720703125,10.928021430969238,2.5292134284973145,1.6295121908187866
1790264093112141600,1.4271416015625,9.961320877075195,2.6727828979492188,2.1535403728485107
1790264093129396200,1.444396240234375,9.281759262084961,1.7324036359786987,1.710868239402771
1790264093146650600,1.461650634765625,10.415956497192383,1.222732424736023,1.5840486288070679
1790264093163905300,1.4789052734375,10.054640769958496,2.038684844970703,1.6223337650299072
1790264093181159700,1.49615966796875,8.884550094604492,2.0267207622528076,2.2540390491485596
1790264093198414300,1.513414306640625,7.903493404388428,1.7730815410614014,1.825723648071289
1790264093215668700,1.530668701171875,7.152146816253662,1.31365966796875,1.3471591472625732
1790264093232923400,1.54792333984375,6.960721015930176,1.1509476900100708,1.7084753513336182
1790264093250177800,1.565177734375,7.0995049476623535,0.9044869542121887,2.8211379051208496
1790264093267432400,1.582432373046875,7.295716285705566,0.576670229434967,3.9744784832000732
1790264093284686800,1.599686767578125,7.331608772277832,-0.11246266216039658,3.603590965270996
1790264093301941500,1.61694140625,7.149754047393799,-1.5337992906570435,3.476771354675293
1790264093319196000,1.63419580078125,6.240481376647949,-6.790830612182617,10.313065528869629
1790264093336450600,1.651450439453125,6.089733600616455,-4.816751956939697,6.439085960388184
1790264093353705000,1.668705078125,5.6207404136657715,-2.455035924911499,3.2159535884857178
1790264093370959400,1.68595947265625,4.541577339172363,-4.201796531677246,2.8498518466949463
1790264093388214000,1.703214111328125,2.9216363430023193,-8.082955360412598,7.156932353973389
1790264093405468400,1.720468505859375,4.024727821350098,-7.685746192932129,5.06082010269165
1790264093422723000,1.73772314453125,0.6101697683334351,-7.575676441192627,4.914857864379883
1790264093439977500,1.7549775390625,-4.742574691772461,-6.656832695007324,3.019742250442505
1790264093457232100,1.772232177734375,-7.458428382873535,-6.293123722076416,4.752145767211914
1790264093474486500,1.789486572265625,-6.577869415283203,-5.891129493713379,7.740781307220459
1790264093491741200,1.8067412109375,-3.046063184738159,-5.374279499053955,9.899106979370117
1790264093508995600,1.82399560546875,-1.1413763761520386,-4.931607246398926,11.868400573730469
1790264093526250200,1.841250244140625,-0.9978070259094238,-4.874179840087891,13.744373321533203
1790264093543504600,1.858504638671875,0.4785645306110382,-4.563112735748291,16.876577377319336
1790264093560759300,1.87575927734375,3.2446675300598145,-4.295116424560547,21.54258155822754
1790264093578013700,1.893013671875,4.831109046936035,-2.6703901290893555,26.63450813293457
1790264093595268000,1.91026806640625,4.321437835693359,-1.2945170402526855,24.643680572509766
1790264093612522800,1.927522705078125,1.3854442834854126,-1.4763715267181396,19.599609375
1790264093629777200,1.944777099609375,-0.794417142868042,-1.9860427379608154,17.623138427734375
1790264093647031800,1.96203173828125,-2.3473589420318604,-2.0793628692626953,17.419748306274414
1790264093664286200,1.9792861328125,-4.144368648529053,-1.911865234375,17.16371726989746
1790264093681540900,1.996540771484375,-6.0777692794799805,-1.28255295753479,16.847864151000977
1790264093698795300,2.013795166015625,-6.120840549468994,-0.5024927258491516,16.400405883789062
1790264093716050000,2.0310498046875,-6.783652305603027,-0.1339980661869049,15.713665962219238
1790264093733304300,2.04830419921875,-7.661818027496338,0.08614161610603333,16.252052307128906
1790264093750558700,2.065558837890625,-7.2813591957092285,-0.1052841991186142,12.91645622253418
1790264093767813400,2.0828134765625,-7.396214962005615,-0.5479564070701599,9.824930191040039
1790264093785067800,2.10006787109375,-8.070990562438965,-1.6007983684539795,5.496313571929932
1790264093802322400,2.117322509765625,-7.2095746994018555,-2.6560330390930176,5.4556355476379395
1790264093819576800,2.134576904296875,-4.266402721405029,-3.0939197540283203,7.752745151519775
1790264093836831500,2.15183154296875,-1.6223337650299072,-4.067798614501953,6.534798622131348
1790264093854086000,2.1690859375,-4.058227062225342,-3.6299118995666504,4.859822750091553
1790264093871340500,2.186340576171875,-5.271388053894043,-4.1730828285217285,6.8243303298950195
1790264093888595000,2.203594970703125,-6.802794933319092,-2.0171494483947754,9.34157943725586
1790264093905849600,2.220849609375,-4.1659040451049805,-1.179661512374878,5.185246467590332
1790264093923104000,2.23810400390625,-1.495514154434204,-2.4598217010498047,5.000999450683594
1790264093940358400,2.2553583984375,-2.9216363430023193,-2.3306093215942383,7.025327205657959
1790264093957613000,2.272613037109375,-2.117648124694824,-2.3641088008880615,4.436293125152588
1790264093974867500,2.289867431640625,-3.6777684688568115,-2.1104695796966553,5.453242778778076
1790264093992122000,2.3071220703125,-6.994220733642578,-0.3613162338733673,6.515655994415283
1790264094009376500,2.32437646484375,-5.106283664703369,0.004785645287483931,5.5968122482299805
1790264094026631200,2.341631103515625,-6.324230194091797,-0.8470591902732849,7.680960655212402
1790264094043885600,2.358885498046875,-5.295316696166992,-2.5292134284973145,7.487142086029053
1790264094061140000,2.376139892578125,-4.989035129547119,-4.225724697113037,7.539783954620361
1790264094078394600,2.39339453125,-7.269395351409912,-4.053441524505615,5.431707382202148
1790264094095649000,2.41064892578125,-9.884750366210938,-2.555534601211548,1.7204394340515137
1790264094112903700,2.427903564453125,-6.874579429626465,-2.744567632675171,6.5252275466918945
1790264094130158000,2.445157958984375,-3.7232320308685303,-2.682354211807251,9.757930755615234
1790264094147412700,2.462412841796875,-3.658625841140747,-1.9884356260299683,12.287144660949707
1790264094164667100,2.479667236328125,-3.665804386138916,-2.280359983444214,10.928021430969238
1790264094181921800,2.496921875,-4.67078971862793,-2.9072794914245605,12.102896690368652
1790264094199176000,2.514176025390625,-7.9657063484191895,-2.115255117416382,15.53659725189209
1790264094216430300,2.531430419921875,-9.822537422180176,-1.0408778190612793,14.43350601196289
1790264094233684700,2.548684814453125,-0.7369893789291382,0.09092725813388824,10.03549861907959
1790264094250939100,2.565939208984375,-1.2562319040298462,-0.641276478767395,7.4847493171691895
1790264094268193500,2.583193603515625,-5.151747226715088,1.074377417564392,10.293923377990723
1790264094285448000,2.600447998046875,-9.07119083404541,2.108076810836792,5.302495002746582
1790264094302702600,2.61770263671875,-10.198209762573242,3.1106693744659424,2.251646041870117
1790264094319957000,2.63495703125,-8.078168869018555,3.0963125228881836,2.699103832244873
1790264094337211600,2.652211669921875,-4.53200626373291,1.153340458869934,4.570291042327881
1790264094354466300,2.66946630859375,-4.419543266296387,-0.05024927482008934,5.271388053894043
1790264094371721000,2.686720947265625,-6.314659118652344,0.014356935396790504,5.175675392150879
1790264094388975400,2.703975341796875,-6.149554252624512,0.2991028428077698,5.395814895629883
1790264094406230000,2.72122998046875,-5.326423168182373,2.1272194385528564,6.975078105926514
1790264094423484700,2.738484619140625,-6.687939167022705,1.5672988891601562,7.683353424072266
1790264094440739000,2.755739013671875,-7.056434154510498,0.5072783827781677,7.9585280418396
1790264094457993700,2.77299365234375,-5.38624382019043,-0.7848458290100098,7.590033531188965
1790264094475248400,2.790248291015625,-3.950550079345703,-2.4670002460479736,7.200003147125244
1790264094492502800,2.807502685546875,-6.685546398162842,-1.1270195245742798,6.838686943054199
1790264094509757200,2.824757080078125,-11.956934928894043,0.8255237936973572,8.841479301452637
1790264094527011600,2.842011474609375,-4.735395908355713,-0.48095735907554626,8.12123966217041
1790264094544266000,2.859265869140625,-3.5150563716888428,-1.2059825658798218,11.509476661682129
1790264094561520400,2.876520263671875,-3.9385859966278076,0.004785645287483931,11.557332992553711
1790264094578774800,2.89377490234375,-3.5605201721191406,2.313859462738037,7.1473612785339355
1790264094596029200,2.911029296875,-3.895515203475952,2.8139593601226807,8.085348129272461
1790264094613283800,2.928283935546875,-6.374479293823242,4.510470867156982,9.09272575378418
1790264094630538200,2.945538330078125,-6.355337142944336,5.874379634857178,10.301101684570312
1790264094647793000,2.96279296875,-4.417150497436523,5.742774486541748,10.076175689697266
1790264094665047600,2.980047607421875,-2.414358139038086,5.065605640411377,10.052248001098633
1790264094682302200,2.99730224609375,-0.9858429431915283,4.409972190856934,8.449056625366211
1790264094699556600,3.014556640625,-0.8422735929489136,3.2518460750579834,6.168696880340576
1790264094716811300,3.031811279296875,1.9405791759490967,0.16031911969184875,4.376472473144531
1790264094734066000,3.04906591796875,0.22492532432079315,-1.9286150932312012,5.491528034210205
1790264094751320300,3.0663203125,-10.418350219726562,-2.7182464599609375,4.144368648529053
1790264094768575000,3.083574951171875,-11.770294189453125,-2.0721843242645264,4.869394302368164
1790264094785829600,3.10082958984375,-5.680561065673828,-1.6007983684539795,6.63769006729126
1790264094803084000,3.118083984375,-5.278566837310791,-1.466800332069397,8.609375953674316
1790264094820338400,3.13533837890625,-5.101497650146484,-0.24646073579788208,8.595019340515137
1790264094837592800,3.1525927734375,-5.747560024261475,0.5647061467170715,8.733802795410156
1790264094854847000,3.169846923828125,-6.144768714904785,0.5958128571510315,11.313265800476074
1790264094872101400,3.187101318359375,-4.9363932609558105,0.4905286431312561,9.9469633102417
1790264094889355800,3.204355712890625,-4.063013076782227,0.4378865361213684,9.135796546936035
1790264094906610400,3.2216103515625,-5.723631858825684,0.6532405614852905,9.41336441040039
1790264094923865000,3.238864990234375,-6.989434719085693,0.6364908218383789,10.49970531463623
1790264094941119700,3.25611962890625,-5.371886730194092,0.3038884699344635,8.906085968017578
1790264094958374100,3.2733740234375,-4.977071285247803,-0.16271193325519562,7.561319351196289
1790264094975628800,3.29062890625,-4.88853645324707,-0.07657032459974289,8.449056625366211
1790264094992883500,3.307883544921875,-5.431707382202148,0.16510476171970367,9.298508644104004
1790264095010138000,3.32513818359375,-5.831308841705322,1.4141582250595093,7.17368221282959
1790264095027392500,3.342392578125,-5.407779216766357,0.9068797826766968,8.504091262817383
1790264095044647200,3.359647216796875,-4.9435715675354,-0.3852444589138031,11.46401309967041
1790264095061901800,3.37690185546875,-5.66620397567749,0.4618147611618042,10.12881851196289
1790264095079156200,3.39415625,-8.37009334564209,1.6701902151107788,8.23848819732666
1790264095096411000,3.411410888671875,-7.613961696624756,3.16331148147583,9.523433685302734
1790264095113665500,3.42866552734375,-6.302694797515869,1.1892328262329102,7.616354465484619
1790264095130920200,3.445920166015625,-6.515655994415283,2.675175666809082,10.076175689697266
1790264095148174600,3.463174560546875,-3.524627685546875,3.6394832134246826,9.571290969848633
1790264095165429200,3.48042919921875,-2.715853691101074,1.00259268283844,0.6939185857772827
1790264095182684000,3.497683837890625,-6.989434719085693,-0.5814558863639832,8.489734649658203
1790264095199938300,3.514938232421875,-8.049455642700195,-0.2632105052471161,7.88913631439209
1790264095217192400,3.5321923828125,-9.322437286376953,-0.9332008361816406,4.046263217926025
1790264095234446800,3.54944677734375,-1.1892328262329102,-3.845266103744507,0.5407779216766357
1790264095251701200,3.566701171875,-2.0003998279571533,-5.398207664489746,5.718846321105957
1790264095268955600,3.58395556640625,-3.38105845451355,-2.555534601211548,6.994220733642578
1790264095286210000,3.6012099609375,-4.666004180908203,-0.09810572862625122,3.6059837341308594
1790264095303464700,3.618464599609375,-10.147960662841797,2.5196423530578613,5.592026710510254
1790264095320719400,3.63571923828125,-6.027520179748535,2.0338993072509766,8.48734188079834
1790264095337973800,3.652973876953125,-4.180261135101318,0.17946170270442963,8.590232849121094
1790264095355228400,3.670228515625,-6.939185619354248,0.6005984544754028,9.621540069580078
1790264095372483000,3.687483154296875,-7.735995769500732,-0.9044869542121887,6.156732559204102
1790264095389737700,3.70473779296875,-4.479363918304443,-3.105883836746216,3.902693748474121
1790264095406992100,3.7219921875,-3.005385160446167,-3.548556089401245,4.7234320640563965
1790264095424246800,3.739246826171875,-6.872186660766602,-2.5435705184936523,6.690331935882568
1790264095441501400,3.75650146484375,-6.491727828979492,-1.8640087842941284,3.862015724182129
1790264095458755800,3.773755859375,-2.5124638080596924,-2.785245656967163,7.470392227172852
1790264095476010500,3.791010498046875,-0.885344386100769,-1.1150553226470947,10.712666511535645
1790264095493265000,3.808264892578125,1.7204394340515137,0.8685946464538574,14.684752464294434
1790264095510519600,3.82551953125,2.4598217010498047,3.3068809509277344,11.09073257446289
1790264095527774200,3.842774169921875,4.934000492095947,6.6592254638671875,1.8807586431503296
1790264095545028900,3.86002880859375,-20.968305587768555,4.6061835289001465,15.393028259277344
1790264095562283300,3.877283203125,-30.671199798583984,8.451449394226074,13.316058158874512
1790264095579538000,3.894537841796875,-13.081561088562012,7.599604606628418,4.063013076782227
1790264095596792300,3.911792236328125,-11.645867347717285,2.115255117416382,7.941778182983398
1790264095614046700,3.929046630859375,-10.573883056640625,-1.856830358505249,11.241480827331543
1790264095631301000,3.946301025390625,-8.329415321350098,-3.4719855785369873,8.784051895141602
1790264095648555500,3.963555419921875,-8.37009334564209,-4.34536600112915,9.22433090209961
1790264095665810000,3.980809814453125,-12.820743560791016,-2.8905298709869385,10.63370418548584
1790264095683064300,3.998064208984375,-3.6993038654327393,2.53399920463562,3.7567315101623535
1790264095700318700,4.015318603515625,-1.2299108505249023,-8.47298526763916,-3.122633457183838
1790264095717573400,4.032573486328125,-0.9858429431915283,-15.192030906677246,-6.680760860443115
1790264095734828000,4.049828125,3.297309637069702,-10.925628662109375,-2.510071039199829
1790264095752082700,4.067082763671875,-2.1678972244262695,-5.917450428009033,2.344966173171997
1790264095769337000,4.084337158203125,-7.171289443969727,-4.273581027984619,6.45822811126709
1790264095786591700,4.101591796875,-2.8450660705566406,-3.634697675704956,4.1036906242370605
1790264095803846400,4.118846435546875,-3.562912940979004,-6.3361945152282715,4.043870449066162
1790264095821100800,4.136100830078125,-13.060026168823242,-12.533604621887207,9.961320877075195
1790264095838355500,4.15335546875,-15.684952735900879,-11.085947036743164,8.839086532592773
1790264095855610000,4.170610107421875,-6.300302028656006,-6.434299945831299,4.201796531677246
1790264095872864800,4.18786474609375,-5.548955917358398,-5.702096462249756,2.3473589420318604
1790264095890119200,4.205119140625,-6.570691108703613,-5.166104316711426,1.5074782371520996
1790264095907373800,4.222373779296875,-6.173482418060303,-4.960321426391602,0.5910272002220154
1790264095924628500,4.23962841796875,-4.634897232055664,-5.01296329498291,1.3351950645446777
1790264095941883000,4.2568828125,-5.149354457855225,-6.216553211212158,1.5170495510101318
1790264095959137500,4.274137451171875,-5.874379634857178,-6.0466628074646,2.2923240661621094
1790264095976392200,4.29139208984375,-8.965906143188477,-5.395814895629883,3.5509488582611084
1790264095993646800,4.308646728515625,-8.358129501342773,-5.223531723022461,5.312066078186035
1790264096010901200,4.3259013671875,-8.516056060791016,-5.938985824584961,4.893322467803955
1790264096028156000,4.343156005859375,-8.394021987915039,-5.72123908996582,5.5034918785095215
1790264096045410600,4.36041064453125,-8.267202377319336,-6.283552169799805,4.828716278076172
1790264096062665000,4.3776650390625,-6.860222339630127,-6.072983741760254,3.4552359580993652
1790264096079919600,4.394919677734375,-6.015556335449219,-5.807380676269531,3.586841106414795
1790264096097174000,4.412174072265625,-9.040083885192871,-5.3934221267700195,3.263810157775879
1790264096114428400,4.429428466796875,-9.958928108215332,-3.720839262008667,4.309473514556885
1790264096131682800,4.446682861328125,-5.527420520782471,-4.086941242218018,1.5409778356552124
1790264096148937200,4.463937255859375,-2.6608188152313232,-5.747560024261475,0.016749758273363113
1790264096166191600,4.481191650390625,-2.0195422172546387,-8.271987915039062,1.2418749332427979
1790264096183446000,4.498446044921875,-4.876572608947754,-9.774680137634277,2.0793628692626953
1790264096200700400,4.515700439453125,-7.113861560821533,-5.2977094650268555,3.627519130706787
1790264096217955000,4.532955078125,-8.327022552490234,-3.5461630821228027,1.0839486122131348
1790264096235209700,4.550209716796875,-9.848857879638672,-6.070590972900391,-1.3806586265563965
1790264096252464400,4.56746435546875,-9.542576789855957,-9.722038269042969,3.1441688537597656
1790264096269718800,4.58471875,-6.996613502502441,-13.976476669311523,7.755138397216797
1790264096286973400,4.601973388671875,-5.257031440734863,-7.700103282928467,5.793023586273193
1790264096304228000,4.61922802734375,4.522434711456299,-2.9599215984344482,7.613961696624756
1790264096321482800,4.636482666015625,-5.632704734802246,-2.5914268493652344,7.190432071685791
1790264096338737200,4.653737060546875,-9.454042434692383,-2.328216314315796,5.7164530754089355
1790264096355991800,4.67099169921875,-8.181060791015625,-2.919243574142456,6.963113784790039
1790264096373246500,4.68824658203125,-6.2428741455078125,-3.6059837341308594,8.212167739868164
1790264096390500900,4.7055009765625,-5.225924491882324,-3.672982692718506,5.424529075622559
1790264096407755500,4.722755615234375,-2.902493953704834,-4.4961137771606445,3.9146578311920166
1790264096425010200,4.74001025390625,-1.397408366203308,-6.228517532348633,3.105883836746216
1790264096442264600,4.7572646484375,-4.125226020812988,-7.022934436798096,2.2468605041503906
1790264096459519200,4.774519287109375,-8.60459041595459,-5.254638671875,4.2831525802612305
1790264096476774000,4.79177392578125,-8.202595710754395,-4.386044025421143,4.6061835289001465
1790264096494028300,4.8090283203125,-3.7806596755981445,-5.989234924316406,2.837887763977051
1790264096511282700,4.82628271484375,-3.0005996227264404,-8.212167739868164,2.957528829574585
1790264096528537000,4.843537109375,-4.744967460632324,-10.480563163757324,4.529613494873047
1790264096545791500,4.86079150390625,-8.9850492477417,-10.420742988586426,8.994620323181152
1790264096563046000,4.8780458984375,-5.209175109863281,-7.5804619789123535,9.836894035339355
1790264096580300300,4.89530029296875,-5.558526992797852,-5.654240131378174,8.23848819732666
1790264096597554700,4.9125546875,-6.589833736419678,-4.742574691772461,6.137589931488037
1790264096614809300,4.929809326171875,-5.513063430786133,-5.168497085571289,4.402793884277344
1790264096632064000,4.94706396484375,-3.022135019302368,-5.020142078399658,6.03948450088501
1790264096649318400,4.964318359375,-8.623732566833496,-8.606983184814453,9.848857879638672
1790264096666573000,4.981572998046875,-7.135396957397461,-4.766502857208252,6.309873104095459
1790264096683827700,4.99882763671875,-2.6703901290893555,-2.390429735183716,7.106683254241943
1790264096701082000,5.01608203125,-0.4737788736820221,-2.7589244842529297,7.613961696624756
1790264096718336800,5.033336669921875,-1.6845471858978271,-4.039084434509277,1.5720844268798828
1790264096735591400,5.05059130859375,-8.60459041595459,9.91107177734375,-15.460026741027832
1790264096752846000,5.06784619140625,-3.3379876613616943,3.0388846397399902,-4.567898273468018
1790264096770100500,5.0851005859375,0.9882357716560364,-9.020941734313965,2.256431818008423
1790264096787355100,5.102355224609375,3.2207393646240234,-24.117259979248047,5.706881999969482
1790264096804609800,5.11960986328125,-6.118447303771973,-32.348567962646484,4.934000492095947
1790264096821864200,5.1368642578125,-12.155538558959961,-19.00379753112793,5.020142078399658
1790264096839118800,5.154118896484375,-6.1710896492004395,-4.78803825378418,3.6873397827148438
1790264096856373500,5.17137353515625,-2.2995026111602783,-7.8795647621154785,5.623133182525635
1790264096873628200,5.188628173828125,-2.9934210777282715,-5.994020938873291,1.3854442834854126
1790264096890882600,5.205882568359375,-4.60857629776001,-8.109275817871094,1.5074782371520996
1790264096908137000,5.223136962890625,-2.376072883605957,-7.700103282928467,-1.9525432586669922
1790264096925391400,5.240391357421875,1.954936146736145,-3.838087558746338,0.7417750358581543
1790264096942645800,5.257645751953125,-0.6029912829399109,-7.585247993469238,0.2153540402650833
1790264096959900000,5.27489990234375,-6.185446739196777,-10.736595153808594,-2.5746772289276123
1790264096977154300,5.292154296875,-5.3455657958984375,-12.746565818786621,-2.445464849472046
1790264096994409000,5.309408935546875,-3.297309637069702,-14.612967491149902,-0.2727817893028259
1790264097011663600,5.32666357421875,-2.447857618331909,-12.569497108459473,0.4019941985607147
1790264097028918000,5.34391796875,-3.2614171504974365,-10.841879844665527,1.7252250909805298
1790264097046172700,5.361172607421875,-4.280759811401367,-11.20798110961914,1.7252250909805298
1790264097063427300,5.37842724609375,-3.146561861038208,-10.683953285217285,1.6247265338897705
1790264097080681700,5.395681640625,-4.194618225097656,-8.95394229888916,2.5220351219177246
1790264097097936400,5.412936279296875,-4.098905086517334,-9.54496955871582,0.5599204897880554
1790264097115191000,5.43019091796875,-2.589034080505371,-10.53799057006836,-1.954936146736145
1790264097132445700,5.44744580078125,-1.8544375896453857,-12.949955940246582,-1.5481562614440918
1790264097149700000,5.4647001953125,-2.7278177738189697,-10.88973617553711,-1.7730815410614014
1790264097166954800,5.481954833984375,-1.6941183805465698,-9.317651748657227,-3.077169895172119
1790264097184209400,5.49920947265625,-2.612962245941162,-9.631111145019531,-3.3092737197875977
1790264097201463800,5.5164638671875,-4.941178798675537,-8.85344409942627,-1.2011969089508057
1790264097218718500,5.533718505859375,-4.000799655914307,-8.12123966217041,0.1818545162677765
1790264097235973000,5.55097314453125,-1.5026925802230835,-7.869993686676025,0.7250252366065979
1790264097253227800,5.568227783203125,-1.6654045581817627,-7.692924976348877,0.20338992774486542
1790264097270482200,5.585482177734375,-2.2707886695861816,-6.173482418060303,0.1459621787071228
1790264097287736800,5.60273681640625,-0.035892341285943985,-5.1876397132873535,0.8350951075553894
1790264097304991200,5.6199912109375,-1.2442678213119507,-6.38165807723999,1.1413763761520386
1790264097322245400,5.637245361328125,-3.562912940979004,-10.356136322021484,-2.282752752304077
1790264097339499800,5.654499755859375,-2.00518536567688,-13.074382781982422,-1.5936198234558105
1790264097356754200,5.671754150390625,-2.806781053543091,-8.520841598510742,2.8905298709869385
1790264097374008600,5.689008544921875,-2.3306093215942383,-7.4464640617370605,1.4763715267181396
1790264097391263000,5.706262939453125,-3.2231321334838867,-8.638090133666992,-0.7202396392822266
1790264097408517600,5.723517578125,-2.2947168350219727,-8.851051330566406,-0.1698904037475586
1790264097425772300,5.740772216796875,-3.4193434715270996,-9.578469276428223,1.1413763761520386
1790264097443026700,5.758026611328125,-1.5936198234558105,-9.312865257263184,0.5000999569892883
1790264097460281300,5.77528125,-0.05503492057323456,-10.518848419189453,-0.09092725813388824
1790264097477536000,5.792535888671875,1.0360921621322632,-9.93260669708252,1.1868400573730469
1790264097494790700,5.809790771484375,2.5292134284973145,-9.578469276428223,2.091326951980591
1790264097512045000,5.827045166015625,-1.9980069398880005,-13.703695297241211,-1.3184453248977661
1790264097529299700,5.8442998046875,-6.159125328063965,-12.983455657958984,-0.4426721930503845
1790264097546554400,5.861554443359375,-2.6799614429473877,-8.602197647094727,3.8739798069000244
1790264097563808800,5.878808837890625,-0.9930213689804077,-11.540583610534668,-0.20338992774486542
1790264097581063400,5.8960634765625,-1.4021940231323242,-11.858829498291016,1.8113667964935303
1790264097598318000,5.913318115234375,-0.9667003750801086,-11.24626636505127,2.3018953800201416
1790264097615572700,5.93057275390625,-0.6604190468788147,-9.975677490234375,1.4021940231323242
1790264097632827100,5.9478271484375,0.0526420995593071,-8.949156761169434,2.148754835128784
1790264097650081800,5.965081787109375,-0.6484549641609192,-9.360722541809082,1.765903115272522
1790264097667336400,5.98233642578125,-1.2131611108779907,-8.851051330566406,1.954936146736145
1790264097684590800,5.9995908203125,-1.31365966796875,-9.762716293334961,1.5194423198699951
1790264097701845200,6.01684521484375,-0.8877372145652771,-11.088339805603027,0.4163511395454407
1790264097719099600,6.034099609375,-0.397208571434021,-11.751152038574219,-0.4905286431312561
1790264097736354000,6.05135400390625,-0.519242525100708,-12.346964836120605,1.7395820617675781
1790264097753608400,6.0686083984375,-2.0027925968170166,-10.60977554321289,0.9308080077171326
1790264097770862800,6.08586279296875,-0.11724831163883209,-7.334001541137695,0.4498506486415863
1790264097788117200,6.1031171875,-1.368694543838501,-8.559126853942871,2.7589244842529297
1790264097805372000,6.120371826171875,-2.251646041870117,-10.145567893981934,2.447857618331909
1790264097822626300,6.137626220703125,-0.9571290612220764,-9.757930755615234,2.1104695796966553
1790264097839881000,6.154880859375,1.210768222808838,-8.827122688293457,1.9932212829589844
1790264097857135600,6.172135498046875,-0.019142581149935722,-5.515456199645996,0.5838487148284912
1790264097874390300,6.189390380859375,-1.6414763927459717,-5.979663848876953,3.7639100551605225
1790264097891644700,6.206644775390625,-0.8973084688186646,-9.863214492797852,1.337587833404541
1790264097908899300,6.2238994140625,-0.9212366938591003,-10.490134239196777,1.7874385118484497
1790264097926154000,6.241154052734375,-1.8137595653533936,-10.99741268157959,1.4835500717163086
1790264097943408400,6.258408447265625,-1.7324036359786987,-11.059626579284668,1.1150553226470947
1790264097960663000,6.2756630859375,-1.852044701576233,-9.714859962463379,1.7204394340515137
1790264097977917700,6.292917724609375,-0.3613162338733673,-9.997213363647461,1.0408778190612793
1790264097995172000,6.310172119140625,-0.851844847202301,-10.487741470336914,1.4093725681304932
1790264098012426500,6.327426513671875,-1.4428720474243164,-9.80817985534668,2.5603201389312744
1790264098029681000,6.344680908203125,-1.521835207939148,-9.375079154968262,3.0484559535980225
1790264098046935300,6.361935302734375,-0.8685946464538574,-8.772088050842285,3.218346357345581
1790264098064189700,6.379189697265625,-1.00259268283844,-8.49452018737793,3.084348440170288
1790264098081444000,6.396444091796875,-0.6867401003837585,-8.609375953674316,3.706482172012329
1790264098098698500,6.413698486328125,-1.3902299404144287,-8.910871505737305,3.1274192333221436
1790264098115953200,6.430953125,-0.5886343717575073,-8.61894702911377,4.232903480529785
1790264098133207600,6.44820751953125,-1.0169496536254883,-9.018548965454102,3.201596736907959
1790264098150462200,6.465462158203125,-1.3615161180496216,-9.245866775512695,2.7517459392547607
1790264098167716900,6.482716796875,-1.1437692642211914,-9.377471923828125,3.5916268825531006
1790264098184971500,6.499971435546875,-1.191625714302063,-9.375079154968262,2.957528829574585
1790264098202226000,6.517225830078125,-1.2610175609588623,-9.958928108215332,2.840280532836914
1790264098219480600,6.53448046875,-1.191625714302063,-9.592825889587402,3.7184464931488037
1790264098236735200,6.5517353515625,-0.41874396800994873,-9.394221305847168,3.1202406883239746
1790264098253989600,6.56898974609375,-0.5551348328590393,-9.832108497619629,2.0554347038269043
1790264098271244300,6.586244384765625,-1.4524433612823486,-9.542576789855957,2.7421748638153076
1790264098288499000,6.6034990234375,-1.246660590171814,-9.604789733886719,3.1345977783203125
1790264098305753600,6.620753662109375,-0.48574298620224,-9.760323524475098,2.139183521270752
1790264098323008000,6.638008056640625,-0.5934200286865234,-9.712467193603516,2.280359983444214
1790264098340262700,6.6552626953125,-0.9427721500396729,-9.317651748657227,3.043670415878296
1790264098357517300,6.672517333984375,-1.0097711086273193,-9.540184020996094,3.4265220165252686
1790264098374772000,6.68977197265625,-0.7393822073936462,-9.339186668395996,2.179861545562744
1790264098392026400,6.7070263671875,-1.332802176475525,-8.003992080688477,5.058426856994629
1790264098409280800,6.72428076171875,-0.8614161610603333,-8.72183895111084,5.412564754486084
1790264098426535200,6.74153515625,-0.17706887423992157,-8.003992080688477,4.170690059661865
1790264098443789600,6.75878955078125,-0.48095735907554626,-7.982456207275391,3.548556089401245
1790264098461043700,6.776043701171875,-1.2897313833236694,-8.061419486999512,3.3643085956573486
1790264098478298000,6.793298095703125,-1.2681959867477417,-9.162117958068848,3.759124279022217
1790264098495552800,6.810552734375,-2.3712873458862305,-9.31047248840332,5.3934221267700195
1790264098512807400,6.827807373046875,-3.067598581314087,-8.965906143188477,5.575276851654053
1790264098530061800,6.845061767578125,-3.5461630821228027,-9.511469841003418,4.907679080963135
1790264098547316500,6.86231640625,-4.024727821350098,-9.664610862731934,5.5106706619262695
1790264098564571100,6.879571044921875,-4.115654945373535,-10.138389587402344,3.053241729736328
1790264098581825500,6.896825439453125,-3.751945972442627,-11.20798110961914,3.7328033447265625
1790264098599080200,6.914080078125,-3.0963125228881836,-10.473384857177734,6.1399827003479
1790264098616334800,6.9313349609375,-1.6055840253829956,-7.934599876403809,4.436293125152588
1790264098633589500,6.948589599609375,-1.4572290182113647,-6.790830612182617,7.467999458312988
1790264098650844000,6.965843994140625,-2.0961127281188965,-7.377072334289551,8.283951759338379
1790264098668098600,6.9830986328125,-3.5365917682647705,-6.831508636474609,8.396414756774902
1790264098685353200,7.000353271484375,-2.3569302558898926,-8.267202377319336,7.324429988861084
1790264098702607400,7.017607421875,-0.49292147159576416,-8.291130065917969,2.778067111968994
1790264098719861800,7.03486181640625,0.16271193325519562,-8.437092781066895,-0.5000999569892883
1790264098737116200,7.0521162109375,-0.8111668825149536,-8.941978454589844,-2.3306093215942383
1790264098754370600,7.06937060546875,-4.419543266296387,-8.774480819702148,-0.9427721500396729
1790264098771625000,7.086625,-4.893322467803955,-9.049654960632324,2.062613010406494
1790264098788879400,7.10387939453125,-4.642076015472412,-9.080761909484863,2.586641311645508
1790264098806134000,7.121134033203125,-5.898307800292969,-7.793423175811768,4.376472473144531
1790264098823388700,7.138388671875,-6.173482418060303,-6.613761901855469,6.1328043937683105
1790264098840643000,7.15564306640625,-5.647061347961426,-5.493920803070068,6.764509677886963
1790264098857897700,7.172897705078125,-4.898108005523682,-4.833501815795898,5.994020938873291
1790264098875152400,7.19015234375,-4.443471431732178,-5.431707382202148,4.625326156616211
1790264098892407000,7.207406982421875,-4.54636287689209,-7.013363361358643,3.895515203475952
1790264098909661400,7.224661376953125,-5.434100151062012,-8.185846328735352,3.768695592880249
1790264098926916000,7.241916015625,-8.599804878234863,-8.70508861541748,4.833501815795898
1790264098944170800,7.259170654296875,-6.465406894683838,-9.176474571228027,4.974678039550781
1790264098961425400,7.27642529296875,-1.25144624710083,-3.081955671310425,1.007378339767456
1790264098978679800,7.2936796875,-3.656233072280884,-4.106083869934082,5.173282623291016
1790264098995934500,7.3109345703125,-5.108676433563232,-6.597012042999268,8.300702095031738
1790264099013188900,7.32818896484375,-8.030312538146973,-6.58265495300293,7.448856830596924
1790264099030443500,7.345443603515625,-8.401200294494629,-4.864608287811279,5.61116886138916
1790264099047698200,7.3626982421875,-7.1856465339660645,-4.42193603515625,4.094119548797607
1790264099064952600,7.37995263671875,-3.067598581314087,-7.800601959228516,4.599005222320557
1790264099082207200,7.397207275390625,-2.6153552532196045,-10.04985523223877,5.283352375030518
1790264099099462000,7.4144619140625,-4.632504463195801,-6.498906135559082,4.409972190856934
1790264099116716500,7.431716552734375,-5.233103275299072,-4.563112735748291,2.991028308868408
1790264099133971000,7.448970947265625,-6.044270038604736,-5.697310924530029,3.16331148147583
1790264099151225600,7.4662255859375,-5.563312530517578,-4.716253280639648,4.40757942199707
1790264099168480300,7.483480224609375,-5.520241737365723,-4.436293125152588,5.0464630126953125
1790264099185734700,7.500734619140625,-6.173482418060303,-6.436692714691162,4.599005222320557
1790264099202989000,7.517989013671875,-5.161318302154541,-5.032105922698975,2.8187451362609863
1790264099220243500,7.535243408203125,-4.06540584564209,-3.809373617172241,2.091326951980591
1790264099237497900,7.552497802734375,-7.448856830596924,-3.751945972442627,3.957728624343872
1790264099254752300,7.569752197265625,-11.248659133911133,-5.00578498840332,7.499105930328369
1790264099272006700,7.587006591796875,-10.296316146850586,-4.981856822967529,10.636096954345703
1790264099289261000,7.604260986328125,-7.04207706451416,-4.302295207977295,9.542576789855957
1790264099306515700,7.621515625,-6.5180487632751465,-4.862215518951416,7.288537979125977
1790264099323770000,7.63877001953125,-6.953542709350586,-5.850451469421387,5.627918720245361
1790264099341024800,7.656024658203125,-7.635497093200684,-7.1856465339660645,4.48414945602417
1790264099358279400,7.673279541015625,-8.204988479614258,-7.489534854888916,5.099104881286621
1790264099375534000,7.6905341796875,-7.156932353973389,-5.9676995277404785,5.015356063842773
1790264099392788500,7.70778857421875,-7.874779224395752,-4.962714195251465,4.603790760040283
1790264099410043100,7.725043212890625,-7.886743545532227,-5.010570526123047,4.60857629776001
1790264099427297800,7.7422978515625,-7.9250288009643555,-4.419543266296387,4.886143684387207
1790264099444552200,7.75955224609375,-7.018148899078369,-2.084148406982422,4.917250633239746
1790264099461806800,7.776806884765625,-7.625925540924072,-3.7878382205963135,3.988835334777832
1790264099479061500,7.7940615234375,-8.209774017333984,-4.847858905792236,3.8500516414642334
1790264099496316200,7.811316162109375,-12.765708923339844,-5.283352375030518,5.257031440734863
1790264099513570600,7.828570556640625,-8.140382766723633,-5.288137912750244,6.31944465637207
1790264099530825200,7.8458251953125,-5.4173502922058105,-2.8761727809906006,4.376472473144531
1790264099548079900,7.863079833984375,-7.858029365539551,-3.5533416271209717,2.3569302558898926
1790264099565334300,7.880334228515625,-8.200202941894531,-3.950550079345703,2.746960401535034
1790264099582589000,7.8975888671875,-8.382058143615723,-3.783052682876587,3.1561331748962402
1790264099599843300,7.91484326171875,-8.638090133666992,-3.431307554244995,3.8285162448883057
1790264099617097700,7.93209765625,-8.987442016601562,-3.4791641235351562,4.6995038986206055
1790264099634352000,7.94935205078125,-9.748359680175781,-3.7471601963043213,4.338187217712402
1790264099651606500,7.9666064453125,-9.279366493225098,-3.462414264678955,3.6059837341308594
1790264099668861000,7.98386083984375,-8.02791976928711,-2.912065267562866,3.452843189239502
1790264099686115300,8.001115234375,-7.786244869232178,-2.3473589420318604,3.6370904445648193
1790264099703370000,8.018369873046876,-8.630910873413086,-2.1128623485565186,3.232703447341919
1790264099720624400,8.035624267578125,-9.08554744720459,-2.0506489276885986,3.06999135017395
1790264099737879000,8.052879150390625,-8.489734649658203,-1.6654045581817627,2.926422119140625
1790264099755133700,8.0701337890625,-8.585447311401367,-1.1509476900100708,3.1824541091918945
1790264099772388000,8.08738818359375,-8.848658561706543,-0.5527420043945312,3.462414264678955
1790264099789642800,8.104642822265625,-8.671588897705078,-0.7034898400306702,3.25663161277771
1790264099806897400,8.1218974609375,-8.719446182250977,-0.9188438653945923,3.1130621433258057
1790264099824152000,8.139152099609374,-8.654839515686035,-1.5744773149490356,2.7517459392547607
1790264099841406500,8.156406494140626,-9.133403778076172,-1.7180466651916504,2.6177480220794678
1790264099858661000,8.1736611328125,-9.585647583007812,-1.6414763927459717,2.5292134284973145
1790264099875915800,8.190915771484375,-9.76989459991455,-1.5481562614440918,2.579462766647339
1790264099893170200,8.208170166015625,-9.233902931213379,-1.4189438819885254,2.586641311645508
1790264099910424800,8.2254248046875,-9.32722282409668,-1.2969099283218384,1.667797327041626
1790264099927679200,8.24267919921875,-9.159725189208984,-1.2969099283218384,0.7513462901115417
1790264099944934000,8.259933837890625,-8.630910873413086,-0.973878800868988,0.7489534616470337
1790264099962188500,8.2771884765625,-8.444271087646484,-0.7920243144035339,0.605384111404419
1790264099979443200,8.294443115234374,-8.592626571655273,-0.5096712112426758,0.5407779216766357
1790264099996697600,8.311697509765626,-8.709874153137207,-0.19621145725250244,1.0456634759902954
1790264100013952000,8.328951904296876,-7.953742504119873,-0.0526420995593071,1.2059825658798218
1790264100031206400,8.346206298828125,-7.987242221832275,0.04785645380616188,1.1030912399291992
1790264100048460800,8.363460693359375,-8.236095428466797,-0.01196411345154047,1.4715858697891235
1790264100065715200,8.380715087890625,-8.623732566833496,0.05503492057323456,2.124826431274414
1790264100082969300,8.39796923828125,-7.95134973526001,0.33499518036842346,2.3856441974639893
1790264100100224000,8.41522412109375,-8.142775535583496,0.698704183101654,2.4598217010498047
1790264100117478700,8.432478759765624,-8.26241683959961,0.6843472719192505,2.620140790939331
1790264100134733000,8.449733154296876,-8.116454124450684,0.7226324677467346,3.074777126312256
1790264100151987700,8.46698779296875,-8.140382766723633,0.9308080077171326,2.675175666809082
1790264100169242400,8.484242431640626,-7.908278942108154,1.1365907192230225,2.1846470832824707
1790264100186496800,8.501496826171875,-8.6907320022583,1.2801600694656372,3.012563705444336
1790264100203751400,8.51875146484375,-8.554341316223145,1.0049854516983032,3.0412776470184326
1790264100221006000,8.536006103515625,-8.279166221618652,0.7226324677467346,2.6967110633850098
1790264100238260700,8.5532607421875,-8.752944946289062,0.7369893789291382,2.816352367401123
1790264100255515100,8.57051513671875,-8.896514892578125,0.729810893535614,3.022135019302368
1790264100272769800,8.587769775390624,-8.614161491394043,0.641276478767395,3.077169895172119
1790264100290024400,8.6050244140625,-8.745766639709473,0.4450650215148926,2.723032236099243
1790264100307279000,8.622279052734376,-8.927620887756348,0.08614161610603333,2.6536402702331543
1790264100324533500,8.639533447265626,-8.312665939331055,-0.1866401731967926,2.794816732406616
1790264100341788200,8.6567880859375,-8.542376518249512,-0.5575276613235474,3.610769271850586
1790264100359042800,8.674042724609375,-8.3629150390625,-0.8877372145652771,3.531806230545044
1790264100376297200,8.691297119140625,-8.965906143188477,-1.0863415002822876,3.5270206928253174
1790264100393552000,8.7085517578125,-7.932207107543945,-0.97148597240448,3.5198421478271484
1790264100410806500,8.725806640625,-7.381857872009277,-1.184447169303894,3.6059837341308594
1790264100428061200,8.743061279296874,-7.494320392608643,-1.1820544004440308,4.077369689941406
1790264100445315600,8.760315673828124,-8.719446182250977,-0.9786644577980042,4.039084434509277
1790264100462570200,8.7775703125,-8.738588333129883,-1.1437692642211914,3.8045880794525146
1790264100479825000,8.794824951171876,-8.090133666992188,-1.1629117727279663,3.9290146827697754
1790264100497079300,8.812079345703125,-8.12123966217041,-1.8376877307891846,4.54636287689209
1790264100514334000,8.829333984375,-8.434700012207031,-1.6079767942428589,4.051048755645752
1790264100531588600,8.846588623046875,-8.212167739868164,-1.0145567655563354,4.3549370765686035
1790264100548843300,8.86384326171875,-8.126026153564453,-1.6606189012527466,4.649254322052002
1790264100566097700,8.88109765625,-7.125825881958008,-2.5914268493652344,5.0464630126953125
1790264100583352300,8.898352294921875,-6.7692952156066895,-3.2997024059295654,5.259424209594727
1790264100600606700,8.915606689453124,-7.1234331130981445,-2.943171739578247,5.027320384979248
1790264100617861000,8.932861083984376,-7.714460372924805,-3.5198421478271484,5.54177713394165
1790264100635115500,8.950115478515626,-7.544569969177246,-3.555734395980835,4.9292144775390625
1790264100652370000,8.967369873046875,-7.2430739402771,-4.280759811401367,5.307280540466309
1790264100669624000,8.9846240234375,-6.020341873168945,-4.077369689941406,4.756931304931641
1790264100686878700,9.001878662109375,-7.970492362976074,-3.8117663860321045,4.60139799118042
1790264100704133000,9.019133056640625,-7.8628153800964355,-3.8668015003204346,5.036891460418701
1790264100721387800,9.0363876953125,-6.963113784790039,-4.6301116943359375,5.132604598999023
1790264100738642400,9.053642333984374,-7.066005229949951,-5.816951751708984,5.489135265350342
1790264100755896800,9.070896728515624,-6.228517532348633,-6.331408500671387,6.434299945831299
1790264100773151500,9.0881513671875,-8.870193481445312,-6.120840549468994,5.867201328277588
1790264100790406100,9.10540625,-7.594819068908691,-5.2283172607421875,5.1804609298706055
1790264100807660500,9.12266064453125,-6.075376510620117,-4.543970108032227,5.446064472198486
1790264100824915200,9.139915283203125,-7.731209754943848,-4.285545349121094,6.029912948608398
1790264100842169900,9.157169921875,-7.16650390625,-4.579862594604492,5.0703911781311035
1790264100859424500,9.174424560546875,-6.733402729034424,-5.907878875732422,5.290530681610107
1790264100876679000,9.191678955078125,-6.965506553649902,-6.719046115875244,4.730610370635986
1790264100893933600,9.20893359375,-7.152146816253662,-7.805387496948242,4.716253280639648
1790264100911188200,9.226188232421874,-5.78345251083374,-7.496713161468506,4.658825874328613
1790264100928442600,9.243442626953126,-5.283352375030518,-6.654439926147461,5.2354960441589355
1790264100945697300,9.260697265625,-5.948556900024414,-6.072983741760254,5.312066078186035
1790264100962952000,9.277951904296875,-5.869594097137451,-6.900900363922119,5.343173027038574
1790264100980206600,9.29520654296875,-5.237888813018799,-7.128218650817871,5.986842155456543
1790264100997461000,9.3124609375,-5.161318302154541,-7.063612461090088,5.675775527954102
1790264101014715400,9.32971533203125,-5.3934221267700195,-7.45364236831665,5.01296329498291
1790264101031969500,9.346969482421875,-5.525027275085449,-7.020541667938232,4.450650215148926
1790264101049224000,9.364223876953124,-6.159125328063965,-6.51326322555542,4.405186653137207
1790264101066478300,9.381478271484376,-5.515456199645996,-7.494320392608643,4.941178798675537
1790264101083732700,9.398732666015626,-5.704489231109619,-9.004191398620605,5.338387489318848
1790264101100987400,9.4159873046875,-3.9122650623321533,-7.903493404388428,3.656233072280884
1790264101118242000,9.433241943359375,-4.153940200805664,-7.183253765106201,3.7088751792907715
1790264101135496400,9.450496337890625,-5.400600910186768,-8.015955924987793,3.82373046875
1790264101152751000,9.467751220703125,-4.7473602294921875,-8.374878883361816,3.7734813690185547
1790264101170005800,9.485005859375,-5.44845724105835,-8.72183895111084,5.154139995574951
1790264101187260200,9.50226025390625,-5.697310924530029,-8.233702659606934,5.257031440734863
1790264101204514800,9.519514892578124,-4.113262176513672,-7.238288402557373,3.483949661254883
1790264101221769500,9.53676953125,-5.630311489105225,-8.200202941894531,4.34536600112915
1790264101239024000,9.554024169921876,-5.79063081741333,-7.601997375488281,3.649054527282715
1790264101256278500,9.571278564453126,-5.742774486541748,-7.5637125968933105,4.043870449066162
1790264101273533200,9.588533203125,-5.92223596572876,-8.070990562438965,4.701896667480469
1790264101290787800,9.605787841796875,-5.565705299377441,-7.905886173248291,5.115854740142822
1790264101308042200,9.623042236328125,-4.728217601776123,-7.176074981689453,5.630311489105225
1790264101325297000,9.640296875,-4.8191447257995605,-6.592226505279541,4.843072891235352
1790264101342551600,9.657551513671875,-4.620540618896484,-6.92482852935791,4.572684288024902
1790264101359806200,9.67480615234375,-5.682953834533691,-8.46341323852539,3.9601213932037354
1790264101377060600,9.692060546875,-6.204588890075684,-7.128218650817871,3.6299118995666504
1790264101394315000,9.70931494140625,-5.771488189697266,-5.508277893066406,4.917250633239746
1790264101411569400,9.7265693359375,-5.20678186416626,-5.472385406494141,4.816751956939697
1790264101428823800,9.74382373046875,-5.113461971282959,-5.974878311157227,5.120640277862549
1790264101446078200,9.761078125,-5.5345988273620605,-6.338587284088135,5.477170944213867
1790264101463332600,9.77833251953125,-6.269195556640625,-6.807580471038818,5.469992637634277
1790264101480587000,9.7955869140625,-7.226324558258057,-7.544569969177246,5.4628143310546875
1790264101497841700,9.812841552734374,-7.592426300048828,-7.223931789398193,4.515256404876709
1790264101515096000,9.830095947265624,-6.711867332458496,-7.039684295654297,4.4410786628723145
1790264101532350700,9.847350830078126,-6.017949104309082,-7.073183536529541,5.032105922698975
1790264101549605400,9.86460546875,-5.5728840827941895,-6.9344000816345215,4.4410786628723145
1790264101566860000,9.881860107421875,-5.6207404136657715,-6.561119556427002,3.620340585708618
1790264101584114400,9.899114501953125,-6.1399827003479,-7.211967468261719,4.8191447257995605
1790264101601369000,9.916369140625,-7.312466144561768,-7.35314416885376,6.372086524963379
1790264101618623500,9.93362353515625,-6.735795974731445,-6.522834300994873,5.357530117034912
1790264101635878100,9.950878173828125,-6.240481376647949,-4.864608287811279,6.501298904418945
1790264101653132800,9.9681328125,-6.9583282470703125,-4.551148891448975,7.204789161682129
1790264101670387200,9.98538720703125,-7.743174076080322,-5.3934221267700195,7.396214962005615
1790264101687641900,10.002641845703126,-7.03489875793457,-5.347958564758301,5.024927616119385
1790264101704896300,10.019896240234376,-6.3840508460998535,-5.4173502922058105,4.7401814460754395
1790264101722150700,10.037150634765625,-5.795416355133057,-4.66361141204834,5.910272121429443
1790264101739405000,10.054405029296875,-5.465207099914551,-3.981656789779663,6.1950178146362305
1790264101756659500,10.071659423828125,-6.259624004364014,-3.7471601963043213,5.793023586273193
1790264101773913900,10.088913818359375,-6.965506553649902,-3.9050865173339844,4.692325115203857
1790264101791168300,10.106168212890625,-6.357729911804199,-3.31884503364563,3.328416347503662
1790264101808422700,10.123422607421874,-6.1399827003479,-2.9455647468566895,3.981656789779663
1790264101825677300,10.14067724609375,-6.771687984466553,-3.809373617172241,4.931607246398926
1790264101842932000,10.157931884765626,-8.243273735046387,-4.689932346343994,4.783252239227295
1790264101860186600,10.1751865234375,-7.70967435836792,-3.7734813690185547,4.005585193634033
1790264101877441000,10.19244091796875,-7.551748275756836,-3.4791641235351562,4.106083869934082
1790264101894695700,10.20969580078125,-9.200403213500977,-3.4648072719573975,4.48414945602417
1790264101911950300,10.226950439453125,-9.315258979797363,-3.5533416271209717,5.405386447906494
1790264101929204700,10.244204833984375,-8.520841598510742,-3.345165967941284,6.003592014312744
1790264101946459400,10.26145947265625,-8.116454124450684,-3.242274761199951,6.0610198974609375
1790264101963714000,10.278714111328124,-8.204988479614258,-3.34995174407959,5.436492919921875
1790264101980968700,10.29596875,-8.94676399230957,-3.2231321334838867,4.687539577484131
1790264101998223000,10.31322314453125,-8.784051895141602,-3.0077781677246094,3.9601213932037354
1790264102015477500,10.3304775390625,-8.389236450195312,-3.201596736907959,3.9864425659179688
1790264102032732000,10.34773193359375,-8.805587768554688,-1.8903298377990723,3.0245277881622314
1790264102049986000,10.364986083984375,-8.537590980529785,-2.3401806354522705,4.252045631408691
1790264102067240400,10.382240478515625,-9.164510726928711,-2.7661030292510986,4.445864677429199
1790264102084494800,10.399494873046875,-9.528220176696777,-2.2205393314361572,3.1680972576141357
1790264102101749500,10.41674951171875,-8.336593627929688,-2.2205393314361572,2.3401806354522705
1790264102119004200,10.434004150390624,-8.922835350036621,-2.249253273010254,2.60339093208313
1790264102136258600,10.451258544921876,-9.018548965454102,-1.6773686408996582,3.0077781677246094
1790264102153513200,10.46851318359375,-7.6474609375,-2.4598217010498047,3.404986619949341
1790264102170768000,10.485767822265625,-7.6498541831970215,-2.1774685382843018,2.8689942359924316
1790264102188022500,10.5030224609375,-7.465606689453125,0.4331009089946747,1.576870083808899
1790264102205277000,10.52027685546875,-8.891729354858398,-1.1102696657180786,3.1752755641937256
1790264102222531600,10.537531494140625,-7.865208148956299,1.373480200767517,2.730210542678833
1790264102239786200,10.5547861328125,-7.645068168640137,1.5481562614440918,2.840280532836914
1790264102257040600,10.57204052734375,-8.097311973571777,1.0289137363433838,3.6945180892944336
1790264102274295300,10.58929541015625,-8.350951194763184,0.5838487148284912,3.665804386138916
1790264102291549700,10.6065498046875,-8.015955924987793,0.10767702013254166,2.6488547325134277
1790264102308804000,10.62380419921875,-8.173882484436035,-0.3326023519039154,3.280559778213501
1790264102326058500,10.64105859375,-7.3914289474487305,0.9284151792526245,3.9625144004821777
1790264102343313000,10.65831298828125,-7.573283672332764,1.2203395366668701,3.3954153060913086
1790264102360567300,10.6755673828125,-6.857829570770264,1.2586246728897095,2.2851455211639404
1790264102377821700,10.69282177734375,-7.776673793792725,1.3495519161224365,2.2947168350219727
1790264102395076000,10.710076171875,-7.322037220001221,1.0911271572113037,2.68953275680542
1790264102412330800,10.727330810546874,-7.0683979988098145,0.8446664214134216,2.794816732406616
1790264102429585400,10.74458544921875,-8.415556907653809,0.794417142868042,3.9433717727661133
1790264102446840000,10.761840087890626,-8.207381248474121,0.9020941257476807,3.6681971549987793
1790264102464094500,10.779094482421876,-7.8819580078125,1.038485050201416,3.641875982284546
1790264102481349000,10.79634912109375,-7.793423175811768,1.0121639966964722,3.5605201721191406
1790264102498603800,10.813603759765625,-6.951149940490723,0.6221339106559753,3.6705899238586426
1790264102515858200,10.830858154296875,-7.482356548309326,-0.0933200865983963,4.319045066833496
1790264102533112800,10.84811279296875,-7.561319351196289,-0.4570291340351105,4.754538536071777
1790264102550367500,10.865367431640625,-7.161718368530273,-0.605384111404419,4.584648132324219
1790264102567622000,10.882621826171874,-7.733603000640869,-0.6317051649093628,4.06540584564209
1790264102584876500,10.89987646484375,-7.846065521240234,-0.5934200286865234,3.830909013748169
1790264102602131200,10.917131103515626,-7.537391185760498,-0.5718846321105957,3.964907169342041
1790264102619385900,10.9343857421875,-6.97268533706665,-0.8542376756668091,4.122833251953125
1790264102636640300,10.95164013671875,-7.891529083251953,-0.7776673436164856,4.046263217926025
1790264102653895000,10.96889501953125,-7.9250288009643555,-1.179661512374878,4.1491546630859375
1790264102671149600,10.986149658203125,-7.295716285705566,-1.7060825824737549,4.383651256561279
1790264102688404000,11.003404052734375,-7.439285755157471,-2.172683000564575,3.8763725757598877
1790264102705658400,11.020658447265625,-7.793423175811768,-3.1106693744659424,4.024727821350098
1790264102722912800,11.037912841796874,-7.121040344238281,-3.8428730964660645,5.168497085571289
1790264102740167200,11.055167236328124,-6.678368091583252,-2.857030153274536,6.082555294036865
1790264102757421600,11.072421630859376,-8.283951759338379,-2.297109842300415,5.5728840827941895
1790264102774676000,11.089676025390625,-7.314858913421631,-3.0077781677246094,4.919643402099609
1790264102791930400,11.106930419921875,-7.858029365539551,-3.6370904445648193,4.914857864379883
1790264102809185000,11.12418505859375,-7.659425258636475,-3.524627685546875,5.32403039932251
1790264102826439400,11.141439453125,-7.18086051940918,-3.4337005615234375,5.714060306549072
1790264102843694000,11.158694091796875,-6.996613502502441,-3.4504501819610596,5.558526992797852
1790264102860948700,11.17594873046875,-6.285944938659668,-3.9218363761901855,5.891129493713379
1790264102878203400,11.193203369140624,-6.7932233810424805,-4.323830604553223,5.982056617736816
1790264102895457800,11.210457763671876,-6.616154670715332,-4.29033088684082,6.340980052947998
1790264102912712200,11.227712158203126,-7.283751964569092,-4.498506546020508,6.9583282470703125
1790264102929966600,11.244966552734375,-7.458428382873535,-4.240081787109375,7.774280548095703
1790264102947220700,11.262220703125,-7.113861560821533,-4.321437835693359,7.377072334289551
1790264102964475100,11.27947509765625,-6.999006271362305,-4.60857629776001,6.329015731811523
1790264102981729500,11.2967294921875,-7.355536937713623,-5.292923450469971,6.027520179748535
1790264102998984200,11.313984130859374,-6.771687984466553,-5.726024627685547,6.3601226806640625
1790264103016238800,11.33123876953125,-6.173482418060303,-6.20219612121582,7.09711217880249
1790264103033493200,11.3484931640625,-6.03948450088501,-6.32662296295166,7.223931789398193
1790264103050748000,11.365747802734376,-6.001199245452881,-6.168696880340576,7.63310432434082
1790264103068002600,11.38300244140625,-5.8959150314331055,-5.98444938659668,7.348358154296875
1790264103085257200,11.40025732421875,-5.355136871337891,-6.183053493499756,6.788437843322754
1790264103102511600,11.41751171875,-5.3455657958984375,-5.9198431968688965,6.161518096923828
1790264103119766300,11.434766357421875,-5.257031440734863,-5.529813289642334,6.2428741455078125
1790264103137021000,11.45202099609375,-5.168497085571289,-5.7164530754089355,5.726024627685547
1790264103154275300,11.469275390625,-5.252245903015137,-6.240481376647949,5.407779216766357
1790264103171530000,11.486530029296874,-4.735395908355713,-6.740581512451172,6.197410583496094
1790264103188784600,11.50378466796875,-4.419543266296387,-6.752545356750488,6.745367050170898
1790264103206039300,11.521039306640626,-4.730610370635986,-6.740581512451172,6.687939167022705
1790264103223293700,11.538293701171876,-5.134997367858887,-6.783652305603027,6.486942291259766
1790264103240548400,11.55554833984375,-4.7401814460754395,-6.845865726470947,6.3529438972473145
1790264103257803000,11.572802978515625,-4.649254322052002,-6.845865726470947,6.204588890075684
1790264103275057400,11.590057373046875,-4.579862594604492,-6.692724704742432,5.994020938873291
1790264103292312000,11.60731201171875,-4.316651821136475,-6.941578388214111,6.0849480628967285
1790264103309566200,11.624566162109375,-4.393222332000732,-7.338787078857422,6.872186660766602
1790264103326820600,11.641820556640624,-4.309473514556885,-7.427321434020996,6.697510719299316
1790264103344075000,11.659074951171876,-3.9792640209198,-7.475177764892578,5.441278457641602
1790264103361329400,11.676329345703126,-4.256831645965576,-7.032505512237549,5.036891460418701
1790264103378583800,11.693583740234375,-4.931607246398926,-6.850651264190674,5.264209747314453
1790264103395838200,11.710838134765625,-5.271388053894043,-7.142575740814209,4.7952165603637695
1790264103413092900,11.7280927734375,-5.6446685791015625,-7.5565338134765625,4.340580463409424
1790264103430347500,11.745347412109375,-4.907679080963135,-7.475177764892578,4.570291042327881
1790264103447602200,11.762602294921875,-4.170690059661865,-6.912864685058594,5.635097503662109
1790264103464856600,11.779856689453124,-4.73300313949585,-6.898507595062256,6.960721015930176
1790264103482111200,11.797111328125,-4.3070807456970215,-7.04925537109375,6.419943332672119
1790264103499366000,11.814365966796874,-3.8572301864624023,-7.188039302825928,4.579862594604492
1790264103516620300,11.831620361328126,-5.637490272521973,-7.161718368530273,4.467400074005127
1790264103533875000,11.848875,-5.84566593170166,-6.893722057342529,5.9437713623046875
1790264103551129600,11.866129638671875,-5.931807518005371,-6.754938125610352,6.728617191314697
1790264103568384300,11.88338427734375,-6.546762943267822,-6.209374904632568,7.716853141784668
1790264103585638700,11.900638671875,-6.565905570983887,-5.986842155456543,7.77188777923584
1790264103602893000,11.91789306640625,-4.7234320640563965,-6.116054534912109,6.939185619354248
1790264103620147500,11.9351474609375,-4.110869407653809,-6.082555294036865,6.302694797515869
1790264103637401900,11.95240185546875,-5.201996326446533,-5.699703693389893,5.515456199645996
1790264103654656300,11.96965625,-5.077569484710693,-5.580062389373779,5.7786664962768555
1790264103671910700,11.98691064453125,-5.338387489318848,-5.223531723022461,6.599404811859131
1790264103689165000,12.0041650390625,-6.03948450088501,-4.902893543243408,7.659425258636475
1790264103706419700,12.021419677734375,-5.86002254486084,-4.776073932647705,7.372286796569824
1790264103723674000,12.038674072265625,-5.745167255401611,-4.177868366241455,6.288337707519531
1790264103740928800,12.0559287109375,-6.285944938659668,-3.6777684688568115,5.979663848876953
1790264103758183400,12.073183349609375,-5.907878875732422,-3.218346357345581,6.716653347015381
1790264103775437800,12.090437744140624,-6.2189459800720215,-3.431307554244995,6.601797580718994
1790264103792692500,12.1076923828125,-6.585047721862793,-4.029513359069824,6.417550563812256
1790264103809947100,12.124947021484376,-7.080362319946289,-4.666004180908203,6.391229152679443
1790264103827201800,12.142201904296876,-7.307680130004883,-5.051248550415039,6.853044033050537
1790264103844456200,12.159456298828125,-7.295716285705566,-5.178068161010742,6.642475605010986
1790264103861710800,12.1767109375,-7.5804619789123535,-5.37906551361084,5.883950710296631
1790264103878965500,12.193965576171875,-8.11406135559082,-5.426921844482422,5.711667537689209
1790264103896220000,12.211219970703125,-8.14516830444336,-5.144568920135498,6.03948450088501
1790264103913474300,12.228474365234375,-8.475378036499023,-4.388436794281006,5.800201892852783
1790264103930728700,12.245728759765624,-8.669196128845215,-3.565305709838867,5.663811206817627
1790264103947983000,12.262983154296874,-8.327022552490234,-2.9455647468566895,5.759523868560791
1790264103965237200,12.2802373046875,-7.5637125968933105,-2.541177749633789,5.364708423614502
1790264103982491600,12.29749169921875,-7.348358154296875,-2.3545374870300293,5.134997367858887
1790264103999746300,12.314746337890625,-7.161718368530273,-2.122433662414551,4.701896667480469
1790264104017001000,12.3320009765625,-7.70249605178833,-2.148754835128784,4.527220249176025
1790264104034255400,12.34925537109375,-8.236095428466797,-2.2444677352905273,5.032105922698975
1790264104051510000,12.366510009765625,-7.927421569824219,-2.227717876434326,5.450850009918213
1790264104068764700,12.3837646484375,-8.291130065917969,-2.4430718421936035,5.01296329498291
1790264104086019000,12.40101904296875,-9.226723670959473,-2.572284460067749,4.275974273681641
1790264104103273500,12.4182734375,-9.528220176696777,-2.854637384414673,3.8117663860321045
1790264104120528000,12.43552783203125,-9.384650230407715,-3.0388846397399902,3.9050865173339844
1790264104137782300,12.4527822265625,-8.535198211669922,-2.9527430534362793,4.201796531677246
1790264104155036700,12.47003662109375,-7.240681171417236,-2.7349963188171387,3.6370904445648193
1790264104172291000,12.487291015625,-6.7692952156066895,-2.297109842300415,2.445464849472046
1790264104189545500,12.50454541015625,-6.795616149902344,-1.3399807214736938,2.557927370071411
1790264104206800100,12.521800048828124,-6.515655994415283,-0.2991028428077698,2.675175666809082
1790264104224054800,12.5390546875,-5.836094379425049,0.35413774847984314,1.8424733877182007
1790264104241309200,12.55630908203125,-6.496513366699219,0.11246266216039658,0.9667003750801086
1790264104258563800,12.573563720703126,-7.795815944671631,-0.02632104977965355,1.3423734903335571
1790264104275818500,12.590818603515626,-8.800801277160645,-0.035892341285943985,2.1750757694244385
1790264104293073200,12.6080732421875,-7.877171993255615,0.20817556977272034,3.7878382205963135
1790264104310327600,12.62532763671875,-8.72901725769043,0.17706887423992157,5.355136871337891
1790264104327582200,12.642582275390625,-10.04985523223877,-0.41874396800994873,5.422136306762695
1790264104344836900,12.6598369140625,-8.506484031677246,-0.6699903607368469,4.443471431732178
1790264104362091300,12.67709130859375,-8.169096946716309,-0.23449662327766418,3.830909013748169
1790264104379346000,12.694345947265624,-9.379864692687988,0.46899324655532837,3.06999135017395
1790264104396600300,12.711600341796874,-8.925228118896484,1.007378339767456,2.4023938179016113
1790264104413854700,12.728854736328126,-8.109275817871094,1.2083754539489746,2.770888566970825
1790264104431109000,12.746109130859375,-7.582854747772217,0.8757730722427368,2.297109842300415
1790264104448363500,12.763363525390625,-7.491927623748779,0.6436693072319031,1.8831514120101929
1790264104465618000,12.780617919921875,-7.307680130004883,0.49292147159576416,2.172683000564575
1790264104482872300,12.797872314453125,-7.1234331130981445,0.397208571434021,3.0269205570220947
1790264104500126700,12.815126708984375,-7.164111137390137,-0.062213387340307236,3.4121651649475098
1790264104517381400,12.83238134765625,-7.812565803527832,-0.2392822653055191,3.0245277881622314
1790264104534636000,12.849635986328124,-7.403393268585205,-0.10767702013254166,2.66560435295105
1790264104551890700,12.866890625,-7.712067604064941,0.2967100143432617,2.7493531703948975
1790264104569145000,12.88414501953125,-6.977470874786377,0.5910272002220154,3.658625841140747
1790264104586399700,12.901399658203125,-6.647261142730713,0.3852444589138031,3.8045880794525146
1790264104603654400,12.918654296875,-7.037291526794434,-0.04307080805301666,3.649054527282715
1790264104620908800,12.93590869140625,-6.872186660766602,-0.4307080805301666,4.225724697113037
1790264104638163500,12.95316357421875,-6.9344000816345215,-0.4713860750198364,4.577469825744629
1790264104655418000,12.970418212890625,-7.692924976348877,-0.5623133182525635,4.383651256561279
1790264104672672800,12.9876728515625,-7.6977105140686035,-1.0863415002822876,3.7734813690185547
1790264104689927200,13.00492724609375,-8.391629219055176,-1.526620864868164,4.170690059661865
1790264104707181600,13.022181640625,-8.13798999786377,-1.8975083827972412,4.773681163787842
1790264104724436000,13.03943603515625,-8.14516830444336,-2.66560435295105,4.749752998352051
1790264104741690000,13.056690185546875,-7.518248558044434,-3.2470602989196777,4.5391845703125
1790264104758944500,13.073944580078125,-7.04925537109375,-3.6610186100006104,4.027120590209961
1790264104776199000,13.091198974609375,-6.881757736206055,-3.7256247997283936,3.5916268825531006
1790264104793453600,13.10845361328125,-7.2430739402771,-3.9744784832000732,3.483949661254883
1790264104810708200,13.125708251953125,-7.5708909034729,-4.048655986785889,3.7567315101623535
1790264104827962600,13.142962646484374,-7.9657063484191895,-4.108476638793945,4.3788652420043945
1790264104845217300,13.16021728515625,-7.401000499725342,-4.350151538848877,5.381458282470703
1790264104862472000,13.177471923828126,-7.7838521003723145,-4.7401814460754395,5.670989513397217
1790264104879726300,13.194726318359375,-7.506284713745117,-5.1804609298706055,5.546562671661377
1790264104896980700,13.211980712890625,-7.539783954620361,-5.838487148284912,6.013163089752197
1790264104914235100,13.229235107421875,-7.860422611236572,-6.331408500671387,6.269195556640625
1790264104931489500,13.246489501953125,-8.068597793579102,-6.489335060119629,5.9437713623046875
1790264104948744000,13.263743896484375,-7.36032247543335,-6.967899322509766,5.493920803070068
1790264104965998300,13.280998291015624,-7.317251682281494,-7.008577346801758,5.60399055480957
1790264104983252700,13.298252685546874,-7.75753116607666,-6.252445697784424,6.558726787567139
1790264105000507400,13.31550732421875,-7.668996810913086,-5.656632900238037,6.888936519622803
1790264105017762000,13.332761962890626,-6.742974281311035,-5.601597785949707,5.836094379425049
1790264105035016400,13.350016357421875,-5.249852657318115,-5.804987907409668,5.247459888458252
1790264105052271000,13.36727099609375,-5.400600910186768,-5.737988471984863,4.938786029815674
1790264105069525800,13.38452587890625,-6.357729911804199,-5.647061347961426,4.800002098083496
1790264105086780200,13.4017802734375,-5.9198431968688965,-5.757131099700928,4.898108005523682
1790264105104034800,13.419034912109375,-5.422136306762695,-5.9437713623046875,5.099104881286621
1790264105121289200,13.436289306640624,-5.661418437957764,-6.245266914367676,5.630311489105225
1790264105138543900,13.4535439453125,-5.848058700561523,-6.690331935882568,6.137589931488037
1790264105155798500,13.470798583984376,-6.051448345184326,-7.534998416900635,6.118447303771973
1790264105173053000,13.488052978515626,-6.056233882904053,-8.25523853302002,5.694917678833008
1790264105190307600,13.5053076171875,-6.070590972900391,-8.279166221618652,6.1950178146362305
1790264105207562000,13.52256201171875,-5.740381717681885,-8.300702095031738,6.604190349578857
1790264105224816400,13.53981640625,-5.149354457855225,-8.35573673248291,6.427121639251709
1790264105242070800,13.55707080078125,-5.223531723022461,-8.147561073303223,6.051448345184326
1790264105259325200,13.5743251953125,-5.556134223937988,-7.7216386795043945,5.517848968505859
1790264105276579300,13.591579345703124,-5.934200286865234,-7.357929706573486,4.350151538848877
1790264105293834000,13.608833984375,-6.013163089752197,-7.264609336853027,3.5605201721191406
1790264105311088400,13.62608837890625,-5.522634506225586,-7.211967468261719,3.483949661254883
1790264105328343000,13.643343017578125,-4.584648132324219,-7.16650390625,4.335794448852539
1790264105345597700,13.66059765625,-4.706682205200195,-7.063612461090088,4.692325115203857
1790264105362852400,13.677852294921875,-5.563312530517578,-6.991827964782715,4.4650068283081055
1790264105380106800,13.695106689453125,-6.03948450088501,-7.164111137390137,4.855037212371826
1790264105397361200,13.712361083984375,-5.414957523345947,-7.300501823425293,5.230710506439209
1790264105414615600,13.729615478515624,-4.405186653137207,-7.310073375701904,4.962714195251465
1790264105431870000,13.746869873046874,-4.474578380584717,-7.077969551086426,4.792823791503906
1790264105449124400,13.764124267578126,-5.67338228225708,-6.654439926147461,5.1182475090026855
1790264105466378800,13.781378662109375,-6.419943332672119,-6.355337142944336,6.4079790115356445
1790264105483633200,13.798633056640625,-5.589633464813232,-6.245266914367676,6.876972198486328
1790264105500887800,13.8158876953125,-4.931607246398926,-6.594619274139404,6.161518096923828
1790264105518142200,13.83314208984375,-5.123033046722412,-6.601797580718994,6.1328043937683105
1790264105535396900,13.85039697265625,-5.647061347961426,-6.072983741760254,6.9104719161987305
1790264105552651500,13.867651611328125,-5.994020938873291,-5.6590256690979,7.17368221282959
1790264105569906200,13.88490625,-6.4941205978393555,-5.158925533294678,6.723831653594971
1790264105587160600,13.90216064453125,-6.8243303298950195,-4.926821708679199,6.565905570983887
1790264105604415000,13.9194150390625,-6.159125328063965,-5.1804609298706055,5.864808082580566
1790264105621669400,13.93666943359375,-5.525027275085449,-5.613562107086182,4.6061835289001465
1790264105638923800,13.953923828125,-5.508277893066406,-5.613562107086182,4.340580463409424
1790264105656178200,13.97117822265625,-6.262016773223877,-5.292923450469971,5.635097503662109
1790264105673432600,13.9884326171875,-7.039684295654297,-5.091926574707031,6.530013084411621
1790264105690687000,14.00568701171875,-7.716853141784668,-5.1565327644348145,6.38165807723999
1790264105707941600,14.022941650390624,-6.709474563598633,-5.173282623291016,5.481956481933594
1790264105725196000,14.040196044921874,-6.726224422454834,-5.056034088134766,4.744967460632324
1790264105742450700,14.05745068359375,-8.0350980758667,-4.993820667266846,5.3694939613342285
1790264105759705300,14.074705322265626,-8.21695327758789,-5.01296329498291,6.465406894683838
1790264105776959700,14.091959716796875,-7.393822193145752,-4.962714195251465,6.7932233810424805
1790264105794214400,14.10921435546875,-6.967899322509766,-4.555934429168701,6.439085960388184
1790264105811468500,14.126468505859375,-7.3914289474487305,-4.0797624588012695,5.5034918785095215
1790264105828723000,14.143722900390625,-8.190631866455078,-3.6993038654327393,5.06799840927124
1790264105845977300,14.160977294921874,-7.915457248687744,-3.3690943717956543,5.142175674438477
1790264105863231700,14.178231689453124,-7.133004188537598,-3.115455150604248,4.780859470367432
1790264105880486100,14.195486083984376,-7.396214962005615,-2.6225335597991943,4.603790760040283
1790264105897740800,14.21274072265625,-8.0350980758667,-2.447857618331909,4.2209391593933105
1790264105914995500,14.229995361328125,-8.21695327758789,-2.392822742462158,3.862015724182129
1790264105932249900,14.247249755859375,-8.951549530029297,-2.691925525665283,3.8333017826080322
1790264105949504500,14.26450439453125,-9.798608779907227,-3.0939197540283203,4.4410786628723145
1790264105966759200,14.28175927734375,-9.56889820098877,-3.3236305713653564,4.9363932609558105
1790264105984013600,14.299013671875,-8.551948547363281,-3.2997024059295654,4.622933387756348
1790264106001268200,14.316268310546874,-9.068798065185547,-3.6921253204345703,4.534399032592773
1790264106018522600,14.333522705078124,-8.745766639709473,-3.555734395980835,4.543970108032227
1790264106035777300,14.35077734375,-8.286344528198242,-2.998206853866577,4.479363918304443
1790264106053032000,14.368031982421876,-7.5326056480407715,-2.0817556381225586,3.5844483375549316
1790264106070286600,14.38528662109375,-8.788837432861328,-1.7084753513336182,2.9240293502807617
1790264106087541000,14.402541015625,-6.297909259796143,-1.3184453248977661,2.7493531703948975
1790264106104795400,14.41979541015625,-6.874579429626465,-0.7369893789291382,2.076970100402832
1790264106122049800,14.4370498046875,-6.5252275466918945,-0.16749759018421173,1.5696916580200195
1790264106139304200,14.45430419921875,-7.094718933105469,0.8590233325958252,1.5314065217971802
1790264106156558600,14.47155859375,-6.891329288482666,1.191625714302063,2.2085752487182617
1790264106173813000,14.48881298828125,-7.439285755157471,0.8542376756668091,2.7804598808288574
1790264106191067400,14.5060673828125,-7.429714202880859,0.5551348328590393,3.153740167617798
1790264106208322000,14.523322021484375,-7.762316703796387,0.4953143000602722,3.136990547180176
1790264106225576400,14.540576416015625,-8.34855842590332,0.35892340540885925,3.1130621433258057
1790264106242831000,14.5578310546875,-7.960920810699463,0.05024927482008934,2.8139593601226807
1790264106260085800,14.575085693359375,-8.599804878234863,-0.04546362906694412,2.6297121047973633
1790264106277340200,14.592340087890625,-7.774280548095703,-0.07417750358581543,2.287538528442383
1790264106294594800,14.6095947265625,-7.750352382659912,0.1866401731967926,2.3497519493103027
1790264106311849200,14.62684912109375,-7.936992645263672,0.519242525100708,3.2997024059295654
1790264106329103600,14.644103515625,-7.307680130004883,0.2871387302875519,3.895515203475952
1790264106346357800,14.661357666015626,-7.417750358581543,0.11006984114646912,3.1417760848999023
1790264106363612200,14.678612060546875,-7.489534854888916,0.34217363595962524,2.9790642261505127
1790264106380866600,14.695866455078125,-7.594819068908691,0.8207381963729858,3.6155550479888916
1790264106398121200,14.713121337890625,-7.554141044616699,0.8901300430297852,4.019941806793213
1790264106415376000,14.7303759765625,-7.03489875793457,0.5982056856155396,3.7710886001586914
1790264106432630300,14.74763037109375,-7.10429048538208,0.2991028428077698,3.294916868209839
1790264106449885000,14.764885009765624,-7.704888820648193,0.06939185410737991,3.799802303314209
1790264106467139600,14.7821396484375,-6.869793891906738,-0.07417750358581543,3.9194436073303223
1790264106484394000,14.79939404296875,-6.135197162628174,-0.5335994362831116,3.4815568923950195
1790264106501648400,14.8166484375,-7.6737823486328125,-0.672383189201355,3.0556344985961914
1790264106518902800,14.83390283203125,-7.917850017547607,-0.672383189201355,2.9144580364227295
1790264106536157200,14.8511572265625,-6.97268533706665,-1.1078768968582153,3.2446675300598145
1790264106553411600,14.86841162109375,-7.637889862060547,-1.5074782371520996,4.039084434509277
1790264106570666000,14.885666015625,-8.248059272766113,-2.038684844970703,5.13739013671875
1790264106587920400,14.90292041015625,-8.913264274597168,-2.7397818565368652,5.304887771606445
1790264106605175000,14.920175048828124,-7.456035137176514,-3.751945972442627,5.285745143890381
1790264106622429400,14.937429443359376,-6.908079147338867,-4.491328239440918,5.26181697845459
1790264106639684000,14.95468408203125,-8.037490844726562,-4.783252239227295,5.264209747314453
1790264106656938800,14.971938720703125,-8.35573673248291,-4.969892501831055,4.6995038986206055
1790264106674193400,14.989193359375,-8.343772888183594,-5.041677474975586,3.7663028240203857
1790264106691447800,15.00644775390625,-8.257631301879883,-4.878965377807617,3.476771354675293
1790264106708702200,15.0237021484375,-8.616554260253906,-4.5822553634643555,3.9385859966278076
1790264106725956600,15.04095654296875,-7.319644451141357,-4.859822750091553,4.778466701507568
1790264106743211000,15.0582109375,-6.814758777618408,-5.419743061065674,5.3455657958984375
1790264106760465400,15.07546533203125,-6.503692150115967,-5.718846321105957,5.994020938873291
1790264106777719600,15.092719482421876,-7.336394309997559,-5.627918720245361,6.460621356964111
1790264106794974200,15.10997412109375,-7.2813591957092285,-5.678168296813965,6.874579429626465
1790264106812228900,15.127228759765625,-7.319644451141357,-5.661418437957764,6.747759819030762
1790264106829483300,15.144483154296875,-7.312466144561768,-5.441278457641602,6.355337142944336
1790264106846738000,15.161738037109375,-7.747959613800049,-5.264209747314453,6.32662296295166
1790264106863992600,15.17899267578125,-7.0995049476623535,-5.647061347961426,5.9676995277404785
1790264106881247000,15.1962470703125,-6.436692714691162,-6.393621921539307,5.639883041381836
1790264106898501400,15.21350146484375,-6.604190349578857,-6.757331371307373,5.326423168182373
1790264106915755800,15.230755859375,-6.599404811859131,-6.843472957611084,4.965106964111328
1790264106933010200,15.24801025390625,-6.283552169799805,-7.015756130218506,5.197210788726807
1790264106950264600,15.2652646484375,-6.702296257019043,-7.142575740814209,5.857629776000977
1790264106967519000,15.28251904296875,-6.92482852935791,-7.037291526794434,6.273981094360352
1790264106984773400,15.2997734375,-6.884150981903076,-6.936792850494385,6.1950178146362305
1790264107002028000,15.317028076171875,-6.175875186920166,-7.058826923370361,5.986842155456543
1790264107019282400,15.334282470703124,-6.120840549468994,-7.307680130004883,6.003592014312744
1790264107036537000,15.351537109375,-5.9916276931762695,-7.448856830596924,6.1710896492004395
1790264107053791700,15.368791748046876,-5.2737812995910645,-7.499105930328369,5.934200286865234
1790264107071046100,15.386046142578126,-5.166104316711426,-7.403393268585205,5.242674350738525
1790264107088300800,15.40330078125,-5.496313571929932,-7.106683254241943,4.977071285247803
1790264107105555200,15.42055517578125,-5.802595138549805,-6.872186660766602,4.960321426391602
1790264107122809600,15.4378095703125,-6.096911907196045,-6.63769006729126,5.082355499267578
1790264107140064000,15.45506396484375,-6.029912948608398,-6.623332977294922,5.00578498840332
1790264107157318400,15.472318359375,-5.893522262573242,-6.503692150115967,5.108676433563232
1790264107174572800,15.48957275390625,-6.058627128601074,-6.570691108703613,5.063212871551514
1790264107191827000,15.506826904296876,-5.893522262573242,-6.874579429626465,5.1565327644348145
1790264107209081300,15.524081298828126,-5.446064472198486,-6.967899322509766,5.505885124206543
1790264107226335700,15.541335693359375,-5.520241737365723,-6.752545356750488,5.773880958557129
1790264107243590100,15.558590087890625,-6.068198204040527,-6.331408500671387,5.7547383308410645
1790264107260844500,15.575844482421875,-6.738188743591309,-5.938985824584961,5.788238048553467
1790264107278099000,15.593098876953125,-5.864808082580566,-5.79063081741333,6.305087566375732
1790264107295353300,15.610353271484374,-4.395615100860596,-5.481956481933594,7.0061845779418945
1790264107312608000,15.62760791015625,-4.297509670257568,-5.37906551361084,6.534798622131348
1790264107329862700,15.644862548828126,-5.0225348472595215,-5.405386447906494,5.347958564758301
1790264107347117300,15.662117431640626,-5.123033046722412,-5.139782905578613,4.811966419219971
1790264107364371700,15.679371826171876,-5.1182475090026855,-4.957928657531738,4.328616142272949
1790264107381626400,15.69662646484375,-6.271588325500488,-4.886143684387207,4.60857629776001
1790264107398880800,15.713880859375,-8.195417404174805,-4.9435715675354,5.905486106872559
1790264107416135200,15.73113525390625,-8.090133666992188,-4.919643402099609,8.157132148742676
1790264107433389600,15.7483896484375,-7.544569969177246,-4.783252239227295,8.401200294494629
1790264107450644000,15.76564404296875,-8.140382766723633,-5.233103275299072,7.1234331130981445
1790264107467898400,15.7828984375,-8.178668022155762,-5.723631858825684,5.934200286865234
1790264107485152800,15.80015283203125,-7.850851058959961,-5.517848968505859,5.453242778778076
1790264107502407200,15.8174072265625,-7.592426300048828,-5.309673309326172,5.639883041381836
1790264107519661800,15.834661865234375,-6.422336101531982,-5.161318302154541,6.5419769287109375
1790264107536916500,15.85191650390625,-6.551548480987549,-4.874179840087891,6.647261142730713
1790264107554171000,15.8691708984375,-7.836493968963623,-4.579862594604492,6.446264266967773
1790264107571425500,15.886425537109375,-8.401200294494629,-4.280759811401367,6.072983741760254
1790264107588680200,15.90368017578125,-8.2695951461792,-4.177868366241455,5.757131099700928
1790264107605934300,15.920934326171874,-8.343772888183594,-3.9840497970581055,5.505885124206543
1790264107623188700,15.938188720703126,-8.62612533569336,-3.7710886001586914,5.032105922698975
1790264107640443100,15.955443115234376,-8.635697364807129,-3.783052682876587,4.687539577484131
1790264107657697500,15.972697509765625,-8.714659690856934,-3.90987229347229,5.13739013671875
1790264107674952000,15.989951904296875,-8.71226692199707,-3.926621913909912,5.2977094650268555
1790264107692206600,16.00720654296875,-8.118846893310547,-3.6442689895629883,4.1419758796691895
1790264107709461000,16.0244609375,-8.011170387268066,-3.06999135017395,3.1250264644622803
1790264107726715600,16.041715576171875,-7.211967468261719,-2.4526431560516357,3.297309637069702
1790264107743970300,16.05897021484375,-6.994220733642578,-1.978864312171936,3.218346357345581
1790264107761224700,16.076224609375,-6.9583282470703125,-2.029113531112671,3.404986619949341
1790264107778479400,16.093479248046876,-6.8554368019104,-1.9357935190200806,2.988635540008545
1790264107795733800,16.110733642578126,-7.0301127433776855,-0.916451096534729,3.122633457183838
1790264107812988200,16.12798828125,-7.386643409729004,-0.4737788736820221,2.715853691101074
1790264107830242600,16.14524267578125,-6.742974281311035,-0.3445664644241333,2.9168508052825928
1790264107847497000,16.1624970703125,-7.032505512237549,-0.8446664214134216,3.383451223373413
1790264107864751400,16.17975146484375,-6.999006271362305,-0.9212366938591003,3.4983067512512207
1790264107882005800,16.197005859375,-6.843472957611084,-0.22013968229293823,3.10109806060791
1790264107899260000,16.214260009765624,-7.561319351196289,0.6771687865257263,2.469393014907837
1790264107916514300,16.231514404296874,-8.070990562438965,1.0193424224853516,2.3090739250183105
1790264107933768700,16.248768798828124,-8.21695327758789,0.8662018179893494,3.3714871406555176
1790264107951023000,16.266023193359374,-7.836493968963623,0.7465606927871704,4.060619831085205
1790264107968277500,16.283277587890623,-8.102097511291504,0.16510476171970367,3.6370904445648193
1790264107985532000,16.300531982421877,-9.083154678344727,-0.33020952343940735,2.699103832244873
1790264108002786600,16.31778662109375,-8.520841598510742,-0.040677983313798904,3.452843189239502
1790264108020041200,16.335041259765624,-8.003992080688477,0.9212366938591003,4.249652862548828
1790264108037295900,16.3522958984375,-5.92223596572876,1.5074782371520996,3.4911282062530518
1790264108054550300,16.36955029296875,-4.505684852600098,1.7587246894836426,2.586641311645508
1790264108071805000,16.386804931640626,-5.962913990020752,2.043470621109009,0.8614161610603333
1790264108089059300,16.404059326171875,-8.346165657043457,1.8113667964935303,3.074777126312256
1790264108106313700,16.421313720703125,-6.8554368019104,0.9643075466156006,5.288137912750244
1790264108123568000,16.438568115234375,-6.022734642028809,0.25363919138908386,5.06799840927124
1790264108140822500,16.455822509765625,-6.594619274139404,-0.24167509377002716,3.0628130435943604
1790264108158077000,16.473076904296875,-7.932207107543945,-0.07178468257188797,2.4741785526275635
1790264108175331300,16.490331298828124,-7.2813591957092285,-0.08374879509210587,2.438286304473877
1790264108192585700,16.507585693359374,-7.073183536529541,-0.27756741642951965,2.943171739578247
1790264108209840400,16.52484033203125,-7.905886173248291,-0.6939185857772827,3.046063184738159
1790264108227095000,16.542094970703126,-7.496713161468506,-1.222732424736023,2.7014968395233154
1790264108244349400,16.559349365234375,-7.137789726257324,-2.007578134536743,2.4119651317596436
1790264108261604000,16.57660400390625,-8.080561637878418,-2.6249263286590576,3.3403804302215576
1790264108278858800,16.593858642578127,-8.25523853302002,-3.3332018852233887,3.7423746585845947
1790264108296113200,16.611113037109376,-8.085348129272461,-4.2281174659729,4.847858905792236
1790264108313367300,16.6283671875,-7.405786037445068,-5.144568920135498,5.994020938873291
1790264108330621700,16.64562158203125,-7.23589563369751,-5.182853698730469,6.293123722076416
1790264108347876000,16.6628759765625,-8.073383331298828,-4.7473602294921875,5.580062389373779
1790264108365130500,16.680130615234376,-9.06401252746582,-4.170690059661865,3.871587038040161
1790264108382385000,16.697385009765625,-8.930013656616211,-3.658625841140747,3.5198421478271484
1790264108399639600,16.7146396484375,-7.542177200317383,-3.601198196411133,4.967499732971191
1790264108416894200,16.731894287109377,-6.379265308380127,-3.6921253204345703,4.979464054107666
1790264108434148900,16.74914892578125,-7.137789726257324,-3.871587038040161,4.187439441680908
1790264108451403300,16.7664033203125,-7.444071292877197,-4.120440483093262,4.53200626373291
1790264108468658000,16.783657958984374,-8.195417404174805,-4.500899314880371,7.037291526794434
1790264108485912300,16.800912353515624,-7.884350776672363,-5.123033046722412,7.36032247543335
1790264108503166700,16.818166748046874,-6.391229152679443,-5.876772403717041,6.479763507843018
1790264108520421000,16.835421142578124,-6.453442573547363,-6.618547439575195,5.520241737365723
1790264108537675500,16.852675537109373,-7.288537979125977,-6.592226505279541,6.3840508460998535
1790264108554930000,16.869929931640623,-8.250452041625977,-6.465406894683838,6.563512325286865
1790264108572184300,16.887184326171877,-8.365307807922363,-6.467799663543701,6.340980052947998
1790264108589438700,16.904438720703126,-7.513463020324707,-6.57547664642334,6.534798622131348
1790264108606692900,16.92169287109375,-6.5252275466918945,-6.556334018707275,6.532405853271484
1790264108623947300,16.938947265625,-6.238088607788086,-6.745367050170898,6.020341873168945
1790264108641201700,16.95620166015625,-6.491727828979492,-6.920042991638184,5.869594097137451
1790264108658456000,16.9734560546875,-5.850451469421387,-6.893722057342529,6.553941249847412
1790264108675710500,16.99071044921875,-5.9198431968688965,-6.355337142944336,6.577869415283203
1790264108692964900,17.00796484375,-6.888936519622803,-6.2428741455078125,6.711867332458496
1790264108710219500,17.025219482421875,-6.051448345184326,-6.721438884735107,7.18086051940918
1790264108727474200,17.04247412109375,-5.357530117034912,-6.721438884735107,7.013363361358643
1790264108744728600,17.059728515625,-4.512863636016846,-6.455835342407227,6.340980052947998
1790264108761983200,17.076983154296876,-4.216153621673584,-6.52044153213501,5.635097503662109
1790264108779238000,17.09423779296875,-5.134997367858887,-7.188039302825928,5.008177757263184
1790264108796492300,17.1114921875,-5.623133182525635,-7.716853141784668,4.481756687164307
1790264108813746700,17.12874658203125,-5.38624382019043,-7.6043901443481445,4.417150497436523
1790264108831001000,17.1460009765625,-5.450850009918213,-7.2095746994018555,4.304687976837158
1790264108848255500,17.16325537109375,-5.86002254486084,-6.984649181365967,4.431507587432861
1790264108865510000,17.180510009765626,-6.321837425231934,-7.025327205657959,4.694717884063721
1790264108882764300,17.197764404296876,-6.259624004364014,-7.195217609405518,5.6590256690979
1790264108900018700,17.215018798828126,-5.575276851654053,-7.357929706573486,6.20219612121582
1790264108917272800,17.23227294921875,-5.532206058502197,-7.245467185974121,6.166304111480713
1790264108934527200,17.24952734375,-5.687739372253418,-6.812366008758545,6.3601226806640625
1790264108951781600,17.26678173828125,-5.8959150314331055,-6.340980052947998,5.9676995277404785
1790264108969036000,17.2840361328125,-6.20219612121582,-5.850451469421387,5.493920803070068
1790264108986290400,17.30129052734375,-6.5491557121276855,-5.402993679046631,5.3694939613342285
1790264109003545000,17.318545166015625,-6.594619274139404,-5.166104316711426,5.44845724105835
1790264109020799500,17.335799560546874,-6.343372821807861,-5.26899528503418,6.063412666320801
1790264109038054100,17.35305419921875,-5.685346603393555,-5.642275810241699,6.527620315551758
1790264109055308800,17.370308837890626,-5.776273727416992,-6.003592014312744,6.704689025878906
1790264109072563500,17.3875634765625,-6.64486837387085,-5.965306758880615,6.307480335235596
1790264109089817900,17.40481787109375,-7.791030406951904,-5.828916072845459,5.972485542297363
1790264109107072300,17.422072265625,-7.513463020324707,-5.85284423828125,5.948556900024414
1790264109124326700,17.43932666015625,-7.008577346801758,-5.85284423828125,5.828916072845459
1790264109141581000,17.4565810546875,-7.417750358581543,-5.98444938659668,5.723631858825684
1790264109158835500,17.47383544921875,-7.592426300048828,-5.615954875946045,5.7786664962768555
1790264109176089900,17.49108984375,-7.671389579772949,-5.134997367858887,5.4556355476379395
1790264109193344300,17.50834423828125,-7.6666035652160645,-4.776073932647705,5.3216376304626465
1790264109210598400,17.525598388671874,-7.927421569824219,-4.146761417388916,5.20678186416626
1790264109227852800,17.542852783203124,-7.805387496948242,-3.4719855785369873,5.807380676269531
1790264109245107200,17.560107177734373,-7.240681171417236,-3.0077781677246094,6.400800704956055
1790264109262361600,17.577361572265627,-6.723831653594971,-2.775674343109131,6.733402729034424
1790264109279616000,17.594615966796876,-7.03489875793457,-2.469393014907837,6.324230194091797
1790264109296870700,17.61187060546875,-8.123632431030273,-2.2683959007263184,5.5106706619262695
1790264109314125000,17.629125,-7.582854747772217,-2.730210542678833,5.771488189697266
1790264109331379700,17.646379638671874,-7.013363361358643,-3.232703447341919,5.278566837310791
1790264109348634400,17.66363427734375,-7.144968509674072,-3.4911282062530518,5.20678186416626
1790264109365888800,17.680888671875,-7.599604606628418,-3.4791641235351562,5.1876397132873535
1790264109383143400,17.698143310546875,-7.566105365753174,-3.187239646911621,4.792823791503906
1790264109400397800,17.715397705078125,-7.267002582550049,-2.8833513259887695,4.275974273681641
1790264109417652200,17.73265234375,-8.482556343078613,-2.801995277404785,4.053441524505615
1790264109434906600,17.74990673828125,-7.568498134613037,-2.6392834186553955,4.01754903793335
1790264109452161000,17.7671611328125,-6.893722057342529,-2.400001049041748,3.5437703132629395
1790264109469415400,17.78441552734375,-7.357929706573486,-1.643869161605835,3.050848960876465
1790264109486669800,17.801669921875,-8.338987350463867,-1.0959128141403198,2.495713949203491
1790264109503924000,17.818924072265624,-8.233702659606934,-0.576670229434967,1.4763715267181396
1790264109521178400,17.836178466796873,-7.396214962005615,-0.14356936514377594,1.7754744291305542
1790264109538432800,17.853432861328123,-8.161917686462402,0.02153540402650833,2.5698914527893066
1790264109555687200,17.870687255859377,-8.111668586730957,-0.06939185410737991,3.122633457183838
1790264109572941600,17.887941650390626,-8.271987915039062,-0.10767702013254166,3.3547372817993164
1790264109590196000,17.905196044921876,-8.116454124450684,-0.2153540402650833,3.9864425659179688
1790264109607450600,17.92245068359375,-7.3746795654296875,-0.4666004180908203,3.87876558303833
1790264109624705300,17.939705322265624,-6.530013084411621,-0.20578274130821228,2.8354947566986084
1790264109641959700,17.956959716796874,-7.1162543296813965,0.8207381963729858,2.675175666809082
1790264109659214300,17.97421435546875,-6.254838466644287,1.5553346872329712,2.1918256282806396
1790264109676469000,17.991468994140625,-5.776273727416992,1.5744773149490356,2.2061824798583984
1790264109693723400,18.008723388671875,-6.400800704956055,1.2681959867477417,1.7395820617675781
1790264109710977800,18.025977783203125,-6.58265495300293,0.9044869542121887,1.8855443000793457
1790264109728232200,18.043232177734374,-6.664011001586914,0.8303094506263733,3.074777126312256
1790264109745486600,18.060486572265624,-7.5086774826049805,1.0169496536254883,3.098705291748047
1790264109762741000,18.077740966796874,-7.704888820648193,1.0241280794143677,3.981656789779663
1790264109779995400,18.094995361328124,-6.647261142730713,0.5982056856155396,4.8813581466674805
1790264109797249500,18.11224951171875,-6.812366008758545,-0.08374879509210587,4.285545349121094
1790264109814504000,18.12950390625,-7.231110095977783,-0.5838487148284912,3.9984066486358643
1790264109831758300,18.14675830078125,-6.936792850494385,-0.9020941257476807,3.8572301864624023
1790264109849012700,18.1640126953125,-7.372286796569824,-0.8279166221618652,4.2281174659729
1790264109866267100,18.18126708984375,-7.874779224395752,-1.0504491329193115,3.94097900390625
1790264109883521500,18.198521484375,-7.625925540924072,-1.428515076637268,3.9984066486358643
1790264109900776200,18.215776123046876,-7.3914289474487305,-1.950150489807129,3.9625144004821777
1790264109918030600,18.233030517578126,-7.836493968963623,-2.280359983444214,4.393222332000732
1790264109935285200,18.25028515625,-7.829315662384033,-2.557927370071411,4.859822750091553
1790264109952540000,18.267539794921873,-6.601797580718994,-3.211168050765991,5.008177757263184
1790264109969794600,18.284794677734375,-6.888936519622803,-3.900300979614258,4.737788677215576
1790264109987049000,18.302049072265625,-8.389236450195312,-4.42193603515625,4.838287353515625
1790264110004303400,18.319303466796875,-9.432506561279297,-4.53200626373291,4.931607246398926
1790264110021557800,18.336557861328124,-8.810373306274414,-4.804787635803223,4.393222332000732
1790264110038812200,18.353812255859374,-7.444071292877197,-5.120640277862549,4.6061835289001465
1790264110056066600,18.371066650390624,-7.343572616577148,-5.225924491882324,5.0703911781311035
1790264110073321000,18.388321044921874,-8.169096946716309,-4.706682205200195,5.3455657958984375
1790264110090575000,18.4055751953125,-8.676374435424805,-4.438685894012451,5.20678186416626
1790264110107829500,18.42282958984375,-8.02074146270752,-4.618147850036621,5.096712112426758
1790264110125084000,18.440083984375,-6.9344000816345215,-5.158925533294678,5.649454116821289
1790264110142338300,18.45733837890625,-6.853044033050537,-5.599205017089844,6.565905570983887
1790264110159592700,18.4745927734375,-7.999206066131592,-5.85284423828125,6.714260101318359
1790264110176847000,18.49184716796875,-7.171289443969727,-6.185446739196777,6.876972198486328
1790264110194101800,18.509101806640626,-5.6685967445373535,-6.434299945831299,7.365108013153076
1790264110211356200,18.526356201171875,-6.0538411140441895,-6.39601469039917,7.140182971954346
1790264110228610800,18.54361083984375,-6.733402729034424,-6.510870456695557,7.17368221282959
1790264110245865500,18.560865478515623,-6.690331935882568,-6.52044153213501,7.41535758972168
1790264110263120000,18.578119873046877,-6.546762943267822,-6.391229152679443,7.41535758972168
1790264110280374500,18.59537451171875,-6.159125328063965,-6.166304111480713,6.9104719161987305
1790264110297629000,18.61262890625,-5.529813289642334,-6.281159400939941,6.616154670715332
1790264110314883300,18.62988330078125,-5.7786664962768555,-6.508477687835693,5.929414749145508
1790264110332137700,18.6471376953125,-5.78345251083374,-6.98704195022583,5.742774486541748
1790264110349392100,18.66439208984375,-5.242674350738525,-6.865008354187012,5.848058700561523
1790264110366646500,18.681646484375,-5.115854740142822,-6.355337142944336,5.670989513397217
1790264110383900700,18.698900634765625,-5.752345561981201,-5.831308841705322,5.941378593444824
1790264110401155000,18.716155029296875,-6.403193473815918,-5.826523303985596,5.986842155456543
1790264110418409500,18.733409423828125,-6.51326322555542,-6.307480335235596,5.740381717681885
1790264110435664000,18.750663818359374,-6.128018856048584,-6.8004021644592285,5.3455657958984375
1790264110452918300,18.767918212890624,-5.819344520568848,-7.118647575378418,5.048855781555176
1790264110470172700,18.785172607421874,-5.508277893066406,-7.16650390625,5.271388053894043
1790264110487427000,18.802427001953124,-6.0610198974609375,-7.018148899078369,5.92223596572876
1790264110504681500,18.819681396484373,-6.240481376647949,-6.7310099601745605,5.881557941436768
1790264110521936000,18.836935791015627,-5.3694939613342285,-7.082755088806152,5.242674350738525
1790264110539190300,18.854190185546877,-5.0703911781311035,-6.671189308166504,5.367101192474365
1790264110556444700,18.871444580078126,-5.745167255401611,-6.281159400939941,5.883950710296631
1790264110573698800,18.88869873046875,-5.766702651977539,-5.7547383308410645,6.290730953216553
1790264110590953500,18.905953369140626,-6.044270038604736,-5.31685209274292,6.52044153213501
1790264110608208000,18.923207763671876,-6.393621921539307,-5.036891460418701,6.702296257019043
1790264110625462500,18.940462646484374,-5.965306758880615,-4.8813581466674805,7.283751964569092
1790264110642717200,18.95771728515625,-5.848058700561523,-4.847858905792236,7.989634990692139
1790264110659971600,18.9749716796875,-5.910272121429443,-4.615755081176758,7.941778182983398
1790264110677226200,18.992226318359375,-5.414957523345947,-4.6372904777526855,7.57806921005249
1790264110694480600,19.009480712890625,-5.139782905578613,-4.694717884063721,6.809973239898682
1790264110711735000,19.026735107421874,-6.419943332672119,-4.587040901184082,5.843272686004639
1790264110728989400,19.043989501953124,-8.054241180419922,-4.548755645751953,5.056034088134766
1790264110746243800,19.061243896484374,-7.688138961791992,-4.754538536071777,5.142175674438477
1790264110763498200,19.078498291015624,-7.319644451141357,-5.197210788726807,6.058627128601074
1790264110780752600,19.095752685546874,-7.630711555480957,-5.410171985626221,7.197610378265381
1790264110798007000,19.113007080078123,-7.487142086029053,-5.2043890953063965,6.606583118438721
1790264110815261400,19.130261474609377,-8.030312538146973,-4.766502857208252,5.864808082580566
1790264110832515800,19.147515869140626,-8.609375953674316,-4.326223373413086,5.876772403717041
1790264110849770200,19.164770263671876,-8.561519622802734,-4.024727821350098,5.819344520568848
1790264110867024400,19.1820244140625,-8.310273170471191,-3.7471601963043213,5.599205017089844
1790264110884278800,19.19927880859375,-8.030312538146973,-3.486342668533325,5.828916072845459
1790264110901533200,19.216533203125,-7.661818027496338,-3.34995174407959,5.8719868659973145
1790264110918787600,19.23378759765625,-7.465606689453125,-3.404986619949341,5.467599868774414
1790264110936042000,19.2510419921875,-7.022934436798096,-3.4648072719573975,4.350151538848877
1790264110953296400,19.26829638671875,-6.32662296295166,-2.9766714572906494,3.658625841140747
1790264110970550800,19.28555078125,-7.393822193145752,-2.3880369663238525,3.5676984786987305
1790264110987805200,19.30280517578125,-9.049654960632324,-1.9956140518188477,3.5461630821228027
1790264111005059800,19.320059814453124,-8.652446746826172,-1.919043779373169,3.6155550479888916
1790264111022314200,19.337314208984374,-7.542177200317383,-1.6151553392410278,3.9385859966278076
1790264111039569000,19.35456884765625,-7.688138961791992,-1.6055840253829956,4.388436794281006
1790264111056823600,19.371823486328125,-8.353343963623047,-1.6175481081008911,3.90987229347229
1790264111074078200,19.389078125,-8.164310455322266,-1.428515076637268,3.335594654083252
1790264111091332600,19.40633251953125,-7.609176158905029,-1.0456634759902954,2.967100143432617
1790264111108587000,19.4235869140625,-7.3986077308654785,-0.727418065071106,2.895315408706665
1790264111125841400,19.44084130859375,-7.29093074798584,-0.7704889178276062,2.9383862018585205
1790264111143095800,19.458095703125,-7.767102241516113,-0.5479564070701599,2.4981069564819336
1790264111160350000,19.475349853515624,-7.259823799133301,-0.09571290761232376,2.6321048736572266
1790264111177604400,19.492604248046874,-7.300501823425293,0.24885354936122894,2.4335005283355713
1790264111194858800,19.509858642578124,-7.101897716522217,0.4378865361213684,1.97407865524292
1790264111212113200,19.527113037109373,-7.286144733428955,0.7896314859390259,2.117648124694824
1790264111229367600,19.544367431640627,-7.133004188537598,1.1270195245742798,2.4430718421936035
1790264111246622000,19.5616220703125,-7.106683254241943,0.9690931439399719,2.3545374870300293
1790264111263876400,19.57887646484375,-7.197610378265381,0.7082754969596863,2.5196423530578613
1790264111281130800,19.596130859375,-7.020541667938232,0.6293123364448547,2.0315065383911133
1790264111298385200,19.61338525390625,-7.9489569664001465,0.45942193269729614,2.857030153274536
1790264111315639600,19.6306396484375,-7.451249599456787,0.2991028428077698,4.168296813964844
1790264111332893700,19.647893798828125,-7.429714202880859,0.3038884699344635,4.412364959716797
1790264111350148000,19.665148193359375,-7.511070251464844,0.26081767678260803,4.053441524505615
1790264111367402500,19.682402587890625,-7.164111137390137,0.49292147159576416,4.01037073135376
1790264111384657000,19.699656982421875,-6.565905570983887,0.5264210104942322,4.309473514556885
1790264111401911600,19.71691162109375,-6.211767673492432,0.062213387340307236,4.096512317657471
1790264111419166200,19.734166259765626,-6.106483459472656,-0.4785645306110382,4.120440483093262
1790264111436420600,19.751420654296876,-5.54177713394165,-0.8446664214134216,4.479363918304443
1790264111453675300,19.76867529296875,-6.151947021484375,-1.155733346939087,3.9361932277679443
1790264111470930000,19.785929931640624,-7.554141044616699,-1.1365907192230225,3.7471601963043213
1790264111488184300,19.803184326171873,-7.429714202880859,-1.1724830865859985,3.8811583518981934
1790264111505438700,19.820438720703127,-7.04925537109375,-1.8400806188583374,4.07258415222168
1790264111522693000,19.837693115234377,-7.283751964569092,-2.6608188152313232,4.855037212371826
1790264111539947500,19.854947509765626,-8.532805442810059,-3.4025938510894775,5.1182475090026855
1790264111557202000,19.872201904296876,-9.30329418182373,-3.8907296657562256,5.091926574707031
1790264111574456300,19.889456298828126,-8.513663291931152,-4.718646049499512,5.170889854431152
1790264111591710700,19.906710693359376,-7.1856465339660645,-5.548955917358398,5.493920803070068
1790264111608965000,19.923965087890625,-6.838686943054199,-6.180660724639893,5.407779216766357
1790264111626219500,19.941219482421875,-7.910671710968018,-6.4319071769714355,5.151747226715088
1790264111643473700,19.9584736328125,-8.683553695678711,-6.032305717468262,4.8813581466674805
1790264111660728000,19.97572802734375,-8.635697364807129,-5.804987907409668,5.551348686218262
1790264111677982500,19.992982421875,-7.8077802658081055,-5.560919761657715,6.333801746368408
1790264111695236900,20.01023681640625,-7.319644451141357,-5.197210788726807,6.477370738983154
1790264111712491300,20.0274912109375,-7.451249599456787,-5.020142078399658,5.924628734588623
1790264111729745700,20.04474560546875,-7.29810905456543,-5.706881999969482,5.498706340789795
1790264111747000000,20.062,-6.604190349578857,-6.537191390991211,6.005984783172607
1790264111764254500,20.07925439453125,-5.453242778778076,-6.671189308166504,6.058627128601074
1790264111781508900,20.0965087890625,-5.498706340789795,-6.26440954208374,5.730810165405273
1790264111798763300,20.11376318359375,-6.522834300994873,-6.1710896492004395,5.9916276931762695
1790264111816017400,20.131017333984374,-7.250252723693848,-6.738188743591309,6.118447303771973
1790264111833271800,20.148271728515624,-7.195217609405518,-7.046862602233887,7.22871732711792
1790264111850526200,20.165526123046874,-7.118647575378418,-6.967899322509766,8.489734649658203
1790264111867780600,20.182780517578124,-7.355536937713623,-6.573083877563477,8.858229637145996
1790264111885035000,20.200034912109373,-6.927221775054932,-6.585047721862793,7.64028263092041
1790264111902289400,20.217289306640627,-5.142175674438477,-7.054041385650635,6.065805435180664
1790264111919543800,20.234543701171877,-3.7663028240203857,-7.381857872009277,5.467599868774414
1790264111936798200,20.251798095703126,-4.0079779624938965,-7.0061845779418945,4.893322467803955
1790264111954052600,20.269052490234376,-5.350351333618164,-6.489335060119629,4.862215518951416
1790264111971307000,20.28630712890625,-5.836094379425049,-6.216553211212158,5.31685209274292
1790264111988561400,20.3035615234375,-5.00578498840332,-6.314659118652344,5.527420520782471
1790264112005816000,20.320816162109374,-5.07517671585083,-6.690331935882568,4.974678039550781
1790264112023070500,20.338070556640623,-4.386044025421143,-6.98704195022583,4.575077056884766
1790264112040325000,20.3553251953125,-3.9385859966278076,-7.0683979988098145,4.113262176513672
1790264112057579800,20.372579833984375,-4.5583271980285645,-7.073183536529541,4.398007869720459
1790264112074834200,20.389834228515625,-5.594419479370117,-7.29093074798584,4.922036170959473
1790264112092088800,20.4070888671875,-6.178267955780029,-7.654639720916748,5.656632900238037
1790264112109343000,20.424343017578124,-6.5419769287109375,-8.066205024719238,6.166304111480713
1790264112126597400,20.441597412109374,-6.508477687835693,-7.551748275756836,6.580262184143066
1790264112143851800,20.458851806640624,-6.1088762283325195,-7.003791809082031,6.948757171630859
1790264112161106200,20.476106201171874,-5.953342914581299,-6.369693756103516,6.876972198486328
1790264112178360600,20.493360595703123,-6.1950178146362305,-5.883950710296631,6.398407936096191
1790264112195615000,20.510614990234377,-6.262016773223877,-5.795416355133057,6.159125328063965
1790264112212869400,20.527869384765626,-6.16391134262085,-5.733202934265137,6.376872539520264
1790264112230123800,20.545123779296876,-5.994020938873291,-5.6446685791015625,6.908079147338867
1790264112247378200,20.562378173828126,-6.932007312774658,-5.546562671661377,6.254838466644287
1790264112264632600,20.579632568359376,-7.159325122833252,-5.565705299377441,5.618347644805908
1790264112281886700,20.59688671875,-6.474977970123291,-5.438885688781738,4.984249591827393
1790264112299141000,20.61414111328125,-6.927221775054932,-5.132604598999023,5.374279499053955
1790264112316395500,20.6313955078125,-7.779066562652588,-4.6061835289001465,5.924628734588623
1790264112333650000,20.64864990234375,-8.298309326171875,-4.500899314880371,6.3361945152282715
1790264112350904300,20.665904296875,-8.628518104553223,-4.522434711456299,6.613761901855469
1790264112368158700,20.68315869140625,-8.02074146270752,-4.783252239227295,6.4079790115356445
1790264112385413000,20.7004130859375,-7.534998416900635,-4.95074987411499,5.910272121429443
1790264112402667500,20.71766748046875,-7.4464640617370605,-4.823930263519287,6.005984783172607
1790264112419922000,20.734921875,-7.671389579772949,-4.445864677429199,5.807380676269531
1790264112437176300,20.75217626953125,-7.9585280418396,-4.328616142272949,5.663811206817627
1790264112454430700,20.7694306640625,-8.590232849121094,-4.242474555969238,5.053641319274902
1790264112471684900,20.786684814453125,-8.34138011932373,-3.902693748474121,4.40757942199707
1790264112488939300,20.803939208984374,-6.7621169090271,-2.9958138465881348,4.230510234832764
1790264112506193700,20.821193603515624,-7.506284713745117,-2.6273193359375,4.565505504608154
1790264112523448000,20.838447998046874,-7.913064479827881,-2.651247501373291,4.051048755645752
1790264112540702500,20.855702392578124,-8.62612533569336,-2.5986053943634033,3.249453067779541
1790264112557956900,20.872956787109374,-7.850851058959961,-2.155933141708374,2.7493531703948975
1790264112575211300,20.890211181640623,-8.176275253295898,-1.6534404754638672,2.7110681533813477
1790264112592465700,20.907465576171877,-8.628518104553223,-1.4835500717163086,2.4406790733337402
1790264112609720000,20.924719970703126,-7.989634990692139,-1.4069796800613403,2.5603201389312744
1790264112626974500,20.941974365234376,-6.350551128387451,-1.3902299404144287,1.6079767942428589
1790264112644228600,20.959228515625,-7.149754047393799,-1.0001999139785767,1.7419748306274414
1790264112661483000,20.97648291015625,-7.130611419677734,-0.8303094506263733,1.4859428405761719
1790264112678737400,20.9937373046875,-7.779066562652588,-0.49292147159576416,1.8735800981521606
1790264112695992000,21.010991943359375,-7.707281589508057,-0.39481574296951294,3.4504501819610596
1790264112713246500,21.02824658203125,-7.113861560821533,-0.4905286431312561,4.175475597381592
1790264112730501000,21.045501220703127,-6.4941205978393555,-0.2847459018230438,3.201596736907959
1790264112747755800,21.062755859375,-6.905686378479004,0.6029912829399109,2.438286304473877
1790264112765010400,21.080010498046875,-6.5419769287109375,1.3351950645446777,2.3330020904541016
1790264112782264800,21.097264892578124,-5.747560024261475,1.215553879737854,2.4430718421936035
1790264112799519200,21.114519287109374,-5.972485542297363,0.8374879360198975,0.6747759580612183
1790264112816773600,21.131773681640624,-7.977670669555664,0.576670229434967,0.9786644577980042
1790264112834028000,21.149028076171874,-7.401000499725342,0.35892340540885925,1.9381862878799438
1790264112851282400,21.166282470703123,-7.5708909034729,0.02871387079358101,3.2039895057678223
1790264112868536800,21.183536865234377,-7.3052873611450195,0.016749758273363113,4.240081787109375
1790264112885791200,21.200791259765627,-6.295516490936279,-0.02871387079358101,3.651447296142578
1790264112903045600,21.218045654296876,-6.6831536293029785,-0.2967100143432617,2.3473589420318604
1790264112920300000,21.235300048828126,-8.01356315612793,-0.28235307335853577,2.6632115840911865
1790264112937554200,21.25255419921875,-7.365108013153076,-0.2847459018230438,4.230510234832764
1790264112954808600,21.26980859375,-6.183053493499756,-0.7154539823532104,5.4173502922058105
1790264112972063000,21.28706298828125,-5.749952793121338,-1.3615161180496216,5.314459323883057
1790264112989317400,21.3043173828125,-7.381857872009277,-1.397408366203308,4.646861553192139
1790264113006571800,21.32157177734375,-8.606983184814453,-1.4189438819885254,4.417150497436523
1790264113023826200,21.338826171875,-7.568498134613037,-1.734796404838562,4.5391845703125
1790264113041080600,21.35608056640625,-6.678368091583252,-2.117648124694824,4.826323509216309
1790264113058335000,21.3733349609375,-6.742974281311035,-2.586641311645508,5.06082010269165
1790264113075589400,21.39058935546875,-8.882157325744629,-2.720639228820801,5.395814895629883
1790264113092843800,21.40784375,-9.667003631591797,-3.029313564300537,5.13021183013916
1790264113110098000,21.425097900390625,-8.109275817871094,-3.950550079345703,4.800002098083496
1790264113127352300,21.442352294921875,-6.754938125610352,-5.0225348472595215,4.867001056671143
1790264113144606700,21.459606689453125,-8.219346046447754,-5.594419479370117,5.087141036987305
1790264113161861000,21.476861083984375,-9.083154678344727,-5.326423168182373,5.340780258178711
1790264113179115500,21.494115478515624,-7.334001541137695,-5.656632900238037,5.218746185302734
1790264113196370000,21.511369873046874,-6.300302028656006,-6.017949104309082,4.835894584655762
1790264113213624300,21.528624267578124,-7.477570533752441,-6.223731517791748,4.991427898406982
1790264113230878700,21.545878662109374,-8.133204460144043,-6.0610198974609375,5.747560024261475
1790264113248133000,21.563133056640623,-6.726224422454834,-5.960521221160889,6.276373863220215
1790264113265387500,21.580387451171877,-6.173482418060303,-6.20219612121582,6.314659118652344
1790264113282641700,21.5976416015625,-7.755138397216797,-6.498906135559082,6.2500529289245605
1790264113299896000,21.61489599609375,-7.934599876403809,-6.522834300994873,6.5252275466918945
1790264113317150500,21.632150390625,-6.6113691329956055,-6.436692714691162,6.738188743591309
1790264113334404900,21.64940478515625,-6.027520179748535,-6.795616149902344,7.386643409729004
1790264113351659300,21.6666591796875,-5.714060306549072,-6.850651264190674,7.743174076080322
1790264113368913700,21.68391357421875,-5.3934221267700195,-6.819544315338135,7.018148899078369
1790264113386168000,21.70116796875,-5.709274768829346,-6.6831536293029785,5.893522262573242
1790264113403422500,21.71842236328125,-6.096911907196045,-6.26440954208374,5.800201892852783
1790264113420676900,21.7356767578125,-6.159125328063965,-6.161518096923828,6.565905570983887
1790264113437931300,21.75293115234375,-6.113661766052246,-6.735795974731445,6.620940208435059
1790264113455185700,21.770185546875,-6.295516490936279,-7.2574310302734375,5.6925249099731445
1790264113472439800,21.787439697265626,-6.1710896492004395,-7.410571575164795,5.283352375030518
1790264113489694200,21.804694091796875,-5.391029357910156,-7.240681171417236,5.436492919921875
1790264113506948600,21.821948486328125,-4.7712883949279785,-7.190432071685791,4.902893543243408
1790264113524203000,21.839203125,-5.170889854431152,-7.592426300048828,4.07258415222168
1790264113541457400,21.85645751953125,-6.010770320892334,-7.987242221832275,3.4241292476654053
1790264113558711800,21.8737119140625,-5.819344520568848,-7.891529083251953,3.6394832134246826
1790264113575966200,21.89096630859375,-5.477170944213867,-7.491927623748779,4.658825874328613
1790264113593220600,21.908220703125,-5.867201328277588,-7.264609336853027,4.890929698944092
1790264113610475000,21.92547509765625,-6.288337707519531,-7.202396392822266,5.20678186416626
1790264113627729400,21.9427294921875,-6.317051887512207,-6.91765022277832,5.821737289428711
1790264113644983600,21.959983642578123,-6.623332977294922,-6.4941205978393555,6.398407936096191
1790264113662238000,21.977238037109377,-7.307680130004883,-6.465406894683838,6.4941205978393555
1790264113679492400,21.994492431640627,-7.190432071685791,-6.709474563598633,6.740581512451172
1790264113696746800,22.011746826171876,-5.9916276931762695,-6.5874409675598145,6.936792850494385
1790264113714001200,22.029001220703126,-5.4173502922058105,-6.592226505279541,6.429514408111572
1790264113731255600,22.046255615234376,-5.266602516174316,-6.57547664642334,6.271588325500488
