time,seconds_elapsed,z,y,x
1790264091743954400,0.058954345703125,-0.35414886474609375,0.573602020740509,-0.38728827238082886
1790264091761208800,0.076208740234375,-0.3107774555683136,0.23945899307727814,-0.46425724029541016
1790264091778463500,0.09346337890625,-0.21975859999656677,-0.12767073512077332,-0.4098902642726898
1790264091795718100,0.11071826171875,-0.402407169342041,-0.5051851868629456,-0.4257727563381195
1790264091812972500,0.12797265625,-0.6876810193061829,-0.8686497211456299,-0.4581485986709595
1790264091830227200,0.145227294921875,-0.8807142972946167,-1.3188570737838745,-0.3543015718460083
1790264091847481600,0.162481689453125,-0.836121141910553,-1.1148282289505005,-0.1747073233127594
1790264091864736300,0.179736328125,-0.5013672709465027,-0.5998691916465759,-0.06719512492418289
1790264091881990700,0.19699072265625,0.0948367565870285,-0.36835145950317383,0.09529490768909454
1790264091899245300,0.214245361328125,0.5658134818077087,-0.6181951761245728,0.30543237924575806
1790264091916499700,0.231499755859375,0.7686206102371216,-0.4880809485912323,0.5180133581161499
1790264091933754000,0.248754150390625,0.7338013052940369,0.27488914132118225,0.6023126840591431
1790264091951008800,0.2660087890625,0.5090031027793884,1.544877052307129,0.5381718873977661
1790264091968263400,0.283263427734375,0.23777911067008972,2.75744366645813,0.2919933497905731
1790264091985517800,0.300517822265625,0.264046311378479,1.1673625707626343,-0.23762640357017517
1790264092002772500,0.3177724609375,0.3208567202091217,-0.5601630210876465,-1.0299180746078491
1790264092020027000,0.33502685546875,0.5426006317138672,-1.1032217741012573,-1.6908737421035767
1790264092037281500,0.352281494140625,0.8339831233024597,-1.7812817096710205,-1.9272783994674683
1790264092054536000,0.369535888671875,0.9604321718215942,-2.5894558429718018,-1.7037018537521362
1790264092071790600,0.38679052734375,1.0361794233322144,-2.526536703109741,-1.2272273302078247
1790264092089045000,0.404044921875,1.244484305381775,-0.9175189137458801,-0.3585776388645172
1790264092106299600,0.421299560546875,1.3794853687286377,0.20341797173023224,0.6267472505569458
1790264092123554000,0.438553955078125,1.4149155616760254,1.26021409034729,1.351232886314392
1790264092140808700,0.45580859375,1.4246894121170044,2.291353702545166,1.6609413623809814
1790264092158063000,0.47306298828125,0.9030108451843262,0.7770199775695801,0.9737184643745422
1790264092175317800,0.49031787109375,-0.25213444232940674,-0.8710931539535522,-0.13133592903614044
1790264092192572200,0.507572265625,-0.1727220118045807,-0.7006618976593018,-0.0513126403093338
1790264092209826800,0.524826904296875,0.15042544901371002,-1.0348049402236938,-0.24251331388950348
1790264092227081200,0.542081298828125,0.18524473905563354,-1.339626431465149,-0.2730565667152405
1790264092244335900,0.5593359375,0.2292270064353943,-1.249218463897705,-0.1337793916463852
1790264092261590300,0.57659033203125,0.38988444209098816,-1.4685189723968506,-0.13683371245861053
1790264092278845000,0.593844970703125,0.4644099473953247,-1.5302162170410156,-0.2675587832927704
1790264092296099300,0.611099365234375,0.38988444209098816,-2.1160356998443604,-0.2364046722650528
1790264092313354000,0.62835400390625,0.19074252247810364,-2.1117594242095947,-0.0720820426940918
1790264092330608400,0.6456083984375,-0.02611446939408779,-1.1673625707626343,-0.1496618688106537
1790264092347863000,0.662863037109375,-0.021838415414094925,-0.4990765154361725,-0.2156352698802948
1790264092365117400,0.680117431640625,0.2292270064353943,-0.4471530318260193,-0.33719736337661743
1790264092382372000,0.6973720703125,0.43692103028297424,-0.27916520833969116,-0.45998117327690125
1790264092399626500,0.71462646484375,0.4130973219871521,-0.14110976457595825,-0.4221075773239136
1790264092416881200,0.731881103515625,0.37094762921333313,0.06597339361906052,-0.1185077652335167
1790264092434135600,0.749135498046875,0.37949973344802856,0.2632827162742615,0.3121519088745117
1790264092451390200,0.76639013671875,0.27626359462738037,-0.07819069176912308,0.6151408553123474
1790264092468644600,0.78364453125,0.16508620977401733,-0.17715078592300415,0.6939423680305481
1790264092485899300,0.800899169921875,0.08078686892986298,0.013439024798572063,0.4526508152484894
1790264092503153700,0.818153564453125,0.14370593428611755,0.18631376326084137,0.2211330533027649
1790264092520408300,0.835408203125,0.19440771639347076,0.2101374864578247,0.06963858753442764
1790264092537662700,0.852662841796875,-0.05238165333867073,-0.023823726922273636,-0.10873392969369888
1790264092554917400,0.86991748046875,-0.4237874448299408,-0.4459312856197357,-0.28038692474365234
1790264092572171800,0.887171875,-0.46227192878723145,-0.3946186602115631,-0.2632827162742615
1790264092589426400,0.904426513671875,-0.10797034949064255,-0.23029601573944092,-0.2205221801996231
1790264092606680800,0.921680908203125,0.19624030590057373,-0.09407317638397217,-0.30054548382759094
1790264092623935500,0.938935546875,0.20173808932304382,0.14782927930355072,-0.42882707715034485
1790264092641190000,0.95618994140625,0.16325360536575317,0.32070401310920715,-0.44470956921577454
1790264092658444300,0.9734443359375,0.11988221108913422,0.14294235408306122,-0.3396408259868622
1790264092675699000,0.990698974609375,0.08078686892986298,-0.12583814561367035,-0.11484257876873016
1790264092692953600,1.00795361328125,0.09666935354471207,-0.36285367608070374,0.017104214057326317
1790264092710208000,1.0252080078125,0.16081015765666962,-0.4819723069667816,-0.007941242307424545
1790264092727462400,1.04246240234375,0.20906847715377808,-0.42455101013183594,-0.05925388261675835
1790264092744717000,1.059717041015625,0.19562944769859314,-0.22846342623233795,0.0513126403093338
1790264092761971500,1.076971435546875,0.18096868693828583,-0.14782927930355072,0.21380266547203064
1790264092779226000,1.09422607421875,0.20967933535575867,-0.20402882993221283,0.2816086709499359
1790264092796480800,1.111480712890625,0.18524473905563354,-0.40744680166244507,0.3335321843624115
1790264092813735200,1.128735107421875,0.1308777779340744,-0.6493492722511292,0.4728093445301056
1790264092830989600,1.145989501953125,0.055741410702466965,-0.768467903137207,0.49541133642196655
1790264092848244200,1.163244140625,-0.0102319847792387,-0.6725621223449707,0.3231474757194519
1790264092865498600,1.18049853515625,-0.0010690133785828948,-0.4886918365955353,0.07513637095689774
1790264092882753300,1.197753173828125,0.09728021919727325,-0.14477495849132538,0.05192350596189499
1790264092900007700,1.215007568359375,0.16096286475658417,-0.20952661335468292,0.2052505612373352
1790264092917262300,1.232262451171875,0.05955931544303894,-0.7709113359451294,0.16676609218120575
1790264092934516700,1.249516845703125,0.016187917441129684,-1.1502584218978882,0.007941242307424545
1790264092951771400,1.266771484375,0.1701258420944214,-1.2620465755462646,0.007330377586185932
1790264092969025800,1.28402587890625,0.28924447298049927,-1.176525592803955,0.02626718580722809
1790264092986280400,1.301280517578125,0.20189081132411957,-0.6041452884674072,-0.2883281707763672
1790264093003534800,1.318534912109375,0.044898562133312225,-0.02260199747979641,-0.6597339510917664
1790264093020789500,1.33578955078125,0.051618073135614395,0.23335035145282745,-0.7874047160148621
1790264093038044000,1.3530439453125,0.014966187067329884,0.14294235408306122,-0.6878337264060974
1790264093055298600,1.370298583984375,-0.07299833744764328,-0.08613193035125732,-0.546113133430481
1790264093072553000,1.387552978515625,-0.10415244847536087,-0.17653992772102356,-0.3536907136440277
1790264093089807600,1.4048076171875,-0.06505709886550903,-0.2364046722650528,-0.12950333952903748
1790264093107062000,1.42206201171875,-0.1493564397096634,-0.48930269479751587,0.025045456364750862
1790264093124316400,1.43931640625,-0.2868010103702545,-0.536339282989502,0.01649334840476513
1790264093141571000,1.456571044921875,-0.27580544352531433,-0.3854556679725647,-0.059864748269319534
1790264093158825500,1.473825439453125,-0.2110537886619568,-0.28038692474365234,0.09651663154363632
1790264093176080100,1.491080078125,-0.20616686344146729,-0.536339282989502,0.23823726177215576
1790264093193334500,1.50833447265625,-0.2513708472251892,-0.7324268817901611,0.26511532068252563
1790264093210589200,1.525589111328125,-0.16035200655460358,-0.7006618976593018,0.18692462146282196
1790264093227843600,1.542843505859375,0.035124726593494415,-0.5613847374916077,0.05864302068948746
1790264093245098200,1.56009814453125,0.21960589289665222,-0.5943714380264282,-0.020158538594841957
1790264093262352600,1.5773525390625,0.31612253189086914,-0.8491020202636719,-0.015271619893610477
1790264093279607300,1.594607177734375,0.26969680190086365,-1.3029745817184448,0.09285144507884979
1790264093296861700,1.61186181640625,0.37293294072151184,-2.0836596488952637,0.2883281707763672
1790264093314116000,1.6291162109375,0.6814196705818176,-3.2601852416992188,0.6139190793037415
1790264093331370800,1.646370849609375,0.39186975359916687,-4.243677616119385,1.0079269409179688
1790264093348625400,1.66362548828125,0.6472112536430359,-5.456243991851807,1.454469084739685
1790264093365879800,1.6808798828125,1.4847068786621094,-7.051212310791016,2.012188673019409
1790264093383134500,1.698134521484375,2.1975860595703125,-8.403056144714355,2.707963466644287
1790264093400388900,1.715388916015625,2.276998519897461,-9.143424034118652,3.4495534896850586
1790264093417643300,1.732643310546875,2.5079052448272705,-9.45985221862793,4.422660827636719
1790264093434898000,1.74989794921875,2.777907609939575,-9.370665550231934,4.762912750244141
1790264093452152300,1.76715234375,3.3380706310272217,-8.630908012390137,4.152048110961914
1790264093469407000,1.784406982421875,3.858527421951294,-7.074425220489502,3.031721830368042
1790264093486661400,1.801661376953125,4.186561584472656,-5.035358428955078,1.9559890031814575
1790264093503916000,1.818916015625,4.512763500213623,-3.163057804107666,1.1710277795791626
1790264093521170400,1.83617041015625,4.914101600646973,-1.3274091482162476,0.39217519760131836
1790264093538425000,1.853425048828125,5.392408847808838,0.17715078592300415,-0.42821621894836426
1790264093555679500,1.870679443359375,5.564061641693115,0.9297361969947815,-0.8649845123291016
1790264093572934100,1.88793408203125,5.108356952667236,1.249218463897705,-0.6597339510917664
1790264093590188500,1.9051884765625,3.761399984359741,1.5741984844207764,0.08307760953903198
1790264093607443000,1.92244287109375,2.702160358428955,1.3280199766159058,0.8686497211456299
1790264093624697600,1.939697509765625,2.266613721847534,0.8161153197288513,1.361006736755371
1790264093641952000,1.956951904296875,1.9825615882873535,0.3995055556297302,1.7134757041931152
1790264093659206700,1.97420654296875,1.553734540939331,0.2864955961704254,1.8014402389526367
1790264093676461000,1.9914609375,1.036942958831787,0.2926042377948761,1.7568471431732178
1790264093693715700,2.0087158203125,0.46456265449523926,0.0873536616563797,1.5809180736541748
1790264093710970000,2.02597021484375,-0.054672397673130035,-0.4050033390522003,1.4734058380126953
1790264093728224800,2.043224853515625,-0.5598575472831726,-0.21135921776294708,1.2424989938735962
1790264093745479200,2.060479248046875,-1.339931845664978,0.01282816007733345,0.8729257583618164
1790264093762733800,2.07773388671875,-1.840230107307434,-0.47525280714035034,0.5406153202056885
1790264093779988200,2.09498828125,-2.051589250564575,-1.2156208753585815,0.18875721096992493
1790264093797242600,2.11224267578125,-1.7626503705978394,-1.5894701480865479,-0.3231474757194519
1790264093814497300,2.129497314453125,-1.747989535331726,-1.6084070205688477,-0.6530144214630127
1790264093831751700,2.146751708984375,-2.201251268386841,-2.455676317214966,-0.49418962001800537
1790264093849006300,2.16400634765625,-2.4834706783294678,-3.7983572483062744,-0.1178968995809555
1790264093866260700,2.1812607421875,-2.436434268951416,-4.148382663726807,-0.370184063911438
1790264093883515400,2.198515380859375,-2.3625195026397705,-3.2204790115356445,-0.8069523572921753
1790264093900769800,2.215769775390625,-2.5799872875213623,-2.9352052211761475,-1.247385859489441
1790264093918024400,2.2330244140625,-2.1297800540924072,-2.6560399532318115,-1.3280199766159058
1790264093935278800,2.25027880859375,-1.6777400970458984,-2.1508548259735107,-1.092226266860962
1790264093952533200,2.267533203125,-1.5115848779678345,-2.020129919052124,-1.0054833889007568
1790264093969788000,2.284787841796875,-1.2831214666366577,-2.0390665531158447,-0.5424479246139526
1790264093987042300,2.302042236328125,-1.3081669807434082,-1.8368704319000244,-0.34636032581329346
1790264094004297000,2.319296875,-1.2721259593963623,-1.7385212182998657,-0.4312705397605896
1790264094021551400,2.33655126953125,-0.9483675956726074,-1.4648537635803223,-0.29077163338661194
1790264094038806000,2.353805908203125,-0.6948586702346802,-0.915075421333313,-0.3750709891319275
1790264094056060400,2.371060302734375,-0.48594292998313904,-0.6230821013450623,-0.3640754222869873
1790264094073315000,2.388315185546875,-0.210442915558815,-0.7733548283576965,-0.23029601573944092
1790264094090569500,2.405569580078125,0.4566214084625244,-0.5980366468429565,-0.5100721120834351
1790264094107823900,2.422823974609375,1.416900873184204,0.6914989352226257,-1.323133111000061
1790264094125078500,2.44007861328125,1.6899573802947998,1.3597849607467651,-1.618180751800537
1790264094142333000,2.4573330078125,1.4523310661315918,1.193018913269043,-1.1307107210159302
1790264094159587600,2.474587646484375,0.9685261249542236,0.29077163338661194,-0.4581485986709595
1790264094176842000,2.491842041015625,0.8323032855987549,-0.6713404059410095,0.08979712426662445
1790264094194096400,2.509096435546875,0.5885682106018066,-1.711643099784851,0.09957095980644226
1790264094211350800,2.526350830078125,0.018631376326084137,-1.4343105554580688,-0.3194822669029236
1790264094228605200,2.543605224609375,-0.7797688841819763,0.1337793916463852,-0.3249800503253937
1790264094245859600,2.560859619140625,-1.1163554191589355,1.250440239906311,0.7464767694473267
1790264094263114000,2.578114013671875,-1.3332123756408691,0.6041452884674072,1.2131774425506592
1790264094280368400,2.595368408203125,-2.143218994140625,-0.24495677649974823,0.8533781170845032
1790264094297622800,2.612622802734375,-2.112065076828003,0.10934479534626007,0.3194822669029236
1790264094314877400,2.62987744140625,-1.5445716381072998,0.37262752652168274,-0.19792018830776215
1790264094332132000,2.647132080078125,-1.6129884719848633,-0.01649334840476513,-0.5589412450790405
1790264094349386500,2.664386474609375,-2.0418155193328857,-0.0409279391169548,-0.4276053309440613
1790264094366641200,2.68164111328125,-2.366184711456299,-0.07574722915887833,-0.30482152104377747
1790264094383895800,2.698895751953125,-2.5353941917419434,-0.043371398001909256,-0.40927940607070923
1790264094401150200,2.716150146484375,-2.383288860321045,-0.0665842592716217,-0.23823726177215576
1790264094418404900,2.73340478515625,-1.9202533960342407,0.010384701192378998,0.16065743565559387
1790264094435659500,2.750659423828125,-1.2562434673309326,0.02871064469218254,-0.002443459117785096
1790264094452914200,2.7679140625,-0.8060360550880432,0.24862197041511536,-0.4043924808502197
1790264094470168600,2.78516845703125,-0.4718930423259735,0.5192350745201111,-0.462424635887146
1790264094487423200,2.80242333984375,-0.05589412897825241,0.8753692507743835,-0.4043924808502197
1790264094504677600,2.819677734375,0.4205803871154785,1.5393792390823364,-0.9388991594314575
1790264094521932000,2.83693212890625,1.0247256755828857,2.3658792972564697,-1.785557746887207
1790264094539186400,2.8541865234375,1.3930771350860596,2.1661264896392822,-1.5442661046981812
1790264094556440600,2.871440673828125,0.7308996915817261,1.6169590950012207,-1.2486076354980469
1790264094573695000,2.888695068359375,0.16035200655460358,1.053130865097046,-0.8894191384315491
1790264094590949400,2.905949462890625,0.30634868144989014,0.8894191384315491,-0.32131487131118774
1790264094608204000,2.9232041015625,0.41874781250953674,0.47036588191986084,0.04886918142437935
1790264094625458700,2.940458740234375,0.40408703684806824,0.46425724029541016,-0.07452550530433655
1790264094642713300,2.95771337890625,0.3704894781112671,0.934623122215271,-0.27488914132118225
1790264094659967700,2.9749677734375,0.4474584460258484,1.1062761545181274,-0.22479823231697083
1790264094677222400,2.992222412109375,0.4315759539604187,0.5082395076751709,0.16676609218120575
1790264094694477000,3.00947705078125,0.2831358313560486,-0.3536907136440277,0.7635809779167175
1790264094711731500,3.0267314453125,0.33139413595199585,-0.40255987644195557,1.3451242446899414
1790264094728986000,3.043986083984375,0.4987711012363434,-0.002443459117785096,2.2339324951171875
1790264094746240800,3.06124072265625,0.41813695430755615,0.39278605580329895,2.6804747581481934
1790264094763495400,3.078495361328125,0.5708531141281128,0.4520399272441864,1.5625921487808228
1790264094780749800,3.095749755859375,0.6062833070755005,0.17531819641590118,0.7562506198883057
1790264094798004200,3.113004150390625,0.35705047845840454,-0.43982264399528503,0.861319363117218
1790264094815258600,3.130258544921875,0.11148282140493393,-0.7898481488227844,0.9376774430274963
1790264094832513000,3.147512939453125,0.2971857190132141,-0.9694424271583557,1.0525200366973877
1790264094849767400,3.164767333984375,0.6520981788635254,-0.9132428169250488,1.119104266166687
1790264094867021800,3.182021728515625,0.6685914993286133,-0.8014546036720276,1.1001675128936768
1790264094884276200,3.199276123046875,0.7144063711166382,-0.6084213256835938,0.9498947262763977
1790264094901531000,3.21653076171875,0.8555161356925964,-0.38667741417884827,0.9834923148155212
1790264094918785300,3.233785400390625,0.9049961566925049,0.1178968995809555,0.822834849357605
1790264094936040000,3.2510400390625,0.5531380772590637,0.004276053514331579,0.5216785073280334
1790264094953294600,3.268294677734375,0.17318016290664673,-0.3231474757194519,0.35735589265823364
1790264094970549200,3.28554931640625,-0.05894844979047775,-0.5436696410179138,0.205861434340477
1790264094987803600,3.3028037109375,-0.35705047845840454,-0.5271763205528259,0.2724456787109375
1790264095005058300,3.320058349609375,-0.5378664135932922,-0.31031930446624756,0.3689623177051544
1790264095022313000,3.33731298828125,-0.3790415823459625,-0.09529490768909454,0.235793799161911
1790264095039567400,3.3545673828125,-0.5549706816673279,-0.20463970303535461,0.039706211537122726
1790264095056822000,3.371822021484375,-0.980743408203125,-0.472198486328125,0.13194678723812103
1790264095074076700,3.38907666015625,-1.2733476161956787,-0.6365211009979248,-0.04520399495959282
1790264095091331300,3.406331298828125,-1.2788454294204712,-0.5076286196708679,-0.45875945687294006
1790264095108585700,3.423585693359375,-1.5274673700332642,-0.730594277381897,-0.739757239818573
1790264095125840400,3.44084033203125,-1.821904182434082,-1.9382739067077637,-1.0134246349334717
1790264095143095000,3.458094970703125,-2.08457612991333,-2.1087052822113037,-1.3255765438079834
1790264095160349400,3.475349365234375,-1.3222168684005737,-0.4202749729156494,-0.7220421433448792
1790264095177604000,3.49260400390625,0.019853105768561363,0.6933315396308899,-0.14233149588108063
1790264095194858500,3.5098583984375,-0.31551164388656616,0.8680388331413269,-0.7904590368270874
1790264095212113000,3.52711279296875,-0.8109229803085327,0.5717694163322449,-1.9608759880065918
1790264095229367300,3.5443671875,-0.39675667881965637,0.8124501705169678,-2.3958115577697754
1790264095246621700,3.56162158203125,0.4877755343914032,1.0580178499221802,-1.64566969871521
1790264095263876000,3.5788759765625,0.26969680190086365,0.23335035145282745,-1.2956441640853882
1790264095281130500,3.596130615234375,0.08765909820795059,-0.7006618976593018,-1.191797137260437
1790264095298385000,3.613385009765625,0.8732311725616455,-0.20708316564559937,-1.2608249187469482
1790264095315639600,3.6306396484375,1.3307689428329468,0.26389357447624207,-1.7153083086013794
1790264095332894200,3.647894287109375,1.405294418334961,0.25411975383758545,-1.2815942764282227
1790264095350148900,3.66514892578125,1.4407246112823486,-0.42088583111763,-0.6126973628997803
1790264095367403300,3.6824033203125,1.0522146224975586,-0.4990765154361725,-0.4098902642726898
1790264095384658000,3.699657958984375,1.2202024459838867,-0.7415898442268372,-0.6175842881202698
1790264095401912600,3.71691259765625,1.887266755104065,-0.9272927641868591,-0.4630354940891266
1790264095419167000,3.7341669921875,2.165821075439453,-0.861319363117218,-0.013439024798572063
1790264095436421600,3.751421630859375,2.0241005420684814,-1.0134246349334717,0.1649334877729416
1790264095453676300,3.76867626953125,2.2421791553497314,-1.3213005065917969,0.3585776388645172
1790264095470931000,3.785930908203125,2.014937400817871,-2.0219624042510986,0.7012727856636047
1790264095488185300,3.803185302734375,1.4834851026535034,-2.7281219959259033,0.9266818761825562
1790264095505440000,3.82043994140625,0.619722306728363,-3.788583278656006,1.8643592596054077
1790264095522694400,3.8376943359375,0.5421425104141235,-4.595535755157471,3.3261587619781494
1790264095539949000,3.854948974609375,1.5989385843276978,-5.097055912017822,4.456258773803711
1790264095557203700,3.87220361328125,0.8310815095901489,-0.7770199775695801,2.4623959064483643
1790264095574458400,3.889458251953125,1.5048654079437256,2.4287984371185303,0.3042106628417969
1790264095591712800,3.906712646484375,2.6917755603790283,2.011577606201172,0.4251618981361389
1790264095608967200,3.92396728515625,2.830441951751709,1.360395908355713,0.25411975383758545
1790264095626221600,3.9412216796875,2.1969752311706543,1.6401718854904175,0.4471530318260193
1790264095643476000,3.95847607421875,2.0827434062957764,2.0250167846679688,1.2541054487228394
1790264095660730400,3.97573046875,1.8726060390472412,1.8289291858673096,1.528383731842041
1790264095677984800,3.99298486328125,1.8457279205322266,3.5283548831939697,0.7984002828598022
1790264095695239200,4.0102392578125,3.4162611961364746,2.937037944793701,0.5888736248016357
1790264095712493800,4.027493896484375,3.4016005992889404,1.5821397304534912,0.6456840634346008
1790264095729748200,4.044748291015625,1.6209297180175781,-1.32985258102417,0.18814635276794434
1790264095747003000,4.0620029296875,0.3228420317173004,-3.2870633602142334,-0.1484401375055313
1790264095764257500,4.079257568359375,0.6068941354751587,-2.970635414123535,-0.6139190793037415
1790264095781512000,4.096511962890625,1.6300926208496094,-2.178954601287842,-0.9902117848396301
1790264095798766600,4.1137666015625,2.7418665885925293,-3.277900457382202,-0.48075059056282043
1790264095816021200,4.131021240234375,3.073566198348999,-3.7684247493743896,0.7855721116065979
1790264095833276000,4.14827587890625,1.038164734840393,-1.0329723358154297,1.3322961330413818
1790264095850530300,4.1655302734375,-0.3692677617073059,-0.8002328872680664,1.1368193626403809
1790264095867785000,4.182784912109375,-0.11759147047996521,-1.397047758102417,1.4966187477111816
1790264095885039600,4.20003955078125,0.06444623321294785,-1.1239912509918213,1.4184280633926392
1790264095902294000,4.2172939453125,0.14569124579429626,-0.2669478952884674,0.4929678738117218
1790264095919548700,4.234548583984375,0.4150826036930084,-0.10995566099882126,-0.47525280714035034
1790264095936803300,4.25180322265625,0.4871646761894226,-0.10873392969369888,-0.6505709886550903
1790264095954058000,4.26905810546875,0.41813695430755615,-0.5485565662384033,-0.44409868121147156
1790264095971312400,4.2863125,0.01740964688360691,-0.8717040419578552,-0.1747073233127594
1790264095988567000,4.303567138671875,-0.48105600476264954,-0.1905898153781891,-0.25961753726005554
1790264096005821700,4.32082177734375,-0.6618719696998596,0.05925388261675835,-0.33231043815612793
1790264096023076000,4.338076171875,-0.38270679116249084,-0.3854556679725647,-0.3078758418560028
1790264096040330800,4.355330810546875,-0.2672533392906189,-0.5962040424346924,0.03848448023200035
1790264096057585400,4.37258544921875,-0.1585194170475006,-0.5082395076751709,0.3659079968929291
1790264096074840000,4.389840087890625,-0.024740023538470268,-0.4526508152484894,0.7165443897247314
1790264096092094500,4.407094482421875,-0.17195843160152435,-0.46486809849739075,1.053741693496704
1790264096109348900,4.424348876953125,-0.5934551358222961,0.03543015569448471,0.4667007029056549
1790264096126603300,4.441603271484375,-1.1523964405059814,-0.11484257876873016,-0.6322450637817383
1790264096143857700,4.458857666015625,-0.6539307236671448,-0.2993237376213074,-0.870482325553894
1790264096161112000,4.476112060546875,0.10659590363502502,0.46608981490135193,-0.23396120965480804
1790264096178366200,4.4933662109375,0.04062250629067421,1.1673625707626343,0.47464191913604736
1790264096195620900,4.510620849609375,-0.3601047992706299,1.9706497192382812,0.5595521330833435
1790264096212875500,4.52787548828125,-0.8768963813781738,3.5100290775299072,0.16004657745361328
1790264096230130000,4.5451298828125,-0.795651376247406,5.312079906463623,-0.9187406301498413
1790264096247384600,4.562384521484375,-0.09926552325487137,4.789790630340576,-2.461785078048706
1790264096264639200,4.57963916015625,0.17195843160152435,3.908923625946045,-3.736048936843872
1790264096281894000,4.596893798828125,0.08338304609060287,4.887528896331787,-4.1282243728637695
1790264096299148300,4.614148193359375,0.5146535634994507,3.9333584308624268,-2.755610942840576
1790264096316403000,4.63140283203125,1.0522146224975586,0.44959646463394165,0.8600975871086121
1790264096333657600,4.64865771484375,0.8817833065986633,-0.6695078015327454,1.1508692502975464
1790264096350912000,4.665912109375,0.562911868095398,-1.1172716617584229,0.33169957995414734
1790264096368166700,4.683166748046875,0.3894262909889221,-1.792277216911316,0.19669845700263977
1790264096385421300,4.70042138671875,0.2574795186519623,-2.7586653232574463,0.6487383842468262
1790264096402675700,4.71767578125,0.47006043791770935,-2.5998404026031494,0.9669989347457886
1790264096419930400,4.734930419921875,0.6044507026672363,-2.434296131134033,1.3976585865020752
1790264096437185000,4.75218505859375,0.36132651567459106,-2.5949535369873047,2.0977096557617188
1790264096454439400,4.769439453125,-0.022907428443431854,-1.314581036567688,2.257756233215332
1790264096471694000,4.786694091796875,-0.7541125416755676,1.2809834480285645,1.4227041006088257
1790264096488948700,4.80394873046875,-1.2495238780975342,2.7006332874298096,0.5400044918060303
1790264096506203100,4.821203125,-0.7907644510269165,2.0518949031829834,0.2981020212173462
1790264096523457500,4.83845751953125,0.3026835024356842,1.2382229566574097,0.2834412455558777
1790264096540711700,4.855711669921875,1.498756766319275,1.2137882709503174,0.29016077518463135
1790264096557966000,4.872966064453125,1.7779219150543213,2.148411512374878,0.02932151034474373
1790264096575220500,4.890220458984375,1.4688243865966797,1.7947207689285278,0.12950333952903748
1790264096592475100,4.90747509765625,0.9563088417053223,0.4196641147136688,-0.10934479534626007
1790264096609729500,4.9247294921875,0.8164207935333252,-0.7128791809082031,-0.25961753726005554
1790264096626984200,4.941984130859375,1.6038254499435425,-1.5051708221435547,-0.0824667438864708
1790264096644238800,4.95923876953125,1.5769474506378174,-3.2406375408172607,0.6725621223449707
1790264096661493200,4.9764931640625,-0.2202167510986328,-3.4684901237487793,0.813060998916626
1790264096678748000,4.993747802734375,-0.6496546864509583,-2.631605386734009,0.2981020212173462
1790264096696002600,5.01100244140625,-1.2904518842697144,-1.1154390573501587,-0.20708316564559937
1790264096713257200,5.02825732421875,-2.7424774169921875,0.23457208275794983,-0.2406807243824005
1790264096730511600,5.04551171875,-3.017977476119995,1.57297682762146,-0.5332849621772766
1790264096747766300,5.062766357421875,0.8854485154151917,1.1997383832931519,-1.986532211303711
1790264096765021000,5.08002099609375,2.6807801723480225,3.6132652759552,0.4159989058971405
1790264096782275300,5.097275390625,3.4144287109375,0.7904590368270874,2.7959280014038086
1790264096799530000,5.114530029296875,4.061334609985352,0.8484911918640137,4.676780700683594
1790264096816784600,5.13178466796875,4.868897914886475,2.866177558898926,3.554011344909668
1790264096834039300,5.149039306640625,4.999011993408203,1.4831796884536743,0.8631519079208374
1790264096851293700,5.166293701171875,4.523758888244629,-0.17592905461788177,-0.675616443157196
1790264096868548400,5.18354833984375,3.071122646331787,-0.5412262082099915,-1.1814124584197998
1790264096885803000,5.200802978515625,2.53967022895813,-0.41783151030540466,-0.943786084651947
1790264096903057200,5.21805712890625,1.7174463272094727,0.4050033390522003,-0.6462949514389038
1790264096920311600,5.2353115234375,1.4932589530944824,-1.0525200366973877,0.32559093832969666
1790264096937566000,5.25256591796875,0.5115992426872253,-2.9993460178375244,1.8405355215072632
1790264096954820400,5.2698203125,-0.06627883017063141,0.000610864779446274,2.219271659851074
1790264096972074800,5.28707470703125,0.45967575907707214,1.3017528057098389,0.7531962990760803
1790264096989329200,5.3043291015625,1.1346813440322876,0.2809978127479553,-0.360410213470459
1790264097006583800,5.321583740234375,1.5329651832580566,-0.28527384996414185,-0.2620609998703003
1790264097023838500,5.33883837890625,1.739437460899353,0.017104214057326317,0.2522871494293213
1790264097041092900,5.3560927734375,1.2910627126693726,0.2724456787109375,0.1081230640411377
1790264097058347500,5.373347412109375,0.8506292104721069,0.09285144507884979,-0.1594357043504715
1790264097075602200,5.390602294921875,0.4944950342178345,-0.049480047076940536,0.013439024798572063
1790264097092856800,5.40785693359375,-0.10476330667734146,0.23335035145282745,-0.021380268037319183
1790264097110111200,5.425111328125,-0.5122101306915283,0.5949822664260864,-0.29016077518463135
1790264097127366000,5.442365966796875,-0.5403099060058594,0.05742128938436508,-0.16676609218120575
1790264097144620500,5.45962060546875,-0.7681624889373779,0.7232639193534851,0.44409868121147156
1790264097161875000,5.476875,-0.6411026120185852,0.23762640357017517,1.008537769317627
1790264097179129600,5.494129638671875,-0.3814850449562073,-0.034208428114652634,1.2760965824127197
1790264097196384300,5.51138427734375,-0.0974329337477684,0.185092031955719,0.8582650423049927
1790264097213639000,5.528638916015625,-0.0015271619195118546,0.6921098232269287,-0.036651886999607086
1790264097230893300,5.545893310546875,-0.11942406743764877,0.3952295184135437,-0.49663305282592773
1790264097248148000,5.56314794921875,-0.45539969205856323,-0.2205221801996231,-0.15699224174022675
1790264097265402600,5.580402587890625,-0.9233221411705017,-0.23945899307727814,0.4068359434604645
1790264097282657000,5.597656982421875,-0.8952223062515259,0.01649334840476513,0.6976075768470764
1790264097299911400,5.614911376953125,-0.7290670871734619,-0.5241219997406006,1.1380411386489868
1790264097317165800,5.632165771484375,-1.0326669216156006,-0.6261364221572876,1.0476330518722534
1790264097334420200,5.649420166015625,-0.6276635527610779,0.11056652665138245,0.48075059056282043
1790264097351674600,5.666674560546875,-0.07910698652267456,0.41355544328689575,0.4453204274177551
1790264097368929000,5.683928955078125,-0.38270679116249084,0.8845322132110596,0.3707949221134186
1790264097386183400,5.701183349609375,-0.6771436333656311,1.1026109457015991,0.1380554437637329
1790264097403437800,5.718437744140625,-0.5800161361694336,0.915075421333313,-0.3903425931930542
1790264097420692500,5.7356923828125,-0.5238165259361267,0.6291907429695129,-0.47586366534233093
1790264097437947100,5.752947021484375,-0.5952877402305603,1.4593559503555298,-0.5754346251487732
1790264097455201800,5.770201904296875,-0.4224129915237427,1.2437206506729126,-0.020158538594841957
1790264097472456200,5.787456298828125,-0.1078176349401474,-0.19425499439239502,0.7764091491699219
1790264097489710800,5.8047109375,-0.18417572975158691,-0.9932661056518555,1.637117624282837
1790264097506965500,5.821965576171875,-0.6325504779815674,-2.045175313949585,2.5613560676574707
1790264097524220000,5.839219970703125,-0.2617555558681488,-2.775158643722534,2.780045509338379
1790264097541474600,5.856474609375,0.11331541836261749,-1.056185245513916,2.014021158218384
1790264097558729200,5.873729248046875,-0.20250166952610016,-0.43982264399528503,1.2932007312774658
1790264097575983900,5.89098388671875,0.16218459606170654,-0.4984656572341919,0.6230821013450623
1790264097593238300,5.90823828125,0.08582650125026703,-0.05436696484684944,0.31642794609069824
1790264097610493000,5.925492919921875,-0.15241076052188873,0.17348559200763702,0.15149445831775665
1790264097627747600,5.94274755859375,-0.2556469142436981,0.15027274191379547,-0.17043127119541168
1790264097645002000,5.960001953125,-0.37232208251953125,-0.01954767294228077,-0.49480047821998596
1790264097662256600,5.977256591796875,-0.4621191918849945,-0.001221729558892548,-0.7519745230674744
1790264097679511300,5.99451123046875,-0.6233875155448914,0.42821621894836426,-0.880256175994873
1790264097696765700,6.011765625,-0.7620537877082825,1.1856884956359863,-0.9028581380844116
1790264097714020000,6.02902001953125,-0.476779967546463,1.0800089836120605,-0.7977893948554993
1790264097731274500,6.0462744140625,0.1536324918270111,0.29443681240081787,-0.2761108875274658
1790264097748529000,6.06352880859375,0.2110537886619568,-0.21135921776294708,0.2461785078048706
1790264097765783300,6.080783203125,-0.21838416159152985,0.2663370370864868,0.14233149588108063
1790264097783037700,6.09803759765625,0.035735588520765305,0.0720820426940918,-0.1130099818110466
1790264097800292000,6.1152919921875,-0.00946840364485979,0.5094612240791321,-0.8552106618881226
1790264097817546800,6.132546630859375,-0.11759147047996521,1.094058871269226,-1.1233803033828735
1790264097834801400,6.149801513671875,0.11209368705749512,0.8643736839294434,-0.481361448764801
1790264097852055800,6.167055908203125,0.18173226714134216,0.047036588191986084,0.14538581669330597
1790264097869310500,6.184310546875,0.19700388610363007,-0.9126319885253906,0.62857985496521
1790264097886565000,6.201565185546875,-0.1792888194322586,-0.6047561168670654,0.3390299379825592
1790264097903819800,6.21881982421875,-0.24281874299049377,-0.5314523577690125,0.08918625861406326
1790264097921074200,6.23607421875,-0.49571678042411804,-0.25411975383758545,0.010995565913617611
1790264097938328800,6.253328857421875,-0.7162389755249023,-0.3750709891319275,-0.021991131827235222
1790264097955583500,6.27058349609375,-1.0503820180892944,-0.2663370370864868,-0.09101885557174683
1790264097972838000,6.287837890625,-1.3356558084487915,0.3860665261745453,-0.25473061203956604
1790264097990092500,6.305092529296875,-1.1334595680236816,0.5198459029197693,-0.32559093832969666
1790264098007347000,6.322346923828125,-0.7449495792388916,0.3329212963581085,-0.3634645342826843
1790264098024601000,6.33960107421875,-0.47555822134017944,0.318871408700943,-0.28527384996414185
1790264098041855500,6.35685546875,-0.3277289569377899,0.3390299379825592,-0.21502439677715302
1790264098059110000,6.37410986328125,-0.4218021333217621,0.2864955961704254,-0.1282816082239151
1790264098076364300,6.3913642578125,-0.5433642268180847,0.12095122784376144,-0.03909534588456154
1790264098093619000,6.408618896484375,-0.6545416116714478,0.07757982611656189,0.08918625861406326
1790264098110873300,6.425873291015625,-0.37293294072151184,-0.010384701192378998,-0.0513126403093338
1790264098128128000,6.4431279296875,-0.34605491161346436,0.008552107028663158,0.03848448023200035
1790264098145382700,6.460382568359375,-0.24281874299049377,-0.06719512492418289,0.15027274191379547
1790264098162637000,6.477636962890625,-0.005803215317428112,-0.12156209349632263,0.13011419773101807
1790264098179891700,6.4948916015625,-0.05345066636800766,-0.10201441496610641,0.13255766034126282
1790264098197146400,6.512146484375,-0.06994401663541794,-0.18692462146282196,0.18387030065059662
1790264098214401000,6.529401123046875,0.029626941308379173,-0.28954991698265076,0.26939135789871216
1790264098231655400,6.546655517578125,-0.02718348242342472,-0.21380266547203064,0.3555232882499695
1790264098248910000,6.56391015625,-0.16035200655460358,-0.23457208275794983,0.5045742988586426
1790264098266164700,6.581164794921875,-0.054672397673130035,-0.38301220536231995,0.5558869242668152
1790264098283419100,6.598419189453125,0.10354158282279968,-0.43004879355430603,0.4355465769767761
1790264098300673800,6.615673828125,0.0021380267571657896,-0.4831940531730652,0.41416633129119873
1790264098317928400,6.632928466796875,0.003359756199643016,-0.5027416944503784,0.5045742988586426
1790264098335183000,6.65018310546875,0.12247838824987411,-0.4013381600379944,0.47586366534233093
1790264098352437500,6.6674375,0.19333870708942413,-0.25473061203956604,0.34147340059280396
1790264098369692200,6.684692138671875,0.1493564397096634,-0.3652971386909485,0.2419024556875229
1790264098386946600,6.701946533203125,0.3454440236091614,-0.5558869242668152,0.07941242307424545
1790264098404201000,6.719200927734375,0.01740964688360691,-0.5338957905769348,-0.10567960888147354
1790264098421455400,6.736455322265625,-0.4474584460258484,-0.15577052533626556,-0.17165300250053406
1790264098438709800,6.753709716796875,-0.5616901516914368,-0.14538581669330597,-0.1844811588525772
1790264098455964200,6.770964111328125,-0.4456258714199066,-0.36224281787872314,-0.21258094906806946
1790264098473218600,6.788218505859375,-0.24770566821098328,-0.389120876789093,-0.3243691921234131
1790264098490473000,6.805472900390625,-0.04917461425065994,-0.35124725103378296,-0.3995055556297302
1790264098507727600,6.8227275390625,-0.22204934060573578,-0.013439024798572063,-0.7806851863861084
1790264098524982300,6.839982177734375,-0.722347617149353,0.481361448764801,-1.37078058719635
1790264098542236700,6.857236572265625,-1.2666281461715698,1.061682939529419,-2.1813981533050537
1790264098559491300,6.8744912109375,-1.8726060390472412,1.694538950920105,-2.66886830329895
1790264098576746000,6.89174609375,-1.746156930923462,1.7623448371887207,-2.5167629718780518
1790264098594000600,6.909000732421875,-1.7235549688339233,1.8631376028060913,-2.5864014625549316
1790264098611255000,6.926255126953125,-2.185368776321411,1.4013237953186035,-2.740950345993042
1790264098628509700,6.943509765625,-1.6618576049804688,0.5754346251487732,-2.2864668369293213
1790264098645764400,6.960764404296875,-1.3332123756408691,-0.8277217745780945,-1.361006736755371
1790264098663018800,6.978018798828125,-1.1224640607833862,-2.1581852436065674,-0.5876519083976746
1790264098680273400,6.9952734375,-0.8775072693824768,-3.05126953125,-0.3445277214050293
1790264098697527800,7.01252783203125,-0.9056070446968079,-3.557065725326538,-0.056810423731803894
1790264098714782200,7.0297822265625,-0.6166679859161377,-3.5723371505737305,0.40744680166244507
1790264098732036600,7.04703662109375,-0.10842850059270859,-3.3261587619781494,0.8197805285453796
1790264098749291000,7.064291015625,0.4218021333217621,-2.8881685733795166,0.9401208758354187
1790264098766545400,7.08154541015625,0.5134318470954895,-1.227838158607483,0.21991132199764252
1790264098783799800,7.0987998046875,0.14813470840454102,-0.21441353857517242,-0.5540543794631958
1790264098801054500,7.116054443359375,-0.1744018942117691,-0.07452550530433655,-0.8594867587089539
1790264098818308900,7.133308837890625,-0.3637699782848358,0.12217295914888382,-0.9584468603134155
1790264098835563500,7.1505634765625,-0.44929105043411255,0.02626718580722809,-0.8625410795211792
1790264098852818200,7.167818115234375,-0.3912588953971863,-0.2632827162742615,-0.5516108870506287
1790264098870072600,7.185072509765625,-0.20799945294857025,-0.3995055556297302,-0.21746785938739777
1790264098887327200,7.2023271484375,-0.044898562133312225,-0.39339691400527954,-0.0030543238390237093
1790264098904582000,7.219581787109375,0.024740023538470268,-0.3500255048274994,0.010995565913617611
1790264098921836500,7.23683642578125,0.008857538923621178,-0.23762640357017517,-0.21258094906806946
1790264098939091000,7.254091064453125,-0.1597411334514618,0.8472694754600525,-1.3451242446899414
1790264098956345600,7.271345703125,-0.39248061180114746,2.3658792972564697,-2.156963586807251
1790264098973600300,7.288600341796875,-0.0772743970155716,0.4667007029056549,-1.9413282871246338
1790264098990854700,7.305854736328125,0.15607595443725586,-0.049480047076940536,-0.7648026943206787
1790264099008109300,7.323109375,-0.23548837006092072,-0.6633991599082947,0.4422661066055298
1790264099025363700,7.34036376953125,-0.8512400984764099,-1.1875211000442505,0.5051851868629456
1790264099042618400,7.357618408203125,-1.0375537872314453,-0.6560688018798828,0.2364046722650528
1790264099059873000,7.374873046875,-1.0192278623580933,0.037262752652168274,-0.10018182545900345
1790264099077127700,7.392127685546875,-0.6997455954551697,-0.20402882993221283,-0.1496618688106537
1790264099094382000,7.409382080078125,-0.3631591200828552,-0.02260199747979641,-0.13988803327083588
1790264099111636700,7.42663671875,-0.20127993822097778,0.03909534588456154,-0.25900667905807495
1790264099128891400,7.443891357421875,-0.1536324918270111,-0.14721840620040894,-0.2706131041049957
1790264099146145800,7.461145751953125,-0.08826996386051178,-0.2052505612373352,-0.4263836145401001
1790264099163400400,7.478400390625,-0.1127045527100563,-0.24923282861709595,-0.27488914132118225
1790264099180655000,7.495655029296875,-0.16523891687393188,-0.11972949653863907,-0.22724169492721558
1790264099197909500,7.512909423828125,-0.20311254262924194,0.3329212963581085,-0.6200277805328369
1790264099215164000,7.530163818359375,-0.025961752980947495,0.5210676789283752,-0.7574723362922668
1790264099232418300,7.547418212890625,0.23548837006092072,0.22357651591300964,-0.45998117327690125
1790264099249672700,7.564672607421875,0.33567020297050476,-0.3390299379825592,-0.5528326034545898
1790264099266927000,7.581927001953125,0.08888082206249237,-0.3402516841888428,-0.934012234210968
1790264099284181200,7.59918115234375,-0.35216355323791504,-0.3958403766155243,-0.9816597104072571
1790264099301436000,7.616435791015625,-0.6166679859161377,-0.37751442193984985,-0.6633991599082947
1790264099318690600,7.633690673828125,-0.7015781998634338,-0.3341430425643921,-0.24006985127925873
1790264099335945200,7.6509453125,-0.6429351568222046,-0.35735589265823364,0.056199558079242706
1790264099353199600,7.66819970703125,-0.5079340934753418,-0.6640099883079529,0.10873392969369888
1790264099370454300,7.685454345703125,-0.5323686599731445,-0.8087849617004395,-0.07269290834665298
1790264099387709000,7.702708984375,-0.49510589241981506,-0.9590576887130737,-0.1185077652335167
1790264099404963300,7.71996337890625,-0.40714138746261597,-0.822834849357605,-0.15821397304534912
1790264099422218000,7.737218017578125,-0.24465134739875793,-0.9205732345581055,-0.1594357043504715
1790264099439472600,7.75447265625,-0.11514800786972046,-1.1074978113174438,-0.15699224174022675
1790264099456727300,7.771727294921875,-0.15485422313213348,-0.9773836731910706,-0.18570289015769958
1790264099473981700,7.788981689453125,-0.23365578055381775,-0.9126319885253906,-0.360410213470459
1790264099491236400,7.806236328125,-0.24281874299049377,-0.9419534802436829,-0.6029235124588013
1790264099508491000,7.823490966796875,-0.2782489061355591,-1.2315033674240112,-1.2644901275634766
1790264099525745700,7.84074560546875,-0.3271180987358093,-1.284037709236145,-1.0739002227783203
1790264099543000000,7.858,-0.22876885533332825,-0.9834923148155212,-0.8930842876434326
1790264099560254700,7.875254638671875,-0.18173226714134216,-1.109330415725708,-0.8539889454841614
1790264099577509400,7.89250927734375,-0.1279761642217636,-1.074511170387268,-0.8558215498924255
1790264099594763800,7.909763671875,-0.032070402055978775,-0.8161153197288513,-0.8240565657615662
1790264099612018200,7.92701806640625,0.03023780696094036,-0.7086031436920166,-0.7837395071983337
1790264099629272600,7.9442724609375,-0.057726722210645676,-0.6114756464958191,-0.8564324378967285
1790264099646526700,7.961526611328125,-0.16157373785972595,-0.6743947267532349,-1.0476330518722534
1790264099663781000,7.978781005859375,-0.17623448371887207,-0.7910698652267456,-1.1337649822235107
1790264099681035500,7.996035400390625,-0.1438586562871933,-0.8692606091499329,-1.0720677375793457
1790264099698290200,8.013290283203125,-0.12675444781780243,-0.8069523572921753,-0.9883792400360107
1790264099715544800,8.030544921875,-0.16218459606170654,-0.7189878225326538,-0.9902117848396301
1790264099732799200,8.04779931640625,-0.2874118685722351,-0.8362739086151123,-1.0800089836120605
1790264099750054000,8.065053955078126,-0.36804601550102234,-0.8503237962722778,-1.100778341293335
1790264099767308500,8.08230859375,-0.4199695289134979,-0.8069523572921753,-1.0482439994812012
1790264099784563200,8.099563232421875,-0.4969384968280792,-0.7831286191940308,-1.0769546031951904
1790264099801817600,8.116817626953125,-0.5910117030143738,-0.6627882719039917,-1.035415768623352
1790264099819072300,8.134072265625,-0.6692023873329163,-0.481361448764801,-0.9462295174598694
1790264099836327000,8.151326904296875,-0.6551524996757507,-0.33658650517463684,-0.9657772183418274
1790264099853581300,8.168581298828125,-0.6288852691650391,-0.164322629570961,-1.0488548278808594
1790264099870836000,8.1858359375,-0.6557633280754089,-0.020769402384757996,-1.0971131324768066
1790264099888090400,8.20309033203125,-0.7376192212104797,0.09162971377372742,-1.0653481483459473
1790264099905345000,8.220344970703126,-0.8005383014678955,0.13500112295150757,-0.9492838382720947
1790264099922599700,8.237599609375,-0.7174606919288635,0.25900667905807495,-0.8710931539535522
1790264099939854300,8.254854248046875,-0.526870846748352,0.1802051067352295,-0.7800742983818054
1790264099957108700,8.272108642578125,-0.3546070158481598,0.07330377399921417,-0.7544180154800415
1790264099974363400,8.28936328125,-0.20616686344146729,0.08857539296150208,-0.7269290685653687
1790264099991618000,8.3066181640625,-0.11636973917484283,0.13194678723812103,-0.6896663308143616
1790264100008872200,8.3238720703125,-0.0766635313630104,0.15577052533626556,-0.6389645338058472
1790264100026126600,8.341126708984374,-0.025961752980947495,0.17531819641590118,-0.516791582107544
1790264100043381000,8.358381103515624,0.03756818547844887,0.11362084746360779,-0.4520399272441864
1790264100060635400,8.375635498046876,0.0565049909055233,0.1795942485332489,-0.4111120104789734
1790264100077889800,8.392889892578125,0.022907428443431854,0.2565632164478302,-0.3530798554420471
1790264100095144200,8.410144287109375,-0.013133592903614044,0.36224281787872314,-0.21685700118541718
1790264100112398800,8.42739892578125,-0.0461202897131443,0.5540543794631958,-0.1380554437637329
1790264100129653500,8.444653564453125,-0.06933315098285675,0.6310232877731323,-0.06597339361906052
1790264100146908200,8.461908203125,-0.1127045527100563,0.7721330523490906,0.0360410213470459
1790264100164162600,8.47916259765625,-0.10903936624526978,0.9279035925865173,0.15515965223312378
1790264100181417200,8.496417236328124,-0.08765909820795059,1.036637544631958,0.27977606654167175
1790264100198672000,8.513671875,-0.14508038759231567,1.0928370952606201,0.3536907136440277
1790264100215926300,8.53092626953125,-0.18784092366695404,1.1087195873260498,0.43982264399528503
1790264100233181000,8.548180908203125,-0.1798996776342392,1.0409135818481445,0.5149590373039246
1790264100250435600,8.565435546875,-0.1438586562871933,0.988990068435669,0.5699368119239807
1790264100267690200,8.582690185546875,-0.11148282140493393,0.9046907424926758,0.6084213256835938
1790264100284944600,8.599944580078125,-0.060781046748161316,0.8466585874557495,0.6499601006507874
1790264100302199300,8.61719921875,0.03817904740571976,0.9034690260887146,0.6579013466835022
1790264100319454000,8.634453857421875,0.16035200655460358,0.9010255336761475,0.6798924803733826
1790264100336708400,8.651708251953124,0.26908594369888306,0.8307760953903198,0.7544180154800415
1790264100353963000,8.668962890625,0.3295615613460541,0.7922916412353516,0.7806851863861084
1790264100371217700,8.6862177734375,0.4010327160358429,0.8478803038597107,0.7874047160148621
1790264100388472300,8.703472412109376,0.4523453712463379,0.8436042666435242,0.7666352987289429
1790264100405726700,8.720726806640625,0.5311469435691833,0.7098248600959778,0.7849612236022949
1790264100422981400,8.7379814453125,0.5977311730384827,0.6493492722511292,0.8222240209579468
1790264100440236000,8.755236083984375,0.6258309483528137,0.5882627964019775,0.833219587802887
1790264100457490400,8.772490478515625,0.5946768522262573,0.8069523572921753,0.7257073521614075
1790264100474745000,8.7897451171875,0.5775726437568665,0.9370665550231934,0.6713404059410095
1790264100491999700,8.806999755859374,0.5739074349403381,1.0152572393417358,0.6023126840591431
1790264100509254400,8.82425439453125,0.5396990180015564,1.0567960739135742,0.5681042671203613
1790264100526508800,8.8415087890625,0.5390881896018982,0.9779945015907288,0.56382817029953
1790264100543763500,8.858763427734376,0.5519163012504578,1.0018181800842285,0.656679630279541
1790264100561018000,8.87601806640625,0.5812378525733948,0.9896009564399719,0.7880155444145203
1790264100578272500,8.8932724609375,0.630107045173645,0.7287616729736328,0.8875865340232849
1790264100595527200,8.910527099609375,0.7327322959899902,0.4453204274177551,1.0262528657913208
1790264100612781300,8.92778125,0.8713986277580261,0.4111120104789734,1.1630865335464478
1790264100630035700,8.94503564453125,0.9605848789215088,0.4575377106666565,1.2137882709503174
1790264100647290000,8.9622900390625,0.9831868410110474,0.07635809481143951,1.2675443887710571
1790264100664544500,8.97954443359375,0.961195707321167,-0.3396408259868622,1.2730422019958496
1790264100681799000,8.996798828125,1.010064959526062,-0.1337793916463852,1.4147628545761108
1790264100699053600,9.014053466796875,1.0906990766525269,0.15699224174022675,1.4953969717025757
1790264100716308000,9.031307861328125,1.110857605934143,0.27916520833969116,1.563202977180481
1790264100733562600,9.048562744140625,1.1126902103424072,0.2974911332130432,1.5790854692459106
1790264100750817300,9.0658173828125,1.1200206279754639,0.21319180727005005,1.5149446725845337
1790264100768072000,9.083072021484375,1.043662428855896,0.6273581385612488,1.4813470840454102
1790264100785326300,9.100326416015625,0.7870992422103882,0.5778780579566956,1.3634501695632935
1790264100802581000,9.1175810546875,0.6826413869857788,0.3243691921234131,1.3280199766159058
1790264100819835600,9.134835693359374,0.591622531414032,0.1282816082239151,1.3206896781921387
1790264100837090000,9.152090087890626,0.5232056975364685,0.38667741417884827,1.0971131324768066
1790264100854344700,9.1693447265625,0.6337721943855286,0.2528980076313019,0.9920443892478943
1790264100871599400,9.186599365234375,0.6814196705818176,0.1698204129934311,0.9615011811256409
1790264100888853800,9.203853759765625,0.6893609166145325,0.21930044889450073,0.8307760953903198
1790264100906108400,9.2211083984375,0.6508764028549194,0.41905322670936584,0.6456840634346008
1790264100923363000,9.238363037109375,0.6533198952674866,0.41233372688293457,0.6004800796508789
1790264100940617700,9.25561767578125,0.6246092319488525,0.4202749729156494,0.5772672295570374
1790264100957872000,9.2728720703125,0.5745183229446411,0.16187916696071625,0.3854556679725647
1790264100975126800,9.290126708984374,0.6130027770996094,0.2565632164478302,0.36774060130119324
1790264100992381200,9.307381103515626,0.7535017132759094,0.047036588191986084,0.39278605580329895
1790264101009635600,9.324635498046876,0.7632755637168884,0.04276053607463837,0.3292561173439026
1790264101026890000,9.341889892578125,0.6417134404182434,0.11667517572641373,0.30482152104377747
1790264101044144400,9.359144287109375,0.5702422857284546,0.20158538222312927,0.29626941680908203
1790264101061398800,9.376398681640625,0.5677987933158875,0.8686497211456299,0.28588470816612244
1790264101078653200,9.393653076171875,0.48533207178115845,0.593149721622467,0.037262752652168274
1790264101095907600,9.410907470703124,0.34727662801742554,0.5082395076751709,-0.24923282861709595
1790264101113162200,9.428162353515624,0.32650721073150635,0.1484401375055313,-0.09896009415388107
1790264101130417000,9.4454169921875,0.25381430983543396,-0.12217295914888382,0.07513637095689774
1790264101147671600,9.462671630859376,0.11881320178508759,-0.42943793535232544,-0.007941242307424545
1790264101164926000,9.479926025390625,0.05283980444073677,-0.7696896195411682,-0.08124501258134842
1790264101182180600,9.4971806640625,-0.02779434807598591,-0.5681042671203613,-0.2559523284435272
1790264101199435300,9.514435302734375,0.0412333719432354,-0.3139844834804535,-0.4862483739852905
1790264101216689700,9.531689697265625,-0.006414080038666725,-0.5772672295570374,-0.3805687427520752
1790264101233944300,9.5489443359375,-0.0870482325553894,-0.574212908744812,-0.41905322670936584
1790264101251199000,9.566198974609375,-0.03390299528837204,-0.6456840634346008,-0.4776962697505951
1790264101268453600,9.58345361328125,-0.06200277432799339,-0.5094612240791321,-0.5131264328956604
1790264101285708000,9.6007080078125,-0.0565049909055233,-0.23762640357017517,-0.5369501113891602
1790264101302962700,9.617962646484376,-0.03940077871084213,-0.10323614627122879,-0.4269944727420807
1790264101320217300,9.63521728515625,-0.11087195575237274,-0.036651886999607086,-0.28527384996414185
1790264101337471700,9.6524716796875,-0.189673513174057,0.001832594396546483,-0.328645259141922
1790264101354726400,9.669726318359375,-0.33322674036026,-0.1288924664258957,-0.36651885509490967
1790264101371981000,9.68698095703125,-0.21838416159152985,0.04886918142437935,-0.3860665261745453
1790264101389235500,9.7042353515625,0.003359756199643016,0.09162971377372742,-0.4196641147136688
1790264101406489900,9.72148974609375,-0.06933315098285675,-0.013439024798572063,-0.45020735263824463
1790264101423744300,9.738744140625,-0.14080433547496796,-0.06963858753442764,-0.5198459029197693
1790264101440998700,9.75599853515625,-0.2367101013660431,0.05864302068948746,-0.5192350745201111
1790264101458253000,9.773253173828126,-0.281914085149765,0.21991132199764252,-0.43371400237083435
1790264101475507500,9.790507568359375,-0.2929096519947052,0.36712974309921265,-0.36224281787872314
1790264101492761900,9.807761962890625,-0.33322674036026,0.4214966893196106,-0.46914416551589966
1790264101510016500,9.8250166015625,-0.38820457458496094,0.40317076444625854,-0.6609556674957275
1790264101527271200,9.842271240234375,-0.374765545129776,0.4367683231830597,-0.6817250847816467
1790264101544525600,9.859525634765625,-0.3998109996318817,0.36774060130119324,-0.6053670048713684
1790264101561780200,9.8767802734375,-0.46517354249954224,0.27855435013771057,-0.5815432667732239
1790264101579035000,9.894034912109374,-0.536644697189331,0.29077163338661194,-0.6389645338058472
1790264101596289300,9.911289306640626,-0.5983420610427856,0.5760455131530762,-0.8051197528839111
1790264101613544000,9.9285439453125,-0.6484329700469971,0.6517927050590515,-1.1545344591140747
1790264101630798300,9.94579833984375,-0.6252201199531555,0.6695078015327454,-1.3127484321594238
1790264101648053000,9.963052978515625,-0.6148353815078735,0.7000510096549988,-1.0323615074157715
1790264101665307600,9.9803076171875,-0.6380482912063599,0.318871408700943,-0.8881973624229431
1790264101682562300,9.997562255859375,-0.7186824083328247,-0.1997527778148651,-1.0977239608764648
1790264101699816700,10.014816650390625,-0.6905826330184937,-0.40866854786872864,-1.2681553363800049
1790264101717071000,10.032071044921874,-0.45539969205856323,-0.4013381600379944,-1.1710277795791626
1790264101734325500,10.049325439453124,-0.23426663875579834,-0.6450732350349426,-0.943786084651947
1790264101751579600,10.06657958984375,-0.10537417232990265,-0.7886264324188232,-0.7281508445739746
1790264101768834000,10.083833984375,-0.07299833744764328,-0.8643736839294434,-0.665842592716217
1790264101786088400,10.10108837890625,-0.11698060482740402,-0.94439697265625,-0.7000510096549988
1790264101803343000,10.118343017578125,-0.08643736690282822,-0.8924734592437744,-0.6267472505569458
1790264101820597800,10.13559765625,-0.1334739476442337,-0.6365211009979248,-0.462424635887146
1790264101837852200,10.15285205078125,-0.25992295145988464,-0.47097674012184143,-0.5571087002754211
1790264101855106800,10.17010693359375,-0.2965748608112335,-0.26022839546203613,-0.8710931539535522
1790264101872361500,10.187361572265624,-0.08949168771505356,-0.4886918365955353,-0.8833104968070984
1790264101889616100,10.2046162109375,0.10048725455999374,-0.729983389377594,-0.7330377101898193
1790264101906870500,10.22187060546875,0.14508038759231567,-0.7904590368270874,-0.7379246354103088
1790264101924125200,10.239125244140626,0.0412333719432354,-0.9046907424926758,-0.8252783417701721
1790264101941379800,10.2563798828125,-0.07544180005788803,-0.9413426518440247,-0.8936951756477356
1790264101958634200,10.27363427734375,-0.15790854394435883,-1.01708984375,-0.842382550239563
1790264101975889000,10.290888916015625,-0.1487455666065216,-1.173471212387085,-0.813671886920929
1790264101993143300,10.308143310546875,-0.15241076052188873,-1.1270455121994019,-0.8729257583618164
1790264102010397700,10.325397705078124,-0.1585194170475006,-1.1557561159133911,-0.9669989347457886
1790264102027652000,10.342652099609374,-0.24526220560073853,-0.9828814268112183,-1.062904715538025
1790264102044906500,10.359906494140626,-0.2623664140701294,-0.8051197528839111,-1.148425817489624
1790264102062161000,10.377160888671876,-0.2935205399990082,-1.0231984853744507,-1.1600322723388672
1790264102079415300,10.394415283203125,-0.3631591200828552,-0.8558215498924255,-1.2968659400939941
1790264102096669700,10.411669677734375,-0.33689191937446594,-0.721431314945221,-1.3481786251068115
1790264102113924400,10.42892431640625,-0.26908594369888306,-0.7721330523490906,-1.2217295169830322
1790264102131179000,10.446178955078125,-0.22815799713134766,-0.667064368724823,-1.2773182392120361
1790264102148433700,10.46343359375,-0.2110537886619568,-0.4520399272441864,-1.433088779449463
1790264102165688000,10.48068798828125,-0.2562577724456787,-0.2211330533027649,-1.6297872066497803
1790264102182942700,10.497942626953124,-0.23487751185894012,-0.11667517572641373,-1.5515965223312378
1790264102200197400,10.515197265625,-0.23365578055381775,0.08674279600381851,-1.3249657154083252
1790264102217451800,10.53245166015625,-0.36804601550102234,0.48502662777900696,-1.320078730583191
1790264102234706400,10.54970654296875,-0.2525925934314728,0.536339282989502,-1.2363903522491455
1790264102251961000,10.566961181640625,-0.23548837006092072,0.6774490475654602,-0.9010255336761475
1790264102269215700,10.5842158203125,-0.2788597643375397,0.41416633129119873,-0.6774490475654602
1790264102286470100,10.60147021484375,-0.21960589289665222,0.2883281707763672,-0.516791582107544
1790264102303724500,10.618724609375,-0.06627883017063141,0.18875721096992493,-0.38240134716033936
1790264102320979000,10.63597900390625,0.008246674202382565,0.3237583339214325,-0.3029889166355133
1790264102338233300,10.6532333984375,-0.08521563559770584,0.19853104650974274,-0.08491020649671555
1790264102355487700,10.67048779296875,-0.15118902921676636,0.3536907136440277,0.07452550530433655
1790264102372742100,10.6877421875,-0.16096286475658417,0.39278605580329895,0.2315177470445633
1790264102389996500,10.70499658203125,-0.1695149689912796,0.4318813979625702,0.3329212963581085
1790264102407251200,10.722251220703125,-0.1737910360097885,0.5711585879325867,0.3915643095970154
1790264102424505600,10.739505615234375,-0.18845178186893463,0.6261364221572876,0.4251618981361389
1790264102441760300,10.75676025390625,-0.2672533392906189,0.6310232877731323,0.43004879355430603
1790264102459015000,10.774014892578125,-0.2788597643375397,0.6945532560348511,0.5106829404830933
1790264102476269600,10.79126953125,-0.24037529528141022,0.6579013466835022,0.6530144214630127
1790264102493524000,10.80852392578125,-0.16096286475658417,0.7984002828598022,0.7764091491699219
1790264102510778600,10.825778564453126,-0.09621120244264603,0.8112284541130066,0.9266818761825562
1790264102528033000,10.843032958984375,-0.09132428467273712,0.7415898442268372,1.01708984375
1790264102545287700,10.86028759765625,-0.07422006875276566,0.6866120100021362,1.1074978113174438
1790264102562542300,10.877542236328125,-0.04917461425065994,0.6304124593734741,1.1893537044525146
1790264102579797000,10.894796875,-0.007635809946805239,0.7189878225326538,1.1869102716445923
1790264102597051400,10.912051513671875,0.04917461425065994,0.9230166673660278,1.166751742362976
1790264102614306000,10.92930615234375,0.0870482325553894,0.9944878816604614,1.2205078601837158
1790264102631560700,10.946560791015624,0.11698060482740402,1.0586286783218384,1.284037709236145
1790264102648815000,10.963815185546874,0.19150610268115997,1.276707410812378,1.239444613456726
1790264102666069800,10.98106982421875,0.25442516803741455,1.3286309242248535,1.1392627954483032
1790264102683324400,10.998324462890626,0.2868010103702545,1.415373682975769,1.0525200366973877
1790264102700578800,11.015578857421875,0.42974337935447693,1.4422518014907837,0.9834923148155212
1790264102717833200,11.032833251953125,0.6325504779815674,1.1887428760528564,0.9230166673660278
1790264102735087600,11.050087646484375,0.7302888631820679,0.9920443892478943,0.9022472500801086
1790264102752342000,11.067342041015625,0.7272345423698425,0.7721330523490906,1.0054833889007568
1790264102769596200,11.08459619140625,0.7327322959899902,0.7422007322311401,0.9743293523788452
1790264102786850800,11.101850830078124,0.7589994668960571,0.667064368724823,0.9718858599662781
1790264102804105200,11.119105224609376,0.7974839806556702,0.5375609993934631,0.8973603844642639
1790264102821359900,11.13635986328125,0.9092722535133362,0.5528326034545898,0.8924734592437744
1790264102838614500,11.153614501953125,1.0210604667663574,0.695164144039154,0.9303470849990845
1790264102855869000,11.170868896484375,1.0809252262115479,0.5980366468429565,0.9804379940032959
1790264102873123600,11.18812353515625,1.1047489643096924,0.5619956254959106,1.0384701490402222
1790264102890378000,11.2053779296875,1.1530072689056396,0.7018836140632629,1.0103703737258911
1790264102907632400,11.22263232421875,1.1536180973052979,0.8674280047416687,0.9950987100601196
1790264102924886800,11.23988671875,1.0778708457946777,0.8429933786392212,0.9016364216804504
1790264102942141200,11.25714111328125,0.9337068200111389,0.7037162184715271,0.8173370957374573
1790264102959395600,11.2743955078125,0.8371901512145996,0.646905779838562,0.8374956250190735
1790264102976650000,11.29164990234375,0.8561269640922546,0.5510000586509705,0.8869756460189819
1790264102993904400,11.308904296875,0.9147700071334839,0.5619956254959106,0.8295543789863586
1790264103011159000,11.326158935546875,0.9019418358802795,0.37751442193984985,0.7861829996109009
1790264103028413700,11.34341357421875,0.8090903759002686,0.3029889166355133,0.7409789562225342
1790264103045668400,11.36066845703125,0.7144063711166382,0.3335321843624115,0.6298015713691711
1790264103062922800,11.3779228515625,0.562911868095398,0.4917461574077606,0.5326740741729736
1790264103080177400,11.395177490234374,0.4456258714199066,0.535728394985199,0.4361574649810791
1790264103097432000,11.41243212890625,0.3790415823459625,0.3787361681461334,0.3225366175174713
1790264103114686500,11.4296865234375,0.3643808364868164,0.3402516841888428,0.24434591829776764
1790264103131941000,11.446941162109376,0.3381136655807495,0.39828383922576904,0.19792018830776215
1790264103149195800,11.46419580078125,0.37843072414398193,0.4453204274177551,0.18081597983837128
1790264103166450400,11.481450439453125,0.47372564673423767,0.5503891706466675,0.1740964651107788
1790264103183704800,11.498704833984375,0.47983428835868835,0.4819723069667816,0.1747073233127594
1790264103200959500,11.51595947265625,0.4101957082748413,0.2571740746498108,0.19303326308727264
1790264103218214100,11.533214111328125,0.34116798639297485,0.08979712426662445,0.18081597983837128
1790264103235468500,11.550468505859374,0.2935205399990082,0.1026252806186676,0.10934479534626007
1790264103252723200,11.56772314453125,0.24342961609363556,0.09101885557174683,0.07269290834665298
1790264103269977900,11.584977783203126,0.1945604383945465,0.047036588191986084,0.028099779039621353
1790264103287232300,11.602232177734376,0.15241076052188873,-0.047036588191986084,-0.01649334840476513
1790264103304486700,11.619486572265625,0.13041962683200836,-0.06719512492418289,-0.018325943499803543
1790264103321741000,11.636740966796875,0.06994401663541794,0.18387030065059662,-0.043982263654470444
1790264103338995500,11.653995361328125,0.041844237595796585,0.18325942754745483,-0.050090912729501724
1790264103356249900,11.671249755859375,0.07360920310020447,-0.17348559200763702,-0.03848448023200035
1790264103373504300,11.688504150390624,0.09682206809520721,-0.45875945687294006,-0.08674279600381851
1790264103390758700,11.705758544921874,0.11209368705749512,-0.20891575515270233,-0.20158538222312927
1790264103408013300,11.723013427734376,0.16523891687393188,0.20952661335468292,-0.32681265473365784
1790264103425267700,11.740267822265626,0.15485422313213348,0.29993459582328796,-0.5241219997406006
1790264103442522400,11.7575224609375,0.11087195575237274,-0.0769689604640007,-0.7153226733207703
1790264103459777000,11.774777099609375,0.04550942778587341,-0.40317076444625854,-0.7189878225326538
1790264103477031400,11.792031494140625,-0.07910698652267456,-0.12522727251052856,-0.5937605500221252
1790264103494286000,11.8092861328125,-0.10598503798246384,0.05742128938436508,-0.4318813979625702
1790264103511540700,11.826540771484375,0.0565049909055233,-0.007330377586185932,-0.3530798554420471
1790264103528795400,11.84379541015625,0.13041962683200836,-0.3249800503253937,-0.5595521330833435
1790264103546049800,11.8610498046875,0.044898562133312225,-0.6328558921813965,-0.7269290685653687
1790264103563304400,11.878304443359376,-0.09682206809520721,-0.6236929297447205,-0.7715222239494324
1790264103580559000,11.89555908203125,-0.2715294063091278,-0.30543237924575806,-0.8258891701698303
1790264103597813500,11.9128134765625,-0.4016436040401459,-0.11728604137897491,-0.8857539296150208
1790264103615068000,11.93006787109375,-0.4309650957584381,-0.2260199636220932,-0.8014546036720276
1790264103632322300,11.947322265625,-0.37781986594200134,-0.17653992772102356,-0.7037162184715271
1790264103649576700,11.96457666015625,-0.27947062253952026,-0.08857539296150208,-0.7073814272880554
1790264103666830800,11.981830810546874,-0.24037529528141022,-0.17226386070251465,-0.66645348072052
1790264103684085200,11.999085205078124,-0.3094030022621155,-0.24373504519462585,-0.6652317643165588
1790264103701340000,12.01633984375,-0.49999281764030457,-0.16065743565559387,-0.6994401812553406
1790264103718594600,12.033594482421876,-0.619722306728363,-0.1178968995809555,-0.6695078015327454
1790264103735849000,12.050848876953125,-0.6093376278877258,-0.235793799161911,-0.6084213256835938
1790264103753103600,12.068103515625,-0.5812378525733948,-0.3426951467990875,-0.5949822664260864
1790264103770358300,12.085358154296875,-0.6282744407653809,-0.3787361681461334,-0.48563748598098755
1790264103787613000,12.102613037109375,-0.629496157169342,-0.4276053309440613,-0.38850998878479004
1790264103804867300,12.119867431640625,-0.5763509273529053,-0.5375609993934631,-0.33108872175216675
1790264103822122000,12.1371220703125,-0.5403099060058594,-0.66645348072052,-0.3585776388645172
1790264103839376600,12.154376708984374,-0.5891790986061096,-0.6969966888427734,-0.4098902642726898
1790264103856631000,12.171631103515624,-0.6423243284225464,-0.6805033683776855,-0.4221075773239136
1790264103873885700,12.1888857421875,-0.6221657991409302,-0.6896663308143616,-0.4410443603992462
1790264103891140400,12.206140380859376,-0.5806269645690918,-0.758083164691925,-0.5314523577690125
1790264103908394500,12.22339453125,-0.5641336441040039,-0.9022472500801086,-0.6352993845939636
1790264103925649000,12.24064892578125,-0.5238165259361267,-1.074511170387268,-0.7666352987289429
1790264103942903300,12.2579033203125,-0.4877755343914032,-1.1038326025009155,-0.8778126835823059
1790264103960157700,12.27515771484375,-0.48594292998313904,-0.9773836731910706,-0.934012234210968
1790264103977412000,12.292412109375,-0.5232056975364685,-1.0763437747955322,-0.8894191384315491
1790264103994666800,12.309666748046874,-0.5445859432220459,-1.3109158277511597,-0.8093958497047424
1790264104011921200,12.326921142578126,-0.49082985520362854,-1.544877052307129,-0.7379246354103088
1790264104029175800,12.34417578125,-0.4046979248523712,-1.665217399597168,-0.7703005075454712
1790264104046430500,12.361430419921875,-0.364991694688797,-1.51616632938385,-0.8674280047416687
1790264104063684900,12.378684814453125,-0.3857611119747162,-1.137430191040039,-0.9309579133987427
1790264104080939500,12.395939453125,-0.4205803871154785,-0.8350521326065063,-1.0231984853744507
1790264104098194000,12.41319384765625,-0.4780016839504242,-0.7165443897247314,-1.1624757051467896
1790264104115448300,12.4304482421875,-0.517707884311676,-0.7147117853164673,-1.2846486568450928
1790264104132702700,12.44770263671875,-0.5549706816673279,-0.6902772188186646,-1.3671153783798218
1790264104149957000,12.46495703125,-0.6062833070755005,-0.6450732350349426,-1.3597849607467651
1790264104167211500,12.48221142578125,-0.6038398146629333,-0.48991355299949646,-1.2675443887710571
1790264104184466000,12.4994658203125,-0.5073232054710388,-0.34208428859710693,-1.2247838973999023
1790264104201720300,12.51672021484375,-0.47983428835868835,-0.31642794609069824,-1.1771364212036133
1790264104218975000,12.53397509765625,-0.4608974754810333,-0.40317076444625854,-1.0903936624526978
1790264104236229600,12.551229736328125,-0.35094180703163147,-0.4221075773239136,-0.9187406301498413
1790264104253484300,12.568484375,-0.129197895526886,-0.3964512348175049,-0.833219587802887
1790264104270738700,12.58573876953125,0.06261363625526428,-0.15821397304534912,-0.8985821008682251
1790264104287993300,12.602993408203124,0.11453714966773987,-0.002443459117785096,-0.9144645929336548
1790264104305248000,12.620248046875,-0.006414080038666725,0.02871064469218254,-0.8045089244842529
1790264104322502400,12.63750244140625,-0.15668681263923645,0.32559093832969666,-0.6041452884674072
1790264104339757000,12.654757080078125,-0.2556469142436981,0.21807873249053955,-0.39339691400527954
1790264104357011700,12.67201171875,-0.2764163017272949,-0.036651886999607086,-0.1380554437637329
1790264104374266400,12.689266357421875,-0.281914085149765,0.09529490768909454,-0.06108647957444191
1790264104391520800,12.706520751953125,-0.2672533392906189,0.20219624042510986,-0.040317077189683914
1790264104408775200,12.723775146484375,-0.23793183267116547,0.24373504519462585,0.0769689604640007
1790264104426029600,12.741029541015624,-0.19944734871387482,0.3640754222869873,0.18081597983837128
1790264104443283700,12.75828369140625,-0.07483093440532684,0.4105011224746704,0.2712239623069763
1790264104460538000,12.7755380859375,0.06811141967773438,0.3695732057094574,0.3738492429256439
1790264104477792500,12.79279248046875,0.18417572975158691,0.4257727563381195,0.5106829404830933
1790264104495047200,12.810047119140625,0.20861032605171204,0.4312705397605896,0.6090322136878967
1790264104512301800,12.8273017578125,0.18845178186893463,0.5668824911117554,0.6743947267532349
1790264104529556200,12.84455615234375,0.17195843160152435,0.5314523577690125,0.685390293598175
1790264104546811000,12.861810791015625,0.23304490745067596,0.6841685771942139,0.7250964641571045
1790264104564065500,12.8790654296875,0.3087921440601349,0.7422007322311401,0.794124186038971
1790264104581320200,12.8963203125,0.3246746361255646,0.8142827749252319,0.924238383769989
1790264104598574600,12.91357470703125,0.34788748621940613,0.8973603844642639,1.0488548278808594
1790264104615829200,12.930829345703126,0.3906480371952057,0.9792162179946899,1.1081087589263916
1790264104633084000,12.948083984375,0.40836310386657715,0.9511164426803589,1.1624757051467896
1790264104650338300,12.96533837890625,0.3686569035053253,0.8460476994514465,1.2302817106246948
1790264104667593000,12.982593017578125,0.3454440236091614,0.7171552777290344,1.247385859489441
1790264104684847400,12.999847412109375,0.4016436040401459,0.5632173418998718,1.2779290676116943
1790264104702101800,13.017101806640625,0.4529562294483185,0.40805765986442566,1.2895355224609375
1790264104719356200,13.034356201171875,0.49510589241981506,0.28405213356018066,1.3139700889587402
1790264104736610600,13.051610595703124,0.562911868095398,0.18692462146282196,1.323133111000061
1790264104753865000,13.068864990234376,0.6411026120185852,0.19120067358016968,1.3585633039474487
1790264104771119400,13.086119384765626,0.7174606919288635,0.2632827162742615,1.4092650413513184
1790264104788373800,13.103373779296875,0.7809906005859375,0.3402516841888428,1.441640853881836
1790264104805628400,13.12062841796875,0.8353576064109802,0.45875945687294006,1.4312561750411987
1790264104822883000,13.137883056640625,0.8750637769699097,0.5467239618301392,1.3939933776855469
1790264104840137700,13.1551376953125,0.8744529485702515,0.7354812026023865,1.3518437147140503
1790264104857392000,13.17239208984375,0.8139773011207581,0.9046907424926758,1.3738348484039307
1790264104874646800,13.189646728515624,0.7816014885902405,0.8576541543006897,1.3897173404693604
1790264104891901200,13.206901123046874,0.8103121519088745,0.7238747477531433,1.4294235706329346
1790264104909155600,13.224155517578126,0.8347467184066772,0.748920202255249,1.423925757408142
1790264104926410000,13.241409912109376,0.8622356653213501,0.7886264324188232,1.3542872667312622
1790264104943664400,13.258664306640625,0.9092722535133362,0.6896663308143616,1.2315033674240112
1790264104960918800,13.275918701171875,0.952032744884491,0.3090975880622864,1.1038326025009155
1790264104978173200,13.293173095703125,0.9343177080154419,-0.10567960888147354,0.9651663303375244
1790264104995427600,13.310427490234375,0.8439096808433533,-0.08124501258134842,0.832608699798584
1790264105012682200,13.32768212890625,0.7748819589614868,0.17837251722812653,0.7073814272880554
1790264105029937000,13.34493701171875,0.8072578310966492,0.33108872175216675,0.6389645338058472
1790264105047191600,13.362191650390624,0.8261946439743042,0.3750709891319275,0.6957749724388123
1790264105064446000,13.379446044921876,0.8097012639045715,0.36712974309921265,0.6817250847816467
1790264105081700600,13.39670068359375,0.7589994668960571,0.3787361681461334,0.5351175665855408
1790264105098955000,13.413955078125,0.7290670871734619,0.2987128794193268,0.4202749729156494
1790264105116209700,13.431209716796875,0.7363975048065186,0.205861434340477,0.33047783374786377
1790264105133464000,13.448464111328125,0.7186824083328247,0.11606431007385254,0.24740023910999298
1790264105150718700,13.46571875,0.6447677612304688,0.06597339361906052,0.22479823231697083
1790264105167973400,13.482973388671875,0.602007269859314,0.08124501258134842,0.2107483446598053
1790264105185228000,13.50022802734375,0.6038398146629333,0.06475166976451874,0.14782927930355072
1790264105202482400,13.517482421875,0.5488619804382324,0.06902772188186646,0.033597562462091446
1790264105219736600,13.534736572265626,0.42791077494621277,-0.0256563201546669,-0.05436696484684944
1790264105236991000,13.551990966796875,0.2666424810886383,-0.1747073233127594,-0.10629047453403473
1790264105254245400,13.569245361328125,0.0870482325553894,-0.26878049969673157,-0.2156352698802948
1790264105271499800,13.586499755859375,-0.08155044913291931,-0.2919933497905731,-0.36835145950317383
1790264105288754200,13.603754150390625,-0.12431098520755768,-0.3133736252784729,-0.5143481492996216
1790264105306008800,13.6210087890625,-0.06933315098285675,-0.20647229254245758,-0.6316341757774353
1790264105323263500,13.638263427734374,-0.008246674202382565,-0.10201441496610641,-0.6878337264060974
1790264105340518000,13.655517822265624,-0.03940077871084213,-0.15515965223312378,-0.6218603253364563
1790264105357772500,13.6727724609375,-0.08643736690282822,-0.2620609998703003,-0.5754346251487732
1790264105375027200,13.690027099609376,-0.10476330667734146,-0.27427828311920166,-0.6236929297447205
1790264105392281600,13.707281494140625,-0.17256930470466614,-0.17226386070251465,-0.6866120100021362
1790264105409536000,13.724535888671875,-0.2715294063091278,-0.07391463965177536,-0.6505709886550903
1790264105426790400,13.741790283203125,-0.34238970279693604,-0.008552107028663158,-0.4935787320137024
1790264105444044800,13.759044921875,-0.3643808364868164,0.03176496922969818,-0.3555232882499695
1790264105461299200,13.77629931640625,-0.41386088728904724,0.09896009415388107,-0.3646862804889679
1790264105478553600,13.7935537109375,-0.5958985686302185,0.24006985127925873,-0.4612029194831848
1790264105495808000,13.81080810546875,-0.8060360550880432,0.25350889563560486,-0.43921178579330444
1790264105513062700,13.828062744140626,-0.8042035102844238,0.13194678723812103,-0.33536475896835327
1790264105530317300,13.8453173828125,-0.6905826330184937,0.027488915249705315,-0.28466299176216125
1790264105547571700,13.86257177734375,-0.6875283122062683,-0.09468404203653336,-0.35674503445625305
1790264105564826400,13.879826416015625,-0.7809906005859375,-0.24434591829776764,-0.45937031507492065
1790264105582081000,13.8970810546875,-0.869566023349762,-0.3274235129356384,-0.5870410799980164
1790264105599335400,13.91433544921875,-0.9343177080154419,-0.24862197041511536,-0.6921098232269287
1790264105616589800,13.93158984375,-0.8921679854393005,-0.16798780858516693,-0.7257073521614075
1790264105633844000,13.948843994140624,-0.7278453707695007,-0.23212862014770508,-0.6695078015327454
1790264105651098400,13.966098388671876,-0.5965094566345215,-0.5180133581161499,-0.5393936038017273
1790264105668352800,13.983352783203125,-0.5995637774467468,-0.7367029190063477,-0.43921178579330444
1790264105685607200,14.000607177734375,-0.6911935210227966,-0.6872228980064392,-0.4318813979625702
1790264105702861800,14.01786181640625,-0.796262264251709,-0.5332849621772766,-0.5021308660507202
1790264105720116500,14.035116455078125,-0.8402445316314697,-0.4324922561645508,-0.45387253165245056
1790264105737371100,14.05237109375,-0.8310815095901489,-0.40927940607070923,-0.4098902642726898
1790264105754625500,14.06962548828125,-0.8536835312843323,-0.43982264399528503,-0.5027416944503784
1790264105771880200,14.086880126953124,-0.8988875150680542,-0.4886918365955353,-0.5919279456138611
1790264105789134600,14.104134521484376,-0.8866702318191528,-0.41355544328689575,-0.6169734001159668
1790264105806389000,14.121388916015626,-0.8463531732559204,-0.30604326725006104,-0.5852084755897522
1790264105823643400,14.138643310546875,-0.8084795475006104,-0.4563159942626953,-0.5601630210876465
1790264105840897800,14.155897705078125,-0.7687733173370361,-0.7605266571044922,-0.6108647584915161
1790264105858152200,14.173152099609375,-0.7052434086799622,-0.9792162179946899,-0.6511818766593933
1790264105875406600,14.190406494140625,-0.5745183229446411,-1.2009601593017578,-0.6701186895370483
1790264105892661000,14.207660888671874,-0.457843154668808,-1.2925899028778076,-0.7519745230674744
1790264105909915600,14.22491552734375,-0.36254823207855225,-1.342680811882019,-0.8918625712394714
1790264105927170300,14.24217041015625,-0.2678641974925995,-1.4196497201919556,-1.0091485977172852
1790264105944424700,14.2594248046875,-0.1853974610567093,-1.4208714962005615,-1.1673625707626343
1790264105961679400,14.276679443359376,-0.18173226714134216,-1.0274745225906372,-1.4025455713272095
1790264105978934000,14.29393408203125,-0.30573782324790955,-0.7519745230674744,-1.5039490461349487
1790264105996188400,14.3111884765625,-0.4718930423259735,-0.6701186895370483,-1.4110976457595825
1790264106013443000,14.328443115234375,-0.5904008150100708,-0.6194168925285339,-1.349400281906128
1790264106030697700,14.34569775390625,-0.6661480665206909,-0.49113526940345764,-1.3151918649673462
1790264106047952100,14.3629521484375,-0.7070759534835815,-0.347582072019577,-1.249218463897705
1790264106065206800,14.380206787109374,-0.7003564834594727,-0.31642794609069824,-1.1661409139633179
1790264106082461400,14.39746142578125,-0.694247841835022,-0.4159989058971405,-1.25715970993042
1790264106099715800,14.4147158203125,-0.6881392002105713,-0.4831940531730652,-1.1685843467712402
1790264106116970200,14.43197021484375,-0.6062833070755005,-0.31154105067253113,-1.1056652069091797
1790264106134224600,14.449224609375,-0.4889972507953644,-0.23823726177215576,-0.9865466356277466
1790264106151479000,14.46647900390625,-0.36193737387657166,-0.10018182545900345,-0.8521563410758972
1790264106168733200,14.483733154296875,-0.3026835024356842,0.1130099818110466,-0.7238747477531433
1790264106185987600,14.500987548828125,-0.24892739951610565,0.3139844834804535,-0.593149721622467
1790264106203242200,14.5182421875,-0.1792888194322586,0.3585776388645172,-0.3860665261745453
1790264106220497000,14.535496826171874,-0.08399390429258347,0.3634645342826843,-0.20952661335468292
1790264106237751600,14.55275146484375,-0.03940077871084213,0.2987128794193268,-0.07269290834665298
1790264106255006000,14.570005859375,-0.013133592903614044,0.27366742491722107,0.020158538594841957
1790264106272260600,14.587260498046875,0.003359756199643016,0.40805765986442566,0.056810423731803894
1790264106289515000,14.604514892578125,0.008246674202382565,0.5375609993934631,0.15027274191379547
1790264106306769400,14.621769287109375,-0.0015271619195118546,0.6817250847816467,0.26511532068252563
1790264106324023800,14.63902392578125,-0.0565049909055233,0.7086031436920166,0.379347026348114
1790264106341278200,14.6562783203125,-0.08338304609060287,0.7880155444145203,0.49113526940345764
1790264106358532600,14.67353271484375,-0.023518294095993042,0.8002328872680664,0.5540543794631958
1790264106375787000,14.690787109375,0.06017018109560013,0.8387173414230347,0.6267472505569458
1790264106393041400,14.70804150390625,0.11636973917484283,0.9077450633049011,0.7073814272880554
1790264106410296000,14.725296142578125,0.16279546916484833,1.0103703737258911,0.7788525819778442
1790264106427550700,14.74255078125,0.2263254076242447,1.008537769317627,0.8796452879905701
1790264106444805000,14.75980517578125,0.3087921440601349,0.9352339506149292,0.94439697265625
1790264106462059800,14.777059814453125,0.3814850449562073,0.9107993841171265,0.9841031432151794
1790264106479314400,14.794314453125,0.43829548358917236,0.8295543789863586,1.0965023040771484
1790264106496568800,14.81156884765625,0.5195404887199402,0.7605266571044922,1.2058470249176025
1790264106513823200,14.8288232421875,0.6148353815078735,0.7623592615127563,1.183245062828064
1790264106531077600,14.84607763671875,0.7357866168022156,0.8014546036720276,1.1820234060287476
1790264106548332000,14.86333203125,0.8567378520965576,0.7751874327659607,1.2638791799545288
1790264106565586400,14.88058642578125,0.9153808951377869,0.7073814272880554,1.32985258102417
1790264106582840600,14.897840576171875,0.9001092314720154,0.5949822664260864,1.341459035873413
1790264106600095200,14.91509521484375,0.9184352159500122,0.45326167345046997,1.3090832233428955
1790264106617350000,14.932349853515625,0.9660826325416565,0.3384190797805786,1.3762784004211426
1790264106634604500,14.9496044921875,1.0033453702926636,0.2919933497905731,1.4495820999145508
1790264106651859000,14.96685888671875,0.9837977290153503,0.2516762912273407,1.3646719455718994
1790264106669113600,14.984113525390624,0.9453132748603821,0.16859868168830872,1.232114315032959
1790264106686368300,15.0013681640625,0.9673043489456177,0.10445787757635117,1.1349867582321167
1790264106703622400,15.018622314453125,1.0228930711746216,0.22785256803035736,1.074511170387268
1790264106720876800,15.035876708984375,1.0473276376724243,0.4563159942626953,0.9847140312194824
1790264106738131200,15.053131103515625,1.0344995260238647,0.6236929297447205,0.9883792400360107
1790264106755385600,15.070385498046875,1.0094540119171143,0.676227331161499,1.0042617321014404
1790264106772640000,15.087639892578125,0.9703587293624878,0.8069523572921753,1.0299180746078491
1790264106789894400,15.104894287109374,0.9153808951377869,0.8790343999862671,0.9816597104072571
1790264106807149000,15.122149169921874,0.8231402635574341,0.8093958497047424,0.9046907424926758
1790264106824403700,15.13940380859375,0.7608320713043213,0.6450732350349426,0.842382550239563
1790264106841658400,15.156658447265626,0.7522799968719482,0.5693259835243225,0.8020654320716858
1790264106858912800,15.173912841796875,0.7492256760597229,0.5210676789283752,0.748920202255249
1790264106876167400,15.19116748046875,0.7535017132759094,0.3530798554420471,0.7104357481002808
1790264106893421800,15.208421875,0.7412844300270081,0.12522727251052856,0.6114756464958191
1790264106910676200,15.22567626953125,0.731510579586029,0.08491020649671555,0.4520399272441864
1790264106927930600,15.2429306640625,0.7473930716514587,0.14477495849132538,0.3591884970664978
1790264106945185000,15.26018505859375,0.7400626540184021,0.1233946830034256,0.2987128794193268
1790264106962439400,15.277439453125,0.6887500286102295,0.2156352698802948,0.2003636509180069
1790264106979693800,15.29469384765625,0.5891790986061096,0.3347539007663727,0.09529490768909454
1790264106996948200,15.3119482421875,0.4511236250400543,0.3390299379825592,0.04153880476951599
1790264107014203000,15.329202880859375,0.3179551064968109,0.2632827162742615,0.046425722539424896
1790264107031457500,15.34645751953125,0.18417572975158691,0.18814635276794434,-0.0409279391169548
1790264107048712000,15.3637119140625,0.05039634555578232,0.050090912729501724,-0.17287473380565643
1790264107065966600,15.380966552734375,-0.022296564653515816,-0.10629047453403473,-0.2419024556875229
1790264107083221200,15.39822119140625,-0.025961752980947495,-0.3182605504989624,-0.2883281707763672
1790264107100475600,15.4154755859375,-0.014966187067329884,-0.4477638900279999,-0.35674503445625305
1790264107117729800,15.432729736328126,-0.00946840364485979,-0.5064069032669067,-0.430659681558609
1790264107134984200,15.449984130859375,-0.01740964688360691,-0.5064069032669067,-0.5094612240791321
1790264107152238600,15.467238525390625,-0.038789913058280945,-0.42821621894836426,-0.5302306413650513
1790264107169493000,15.484492919921875,-0.08888082206249237,-0.17898337543010712,-0.5198459029197693
1790264107186747400,15.501747314453125,-0.12614357471466064,0.12644900381565094,-0.5369501113891602
1790264107204001800,15.519001708984375,-0.15607595443725586,0.22357651591300964,-0.5406153202056885
1790264107221256200,15.536256103515624,-0.21716243028640747,0.19853104650974274,-0.4685332775115967
1790264107238510600,15.553510498046874,-0.29535311460494995,0.12034036219120026,-0.3854556679725647
1790264107255765000,15.570764892578126,-0.3228420317173004,0.08491020649671555,-0.3848448097705841
1790264107273019400,15.588019287109375,-0.3197877109050751,0.0030543238390237093,-0.4783071279525757
1790264107290273800,15.605273681640625,-0.36193737387657166,-0.10079269111156464,-0.4862483739852905
1790264107307528400,15.622528564453125,-0.45478883385658264,-0.08613193035125732,-0.41905322670936584
1790264107324782800,15.639782958984375,-0.4786125421524048,-0.023212861269712448,-0.42394015192985535
1790264107342037500,15.65703759765625,-0.38881543278694153,-0.14599667489528656,-0.4972439408302307
1790264107359292200,15.674292236328125,-0.29901832342147827,-0.42943793535232544,-0.49113526940345764
1790264107376546600,15.691546630859374,-0.20799945294857025,-0.6579013466835022,-0.430659681558609
1790264107393801200,15.70880126953125,-0.12980876863002777,-0.7391464114189148,-0.4428769648075104
1790264107411055600,15.7260556640625,-0.2000582218170166,-0.6536253094673157,-0.5980366468429565
1790264107428309800,15.743309814453125,-0.537255585193634,-0.4563159942626953,-0.6591231226921082
1790264107445564200,15.760564208984375,-0.8756746649742126,-0.31154105067253113,-0.6035344004631042
1790264107462818600,15.777818603515625,-0.990517258644104,-0.17592905461788177,-0.6261364221572876
1790264107480073000,15.795072998046875,-0.9361502528190613,-0.13255766034126282,-0.675616443157196
1790264107497327600,15.81232763671875,-0.8475748896598816,-0.2779434621334076,-0.7202095985412598
1790264107514582300,15.829582275390624,-0.7620537877082825,-0.47097674012184143,-0.7635809779167175
1790264107531836700,15.846836669921874,-0.7480039000511169,-0.5687150955200195,-0.7018836140632629
1790264107549091300,15.86409130859375,-0.722347617149353,-0.6310232877731323,-0.6621774435043335
1790264107566346000,15.881345947265626,-0.6973021626472473,-0.7354812026023865,-0.7079922556877136
1790264107583600400,15.898600341796875,-0.6789761781692505,-0.8918625712394714,-0.8026763200759888
1790264107600854800,15.915854736328125,-0.6655371785163879,-1.0384701490402222,-0.9187406301498413
1790264107618109200,15.933109130859375,-0.6618719696998596,-1.1410953998565674,-1.0213658809661865
1790264107635363600,15.950363525390625,-0.6447677612304688,-1.2431098222732544,-1.1050543785095215
1790264107652618000,15.967617919921874,-0.6246092319488525,-1.249218463897705,-1.1911863088607788
1790264107669872400,15.984872314453124,-0.6478220820426941,-1.1789690256118774,-1.331685185432434
1790264107687126800,16.002126708984374,-0.702799916267395,-1.025641918182373,-1.461188554763794
1790264107704381400,16.01938134765625,-0.6484329700469971,-0.7067705392837524,-1.4819579124450684
1790264107721635800,16.0366357421875,-0.5781835317611694,-0.5302306413650513,-1.4776818752288818
1790264107738890500,16.053890380859375,-0.6227766275405884,-0.6041452884674072,-1.388495683670044
1790264107756145200,16.071145263671873,-0.6881392002105713,-0.6267472505569458,-1.3347395658493042
1790264107773399800,16.08839990234375,-0.7663298845291138,-0.6401863098144531,-1.2944225072860718
1790264107790654200,16.105654296875,-0.7852666974067688,-0.8808670043945312,-1.2651009559631348
1790264107807908600,16.12290869140625,-0.703410804271698,-0.9095776677131653,-1.247385859489441
1790264107825163000,16.1401630859375,-0.5384773015975952,-0.8026763200759888,-1.2681553363800049
1790264107842417200,16.157417236328126,-0.39370235800743103,-0.44837474822998047,-1.2180644273757935
1790264107859671600,16.174671630859375,-0.33567020297050476,-0.3811796307563782,-1.158199667930603
1790264107876926000,16.191926025390625,-0.33750277757644653,-0.27550002932548523,-1.0109812021255493
1790264107894180400,16.209180419921875,-0.35094180703163147,-0.030543239787220955,-0.7971785664558411
1790264107911434800,16.226434814453125,-0.34727662801742554,0.28466299176216125,-0.638353705406189
1790264107928689200,16.243689208984375,-0.3228420317173004,0.46425724029541016,-0.4685332775115967
1790264107945943600,16.260943603515624,-0.30085089802742004,0.49602219462394714,-0.2669478952884674
1790264107963198000,16.278197998046874,-0.2880227565765381,0.5180133581161499,-0.043371398001909256
1790264107980452400,16.295452392578124,-0.250149130821228,0.5601630210876465,0.04581485688686371
1790264107997707000,16.31270703125,-0.19333870708942413,0.5180133581161499,0.001832594396546483
1790264108014961400,16.32996142578125,-0.20311254262924194,0.5754346251487732,0.04886918142437935
1790264108032216000,16.347216064453125,-0.2507599890232086,0.6090322136878967,0.15699224174022675
1790264108049470700,16.364470703125,-0.21227550506591797,0.6976075768470764,0.40317076444625854
1790264108066725000,16.38172509765625,-0.09682206809520721,0.7525854110717773,0.7751874327659607
1790264108083979800,16.398979736328126,0.10537417232990265,0.6444623470306396,0.8784235715866089
1790264108101234200,16.416234130859376,0.13225223124027252,0.7141009569168091,0.8283326625823975
1790264108118488600,16.433488525390626,0.09132428467273712,0.7428115606307983,0.9364557266235352
1790264108135742700,16.45074267578125,0.05406153202056885,0.7147117853164673,1.0775654315948486
1790264108152997000,16.4679970703125,0.1695149689912796,0.6206386089324951,1.173471212387085
1790264108170251500,16.48525146484375,0.3124573230743408,0.7122683525085449,1.1783581972122192
1790264108187506200,16.502506103515625,0.4108065664768219,0.7794634699821472,1.2418880462646484
1790264108204760600,16.519760498046875,0.4663952589035034,0.8881973624229431,1.320078730583191
1790264108222015200,16.53701513671875,0.5439751148223877,0.9480621218681335,1.339626431465149
1790264108239270000,16.554269775390626,0.6630937457084656,0.8491020202636719,1.4300343990325928
1790264108256524500,16.571524658203124,0.7834340929985046,0.6939423680305481,1.5424336194992065
1790264108273779000,16.588779052734374,0.8775072693824768,0.730594277381897,1.5265511274337769
1790264108291033300,16.606033447265624,0.9886846542358398,0.7709113359451294,1.4868448972702026
1790264108308287700,16.623287841796873,1.008843183517456,0.7330377101898193,1.4672971963882446
1790264108325542100,16.640542236328123,0.9294307827949524,0.4001164436340332,1.4624103307724
1790264108342796500,16.657796630859377,0.8176425099372864,0.16187916696071625,1.431867003440857
1790264108360051000,16.675051025390626,0.8231402635574341,0.43982264399528503,1.3188570737838745
1790264108377305300,16.692305419921876,0.9917389750480652,0.618806004524231,1.1044435501098633
1790264108394560000,16.70956005859375,1.1255183219909668,0.6750055551528931,0.8839213252067566
1790264108411814400,16.726814453125,1.0937533378601074,0.6554579138755798,0.8362739086151123
1790264108429069000,16.744069091796874,1.0974185466766357,0.7092140316963196,0.925460159778595
1790264108446323700,16.76132373046875,1.24769127368927,0.80389803647995,0.9651663303375244
1790264108463578400,16.778578369140625,1.2996147871017456,0.7415898442268372,0.9700532555580139
1790264108480832800,16.795832763671875,1.1065815687179565,0.5540543794631958,0.8918625712394714
1790264108498087200,16.813087158203125,0.9459241032600403,0.5809323787689209,0.833219587802887
1790264108515341600,16.830341552734374,0.9269872903823853,0.6633991599082947,0.9138537049293518
1790264108532596000,16.847595947265624,0.9740238785743713,0.546113133430481,0.9743293523788452
1790264108549850000,16.86485009765625,0.9141591191291809,0.4379900395870209,0.9688315391540527
1790264108567104500,16.8821044921875,0.8542944192886353,0.40805765986442566,0.8680388331413269
1790264108584359000,16.89935888671875,0.8029817342758179,0.41416633129119873,0.7086031436920166
1790264108601613300,16.91661328125,0.6954695582389832,0.43432486057281494,0.5949822664260864
1790264108618867700,16.93386767578125,0.5904008150100708,0.47525280714035034,0.5656607747077942
1790264108636122000,16.9511220703125,0.5885682106018066,0.3964512348175049,0.5112938284873962
1790264108653376500,16.96837646484375,0.61117023229599,0.23884813487529755,0.3787361681461334
1790264108670631000,16.985630859375,0.5531380772590637,0.23884813487529755,0.26878049969673157
1790264108687885300,17.00288525390625,0.4529562294483185,0.379347026348114,0.13194678723812103
1790264108705139700,17.0201396484375,0.2880227565765381,0.31093016266822815,-0.09346231073141098
1790264108722394400,17.037394287109375,0.09376774728298187,0.1484401375055313,-0.20891575515270233
1790264108739649000,17.05464892578125,-0.05833758786320686,0.06536252796649933,-0.21930044889450073
1790264108756903700,17.071903564453127,-0.15546508133411407,0.04276053607463837,-0.10567960888147354
1790264108774158000,17.089157958984377,-0.20861032605171204,-0.056199558079242706,0.03237583488225937
1790264108791412700,17.106412841796875,-0.20799945294857025,-0.37629270553588867,0.007330377586185932
1790264108808667100,17.123667236328124,-0.15179990231990814,-0.667064368724823,-0.12156209349632263
1790264108825921500,17.140921630859374,-0.11331541836261749,-0.7354812026023865,-0.21807873249053955
1790264108843175700,17.15817578125,-0.09193515032529831,-0.6701186895370483,-0.27550002932548523
1790264108860430000,17.17543017578125,-0.09132428467273712,-0.5913171172142029,-0.31031930446624756
1790264108877684500,17.1926845703125,-0.08949168771505356,-0.4471530318260193,-0.33597561717033386
1790264108894939000,17.20993896484375,-0.13530655205249786,-0.19853104650974274,-0.3695732057094574
1790264108912193300,17.227193359375,-0.21960589289665222,-0.09834922850131989,-0.3848448097705841
1790264108929447700,17.24444775390625,-0.314289927482605,-0.08796452730894089,-0.4043924808502197
1790264108946702000,17.2617021484375,-0.4425715208053589,-0.07147117704153061,-0.43432486057281494
1790264108963956500,17.27895654296875,-0.5207622051239014,-0.13744457066059113,-0.45020735263824463
1790264108981211000,17.2962109375,-0.5305360555648804,-0.1637117564678192,-0.48930269479751587
1790264108998465300,17.31346533203125,-0.5421425104141235,-0.19303326308727264,-0.5772672295570374
1790264109015720000,17.330719970703125,-0.5513054728507996,-0.2211330533027649,-0.6548470258712769
1790264109032974600,17.347974609375,-0.5610793232917786,-0.18142683804035187,-0.6633991599082947
1790264109050229000,17.36522900390625,-0.5500837564468384,-0.1954767256975174,-0.5772672295570374
1790264109067483600,17.382483642578126,-0.5164861679077148,-0.31520622968673706,-0.5271763205528259
1790264109084738300,17.39973828125,-0.46944957971572876,-0.4612029194831848,-0.5790998339653015
1790264109101992700,17.41699267578125,-0.4175260663032532,-0.5149590373039246,-0.7147117853164673
1790264109119247000,17.4342470703125,-0.41263917088508606,-0.5852084755897522,-0.7703005075454712
1790264109136501200,17.451501220703125,-0.42302384972572327,-0.8008437156677246,-0.7800742983818054
1790264109153755600,17.468755615234375,-0.4370737373828888,-0.8759800791740417,-0.8466585874557495
1790264109171010000,17.486010009765625,-0.45906487107276917,-0.7886264324188232,-0.9560033679008484
1790264109188264400,17.503264404296875,-0.4657844007015228,-0.6579013466835022,-1.061682939529419
1790264109205518800,17.520518798828125,-0.4663952589035034,-0.6725621223449707,-1.1478148698806763
1790264109222773200,17.537773193359374,-0.47067132592201233,-0.8283326625823975,-1.219896912574768
1790264109240027600,17.555027587890624,-0.5128209590911865,-0.8674280047416687,-1.2284491062164307
1790264109257282000,17.572281982421874,-0.5549706816673279,-0.8057306408882141,-1.1771364212036133
1790264109274536400,17.589536376953124,-0.6062833070755005,-0.5998691916465759,-1.1087195873260498
1790264109291790800,17.606790771484373,-0.6710349321365356,-0.5332849621772766,-1.0971131324768066
1790264109309045500,17.62404541015625,-0.7113520503044128,-0.6505709886550903,-1.145371437072754
1790264109326300000,17.6412998046875,-0.7651081085205078,-0.8210022449493408,-1.1136064529418945
1790264109343554600,17.658554443359375,-0.7663298845291138,-0.9706641435623169,-1.0555742979049683
1790264109360809200,17.675809326171876,-0.7681624889373779,-1.01708984375,-1.0653481483459473
1790264109378064000,17.69306396484375,-0.8005383014678955,-1.0555742979049683,-1.1392627954483032
1790264109395318300,17.710318359375,-0.8396336436271667,-1.0146464109420776,-1.1337649822235107
1790264109412572700,17.72757275390625,-0.8237511515617371,-0.8735366463661194,-1.1050543785095215
1790264109429827000,17.7448271484375,-0.8023709058761597,-0.7550288438796997,-1.164919137954712
1790264109447081200,17.762081298828125,-0.8194751143455505,-0.7770199775695801,-1.1325433254241943
1790264109464335600,17.779335693359375,-0.8084795475006104,-0.7550288438796997,-1.08978271484375
1790264109481590000,17.796590087890625,-0.7877101302146912,-0.5051851868629456,-1.1197150945663452
1790264109498844400,17.813844482421874,-0.7363975048065186,-0.2632827162742615,-1.2315033674240112
1790264109516098800,17.831098876953124,-0.6221657991409302,-0.10079269111156464,-1.1820234060287476
1790264109533353200,17.848353271484374,-0.5299251675605774,-0.015271619893610477,-1.0115920305252075
1790264109550607600,17.865607666015624,-0.41447174549102783,0.24862197041511536,-0.9120211005210876
1790264109567862000,17.882862060546874,-0.3179551064968109,0.34574946761131287,-0.750141978263855
1790264109585116400,17.900116455078123,-0.2678641974925995,0.3133736252784729,-0.6096430420875549
1790264109602370800,17.917370849609377,-0.2660316228866577,0.22235478460788727,-0.49968740344047546
1790264109619625500,17.93462548828125,-0.2684750556945801,0.15210533142089844,-0.3799578845500946
1790264109636880100,17.951880126953125,-0.20127993822097778,0.08002328872680664,-0.19792018830776215
1790264109654134500,17.969134521484374,-0.1493564397096634,0.12461641430854797,-0.039706211537122726
1790264109671389200,17.98638916015625,-0.07238747924566269,0.2162461280822754,0.1649334877729416
1790264109688643800,18.003643798828126,-0.023518294095993042,0.5387827157974243,0.3640754222869873
1790264109705898200,18.020898193359375,0.007024944759905338,0.711046576499939,0.4569268524646759
1790264109723152600,18.038152587890625,0.05100720748305321,0.8826996088027954,0.5326740741729736
1790264109740406800,18.05540673828125,0.060781046748161316,1.0231984853744507,0.6487383842468262
1790264109757661200,18.0726611328125,0.0870482325553894,0.9749401807785034,0.7348703145980835
1790264109774915600,18.08991552734375,0.10842850059270859,1.0458004474639893,0.8527672290802002
1790264109792170000,18.107169921875,0.13958260416984558,1.1410953998565674,1.0751219987869263
1790264109809424400,18.12442431640625,0.24465134739875793,1.1209368705749512,1.230892539024353
1790264109826678800,18.1416787109375,0.37110036611557007,1.0225876569747925,1.3139700889587402
1790264109843933200,18.15893310546875,0.4731147587299347,0.9462295174598694,1.3939933776855469
1790264109861187600,18.1761875,0.5207622051239014,0.9822705388069153,1.4178171157836914
1790264109878442000,18.19344189453125,0.5836812853813171,0.9450078010559082,1.4306453466415405
1790264109895696400,18.2106962890625,0.6679806113243103,0.8894191384315491,1.433699607849121
1790264109912951000,18.227950927734376,0.7718276381492615,0.8313869833946228,1.423925757408142
1790264109930205700,18.245205810546874,0.8439096808433533,0.7990111112594604,1.3964369297027588
1790264109947460000,18.262460205078124,0.8610138893127441,0.6652317643165588,1.3897173404693604
1790264109964714800,18.27971484375,0.8805615901947021,0.5216785073280334,1.4691298007965088
1790264109981969400,18.296969482421876,0.9172134399414062,0.3280344009399414,1.4679080247879028
1790264109999223800,18.314223876953125,0.9349285364151001,0.3543015718460083,1.320078730583191
1790264110016478200,18.331478271484375,0.9495893120765686,0.5613847374916077,1.0934479236602783
1790264110033732400,18.348732421875,1.0442733764648438,0.6273581385612488,0.9486730098724365
1790264110050986800,18.36598681640625,1.128572702407837,0.5729911923408508,0.9749401807785034
1790264110068241200,18.3832412109375,1.145676851272583,0.49663305282592773,1.0293071269989014
1790264110085495600,18.40049560546875,1.1212422847747803,0.5192350745201111,1.0128138065338135
1790264110102750000,18.41775,1.1181880235671997,0.6517927050590515,0.9297361969947815
1790264110120004400,18.43500439453125,1.1212422847747803,0.8075632452964783,0.8710931539535522
1790264110137258800,18.4522587890625,1.0552688837051392,0.8949168920516968,0.8625410795211792
1790264110154513200,18.46951318359375,0.9367611408233643,0.8478803038597107,0.832608699798584
1790264110171767600,18.486767578125,0.8720094561576843,0.7660244107246399,0.7116574645042419
1790264110189022000,18.50402197265625,0.85918128490448,0.7391464114189148,0.6505709886550903
1790264110206276600,18.521276611328126,0.8237511515617371,0.7238747477531433,0.6450732350349426
1790264110223531000,18.538531005859376,0.7712168097496033,0.5619956254959106,0.5510000586509705
1790264110240785700,18.55578564453125,0.6991347670555115,0.3591884970664978,0.4147771894931793
1790264110258040300,18.573040283203124,0.6044507026672363,0.2412915825843811,0.2883281707763672
1790264110275295000,18.590294921875,0.5335903763771057,0.27855435013771057,0.18142683804035187
1790264110292549400,18.60754931640625,0.49571678042411804,0.3549124300479889,0.15577052533626556
1790264110309803800,18.6248037109375,0.41874781250953674,0.36224281787872314,0.18081597983837128
1790264110327058000,18.642057861328126,0.34177884459495544,0.205861434340477,0.09346231073141098
1790264110344312300,18.659312255859376,0.2458730787038803,-0.07391463965177536,-0.04153880476951599
1790264110361566700,18.676566650390626,0.17745621502399445,-0.27000224590301514,-0.07147117704153061
1790264110378821000,18.693821044921876,0.15607595443725586,-0.37751442193984985,-0.01588248461484909
1790264110396075500,18.711075439453126,0.10109812021255493,-0.4105011224746704,-0.001832594396546483
1790264110413330000,18.728329833984375,0.01740964688360691,-0.471587598323822,-0.07147117704153061
1790264110430584300,18.745584228515625,-0.0565049909055233,-0.546113133430481,-0.1899789422750473
1790264110447838700,18.762838623046875,-0.07910698652267456,-0.5442805290222168,-0.2877173125743866
1790264110465093000,18.780093017578125,-0.0461202897131443,-0.32620179653167725,-0.35185810923576355
1790264110482347500,18.797347412109374,-0.026572618633508682,0.15760311484336853,-0.3946186602115631
1790264110499601700,18.8146015625,-0.11698060482740402,0.6768381595611572,-0.5064069032669067
1790264110516856000,18.83185595703125,-0.29413139820098877,0.6493492722511292,-0.6224712133407593
1790264110534110500,18.8491103515625,-0.4529562294483185,0.2309068888425827,-0.5986474752426147
1790264110551364900,18.86636474609375,-0.536644697189331,0.03848448023200035,-0.5283980369567871
1790264110568619300,18.883619384765623,-0.5549706816673279,0.14538581669330597,-0.5308414697647095
1790264110585873700,18.900873779296877,-0.5696313977241516,0.1588248461484909,-0.5204567909240723
1790264110603128300,18.91812841796875,-0.5708531141281128,0.11423171311616898,-0.5186241865158081
1790264110620382700,18.9353828125,-0.5384773015975952,0.036651886999607086,-0.5332849621772766
1790264110637637400,18.952637451171874,-0.5745183229446411,-0.18142683804035187,-0.49541133642196655
1790264110654892000,18.96989208984375,-0.6826413869857788,-0.4013381600379944,-0.46914416551589966
1790264110672146700,18.987146728515626,-0.7565560340881348,-0.4990765154361725,-0.4618137776851654
1790264110689401000,19.004401123046875,-0.8035926222801208,-0.6139190793037415,-0.4153880476951599
1790264110706655500,19.021655517578125,-0.8206968307495117,-0.7165443897247314,-0.3652971386909485
1790264110723910000,19.038909912109375,-0.7840449213981628,-0.7898481488227844,-0.46486809849739075
1790264110741164300,19.056164306640625,-0.7070759534835815,-0.8497129082679749,-0.6682860851287842
1790264110758418700,19.073418701171875,-0.6044507026672363,-0.9761618971824646,-0.7330377101898193
1790264110775673000,19.090673095703124,-0.5360338687896729,-0.9193515181541443,-0.7379246354103088
1790264110792927500,19.107927490234374,-0.5891790986061096,-0.7122683525085449,-0.7910698652267456
1790264110810181600,19.125181640625,-0.6459894776344299,-0.7422007322311401,-0.7886264324188232
1790264110827436000,19.14243603515625,-0.6722567081451416,-0.7544180154800415,-0.833219587802887
1790264110844690400,19.1596904296875,-0.694247841835022,-0.6316341757774353,-0.9566142559051514
1790264110861944800,19.17694482421875,-0.7241802215576172,-0.6591231226921082,-1.0567960739135742
1790264110879199200,19.19419921875,-0.7192932963371277,-0.813060998916626,-1.1087195873260498
1790264110896453600,19.21145361328125,-0.7241802215576172,-1.0152572393417358,-1.0848958492279053
1790264110913708000,19.2287080078125,-0.7345649003982544,-1.0317505598068237,-1.0311397314071655
1790264110930962400,19.24596240234375,-0.7449495792388916,-0.9993748068809509,-1.0317505598068237
1790264110948216800,19.263216796875,-0.7266236543655396,-1.1948515176773071,-1.0775654315948486
1790264110965471200,19.28047119140625,-0.6539307236671448,-1.1032217741012573,-1.0836740732192993
1790264110982725400,19.297725341796873,-0.5934551358222961,-0.8399390578269958,-1.1814124584197998
1790264110999980000,19.31497998046875,-0.5684096813201904,-0.647516667842865,-1.3658936023712158
1790264111017234700,19.332234619140625,-0.5910117030143738,-0.6969966888427734,-1.4269801378250122
1790264111034489300,19.3494892578125,-0.6472112536430359,-0.80389803647995,-1.3915499448776245
1790264111051743700,19.36674365234375,-0.6875283122062683,-0.6212494969367981,-1.3768892288208008
1790264111068998400,19.383998291015626,-0.6404917240142822,-0.3481929302215576,-1.331685185432434
1790264111086253000,19.401253173828124,-0.5561923980712891,-0.26450446248054504,-1.2327251434326172
1790264111103507200,19.418507080078125,-0.4560105502605438,-0.26939135789871216,-1.0763437747955322
1790264111120761600,19.43576171875,-0.3814850449562073,-0.13255766034126282,-0.8851430416107178
1790264111138016000,19.45301611328125,-0.32650721073150635,-0.03237583488225937,-0.7330377101898193
1790264111155270400,19.4702705078125,-0.25320345163345337,0.0256563201546669,-0.5919279456138611
1790264111172524800,19.48752490234375,-0.2000582218170166,0.16310089826583862,-0.43982264399528503
1790264111189779200,19.504779296875,-0.11698060482740402,0.3958403766155243,-0.34086254239082336
1790264111207033600,19.52203369140625,-0.0308486707508564,0.5027416944503784,-0.22785256803035736
1790264111224288000,19.5392880859375,0.035124726593494415,0.5998691916465759,-0.13988803327083588
1790264111241542400,19.55654248046875,0.11148282140493393,0.6407971382141113,-0.05925388261675835
1790264111258796800,19.573796875,0.20799945294857025,0.6719512343406677,-0.0054977829568088055
1790264111276051000,19.591051025390627,0.29596397280693054,0.749531090259552,0.04825831577181816
1790264111293305300,19.608305419921876,0.4370737373828888,0.7012727856636047,0.1380554437637329
1790264111310559700,19.625559814453126,0.49021899700164795,0.6579013466835022,0.21502439677715302
1790264111327814100,19.642814208984376,0.48105600476264954,0.7153226733207703,0.35613417625427246
1790264111345068500,19.660068603515626,0.49144071340560913,0.739757239818573,0.4984656572341919
1790264111362323000,19.677322998046876,0.5299251675605774,0.6860011219978333,0.6462949514389038
1790264111379577300,19.694577392578125,0.5696313977241516,0.6298015713691711,0.8112284541130066
1790264111396831700,19.711831787109375,0.6178897023200989,0.7006618976593018,1.0097594261169434
1790264111414086400,19.72908642578125,0.7082977294921875,0.7195987105369568,1.186299443244934
1790264111431341000,19.746341064453127,0.7699950337409973,0.6780598759651184,1.3115266561508179
1790264111448595700,19.763595703125,0.7852666974067688,0.6395754218101501,1.4391974210739136
1790264111465850000,19.78085009765625,0.8310815095901489,0.5601630210876465,1.4947861433029175
1790264111483104800,19.798104736328124,0.8897245526313782,0.6206386089324951,1.4550799131393433
1790264111500359200,19.815359130859374,0.961195707321167,0.6890554428100586,1.463021159172058
1790264111517613600,19.832613525390624,1.007010579109192,0.5913171172142029,1.5192207098007202
1790264111534868000,19.849867919921873,1.0039563179016113,0.5302306413650513,1.5430444478988647
1790264111552122400,19.867122314453123,1.0247256755828857,0.6108647584915161,1.4593559503555298
1790264111569376500,19.88437646484375,1.0900882482528687,0.6530144214630127,1.339626431465149
1790264111586631000,19.901630859375,1.1560616493225098,0.4990765154361725,1.25715970993042
1790264111603885300,19.91888525390625,1.2000439167022705,0.35246896743774414,1.2596031427383423
1790264111621139700,19.9361396484375,1.2556325197219849,0.29016077518463135,1.2809834480285645
1790264111638394000,19.95339404296875,1.349705696105957,0.31520622968673706,1.2131774425506592
1790264111655648500,19.9706484375,1.4639374017715454,0.4312705397605896,1.0934479236602783
1790264111672903000,19.98790283203125,1.4388920068740845,0.38301220536231995,0.962722897529602
1790264111690157300,20.0051572265625,1.267238974571228,0.3139844834804535,0.9199623465538025
1790264111707411700,20.02241162109375,1.071762204170227,0.35246896743774414,0.9523382186889648
1790264111724666000,20.039666015625,0.971580445766449,0.45326167345046997,0.9419534802436829
1790264111741920300,20.056920166015626,0.9550870656967163,0.48930269479751587,0.8674280047416687
1790264111759174700,20.074174560546876,0.9330959320068359,0.4984656572341919,0.7935133576393127
1790264111776429000,20.091428955078126,0.9208786487579346,0.6059778332710266,0.8478803038597107
1790264111793683500,20.108683349609375,0.9251546859741211,0.6334667801856995,0.915686309337616
1790264111810937900,20.125937744140625,0.8952223062515259,0.5919279456138611,0.8582650423049927
1790264111828192300,20.143192138671875,0.8933897614479065,0.43004879355430603,0.7189878225326538
1790264111845446700,20.16044677734375,0.8127555847167969,0.3084867000579834,0.5790998339653015
1790264111862701000,20.177701171875,0.5836812853813171,0.32070401310920715,0.430659681558609
1790264111879955500,20.19495556640625,0.28496840596199036,0.2987128794193268,0.2571740746498108
1790264111897209900,20.2122099609375,0.05894844979047775,0.21502439677715302,0.14294235408306122
1790264111914464300,20.22946435546875,-0.02779434807598591,0.039706211537122726,0.11972949653863907
1790264111931718400,20.246718505859373,-0.04917461425065994,-0.2620609998703003,0.14538581669330597
1790264111948972800,20.263972900390623,0.000305432389723137,-0.38789913058280945,0.11362084746360779
1790264111966227200,20.281227294921877,0.023518294095993042,-0.1954767256975174,-0.08552107214927673
1790264111983481600,20.298481689453126,-0.041844237595796585,-0.006719512399286032,-0.30604326725006104
1790264112000736300,20.315736328125,-0.1945604383945465,-0.1802051067352295,-0.33169957995414734
1790264112017991000,20.332990966796874,-0.323452889919281,-0.5705476999282837,-0.370184063911438
1790264112035245300,20.350245361328124,-0.31123560667037964,-0.7226530313491821,-0.3500255048274994
1790264112052500000,20.3675,-0.18906265497207642,-0.6298015713691711,-0.27427828311920166
1790264112069754600,20.384754638671875,-0.10965022444725037,-0.4972439408302307,-0.2620609998703003
1790264112087009000,20.402009033203125,-0.11148282140493393,-0.42332929372787476,-0.3500255048274994
1790264112104263400,20.419263427734375,-0.1536324918270111,-0.37690356373786926,-0.4935787320137024
1790264112121517800,20.436517822265625,-0.18234314024448395,-0.34147340059280396,-0.6414080262184143
1790264112138772200,20.453772216796875,-0.2623664140701294,-0.41233372688293457,-0.7171552777290344
1790264112156026600,20.471026611328124,-0.4205803871154785,-0.43982264399528503,-0.7195987105369568
1790264112173281000,20.488281005859374,-0.5690205693244934,-0.37751442193984985,-0.7116574645042419
1790264112190535400,20.505535400390624,-0.6404917240142822,-0.4098902642726898,-0.7318159937858582
1790264112207789800,20.522789794921874,-0.6472112536430359,-0.535728394985199,-0.7629700899124146
1790264112225044000,20.5400439453125,-0.6496546864509583,-0.7043271064758301,-0.7898481488227844
1790264112242298400,20.55729833984375,-0.6911935210227966,-0.5693259835243225,-0.8020654320716858
1790264112259552800,20.574552734375,-0.7052434086799622,-0.4001164436340332,-0.9138537049293518
1790264112276807200,20.59180712890625,-0.702799916267395,-0.5253437161445618,-1.0274745225906372
1790264112294061600,20.6090615234375,-0.6551524996757507,-0.7464767694473267,-1.008537769317627
1790264112311316000,20.62631591796875,-0.6056724190711975,-0.7232639193534851,-1.018311619758606
1790264112328570400,20.6435703125,-0.6123919486999512,-0.5271763205528259,-1.0885610580444336
1790264112345824800,20.66082470703125,-0.7168498039245605,-0.37751442193984985,-1.1435388326644897
1790264112363079200,20.6780791015625,-0.8842267394065857,-0.45509424805641174,-1.1814124584197998
1790264112380333600,20.69533349609375,-0.9599739909172058,-0.554665207862854,-1.1893537044525146
1790264112397587700,20.712587646484376,-0.9337068200111389,-0.6090322136878967,-1.1814124584197998
1790264112414842000,20.729842041015626,-0.9227112531661987,-0.6597339510917664,-1.1392627954483032
1790264112432096500,20.747096435546876,-0.9324851036071777,-0.9187406301498413,-1.084285020828247
1790264112449351000,20.764350830078126,-0.9831868410110474,-1.4098758697509766,-1.0952805280685425
1790264112466605300,20.781605224609375,-0.9593631625175476,-1.5778636932373047,-1.2174534797668457
1790264112483859700,20.798859619140625,-0.8249728679656982,-1.4868448972702026,-1.2345577478408813
1790264112501114000,20.816114013671875,-0.7009673118591309,-1.5216641426086426,-1.0818414688110352
1790264112518368500,20.833368408203125,-0.6374374032020569,-1.4856231212615967,-1.0213658809661865
1790264112535623000,20.850622802734375,-0.5335903763771057,-1.2895355224609375,-1.0946696996688843
1790264112552877300,20.867877197265624,-0.44868019223213196,-0.9407317638397217,-1.2424989938735962
1790264112570131500,20.88513134765625,-0.4621191918849945,-0.7623592615127563,-1.247385859489441
1790264112587385900,20.9023857421875,-0.5164861679077148,-0.5974257588386536,-1.3322961330413818
1790264112604640300,20.91964013671875,-0.5500837564468384,-0.4202749729156494,-1.3371829986572266
1790264112621894700,20.936894775390623,-0.518318772315979,-0.2406807243824005,-1.2217295169830322
1790264112639149000,20.954149169921877,-0.3857611119747162,0.01649334840476513,-0.9816597104072571
1790264112656403500,20.971403564453126,-0.2721402645111084,0.32620179653167725,-0.9010255336761475
1790264112673657900,20.988657958984376,-0.2098320573568344,0.3500255048274994,-0.8735366463661194
1790264112690912300,21.005912353515626,-0.22754712402820587,0.44470956921577454,-0.8900299668312073
1790264112708167000,21.0231669921875,-0.3277289569377899,0.41905322670936584,-0.8112284541130066
1790264112725421600,21.040421630859374,-0.3998109996318817,0.33169957995414734,-0.6352993845939636
1790264112742676000,21.057676025390624,-0.34727662801742554,0.337808221578598,-0.3903425931930542
1790264112759930600,21.0749306640625,-0.272751122713089,0.43493571877479553,-0.17165300250053406
1790264112777185300,21.092185302734375,-0.23304490745067596,0.6817250847816467,0.08857539296150208
1790264112794439700,21.109439697265625,-0.19700388610363007,0.8093958497047424,0.33719736337661743
1790264112811694000,21.126694091796875,-0.0565049909055233,0.7458658814430237,0.4453204274177551
1790264112828948500,21.143948486328124,0.09132428467273712,0.851545512676239,0.44898560643196106
1790264112846203000,21.161202880859374,0.24770566821098328,0.8362739086151123,0.5283980369567871
1790264112863457300,21.178457275390624,0.35216355323791504,0.8448259830474854,0.6249146461486816
1790264112880711400,21.19571142578125,0.3912588953971863,0.8497129082679749,0.7281508445739746
1790264112897965800,21.2129658203125,0.49510589241981506,0.8570432662963867,0.8949168920516968
1790264112915220200,21.23022021484375,0.6600393652915955,0.9022472500801086,1.0067051649093628
1790264112932474600,21.247474609375,0.7980948090553284,1.0757328271865845,1.0311397314071655
1790264112949729000,21.26472900390625,0.8371901512145996,1.1423171758651733,1.1129956245422363
1790264112966983400,21.2819833984375,0.7993165850639343,1.0372483730316162,1.2461642026901245
1790264112984237800,21.29923779296875,0.7473930716514587,0.896138608455658,1.3726131916046143
1790264113001492200,21.3164921875,0.7406735420227051,0.8032872080802917,1.362228512763977
1790264113018746600,21.33374658203125,0.7925970554351807,0.7513636946678162,1.3041963577270508
1790264113036001000,21.3510009765625,0.8659008145332336,0.6719512343406677,1.32985258102417
1790264113053255200,21.368255126953127,0.9147700071334839,0.5839866995811462,1.4172062873840332
1790264113070509600,21.385509521484376,0.897665798664093,0.5137372612953186,1.4911209344863892
1790264113087764000,21.402763916015626,0.8451313972473145,0.42943793535232544,1.4092650413513184
1790264113105018400,21.420018310546876,0.8646790981292725,0.35735589265823364,1.2913681268692017
