time,seconds_elapsed,z,y,x
1789075316631262000,0.090261962890625,-0.6129512808352708,-0.9397364265710115,-0.6483418892987072
1789075316641205800,0.100205810546875,0.1022901616513729,-0.8215066452488303,-0.3574873041220009
1789075316651148800,0.110148681640625,0.6179010121971369,-0.6063334701307117,-0.006972834687307476
1789075316661091800,0.120091796875,0.7234101358950138,-0.33158976953849195,0.2688660041978583
1789075316671035000,0.130034912109375,0.4301870680212974,-0.11234320750162005,0.45051078452784565
1789075316680978000,0.13997802734375,-0.20065233620405196,0.07556582085490227,0.428524760832265
1789075316690920700,0.149920654296875,-0.7727981439203023,0.22473142318874595,0.3689448464753106
1789075316700863700,0.15986376953125,-1.01146719930768,0.35293592442795635,0.20370850890427827
1789075316710806800,0.169806884765625,-0.8923124120950698,0.3741881174236536,-0.1490947290547192
1789075316720750800,0.179750732421875,-0.8078501680791378,0.24086335056126115,-0.4278022552439943
1789075316730694000,0.18969384765625,-0.9497966328144073,0.17134543156847357,-0.4179320551473647
1789075316740637000,0.199636962890625,-1.1784294473558663,0.3883990136057138,-0.3415726727619767
1789075316750579700,0.209579833984375,-1.324044371470809,0.8129981984920799,-0.2002489795675501
1789075316760522800,0.219522705078125,-1.4536813897311687,1.2506969573177396,0.054596024997159834
1789075316770465800,0.2294658203125,-1.4385399347007273,1.673694406095892,0.4784126446710899
1789075316780408800,0.239408935546875,-1.666744294697046,2.086905204875022,0.9540701454151421
1789075316790352000,0.249351806640625,-1.4540671741783617,2.546550568701327,1.4175522378601133
1789075316800295000,0.259294921875,-0.8592939395904541,2.978570989629626,1.9545614118739962
1789075316810238700,0.26923876953125,-0.4628092346847057,3.402958431461453,2.4528847352713345
1789075316820181200,0.27918115234375,0.5228168364018202,3.5772578905299306,2.9724452002257107
1789075316830124300,0.289124267578125,1.5257009162813424,3.4793761929705735,2.6889816020831465
1789075316840067300,0.2990673828125,1.517394860228896,1.776591739860177,2.5918203277528282
1789075316850010400,0.30901025390625,1.896739045241475,2.4267262116640804,3.0729522778525946
1789075316859953400,0.318953369140625,1.773208527162671,4.029740084728599,3.5801758238032457
1789075316869896400,0.328896484375,2.291120640388131,6.169884566229581,4.345069770470261
1789075316879839500,0.338839599609375,3.596220072892308,7.232507952278852,4.982714178535342
1789075316889783300,0.348783203125,4.1284512188494205,6.339068581980467,5.918565288105607
1789075316899726300,0.358726318359375,4.251219520384073,5.204944140297174,5.507664519834518
1789075316909669400,0.36866943359375,4.3100656771063806,4.30192474848777,3.697458679664135
1789075316919612400,0.3786123046875,4.5195875484645365,3.490341531360149,2.0314345159351825
1789075316929555500,0.388555419921875,4.261456252238154,2.5880133366852998,0.2492893797315657
1789075316939498500,0.39849853515625,3.2742098864734173,1.5302081645727157,-0.9137890614964067
1789075316949441300,0.408441162109375,2.1839807006180285,1.1425520782887935,-0.07944163937494159
1789075316959384300,0.41838427734375,2.0394430503457786,2.796904216663539,1.2362531291626393
1789075316969327000,0.4283271484375,2.231692299863696,4.879375676874816,2.7402991168662902
1789075316979271400,0.438271484375,1.1629910552054643,5.253078348869085,4.966020233365893
1789075316989214500,0.44821435546875,0.998100937256217,3.6573967183887954,5.625745540335774
1789075316999157500,0.458157470703125,1.92149705440104,2.8870468444034456,3.495492922773957
1789075317009100300,0.468100341796875,3.2976714260816573,3.3205449366688726,-0.6512677136175334
1789075317019043300,0.478043212890625,2.30386029497385,2.4358330627053975,-3.1399840791180726
1789075317028986000,0.487986083984375,-0.12563830401301385,1.4130483505696056,-4.2571448187798255
1789075317038929200,0.49792919921875,0.0644926381766796,2.151413479012251,-5.5679678896278135
1789075317048872200,0.5078720703125,0.8922270718991756,1.8276880131080746,-4.189654167830944
1789075317058816300,0.517816162109375,2.2147762363761663,1.455519418813288,-2.6606667772248387
1789075317068759300,0.52775927734375,3.704365974834561,1.860778089544177,-2.1545079378962515
1789075317078702300,0.537702392578125,4.051103775274753,2.468281334106624,-1.7362147212862968
1789075317088645000,0.54764501953125,4.157883065038919,1.499843421447277,0.48672319423556326
1789075317098588200,0.557588134765625,3.510096033143997,0.09344166928529739,0.8044207781523466
1789075317108531200,0.56753125,3.5583337020903825,2.2878481945887206,-3.811415313711762
1789075317118474200,0.57747412109375,3.246680659034848,1.2573644523829222,-5.01884230749309
1789075317128417300,0.587417236328125,2.1721774500995874,-0.026551614578068254,-6.120996908941865
1789075317138360300,0.5973603515625,1.6308359459698198,0.39948067185133695,-6.903162600666284
1789075317148304100,0.60730419921875,0.9727449622035026,0.28507775534093377,-6.884642024591565
1789075317158247200,0.6172470703125,1.7345137625873088,0.8453706281781196,-8.454616966885327
1789075317168190200,0.627190185546875,3.1100404840141533,-0.34687340951859946,-10.491341405922174
1789075317178133200,0.63713330078125,6.273065539240837,-1.594181162789464,-14.21196234998703
1789075317188076300,0.647076171875,10.002553680372237,-1.7911317218661307,-15.38631592620611
1789075317198019300,0.657019287109375,11.770914767503738,-2.0440749479301275,-13.410038064825534
1789075317207962400,0.66696240234375,9.891875629603863,-2.9641774303570387,-10.930679748648405
1789075317217905400,0.676905517578125,5.4087248376548285,-2.6303531797647475,-10.388963565987348
1789075317227848200,0.68684814453125,0.7210510055482388,-1.501592603202164,-10.385929897379874
1789075317237792300,0.696792236328125,-2.6122797629356382,-0.08847703261524438,-8.779943145984412
1789075317247735300,0.7067353515625,-4.551918038704991,1.0256503306999802,-5.906628182074427
1789075317257678300,0.71667822265625,-4.570705156761408,1.7514496998190878,-2.243309087899327
1789075317267621400,0.726621337890625,-2.8785049337685105,1.7864964632809162,1.070229769399762
1789075317277564200,0.736564208984375,-2.9724364323973655,1.7754085214249788,3.5156086590856312
1789075317287507200,0.746507080078125,-4.9461938353896135,1.6835379008486866,4.941778357034921
1789075317297450200,0.7564501953125,-7.508225174078345,0.7064188152141868,6.348445482134819
1789075317307393300,0.766393310546875,-10.294973615169525,-1.0697210892252624,5.545976422572136
1789075317317337300,0.77633740234375,-12.14463935906887,-0.729162269680947,-0.564115645995736
1789075317327280400,0.7862802734375,-10.26353568985462,-2.105736892725527,-3.5432121208041902
1789075317337223200,0.79622314453125,-5.818064932480454,-2.6589061972931027,-4.923880296772718
1789075317347166200,0.806166259765625,-3.162610629206896,-2.3493004421561956,-3.6297505865722894
1789075317357109200,0.816109130859375,-1.7150193730443715,-1.8685041537515819,-1.5855483590006827
1789075317367052300,0.82605224609375,-0.33692367791235445,-1.3298074650421738,-1.4355635492384433
1789075317376995300,0.835995361328125,0.1255225686788559,-1.8379627388849853,-2.0612024622112513
1789075317386938400,0.8459384765625,-0.7690963667929172,-1.1708020942825823,-1.5796125392109155
1789075317396882200,0.855882080078125,-1.8203443723469972,-0.3650616118337959,-1.153851470938325
1789075317406825200,0.8658251953125,-1.655703845244646,-0.03789488290194422,-0.6774877581536769
1789075317416768300,0.875768310546875,-0.831951174634695,-0.5480897728135808,0.10509060602486132
1789075317426711300,0.885711181640625,0.06926292131841183,0.21843480726256964,2.6854771010935305
1789075317436654300,0.895654296875,1.176346795862913,0.8253259112760424,5.1485003685414785
1789075317446597400,0.905597412109375,2.7743559925079344,-2.707740663088858,2.22004745477736
1789075317456540400,0.91554052734375,2.558780227938294,-2.792868093015253,1.5212141262561083
1789075317466483500,0.9254833984375,1.285945819222927,-3.5388428196787833,0.23470658149719237
1789075317476427300,0.93542724609375,-0.5515946025967597,-4.012260542139411,-1.3526947118937969
1789075317486370300,0.945370361328125,-1.9368325706988572,-3.470335977424681,-1.6907067695647477
1789075317496313300,0.955313232421875,-1.6234861677289008,-3.198105428697169,-1.4944605593651532
1789075317506256400,0.96525634765625,-0.30304128205478187,-2.940953791157901,-0.9599579613447189
1789075317516199400,0.975199462890625,0.3604021686553955,-2.430273821143061,-0.5533259564340114
1789075317526142500,0.985142578125,0.4184335018634796,-1.9910593970574437,-0.3049550067216158
1789075317536085200,0.995085205078125,0.3049287032365799,-1.6241845252566038,0.2880003647893667
1789075317546028300,1.0050283203125,0.047264440000057216,-1.0015078230902552,0.4475333396196365
1789075317555971300,1.014971435546875,-0.3107014414191246,-0.17932634731978178,0.21858254517018794
1789075317565915400,1.024915283203125,-0.6609504648506641,0.5478782124221324,0.19045593636035918
1789075317575858400,1.0348583984375,-1.1532494133919478,1.2163675483450294,0.37335809634029865
1789075317585801500,1.044801513671875,-1.439717161786556,1.8710422939270734,0.5319248564869166
1789075317595744300,1.054744140625,-1.3445868087619541,2.5710309299632907,0.5728671077281237
1789075317605687300,1.064687255859375,-1.0079659131884575,3.3489439326792954,0.2277951946735382
1789075317615630300,1.07463037109375,-0.9105150082617998,4.135838991013169,-0.2529705524623394
1789075317625573400,1.084573486328125,-1.3041940080970524,3.6242893985569475,-1.3507552682638166
1789075317635516400,1.094516357421875,-0.7782078940093516,3.5479689599424598,-1.6306085669547319
1789075317645460500,1.10446044921875,0.22938275612592696,4.473123026670515,-0.36552316493093967
1789075317655403300,1.1144033203125,1.4242647411108016,5.1127171074986455,1.084474567851424
1789075317665346300,1.12434619140625,2.356532146975398,4.990896315947174,1.730117573454976
1789075317675289300,1.134289306640625,1.7449907329380512,4.7206385285973544,2.100777516752481
1789075317685232400,1.144232421875,1.6110446193069219,5.571478528097272,2.678836932426691
1789075317695175400,1.154175537109375,1.3880056792497635,5.293488100668788,2.253736958411336
1789075317705118500,1.164118408203125,1.7379016514599321,4.768506195187569,2.2024498387664555
1789075317715061500,1.1740615234375,2.475195351278782,4.513444223403931,1.2493985880702734
1789075317725005300,1.18400537109375,3.178587366017699,4.612488535001874,0.558341738769412
1789075317734948400,1.1939482421875,3.7687650895088907,4.467282191687822,-0.18070786480605602
1789075317744891400,1.203891357421875,3.763272337311506,3.9800662454992533,-0.4385112442523241
1789075317754834400,1.21383447265625,2.8201421766489743,3.6329134345173832,0.17417524816691873
1789075317764777500,1.223777587890625,1.3629232604414223,2.5174399172902104,1.0414403127670286
1789075317774720300,1.23372021484375,0.6747270612686872,0.7909241677194834,1.0339917503267526
1789075317784663300,1.243663330078125,0.6270061096727848,0.20010873084664343,1.7035574833095073
1789075317794606300,1.2536064453125,1.2803893541395663,-0.3269581642150879,3.278296863526106
1789075317804550400,1.26355029296875,1.9092863921254872,-0.47854456395506856,3.5452632081151005
1789075317814493400,1.273493408203125,1.4925526799172162,-0.5494803869217634,2.640557178393006
1789075317824436700,1.283436767578125,-0.2177379110395908,-0.6817781488239765,2.029810714125633
1789075317834379800,1.2933798828125,-1.8185171569198368,-0.5101812267124652,0.845507990822196
1789075317844322600,1.303322509765625,-2.4937492451012133,-0.5537514883697032,0.07347381701171397
1789075317854265600,1.313265625,-2.270571773356199,-0.47128480208516116,1.021829018846154
1789075317864208600,1.323208740234375,-1.7495874130785465,-0.3458163016811013,2.3570827665954828
1789075317874151700,1.333151611328125,-1.8478969806611536,-1.1403735652059317,3.828083539918065
1789075317884095700,1.343095703125,-2.680127556759119,-3.2101331356212497,4.388463506516814
1789075317894038800,1.353038818359375,-3.7912703513056036,-4.083232313202322,0.30768764655590053
1789075317903981600,1.362981689453125,-4.198751666522026,-3.4484655064001677,-3.039374125638604
1789075317913924600,1.372924560546875,-2.166516355597973,-2.9778920674547553,-2.704423209103942
1789075317923867600,1.38286767578125,0.7110702942818403,-1.6479408100277184,-0.4255009560316801
1789075317933810700,1.392810791015625,3.1166257076233626,0.03310848887562751,1.6879472417235373
1789075317943753700,1.402753662109375,4.9422997505605215,1.5231062236130237,3.5824475681275127
1789075317953696500,1.412696533203125,5.712151319634914,3.0565161068364977,5.280704606941342
1789075317963640600,1.422640625,5.208913628450036,3.901630129905045,6.188457164752483
1789075317973583600,1.43258349609375,4.159024051767587,3.8820167901575564,6.114214701455831
1789075317983526700,1.442526611328125,2.463252984550595,3.974277725225687,3.2610774331778285
1789075317993469700,1.4524697265625,0.35565585091114044,3.6266207641139623,-1.040091236245632
1789075318003412500,1.46241259765625,-0.30879882266819475,1.9770356940105556,-2.654231483480334
1789075318013355500,1.47235546875,0.7225579029798507,0.887205736605823,-2.2996271874487397
1789075318023298600,1.482298583984375,2.162450421333313,0.4157102143794298,-0.7937269501805305
1789075318033241600,1.49224169921875,3.4331314514070748,0.08455109134316444,1.0516302828699349
1789075318043184600,1.5021845703125,3.322887992663681,0.3409004725888371,2.4519898322582243
1789075318053128700,1.512128662109375,2.371175297094881,0.9435004552796482,3.0351228979349134
1789075318063071500,1.522071533203125,1.2709709529310464,1.5680582950174808,3.017055326324701
1789075318073014500,1.5320146484375,1.0280313806176185,2.185714684803784,2.5817116061925884
1789075318082957600,1.54195751953125,1.8253513868540525,2.0692194721892476,2.551619250267744
1789075318092900600,1.551900634765625,2.7513468728423116,1.5391311834797263,2.908046670073271
1789075318102843600,1.56184375,2.495189507037401,1.5773741126343608,2.361103108152747
1789075318112786400,1.571786376953125,2.1595728200703856,2.3604748932518063,0.6947276467680931
1789075318122729500,1.5817294921875,1.0899224579937756,3.1200808165133,-0.5268196423023939
1789075318132673500,1.591673583984375,-1.5212747704021632,4.877233988671004,-0.6381698932439088
1789075318142616600,1.601616455078125,-4.972244806969165,6.51491380918622,-0.5394266104191542
1789075318152559600,1.6115595703125,-6.82232263880074,8.176135541069508,1.0970055481225252
1789075318162502400,1.62150244140625,-8.084795812499523,8.859235293886066,1.5492928042709826
1789075318172445400,1.631445556640625,-8.186251276892422,8.71537978065908,0.7261117960691451
1789075318182388500,1.641388427734375,-5.998946984809637,9.10307736799717,-1.2299112127900123
1789075318192331500,1.65133154296875,-1.45525945270285,8.23551361271143,-4.282677903965116
1789075318202274600,1.661274658203125,2.092082315251976,4.001516445285081,-8.107849355828762
1789075318212218600,1.671218505859375,0.788711898497492,-0.5328342264167965,-9.872865808707475
1789075318222161400,1.681161376953125,2.192391824480146,-1.387752873532474,-11.65251868970394
1789075318232104400,1.6911044921875,2.595857328183949,-3.4350536516413093,-11.818270392918587
1789075318242047500,1.701047607421875,3.1184137600839135,-3.318779972822964,-11.083962430912255
1789075318251990500,1.710990478515625,4.040494702976942,-1.288931557035446,-8.661488031473755
1789075318261933600,1.72093359375,3.9281916813552376,0.9293553178101778,-6.3368415535807605
1789075318271876600,1.730876708984375,1.9613021183058619,2.112966259457171,-6.635128919106721
1789075318281820400,1.7408203125,-2.482486969591677,-0.005484276629984379,-5.060673032006621
1789075318291763500,1.750763427734375,-5.139489379090071,1.1126426777154206,-4.451453338915109
1789075318301706500,1.76070654296875,-5.264340916639566,2.9238626633644103,-4.767464577180147
1789075318311649500,1.7706494140625,-4.399051243765652,2.893722668905556,-2.830088401123881
1789075318321592600,1.780592529296875,-3.22239435904026,2.8366473212480545,-0.5419049832314252
1789075318331535600,1.79053564453125,-1.9871698422729969,3.3959587818324564,0.9640800097107887
1789075318341478700,1.800478759765625,-0.26926556144207714,2.6101795757859945,1.9372849906414746
1789075318351421700,1.810421630859375,2.665337983906269,1.8720137693077326,1.453309633809328
1789075318361365500,1.820365478515625,10.635258878469466,-0.17500205437988042,-1.7384937721341847
1789075318371308500,1.83030859375,31.175683076226708,-6.935209597790241,2.357130697390437
1789075318381251600,1.84025146484375,12.666474783217906,-5.869498767119646,-3.554195871633291
1789075318391194600,1.850194580078125,10.691971530294417,-1.009997711277008,-3.6386253824234007
1789075318401137700,1.8601376953125,8.468685239726305,-0.5655041777446865,-3.135143945610523
1789075318411080700,1.870080810546875,5.538853438824415,0.957716027636826,-3.2178432716071605
1789075318421023500,1.8800234375,4.044092727468907,7.424900409659743,-2.281187859916687
1789075318430966500,1.889966552734375,-0.8439303662419319,9.555568037763237,1.9346166482150553
1789075318440910600,1.89991064453125,-4.598922950986028,0.4890782329291105,-0.4906517658561468
1789075318450853600,1.909853515625,-4.237935091397166,3.0683029907420276,2.5303666188806293
1789075318460796700,1.919796630859375,-4.039874525251984,9.420998239275812,2.13927412840724
1789075318470739700,1.92973974609375,-7.1767749591410155,2.0380551031187175,2.183857366499305
1789075318480682500,1.9396826171875,-5.79830283191204,-0.1709647616878152,2.438940965592861
1789075318490625500,1.94962548828125,-3.446415588133037,2.093575622549653,-1.979897805443406
1789075318500568600,1.959568603515625,-4.356899616734683,-0.8309656707286834,-4.029385279941558
1789075318510511600,1.96951171875,-0.7976374016225337,-4.152184853397309,-2.325701539903879
1789075318520455700,1.97945556640625,2.3744611868977543,-5.88573561617136,-2.079438960647583
1789075318530398700,1.989398681640625,2.707007380378246,-4.736134203892946,-3.805386554941535
1789075318540341500,1.999341552734375,1.4616457927390931,-5.019559515851736,-4.417216722792387
1789075318550284500,2.009284423828125,-0.5818190604686737,-3.6779286342859265,-4.02250136564672
1789075318560227600,2.0192275390625,-3.988557887251675,-2.5967232973635195,-3.174252551683783
1789075318570170600,2.029170654296875,-6.230400117468833,-1.7894094281181692,-2.8340865308493375
1789075318580113700,2.03911376953125,-4.959620303195715,-1.597226521834731,-1.799374649554491
1789075318590056700,2.049056640625,-3.636942836163938,-2.419925299477577,-1.150413897705078
1789075318600000500,2.05900048828125,-0.06521072331815958,-3.4979482069715857,0.19685645105242727
1789075318609943600,2.068943603515625,4.953591544425487,-5.501437608143687,2.8097125525712965
1789075318619886600,2.078886474609375,9.287080182695389,-6.823480576664209,2.775750077214837
1789075318629829600,2.08882958984375,5.522828186696768,-3.8262861351072788,2.4029057756155727
1789075318639772700,2.098772705078125,-4.107591970694065,-2.848565430317819,12.887554990422725
1789075318649715700,2.1087158203125,-4.964684600847959,-2.043916104106605,7.347145554327964
1789075318659658800,2.11865869140625,0.4486871858298778,-2.708279007749259,-0.6500111376851797
1789075318669602600,2.1286025390625,-0.3429924764320254,-4.2718242092564696,-1.6479583456844091
1789075318679545600,2.138545654296875,-0.5182946828022599,-3.663383099322021,-0.8381716565847397
1789075318689488600,2.148488525390625,1.023909039990604,-2.103098653176427,-1.4548065943688153
1789075318699431700,2.158431640625,0.9516860998228192,-2.0906220334410666,-2.2495821768194437
1789075318709374700,2.168374755859375,-0.9300386238992213,-2.0034350406363606,1.2432879962354897
1789075318719317800,2.17831787109375,-0.6574170300275087,-0.5735524596437811,3.6500837650269267
1789075318729260800,2.1882607421875,-1.3392989314869046,0.08532002988904715,2.8402169964283703
1789075318739203600,2.19820361328125,-0.5648194103509188,0.2529807815954089,2.0183757123976944
1789075318749147600,2.208147705078125,0.21101064861118793,1.2336483534917235,2.3205787900626658
1789075318759090700,2.218090576171875,0.0720353086411953,1.8631088705793022,2.8570091412752867
1789075318769033700,2.22803369140625,0.46943537482619285,1.8220356864348053,2.518543494617939
1789075318778976800,2.237976806640625,-0.41525019565224647,1.3008115260519086,2.539808400964737
1789075318788919800,2.247919921875,-1.2623466247096657,1.3996439484648406,2.7363667458534238
1789075318798862600,2.257862548828125,-1.9273375971227884,1.39681018634364,2.5698487344413996
1789075318808805600,2.2678056640625,-1.461625626733899,1.0468984320424497,1.6968641231507062
1789075318818749000,2.2777490234375,0.005360942511260509,0.5319514522328973,0.6871399681180715
1789075318828692000,2.28769189453125,0.8631754571989179,-0.16370456142649054,0.09207388806343078
1789075318838635000,2.297635009765625,1.2571733137249945,-0.6131580554537475,-0.5263187070429325
1789075318848578000,2.307578125,1.2832839065372943,-0.32724560285434123,-0.9403606959491968
1789075318858521000,2.31752099609375,1.0758315349295735,-0.04095145746096968,-1.099310902455449
1789075318868463900,2.3274638671875,1.2404150711476802,0.4750295415714383,-0.9874877733051777
1789075318878407000,2.337406982421875,0.2953910595625639,0.643937955251336,-0.7168161444574594
1789075318888350000,2.347349853515625,0.9059706428304314,0.2529733289413154,-0.31139409985840316
1789075318898294000,2.3572939453125,1.870052406106889,0.1696045792505145,0.9802595756173134
1789075318908237000,2.367237060546875,1.6732953237757087,-0.29677696096301076,0.24572949529290197
1789075318918180000,2.37718017578125,1.2977750809654593,-0.9188491213649511,-0.8018190712213515
1789075318928123000,2.387122802734375,1.1062041691005229,-1.0091082150913775,-1.7228081272244453
1789075318938066000,2.39706591796875,0.18273937063366175,-1.0599315166167915,-1.797345189553499
1789075318948009000,2.407009033203125,0.5369745410919189,-0.7720866346500813,-0.8844757271200417
1789075318957952000,2.416951904296875,0.6211465699896216,-0.8359959199808538,-0.026021745485067367
1789075318967895000,2.42689501953125,0.7291095165804028,-1.4566260648809373,-0.4043377564936876
1789075318977839000,2.436839111328125,1.4835422749876974,-2.0872711155779657,-1.021596379134059
1789075318987782000,2.446781982421875,1.2594877281472086,-1.797325754200667,-1.086115905317664
1789075318997725000,2.456724853515625,0.7608870491132139,-1.3927730397820473,-0.6100163964271546
1789075319007668000,2.46666796875,0.7222805473431945,-1.7217663630865514,-0.7987024005055428
1789075319017611000,2.476611083984375,0.8085016177251935,-1.8381727283738551,-0.7153203529417514
1789075319027554000,2.486553955078125,1.1128165729776025,-1.0998001472771166,-0.01806523352265358
1789075319037497000,2.4964970703125,0.6035755497246981,-0.8396753391459584,0.9946189403593539
1789075319047441000,2.50644091796875,0.9015759150028229,-1.0853405370309948,1.3360674022197723
1789075319057384000,2.516384033203125,-0.4202198007583618,-1.0553856898806988,0.8604284965783358
1789075319067327000,2.526326904296875,-0.6639148676142096,-0.4479990574352443,1.5758026255339384
1789075319077270000,2.53627001953125,-0.10207593437880277,-0.09459785358309745,2.0604893455058333
1789075319087213000,2.546213134765625,-0.5415335195705294,0.06873977422714234,2.5361001940965653
1789075319097156000,2.556156005859375,-0.8986787322565912,0.5623536047592759,2.550371880555153
1789075319107099000,2.566098876953125,-1.1741142145052552,0.6641048372283578,1.7713889105200766
1789075319117043000,2.57604296875,-0.38057606489509344,0.7227291678935289,0.9386509694218635
1789075319126986000,2.585986083984375,0.7702712557911873,0.6103612643420696,0.8017015823215246
1789075319136929000,2.595928955078125,0.444255633123219,0.1364104579180479,0.9271107537537813
1789075319146872000,2.6058720703125,0.45221799030452964,-0.06586509557366371,0.06665069299340248
1789075319156815000,2.615815185546875,1.0462415755689143,-0.3635550797283649,-2.2488602922856806
1789075319166758000,2.6257578125,-0.2140976548410952,-0.37595249674767256,-3.1152175943911073
1789075319176701000,2.635700927734375,-0.5305825019672513,-0.014104805459082126,-3.3172944104403257
1789075319186643700,2.645643798828125,0.8400244448445737,0.17191899367272853,-3.296660787734389
1789075319196588000,2.655588134765625,1.404643802578747,0.2343389172285795,-2.7800498202353716
1789075319206531000,2.665531005859375,1.1615656985774636,0.32582273044437166,-2.4260095878273247
1789075319216473900,2.675473876953125,0.40786066992282866,0.3710369599163532,-2.1189239988178015
1789075319226417000,2.6854169921875,0.9498962937965989,0.20722411580979821,-0.4698924709439277
1789075319236360000,2.69535986328125,0.2552057641685009,-0.055583940055966376,-0.05677636471092701
1789075319246302700,2.705302734375,-0.7480816358149052,0.8017863379955291,-0.13184592648148535
1789075319256245800,2.715245849609375,1.0485004604116082,0.8820464541465044,0.8949065202414989
1789075319266190000,2.725190185546875,1.048520918677747,0.7004241048440337,1.7009627906411886
1789075319276132900,2.7351328125,1.0656421493485568,1.0956468269899486,2.361213582789898
1789075319286076000,2.745075927734375,1.5668796066269277,0.7233487610965966,2.4957097315192223
1789075319296019000,2.75501904296875,1.416511350505054,0.2149184697046876,1.9112913022071123
1789075319305961700,2.764961669921875,1.0590730000913142,0.7036582644596695,0.11942834345698355
1789075319315904800,2.77490478515625,0.5757713047370314,1.023793012395501,-1.8430372656702994
1789075319325847800,2.784847900390625,-0.22325755124390123,0.7280290278673172,-1.930676386156678
1789075319335790800,2.794790771484375,0.30305852545052764,1.0716346677616237,-0.8873609271675348
1789075319345735000,2.80473486328125,1.0894234224304555,1.2480407437205314,-0.600474076578021
1789075319355678000,2.814677978515625,1.2382616925060748,0.921702757230401,-1.5819512112915515
1789075319365620700,2.824620849609375,1.3539987802296876,0.25627806957513094,-1.3975959298938512
1789075319375563800,2.834563720703125,-0.11662409969121217,2.5524407957836983,-2.644283505439758
1789075319385506800,2.8445068359375,-0.14410072015970946,1.2495362429752945,0.6543015283554792
1789075319395449900,2.854449951171875,1.0840075348615645,0.13024053711146116,4.05500721245408
1789075319405393000,2.864392822265625,1.8918258464977145,-0.10110971969515084,3.3761727158665655
1789075319415337000,2.8743369140625,1.2249679111689329,0.0069438277885317794,1.674631833076477
1789075319425279700,2.88427978515625,1.3286039344713092,-0.6563938244596124,1.8356664446413515
1789075319435222800,2.894222900390625,1.7882596735611558,-1.511572437685728,1.4959353080928324
1789075319445165800,2.904165771484375,-1.6602736373782156,-0.32097002971619365,-6.551071748760342
1789075319455108900,2.91410888671875,-0.9473054005205631,0.606606295722723,-5.950706977775693
1789075319465052000,2.924052001953125,0.6297086466297507,0.31793110041171313,-1.0412444979339837
1789075319474995000,2.933994873046875,-0.22274843267798422,2.190902316574752,1.5273977833271026
1789075319484938000,2.94393798828125,0.8891852199852466,2.058434751063585,0.7441752760261297
1789075319494881800,2.9538818359375,1.3214622460231185,2.229071888232231,-0.4314385293871164
1789075319504824800,2.963824951171875,0.3098407329365611,2.364187630164623,0.29670272668302056
1789075319514768000,2.973767822265625,-0.1693526503160596,2.8926407188877463,2.278339484748244
1789075319524711000,2.9837109375,0.17666355785131455,2.791669530880451,3.8144700251072643
1789075319534654000,2.993654052734375,0.8084022490039467,2.1857097163677213,3.7557255751937624
1789075319544597000,3.003596923828125,1.0412991507306695,0.809694334641099,2.8094641307681796
1789075319554540000,3.0135400390625,1.0595122682914138,0.46014381486773487,2.590140996363759
1789075319564483800,3.02348388671875,1.1818342873632908,1.0213111324518918,2.799351902076602
1789075319574427000,3.033427001953125,6.743925978434086,0.6065174483954906,-0.1703174036949873
1789075319584370000,3.043369873046875,-5.436143590456247,-0.9650605451807379,8.236137882089615
1789075319594313000,3.05331298828125,-3.1833830758616326,2.494898707397282,6.5762582124650475
1789075319604256000,3.063256103515625,-1.3889698481068014,0.10267010087966918,5.157321972900629
1789075319614199000,3.073198974609375,0.6066399057313799,-1.0066577531993388,0.42585926795005796
1789075319624141800,3.083141845703125,1.1173021939590573,-1.697371780411899,0.5215121835440397
1789075319634086000,3.0930859375,1.1616440245106816,-2.119681539186835,-0.6291320157855749
1789075319644029000,3.10302880859375,-0.09457330366373061,-2.1218796337530015,-1.0721633678108453
1789075319653972000,3.112971923828125,-0.8235235380291939,-1.3463272226884961,-1.1884832238584757
1789075319663915000,3.1229150390625,0.3029603257730603,-1.3436506969556212,-1.4014888456791639
1789075319673858000,3.132858154296875,0.8363669452503323,-1.5084104665234683,-1.1126578752845524
1789075319683800800,3.14280078125,0.3516214808285236,-1.1597601104602218,-1.1851251456022263
1789075319693743900,3.152743896484375,-0.19376754512637853,-1.4773016270324586,-1.239975510686636
1789075319703688000,3.16268798828125,-0.6401236576601863,-1.0864726098008453,-1.601875808945298
1789075319713631000,3.172630859375,0.25573738682717084,-0.9757757082015276,-1.64058986274302
1789075319723574000,3.182573974609375,1.3015607369840145,-1.1851346440829336,0.17700550315678118
1789075319733517000,3.19251708984375,1.8118389943301676,-1.9303157361507415,0.497906267029047
1789075319743459800,3.2024599609375,1.8557459405958652,-0.8596002290606498,-1.2562129442602394
1789075319753403000,3.21240283203125,-0.4477265241041779,-0.8605066763810812,-0.8819125986337661
1789075319763346000,3.222345947265625,0.146307874815166,-0.4563770096801221,0.03464461240172386
1789075319773290000,3.2322900390625,0.3278805397570133,-0.358950216281414,0.26082769570350645
1789075319783233000,3.24223291015625,0.1738765574812889,-0.221670866574347,-0.18614391838014124
1789075319793175800,3.25217578125,0.48267684145420786,-0.014777882415056228,-1.0900520757228136
1789075319803118800,3.262118896484375,1.5292112624898553,-0.25406068578660485,-1.760968638792634
1789075319813062000,3.272061767578125,1.625617626799643,-0.14093977191075682,-2.1296996598541735
1789075319823005200,3.282005126953125,1.4278694876044988,0.02210807917267084,-2.2316034525364636
1789075319832948200,3.2919482421875,0.8795037839263677,-0.000950578723102808,-1.6290823803007601
1789075319842891300,3.301891357421875,0.848055629478395,0.4722105386279523,-1.8492974951088428
1789075319852835300,3.31183544921875,0.8405427696302533,0.19956307966262102,-1.2077923199623823
1789075319862778400,3.3217783203125,0.6520642708227038,0.3483807453416288,-0.3485819670021534
1789075319872721200,3.33172119140625,-0.32782734826505183,0.3936410059124231,-0.28044600388705726
1789075319882664200,3.341664306640625,-1.233322774799168,0.49002764260843396,-0.5150865344107151
1789075319892607200,3.351607177734375,-1.308178401558101,0.6159799810066818,-0.8264356260836124
1789075319902550300,3.36155029296875,-1.679973194104433,0.5579971631154418,0.32269466155171395
1789075319912493300,3.371493408203125,-1.1164791871383786,0.9820593185156583,1.4880746577203272
1789075319922437000,3.38143701171875,-0.3661576634421944,0.6995834162361919,1.7622715380847453
1789075319932380200,3.391380126953125,-0.1663669125035405,0.6626110915392637,1.5999427950561045
1789075319942323200,3.4013232421875,0.1206181377634406,0.6406285384424031,1.6584376541227102
1789075319952266200,3.411266357421875,-0.052911798237264156,0.7960808198302983,2.591653154492378
1789075319962209300,3.421209228515625,-0.5288254291668534,1.0811194122046233,3.5413042413562534
1789075319972152300,3.43115234375,-1.013334454484284,1.1136783043734728,3.5854227845460174
1789075319982095400,3.441095458984375,-1.3674401533439755,1.1973957213714719,3.056914458504319
1789075319992039200,3.4510390625,-0.9323623906716704,1.1335369971841573,2.490135730779171
1789075320001982200,3.460982177734375,-0.04615764780193567,0.8878107167616486,2.443800680583715
1789075320011925200,3.47092529296875,0.35694969011396166,0.716157534418255,2.666721547219157
1789075320021868300,3.480868408203125,0.10147884526848792,0.520599087287113,2.3087083195269105
1789075320031811300,3.490811279296875,-0.35163989326804873,0.619137275993824,2.372960719206929
1789075320041754400,3.50075439453125,-0.3096881727233529,0.9012528205282986,3.0797149038553235
1789075320051697200,3.510697265625,0.6009174364313483,0.8406015140801668,2.9553491039961575
1789075320061641200,3.52064111328125,0.03186111916303634,0.6710043144185096,2.5078911677002904
1789075320071584300,3.530584228515625,0.3830062146514654,0.7207048224590719,0.9766115745037793
1789075320081527300,3.54052734375,1.333645143508911,0.17966829262524842,-0.42786359350979325
1789075320091470300,3.55047021484375,1.5305635538816451,0.4709034746173769,0.26386487144231796
1789075320101413400,3.560413330078125,1.6335788149371742,0.7591434203162789,0.16318682116270064
1789075320111356200,3.570356201171875,1.257566112434864,0.500173189047724,-0.7080763731628656
1789075320121299200,3.58029931640625,1.3063839193567632,0.78149349155128,-0.6134662446200847
1789075320131243300,3.5902431640625,1.6247493195325136,0.9622203533187508,-0.6403355468451977
1789075320141186300,3.600186279296875,1.731087003009021,0.9796399824142455,-1.4692057065993547
1789075320151129300,3.61012939453125,1.6900421681761741,0.6488089222885668,-2.9901456920892
1789075320161072000,3.620072021484375,1.3084995963364838,-0.15089344903975724,-3.6317514050006863
1789075320171015200,3.63001513671875,0.25427257497161626,0.22624650392681359,-3.6060721893429752
1789075320180958200,3.639958251953125,0.012931085504591464,-0.10866934129446744,-2.9143711969196793
1789075320190901200,3.6499013671875,0.963010919174552,-0.6361814959056675,-2.241832585605979
1789075320200845300,3.65984521484375,2.1540271686419845,-0.5665820361092686,-2.3558657920211554
1789075320210788400,3.669788330078125,1.4273475095570087,-0.6384253293097019,-1.3871376642435789
1789075320220731100,3.679731201171875,-0.21856705534011125,-0.3187701815843582,-0.5267921697735786
1789075320230674200,3.689674072265625,0.7430845581799745,-0.39074221573099494,-0.32194998066425323
1789075320240617200,3.6996171875,2.170148574620485,-1.0286585726052522,-0.42624622144103047
1789075320250560300,3.709560302734375,2.6569556477472185,-1.4556297473199664,0.4423918850779533
1789075320260503300,3.71950341796875,2.09032655762583,-1.3329938399933279,1.6992670926392077
1789075320270447400,3.729447265625,1.1101029301047325,-1.028553504795581,1.9647849919855593
1789075320280390100,3.73939013671875,0.17996143035292625,-0.8407057051070034,0.1332253981411457
1789075320290333200,3.749333251953125,0.6847711931601166,-1.134736728362739,-0.49605567072629925
1789075320300276200,3.759276123046875,1.8410139431491492,-2.0442600952386853,-1.3495108211606741
1789075320310219300,3.76921923828125,1.170796468259394,-1.9645007682166993,-0.7964408853143453
1789075320320162300,3.779162353515625,-0.1714794332116842,-1.7942955927245319,0.4987006322771311
1789075320330105300,3.789105224609375,-0.8364778582789003,-1.3132004675038158,1.6972738729953765
1789075320340049200,3.799049072265625,-0.41713045644089575,-1.1826795060157775,3.0861370458573103
1789075320349992200,3.8089921875,0.13945406339764593,-1.4089752559117972,3.2610289178609846
1789075320359935200,3.818935302734375,2.848219977881014,-2.048762667354941,1.5301836146533487
1789075320369878300,3.828878173828125,0.26377514733225105,-1.9170396366007625,0.18433248504400251
1789075320379821300,3.8388212890625,-1.6182336540281772,-1.8560240268848835,-1.8427192857623098
1789075320389764400,3.848764404296875,3.0676001031696796,-1.855255526730418,1.3500327992081642
1789075320399707400,3.858707275390625,4.222382717478275,-1.6101359800294042,2.0769220093905925
1789075320409651200,3.868651123046875,3.7042718668103216,-1.7370329058013856,-0.12350655268132686
1789075320419594200,3.87859423828125,-1.5512825167834758,-0.10960837571024894,-2.381395954596996
1789075320429537300,3.888537353515625,-3.6650279439195987,1.067024982009083,-2.4940228013455865
1789075320439480300,3.898480224609375,-0.5514556325174867,0.6136312259234488,-1.9058879818588494
1789075320449423400,3.90842333984375,2.1365704224064945,-1.0393509392723441,-1.5435469540953635
1789075320459366400,3.918366455078125,2.920224306862056,-0.6059373104199767,-2.991659603783488
1789075320469309400,3.928309326171875,0.04435585907697678,0.8149103157237172,-5.425795799443126
1789075320479253200,3.938253173828125,-1.1099626448512077,0.4695402965053916,-5.3247611908108
1789075320489196300,3.9481962890625,-0.2749253407694399,0.6425698817685246,-3.7268385034054514
1789075320499139300,3.958139404296875,0.3866268893666565,1.0725240178167819,-1.0838041212439535
1789075320509082400,3.968082275390625,-0.2989480213917792,1.4644178878009317,0.01981061588525772
1789075320519025400,3.978025390625,-0.5381051525570452,1.439251297840476,-0.03097381493449211
1789075320528968400,3.987968505859375,-0.17135346874445676,1.2810806974045932,-0.08092121040821075
1789075320538911200,3.9979111328125,-0.10128098460882902,1.3786150428310036,-0.8690905264616012
1789075320548855300,4.007855224609375,0.1532324133813381,1.2289553733699023,-1.9188661213755607
1789075320558798300,4.01779833984375,0.17169000722244382,0.9510545239210129,-2.1836586290568114
1789075320568741400,4.027741455078125,-0.639730566689372,0.8363700139902531,-2.47879834420681
1789075320578684400,4.037684326171875,-0.96797526358366,0.7465383518956601,-2.7332401382654905
1789075320588627500,4.04762744140625,-0.029071780705451963,0.49313656840920445,-1.6152356412559747
1789075320598570200,4.0575703125,-0.07006546987295151,0.6042588558137416,-0.30090368550419805
1789075320608513300,4.06751318359375,-0.3639896717533469,0.9327166109368205,1.1775824751377104
1789075320618457300,4.077457275390625,-0.30404607518315313,0.8162710826829075,2.2374562702178955
1789075320628400400,4.087400390625,-0.132447107245028,0.7651409071654081,4.848135612219572
1789075320638343400,4.097343505859375,0.8894476703137159,0.5744947089299559,7.103679327791929
1789075320648286500,4.107286376953125,2.4977602343082426,-0.11648352217674254,3.9646693544030187
1789075320658229200,4.117229248046875,-0.4000280766010284,-0.17963395196422932,-1.736001955318451
1789075320668172300,4.12717236328125,-6.602513766705989,0.9408743445597588,-1.1930430791199207
1789075320678115300,4.137115234375,0.23429390904307365,0.915623875708133,9.684534609416126
1789075320688059400,4.147059326171875,7.199923195016384,0.21515739302709697,7.319152216508984
1789075320698002400,4.15700244140625,3.445219948607683,0.25801672993600366,-0.8069628638505936
1789075320707945500,4.166945556640625,-1.5027221917539835,0.7211801848858594,-2.0071330183714626
1789075320717888300,4.17688818359375,-2.3070076530888675,0.6241627029404043,-1.00958386977911
1789075320727831300,4.186831298828125,-0.9684159930884838,0.14756459687799214,-2.011957077527046
1789075320737774300,4.1967744140625,-0.6138157887101173,0.03360913187414408,-2.2560645245760678
1789075320747718400,4.206718505859375,-1.682084487169981,0.02117050606161356,-3.6964644079297777
1789075320757661400,4.216661376953125,-3.6434780831515785,-0.29479280140846964,-6.611481501537561
1789075320767604200,4.226604248046875,-3.7887531077876684,1.1940174771100283,-0.014758593192696571
1789075320777547300,4.23654736328125,0.4885939565435052,2.0153990346744655,6.952801953104138
1789075320787490300,4.246490234375,0.34158743193969127,1.711146915525198,3.1465847925573587
1789075320797433300,4.256433349609375,-1.5249581350900232,0.935945802116394,-0.4018324956744909
1789075320807376400,4.26637646484375,-2.0360094226352867,1.7246709984868764,2.649686241266131
1789075320817320400,4.276320556640625,0.7925074913881719,0.1462397780150175,2.9336534050166607
1789075320827263500,4.286263427734375,2.608072666634619,0.12008271571248769,1.9207488663822412
1789075320837206500,4.29620654296875,1.6842425419867038,-0.0791413412541151,3.257156460341811
1789075320847149600,4.306149658203125,-0.16703779750242828,0.0065253101155161855,3.3052275405496356
1789075320857092600,4.316092529296875,-1.3744538314983248,0.20658903277665375,4.6926790930479765
1789075320867035600,4.32603564453125,-1.2057612525261938,0.0180120420306921,4.774699789130687
1789075320876978700,4.335978759765625,-1.0316016403198243,-0.3267237709373236,4.634225735035538
1789075320886922500,4.345922607421875,-0.3294472045518458,-2.7853932270899415,0.9816220961421728
1789075320896865500,4.355865478515625,1.3392612298250197,-2.8368361218184233,-6.506776679959893
1789075320906808600,4.36580859375,0.08426584466099739,-2.3557480108603834,-2.1969366283029315
1789075320916751600,4.375751708984375,0.29978958678245543,-1.598312271244824,-1.1642612212717531
1789075320926694700,4.385694580078125,0.4819534956157207,-0.016500760684907436,-1.94618959710896
1789075320936637700,4.3956376953125,-0.5561573804676533,-0.6846247704267502,-2.5954870335668323
1789075320946580700,4.405580810546875,-0.9581576339244842,-0.13066679969951508,-2.7557512452811
1789075320956524500,4.415524658203125,-1.5004713440872728,-0.5641808201864361,-2.2529911084800958
1789075320966467600,4.425467529296875,-0.8371499123215674,-1.2165770994424818,-1.3165326806664466
1789075320976410600,4.43541064453125,-0.4468783828422427,0.03055325143486261,-0.6114215870499611
1789075320986353700,4.445353759765625,-1.064989238397777,0.6685283527590334,-1.873271660414338
1789075320996296700,4.455296630859375,0.09881108736395836,-1.3553022640436887,-1.6827093410700558
1789075321006239700,4.46523974609375,3.2888243950203058,-2.169063117471337,-1.9868384183615444
1789075321016183600,4.47518359375,6.355532225525379,-3.6972038281202315,-1.2889058380723
1789075321026126600,4.485126708984375,3.7072388999223707,-3.3767212896600363,0.8705354645729064
1789075321036069600,4.495069580078125,0.7461109202638267,-0.8198273138597607,-0.23450316787958145
1789075321046012700,4.5050126953125,-0.4972597858190536,0.25252120125964284,-3.5883933247894046
1789075321055955700,4.514955810546875,-0.236598386593163,0.5266784802660346,-4.025179644945264
1789075321065898800,4.524898681640625,1.2465525509893893,0.6441136771444231,-4.1778421494841576
1789075321075841800,4.534841796875,2.0058929551824924,0.2517224520973861,-4.799381225922703
1789075321085785600,4.54478564453125,2.595737793457508,-0.032229733279719945,-4.872867317894101
1789075321095728600,4.554728759765625,2.89151492972821,1.4374769816443322,-6.6052540053248405
1789075321105671700,4.564671630859375,-0.9096022773310541,3.3968612836301326,-7.125815171754359
1789075321115614700,4.57461474609375,-3.507494618473947,2.359978195776045,1.1864064175844191
1789075321125557800,4.584557861328125,0.7011094567596912,3.9914547777369616,2.8149387627869844
1789075321135500500,4.59450048828125,0.6381517730653286,2.87910289966166,1.997503604760766
1789075321145444600,4.604444580078125,-1.3453528246983886,2.1431280273564157,2.049889625558257
1789075321155387600,4.6143876953125,-3.4145150137424465,1.873029083830118,2.691602890497446
1789075321165330700,4.62433056640625,-1.828351153191924,1.5964871016442774,1.8497773875802754
1789075321175273700,4.634273681640625,0.8443056292951107,1.206581336737424,0.006386486166715622
1789075321185216800,4.644216796875,1.67333945517838,0.8736898369506001,0.2835661817342043
1789075321195159600,4.65415966796875,1.3327245215326546,1.0918931735448538,1.2578531126827002
1789075321205102600,4.6641025390625,-3.5438667853206396,1.0198533348590135,4.499294117498398
1789075321215046700,4.674046630859375,-4.515239874649048,1.3621660123333335,6.435112542718649
1789075321224989700,4.68398974609375,-3.7014617778256533,0.7733078470081091,6.452225005561113
1789075321234932700,4.6939326171875,-4.146790593138337,0.35949455229118465,3.7523031995296474
1789075321244875800,4.703875732421875,-3.279681888143718,0.427787605664134,0.12690613199174403
1789075321254818600,4.713818603515625,0.4674333873540163,-0.40970286372341214,-4.583520799192786
1789075321264761600,4.72376171875,0.6217550572767854,-0.11070581555813551,-4.0532694288760425
1789075321274704600,4.73370458984375,0.4919155021816492,1.0548957874719054,-0.027460838377475736
1789075321284648700,4.743648681640625,-0.3477461006999016,0.6175941382050514,2.3903601822972296
1789075321294591700,4.753591796875,-2.8474279507204887,0.09325988297760486,2.787560926517844
1789075321304534800,4.76353466796875,-2.267043014708161,1.0799100364148617,4.639726670539379
1789075321314477600,4.7734775390625,-3.0167335470244288,-0.756632168147713,3.8170717320382592
1789075321324420600,4.783420654296875,-3.048754532924294,-1.2186791862882673,1.6621552133411168
1789075321334363600,4.79336376953125,-1.8406255283534525,-2.178394863309711,0.8627356044769287
1789075321344307700,4.8033076171875,0.06908902605623006,-3.04853825982511,1.6258365302473305
1789075321354250800,4.813250732421875,0.35177228747606276,-1.9713342674985528,1.0413836141437292
1789075321364193800,4.82319384765625,1.263437342555821,-1.8419798655718564,2.480554832485318
1789075321374136600,4.833136474609375,2.7823028598591684,-0.13127864798754452,-1.832310704472661
1789075321384079600,4.84307958984375,0.9223732038378715,1.5672347036749124,-3.6475662292480466
1789075321394022700,4.853022705078125,1.7236492542237043,2.6084260101169345,-2.3836674066603183
1789075321403965700,4.862965576171875,2.552758483430743,2.4074025025129315,-2.5460826589286327
1789075321413909800,4.87290966796875,2.612192084652185,2.3561975081935524,-3.46909708327949
1789075321423852800,4.882852783203125,2.3933467968925832,2.4888909914150834,-2.4991256774425503
1789075321433795600,4.892795654296875,1.9526643460810182,1.9836741091117263,-0.9152847068816423
1789075321443738600,4.902738525390625,0.44099312419593334,1.1170961499929428,0.21369243504106997
1789075321453681700,4.912681640625,-0.4627636419773102,0.5623825385928154,0.9190800075113773
1789075321463624700,4.922624755859375,-0.4755497660532593,-0.30723113496005533,0.999865024319291
1789075321473568800,4.93256884765625,-0.2512877139419317,-0.9590136662319302,0.7290040103793144
1789075321483511800,4.94251171875,-0.3888829977303743,-1.6644368945375083,-0.5444692807614803
1789075321493454600,4.95245458984375,1.0741562951937318,-2.3310122135326266,-1.3064490935474633
1789075321503397600,4.962397705078125,2.6322362170323728,-2.4998434703230856,-1.4299252510905265
1789075321513340700,4.972340576171875,1.9483307007908819,-2.3467697546347974,0.5997931085765361
1789075321523283700,4.98228369140625,0.38304917701035734,-2.262255488170683,2.8778151979386806
1789075321533226800,4.992226806640625,0.4160080282822251,-1.65159348731637,3.648653439962864
1789075321543170800,5.0021708984375,0.06044570087343454,-2.671195770023763,2.328148348534107
1789075321553113600,5.012113525390625,-0.8516387486621737,-3.004541297188401,1.3598422455608843
1789075321563056600,5.022056640625,-1.3930930655166507,-2.1657284200906752,4.542709480854868
1789075321572999700,5.031999755859375,0.027301556162536142,-1.3314777363419532,0.7277046182185412
1789075321582942700,5.041942626953125,0.49054246026277537,-2.067557091934979,-0.09307751214802265
1789075321592885800,5.0518857421875,2.46790636331439,-0.8361486263245343,0.43859541540443897
1789075321602829600,5.06182958984375,1.8416519487917422,-0.035187633237242694,-1.3072341064453123
1789075321612772600,5.071772705078125,1.1071169000312686,0.38339930562227964,-0.7796493249893188
1789075321622715600,5.081715576171875,0.9143076785430312,0.06102788467556238,-0.9527262565255165
1789075321632658700,5.09165869140625,1.0011641242191196,-1.1711983270585535,-0.949523076570034
1789075321642601700,5.101601806640625,0.6977335505858063,-1.6866230073824524,0.8286807746618986
1789075321652544800,5.111544677734375,0.011549275757372378,-0.706965781572461,2.016163297045231
1789075321662488600,5.121488525390625,0.2808072384148836,0.15523820024579763,0.6904559607982635
1789075321672431600,5.131431640625,1.6943907187744973,-0.14627543385028838,-0.049614802518486975
1789075321682374700,5.141374755859375,2.2231568189695476,0.02089899564385414,-0.3135638451129198
1789075321692317700,5.151317626953125,1.8450903988078236,1.5206816268146037,-1.713434734201431
1789075321702260700,5.1612607421875,1.327104343563318,2.265959311124682,-1.2940356021761894
1789075321712203800,5.171203857421875,-0.3882828398801386,2.2595894838318227,-1.8182570446789263
1789075321722146800,5.181146728515625,-2.352866756335646,2.9396529376924034,-3.9755350318104026
1789075321732090600,5.191090576171875,-2.8992437704145906,3.714555068154633,-6.0690428498208515
1789075321742033700,5.20103369140625,-2.48287275403887,3.3565792498633265,-6.636019730466604
1789075321751976700,5.210976806640625,-0.5600809836521744,1.8812217426359652,-6.83537618164122
1789075321761919700,5.220919677734375,1.211750409938395,2.0445506026178597,-5.662915871822833
1789075321771862800,5.23086279296875,2.4739406750425696,1.3299614865601062,-4.672295645710825
1789075321781805800,5.240805908203125,0.16417787802666425,4.344018215590715,1.428618844667077
1789075321791749600,5.25074951171875,-5.36927779340744,4.086024866530299,4.852257660585642
1789075321801692700,5.260692626953125,-7.59025814512074,3.952641355217993,4.176421176770329
1789075321811635700,5.2706357421875,-3.173645233440399,1.6951763161942361,5.591730458009243
1789075321821578500,5.28057861328125,3.240236305201053,0.5955605855733156,8.97023249360621
1789075321831521500,5.290521484375,5.673783302795886,-0.33971418541371823,7.532342547246813
1789075321841464600,5.300464599609375,6.140861885362863,-1.149134671549499,4.695454987502098
1789075321851408400,5.310408447265625,0.0016080197185277937,-0.16438333747088907,13.315561791795492
1789075321861351400,5.320351318359375,-3.8698677949413653,0.2271545586824417,14.200220474267006
1789075321871294500,5.33029443359375,-3.7113691315948962,-1.7734449662670493,3.464189437493682
1789075321881237500,5.340237548828125,-2.0879683040618895,-2.895690461847186,1.2463082208395004
1789075321891180500,5.3501806640625,-0.17598375889360904,-3.4097993833974,2.1958236986249684
1789075321901123600,5.36012353515625,0.8092512670487165,-4.0768367669463155,3.1612825954735277
1789075321911067400,5.3700673828125,-5.033616682776809,-3.9951884113073346,-0.3889361892223358
1789075321921010400,5.380010498046875,-8.514590081810951,-4.795293664348125,-8.949914512720703
1789075321930953500,5.389953369140625,-17.097727045625447,-5.075140533298254,-13.67646314214468
1789075321940896500,5.399896484375,-16.130798076224327,-3.6540135056912897,-17.878820139682293
1789075321950839600,5.409839599609375,-9.205644593024253,-3.7857895818069576,-19.468288302475212
1789075321960782600,5.419782470703125,8.15001851851642,2.6258997074872252,-1.9955314279049634
1789075321970725600,5.4297255859375,16.921113756656645,2.9464751849278805,14.292249938666819
1789075321980669400,5.43966943359375,4.671903139261901,2.389047930654883,3.3895161815643307
1789075321990612500,5.449612548828125,4.077616226886213,2.4125252523541447,-2.4025638303101062
1789075322000555500,5.459555419921875,5.767528923463821,4.823447453425825,-1.640026383641362
1789075322010498600,5.46949853515625,3.4539600121632215,6.442230850291252,0.35752632095813747
1789075322020441600,5.479441650390625,-1.4091919674023985,7.658433271202445,4.469167274782062
1789075322030384600,5.489384521484375,0.13857289664894343,4.193864771263301,1.033062360522151
1789075322040328400,5.499328369140625,1.4977543402135371,4.012973658844828,-2.351086741051078
1789075322050271500,5.509271484375,1.1502613374918698,3.2900638736873864,-7.829523997357487
1789075322060214500,5.519214599609375,1.1706798561424017,2.529621645732224,-10.61760865548849
1789075322070157600,5.529157470703125,0.0002568973705172539,3.230091343283653,-6.424336297160386
1789075322080100600,5.5391005859375,0.03193623022586107,2.203914942882955,-10.392172591161728
1789075322090043600,5.549043701171875,-10.553128876793384,-0.18025982877761124,-18.376323086607457
1789075322099987500,5.558987548828125,-39.87950627460479,1.7105903045557438,-21.63423767184019
1789075322109930500,5.568930419921875,23.656393487298487,5.807939844307303,36.729555220484734
1789075322119873500,5.57887353515625,31.394754866218566,-7.159208322790264,34.82145131614208
1789075322129816600,5.588816650390625,-5.4422834083855145,3.890230784012377,6.252326118072867
1789075322139759600,5.598759521484375,0.13649872072339056,-1.5833102246850728,15.345647231209277
1789075322149702700,5.60870263671875,1.7789596380352972,-1.7957777941063044,18.765476717972753
1789075322159646500,5.618646484375,5.3395840814113615,-3.2745202675968406,17.33385401531458
1789075322169589500,5.628589599609375,4.919425070929527,-6.140916830420494,4.742146011528373
1789075322179532500,5.638532470703125,-1.0237713850855827,-4.321173638837039,-4.820073885339498
1789075322189475600,5.6484755859375,-3.370013024193048,-4.668977607204019,-25.371761819911
1789075322199418600,5.658418701171875,-6.93079061230421,-5.3331718762815,-14.03353587411642
1789075322209361700,5.668361572265625,0.39664749425202606,-5.760152257215976,-0.5406517682999372
1789075322219305500,5.678305419921875,0.673923635931313,-3.0489462561041116,-4.376060536539554
1789075322229248500,5.68824853515625,-0.7565107337251306,-2.4328417719349265,-7.436520704826712
1789075322239191600,5.698191650390625,-1.12705085003525,1.8951719420552253,-6.325393107849359
1789075322249134600,5.708134521484375,2.7170520967915652,0.6988602165281772,-1.656321100360155
1789075322259077600,5.71807763671875,3.8053345324933527,1.6955024794086813,-2.302263965693116
1789075322269020700,5.728020751953125,2.0837363655805587,2.3867706333726644,-2.6938375176817178
1789075322278963500,5.73796337890625,0.9382906116768717,2.5363418938979505,-2.1471225038200616
1789075322288907500,5.747907470703125,-1.2114420746415853,1.9106123800322412,-1.2286375395923852
1789075322298850600,5.7578505859375,-1.666386567300558,0.2579310974791646,-0.4827297406852245
1789075322308793600,5.767793701171875,-0.5124357276409864,0.4249643649369478,-0.6116425363242626
1789075322318736600,5.777736572265625,-1.0529086322426795,-0.1365402217775583,-0.7490607099801302
1789075322328679700,5.7876796875,-0.8967746522009372,0.4978793790221214,-0.9156634770661592
1789075322338622500,5.79762255859375,-0.11351882715225219,2.059076556098461,-1.905761725130677
1789075322348566500,5.80756640625,0.3490738421723246,1.8657769207447765,-1.945522073110938
1789075322358509600,5.817509521484375,-0.6091957276940345,-0.09475099831819533,-0.7604606403946876
1789075322368452600,5.82745263671875,-1.5490765311717987,1.9397633634537457,-1.3454717749029397
1789075322378395600,5.837395751953125,-2.3386913698583838,2.721504107764363,-1.130368888542056
1789075322388338700,5.847338623046875,-1.758575606176257,1.8084885148584842,-1.265606211027503
1789075322398282500,5.857282470703125,-0.9472229829341172,2.393183130763471,-0.6435808123767376
1789075322408225500,5.8672255859375,-0.7747194673717022,3.581807224397361,-2.1459493683874604
1789075322418168600,5.87716845703125,-0.23311609743535516,5.091877733087539,-2.9042145445644856
1789075322428111600,5.887111572265625,0.7325263392865657,5.183251363927126,-1.3663064731389283
1789075322438054700,5.8970546875,1.2607093788966537,3.45434491982758,-0.44790275745391844
1789075322447997700,5.906997802734375,1.2465642414271831,4.091559704303741,0.7971300366222858
1789075322457941500,5.91694140625,0.33094518802464007,3.1992683349967,1.0010808298498393
1789075322467884500,5.926884521484375,-1.471691093674302,1.3824024524152279,0.9339455682098865
1789075322477827600,5.93682763671875,-2.4471102435231207,-0.2916697009518742,1.6336077487707137
1789075322487770600,5.9467705078125,-2.346194000573456,-1.4201561367481945,4.44764751689136
1789075322497713700,5.956713623046875,-0.51782823433429,-2.1630200379148126,4.486164586812258
1789075322507656400,5.966656494140625,-0.6276923383712768,-3.3098397105202078,0.394909418413043
1789075322517600500,5.9766005859375,-0.6237292799592018,-4.349853497615456,1.1141191800087689
1789075322527543600,5.98654345703125,0.4722293894588947,-4.879792733243107,2.8573972638100384
1789075322537486600,5.996486572265625,-0.9333233446583151,-5.153362421619891,3.1188352003663775
1789075322547429600,6.0064296875,-3.1100007365256546,-4.2576764414384956,3.5721512150406833
1789075322557372700,6.01637255859375,-3.9082366885632274,-2.2913544491440057,3.2527503343373536
1789075322567315500,6.0263154296875,-2.229506187996268,-1.1753656758710742,1.402320620328188
1789075322577259500,6.036259521484375,1.008425347393751,0.5935974688068032,-0.20462299340069293
1789075322587202600,6.04620263671875,3.418567796264589,2.5880589293926954,-3.3969197358191012
1789075322597145600,6.0561455078125,3.1353727859303353,3.8304099370390174,-6.159864691996574
1789075322607088600,6.066088623046875,2.9146584894284606,5.496121381556987,-5.546203217065334
1789075322617031700,6.07603173828125,2.4231790405765175,4.870722999341786,-5.667482741346955
1789075322626974500,6.085974365234375,-0.6754886932909488,4.954808518999815,2.30305891546309
1789075322636918500,6.09591845703125,0.9723135850489139,3.4299890617281195,6.16154986860454
1789075322646861600,6.105861572265625,4.038912109960616,1.9868202981829641,3.831992822316289
1789075322656804600,6.1158046875,3.634630467568338,0.3311595614276826,9.102418611827492
1789075322666747600,6.12574755859375,3.061478405418992,0.5824592580683529,12.408904043483734
1789075322676690700,6.135690673828125,0.7144415242806077,-0.7621181983433664,11.218196713835
1789075322686633500,6.145633544921875,-0.24847148747742176,-2.461621291695535,11.66805645057559
1789075322696577500,6.15557763671875,-1.4937717003181576,-2.9290859509706495,12.347529245066642
1789075322706520600,6.1655205078125,-2.379789103922248,-2.884634230303764,10.774040741693973
1789075322716463600,6.175463623046875,-6.371394396045804,-2.0670340909741816,7.502478739380836
1789075322726406700,6.18540673828125,-12.633369801473616,-0.5307793397136032,6.337053150504827
1789075322736349700,6.195349609375,-15.164012899208068,-0.4307606301255524,-0.7830874827444553
1789075322746292500,6.20529248046875,-1.5459990234225987,-2.3637983385860917,-13.100433186471461
1789075322756236500,6.215236572265625,4.917873165312409,-4.222467765413224,-22.19095970045328
1789075322766179600,6.2251796875,7.823150955194234,-4.461034821730852,-24.927906292021273
1789075322776122600,6.23512255859375,1.9019345680579542,-2.4783494313955305,-14.559738845825194
1789075322786065700,6.245065673828125,2.941521069651842,0.4529623789310455,-8.186317912387848
1789075322796008700,6.2550087890625,5.488346071380376,1.751817802479118,-6.576266395771503
1789075322805951500,6.264951416015625,3.5336078416347503,2.9953362464696167,-2.7139912479162214
1789075322815895600,6.2748955078125,1.1746420377716422,4.3874385473832485,1.074087029349804
1789075322825838600,6.284838623046875,0.026459260119497775,4.241786506128311,6.405067533066869
1789075322835781600,6.29478173828125,1.922567606242001,3.914982071170211,4.965031222328544
1789075322845724700,6.304724609375,2.172354852493107,1.9598145100966096,0.7545160527765751
1789075322855667700,6.314667724609375,0.3228162421047687,1.794211421572417,1.8017659286051988
1789075322865610500,6.324610595703125,-0.167779701910913,0.673991586600989,4.06142409375906
1789075322875554600,6.334554443359375,0.7609478393897414,-0.5529971628710627,5.179623821079731
1789075322885497600,6.34449755859375,-0.007888999684154987,-0.6902572233557701,1.3641916729420422
1789075322895440600,6.354440673828125,-0.4087061808362603,-1.0505099005378782,-1.6682225505560635
1789075322905383700,6.3643837890625,1.424002875304222,-0.4333993080660701,-0.03357318377792835
1789075322915326700,6.37432666015625,0.8260486725926399,0.0017059271350502968,-2.2105215015411375
1789075322925270500,6.3842705078125,-0.06824409966468811,0.6721814684391021,-4.972599027234316
1789075322935213600,6.394213623046875,-0.16494593978971242,0.7874439243882894,-4.7274067075580355
1789075322945156600,6.404156494140625,0.45633214762508867,0.14100231575295327,-1.5901906318485737
1789075322955099600,6.414099609375,0.11207885747700928,0.12038447513803839,1.857241732111573
1789075322965042700,6.424042724609375,0.5577484490513801,0.2837278020367026,4.899032855764031
1789075322974985500,6.4339853515625,0.5522247171938419,-0.5443209583319724,6.210728617793321
1789075322984928500,6.443928466796875,-0.10226765755861997,-0.9950281056821346,1.4034773891478776
1789075322994872600,6.45387255859375,-0.5363222146630287,-1.351041976250708,1.8123212248891591
1789075323004815600,6.463815673828125,-1.5875789880454538,-1.7004758839070795,6.956667980882525
1789075323014758700,6.473758544921875,-1.8265300752446054,-0.3286161605551839,0.8468290102928876
1789075323024701700,6.48370166015625,-0.0967699369251728,-0.45557460725605486,-3.2208424534231423
1789075323034644500,6.49364453125,1.477256618846953,-0.5973293488115072,-1.251657765173912
1789075323044588500,6.503588623046875,1.3004358246073127,-0.47319560414254663,-3.7794466425210236
1789075323054531600,6.513531494140625,0.7366223764285444,-0.5169830156818032,-1.195159048360586
1789075323064474600,6.523474609375,-0.7213213469222187,-0.3268643484517932,1.7261621138274668
1789075323074417700,6.533417724609375,-1.5870646087825298,-0.4542646937012672,4.212985943579674
1789075323084360700,6.543360595703125,-1.0259197952911256,-1.2838801188647746,5.275668950861692
1789075323094303500,6.553303466796875,-1.0833832654833793,-0.9997802686452865,-0.471984474787116
1789075323104247600,6.56324755859375,-6.078637192118167,-0.6671735771492123,-7.871475717902183
1789075323114190600,6.573190673828125,-23.441605073714253,1.6871733347415923,-13.418062381327152
1789075323124133600,6.583133544921875,8.5934631275177,-2.036548351817578,5.759810896432399
1789075323134076700,6.59307666015625,21.680447634351253,-0.31514059291034935,-0.11355039133429527
1789075323144019700,6.603019775390625,7.580214305490255,2.837759081882238,-5.024647194379567
1789075323153962500,6.61296240234375,-1.832446605812013,5.091362184780836,3.0230379078656435
1789075323163906600,6.622906494140625,-1.2125929982423782,3.8328701896727084,7.967900786912441
1789075323173849600,6.632849609375,0.9955208576351403,2.1288713923364875,11.194092200148106
1789075323183792600,6.642792724609375,0.3757248254716396,1.6374528798915444,11.89692716552615
1789075323193735700,6.652735595703125,-1.1317363775029778,0.76109017046988,5.03605647714436
1789075323203678700,6.6626787109375,-0.05005260941386223,-0.8698354996100067,5.31341971258521
1789075323213621500,6.67262158203125,1.2094795423969626,-1.0760507306382059,8.949239389938116
1789075323223565600,6.682565673828125,0.35796003620028494,0.2290826041355729,11.198345181417464
1789075323233508600,6.692508544921875,1.0323732092142104,1.5401400682613253,9.774783035618066
1789075323243451600,6.70245166015625,1.8382053154692053,3.116615770751238,-4.667511918565631
1789075323253394700,6.712394775390625,-4.5116018104076385,2.0550161747917532,-23.60990996854305
1789075323263337700,6.722337646484375,0.7515691856697201,0.40969957578778265,-7.098997307455539
1789075323273281500,6.732281494140625,1.646198058013618,2.430470074367523,-5.119311098936199
1789075323283224600,6.742224609375,1.294256551450491,3.358199252280593,-5.253770422786474
1789075323293167600,6.752167724609375,2.038979524487257,3.12600114647299,-6.99660777708292
1789075323303110700,6.762110595703125,1.735556257377565,3.681790278150141,-1.7360358575880526
1789075323313053700,6.7720537109375,1.2169409643188118,2.981786736805737,-1.7972013971686362
1789075323322996700,6.781996826171875,0.25437925021648405,2.6356577159136534,-2.3901684591174126
1789075323332940500,6.7919404296875,0.311991188968718,2.1733009011715647,1.8251812909841536
1789075323342883600,6.801883544921875,0.42138446062356233,1.6839385906040667,1.8046756785720586
1789075323352826600,6.81182666015625,0.4695210072830319,2.084515240998566,1.4660072028189897
1789075323362769700,6.821769775390625,-0.20374562604427338,2.4678160546824333,5.255664858230948
1789075323372712700,6.831712646484375,-0.8568146899953484,2.6043404943689703,15.854265446388721
1789075323382655700,6.84165576171875,-4.617253265185654,1.252273266723752,22.47766768734455
1789075323392599600,6.851599609375,-4.214284751218557,3.176636816471815,-13.726643177330493
1789075323402542600,6.86154248046875,-0.41288872721791264,-2.1719366270810365,-17.911429446864126
1789075323412485600,6.871485595703125,1.4929048543557524,-0.8288648990571499,0.32174305991530416
1789075323422428700,6.8814287109375,-1.3807789428666233,0.08936112197339534,3.0503596300333737
1789075323432371700,6.891371826171875,0.44457478207498785,-2.7864842371970413,-4.655230529141426
1789075323442314800,6.901314697265625,1.2110415310166776,-5.0169467030048365,-5.3651773723512886
1789075323452258600,6.911258544921875,0.2913382770404219,-6.015796412801742,-3.2520430628508326
1789075323462201600,6.92120166015625,-1.0664404601193964,-6.855618174681067,-3.0172219150632618
1789075323472144600,6.93114453125,-1.9143571195185183,-6.217920575124025,2.6040795053452253
1789075323482087700,6.941087646484375,1.330903735846281,-6.472125637817382,4.24460448615849
1789075323492030700,6.95103076171875,1.631641417133808,-7.911199241003394,6.359477163758873
1789075323501973500,6.960973388671875,0.3662766136467457,-7.519885216733813,4.309801473212242
1789075323511917600,6.97091748046875,0.36643735716640946,-9.948516969758272,1.189289864066243
1789075323521860600,6.980860595703125,1.6393392781600356,-10.766411561989784,-6.129048113450407
1789075323531803600,6.9908037109375,-2.036001093198359,-9.031652300208806,-6.8159753156006335
1789075323541746700,7.00074658203125,0.49768327192813155,-8.43092629469633,-7.676154805853963
1789075323551689700,7.010689697265625,4.903990185910463,-3.170583507782221,-11.428138271909951
1789075323561633500,7.020633544921875,0.5401973025307059,0.27845483006983995,-13.102235851979255
1789075323571576600,7.03057666015625,-2.080495776224136,3.8947365709990263,-8.234670732146501
1789075323581519600,7.04051953125,1.9487696767300366,4.257432695810497,-2.292295529386401
1789075323591462700,7.050462646484375,0.9233385417386889,5.474012425601482,-5.077001650995016
1789075323601405700,7.06040576171875,-2.6942747400552034,14.639119256532192,7.527710795792937
1789075323611348700,7.0703486328125,-0.29328035101890565,12.953089246606826,8.92927270670831
1789075323621292500,7.08029248046875,1.5936714597016572,11.501611504399776,-1.0142372485429048
1789075323631235600,7.090235595703125,2.6833196307986973,9.852357273685932,-4.912261170649528
1789075323641178600,7.1001787109375,1.8209978678196668,6.512417900717258,-7.850352850374579
1789075323651121700,7.11012158203125,2.0961597938239573,3.884188581238687,-8.629939631521701
1789075323661064700,7.120064697265625,1.6145257394209502,1.371894502404332,-8.983489450064301
1789075323671007700,7.1300078125,0.36460517330318687,2.626801332502067,-4.011115463757514
1789075323680951600,7.13995166015625,-0.4156654984548688,-0.4554463047012686,0.49303310803472994
1789075323690894600,7.14989453125,-2.006305043114722,-3.5591312822088597,5.3948062024176116
1789075323700837600,7.159837646484375,3.2054525765895843,-1.1150172978922723,4.540219417604804
1789075323710780700,7.16978076171875,2.462566463591158,-0.5308651183009148,1.5887439401715993
1789075323720723700,7.1797236328125,2.453400283578038,2.17525028167367,0.790786805075407
1789075323730666800,7.189666748046875,-1.423686064440012,0.5809297104135155,1.539374052324891
1789075323740610600,7.199610595703125,-1.1524071173489092,0.27510785772949453,0.10626198789179324
1789075323750553600,7.2095537109375,-0.3461415881127119,1.0968778300896287,-2.7848230259865523
1789075323760496600,7.21949658203125,-1.476377790185809,1.2556415741130709,-1.7028016965061425
1789075323770439700,7.229439697265625,-2.194205449773371,0.5219888611450791,-1.5195254425168037
1789075323780382700,7.2393828125,-1.935183926708996,-0.8301926405295729,-1.5606038873583077
1789075323790326500,7.249326416015625,-0.8129416459992528,-1.353181326366961,1.6272855600118636
1789075323800269600,7.25926953125,-2.1015642832159993,-1.7912752219900487,2.3303017271757125
1789075323810212600,7.269212646484375,-1.0118138207882643,-2.1081573978707193,1.5384008233785629
1789075323820155600,7.27915576171875,-0.08661737622320652,-2.9411195031136272,0.9751473471701144
1789075323830098200,7.28909814453125,-0.41534138106703755,-3.483443588539958,-0.031193595165014264
1789075323840041200,7.299041259765625,-0.329964360293746,-1.9622922983869908,-0.6678864015936851
1789075323849985000,7.308985107421875,-0.697150490000844,-0.19816344199776648,-0.5113315657913684
1789075323859928000,7.318927978515625,-0.7903454910486936,1.5773235514909028,-0.11433891136348247
1789075323869871000,7.32887109375,-0.44196752218604085,3.0975428214907645,-0.3425380106627941
1789075323879814100,7.338814208984375,-0.09897299992740154,4.506594211378693,1.1005816530436277
1789075323889757200,7.348757080078125,-0.8132184171140193,4.240815323008596,1.1264514228373765
1789075323899701000,7.358700927734375,-1.4453279874056577,2.043183405917883,1.528514220136404
1789075323909644000,7.36864404296875,-1.923160603699088,0.08407266017645597,1.2444798363685607
1789075323919587000,7.378587158203125,-1.1654887172400952,-0.01400660578161478,1.7511948482751845
1789075323929530000,7.388530029296875,-1.0746394025355577,-4.024940867753327,2.343758590120077
1789075323939473200,7.39847314453125,-1.1722469593286513,-7.757291704839467,2.925272530162334
1789075323949416200,7.408416259765625,-0.6850292595744133,-7.5982888913631434,2.9568337895959615
1789075323959360000,7.418360107421875,-0.5335889903068542,-5.320527498763799,0.5361830984532833
1789075323969303000,7.428302978515625,-0.05746317793130874,-1.699833786611259,-1.566519248881936
1789075323979246000,7.43824609375,0.7181044307023287,-1.1071522636055946,-2.6734663453042504
1789075323989189000,7.448189208984375,0.9161112208336591,-0.20636223828345535,-1.3805197074085473
1789075323999132200,7.458132080078125,0.733238286948204,-0.5905293134078383,-2.596986916735768
1789075324009076200,7.468076171875,-0.07146656884253025,0.1684887269631028,-1.9816478639811277
1789075324019019000,7.47801904296875,-0.3574421498060226,3.319919205985963,-0.45022564744353294
1789075324028962000,7.487962158203125,0.054279287198185915,3.857799756006896,-0.5175011943370104
1789075324038905000,7.497905029296875,0.09603811551928519,2.5316306474670767,-1.4275719659626482
1789075324048848100,7.50784814453125,-0.23612463160157202,2.0418840137571097,-1.3049994792610407
1789075324058791200,7.517791259765625,-0.9114052350997924,1.1851172545567155,-0.45659576699733734
1789075324068735200,7.5277353515625,-0.8235796521306037,2.126153950071335,0.6712240215837955
1789075324078678000,7.537677978515625,-0.3761836751550436,3.6985891449987887,0.9516974979996681
1789075324088621000,7.54762109375,-0.5691524711191653,2.8867601364165543,-0.08774959512352942
1789075324098564000,7.557564208984375,-0.45425475682914257,-0.4305769441217184,-0.49977615255415436
1789075324108507100,7.567507080078125,-0.2890297078371048,-0.6167573951199651,-0.40726095046401023
1789075324118451200,7.577451171875,-0.5952583877563477,-0.08651187002211809,1.048683708024025
1789075324128394200,7.587394287109375,-0.13096212938427923,-0.5780331121891736,2.29121591745615
1789075324138337000,7.5973369140625,1.168499004971981,-0.5328270660236477,1.9085721063762902
1789075324148280000,7.607280029296875,1.3847282650142907,-1.3884326724901794,-1.59623984888494
1789075324158223000,7.61722314453125,0.9170113845437765,-1.7921242400348185,-1.1975748773306607
1789075324168166100,7.627166259765625,0.8329922081202268,-1.9048793893381952,-2.5111048690497872
1789075324178110200,7.637110107421875,1.1140747563451527,0.02089811886101961,0.24378011479079723
1789075324188053200,7.64705322265625,1.4054425517410039,-5.023999544125795,3.559015254613757
1789075324197996000,7.65699609375,0.8418775253653525,-24.65513798315525,8.558898594614863
1789075324207939000,7.66693896484375,2.4778648627489805,-16.395477771180868,6.435830920121074
1789075324217882000,7.676882080078125,3.6719904764086007,12.465339631932974,4.362946787944436
1789075324227826200,7.686826171875,-2.146605201947689,3.7220138597279786,5.463999565631151
1789075324237769200,7.696769287109375,-2.331373155799508,-20.285939733600614,9.867142170363664
1789075324247712300,7.706712158203125,0.61685062636137,-21.440978368496893,8.480933311402797
1789075324257655000,7.716655029296875,-2.732985286721587,-8.157607366210222,13.625993184101581
1789075324267598000,7.72659814453125,-9.299894071561097,-1.4227286175847054,25.301834297204017
1789075324277542100,7.736542236328125,-4.591579602485895,2.286799854579568,16.6328743224144
1789075324287485200,7.746485107421875,-9.051274700045585,6.741429485443234,3.9706586579456924
1789075324297428200,7.75642822265625,-14.454592710220814,-5.729187794631719,-6.506025569331646
1789075324307371300,7.766371337890625,-6.690180359721183,6.37613779118061,-9.568534486842156
1789075324317314000,7.77631396484375,12.384004580026865,23.59368597897291,-14.279392795181273
1789075324327257000,7.786257080078125,15.849775149232148,17.19895337743759,-17.152856812173127
1789075324337201200,7.796201171875,1.3806512248337268,7.260709379890561,-8.409233518326282
1789075324347144200,7.806144287109375,-6.0841392966657875,10.711688622677325,1.9250053547829389
1789075324357087200,7.816087158203125,-4.171890547603368,11.516451346135138,3.0574037033259867
1789075324367030000,7.826030029296875,-1.3487714009702205,5.353081276366114,-0.1449300105907023
1789075324376973000,7.83597314453125,-0.8716694370388984,0.5842606084018945,1.1674470117010176
1789075324386917000,7.845917236328125,-1.0486521438419818,-0.3407394368082285,3.7905081347614527
1789075324396860200,7.855860107421875,-1.7784870520874856,0.14586626852750778,3.6527550300627945
1789075324406803200,7.86580322265625,-0.25049656356424094,0.13280512690246105,1.9291370477601886
1789075324416746200,7.875746337890625,0.9428545585915445,-2.2259470342099665,1.6468939313232898
1789075324426689000,7.88568896484375,-1.8629390669703483,-3.13132643314898,2.8273084150165317
1789075324436633000,7.895633056640625,-3.0152886089131234,-1.2759434806466101,3.393412604480982
1789075324446576000,7.905576171875,-0.44490971311777827,2.18895790450871,2.793752766895294
1789075324456519200,7.915519287109375,1.0968389593839645,1.0876736561536788,1.6079732490375638
1789075324466462200,7.925462158203125,0.569574495923519,1.2552882306307553,2.6538302092030643
1789075324476405200,7.9354052734375,0.5789094566322863,3.657875441816449,2.999873013116419
1789075324486348000,7.94534814453125,2.20522471030727,5.113353067314624,2.3267884583577514
1789075324496292000,7.9552919921875,1.6004373005747794,6.251286253631115,1.8300813379853962
1789075324506235100,7.965235107421875,1.5343665994264184,3.9589644207596777,1.282954528452456
1789075324516178200,7.97517822265625,0.7375168410502374,3.949575245645642,2.4050080085918304
1789075324526121200,7.985121337890625,0.30417101673707364,1.7643202873080968,1.9881103379935026
1789075324536064300,7.995064208984375,1.4502524381957946,0.450189991608262,1.1927391277372836
1789075324546008000,8.005008056640625,1.4515245039582252,1.6911042444497346,0.1808703618913889
1789075324555951000,8.014951171875,1.0108124617259948,1.1434247694700956,-0.1577554437637329
1789075324565894100,8.02489404296875,0.5761363386571406,0.6912666926592588,-0.2829951038479805
1789075324575837200,8.034837158203125,-0.15398060140013695,1.2153858438313008,-0.7008028750285505
1789075324585780200,8.0447802734375,1.8521746579803526,0.5988169570207595,-2.1429557395294307
1789075324595724300,8.054724365234375,1.8716718240022658,-0.11986205869913101,-2.9575492443889377
1789075324605667000,8.0646669921875,-0.09726217742152511,0.841828425526619,-1.2628411302283407
1789075324615610000,8.074610107421876,-1.9708570053756236,1.3401304138749837,0.27367402553409337
1789075324625553200,8.08455322265625,-0.6434288366854191,1.0951081900686026,-0.10500351226329803
1789075324635496200,8.09449609375,1.4140893840551376,2.4414333669304846,-0.9274372092291712
1789075324645439200,8.104439208984376,1.899614162286371,1.6888257781237364,-1.9955740980029104
1789075324655383000,8.114383056640625,0.029464579415321348,1.5391566101819276,-1.5264742387413979
1789075324665326000,8.124326171875,-0.7461072670020162,1.9324270292162895,-0.6224520996302366
1789075324675269000,8.13426904296875,-0.29677944518104193,1.5412462759375571,-0.7256310268148779
1789075324685212200,8.144212158203125,-0.02561732940264046,-0.8312579316735267,0.5456821636825799
1789075324695155200,8.1541552734375,0.5512671972732991,-2.260048041254282,0.7221914077550172
1789075324705099300,8.164099365234375,1.1832371398985386,-2.5119202770859004,0.20182956328988075
1789075324715042000,8.1740419921875,1.0512964478056877,-1.7193641242504119,0.1810290595844388
1789075324724985000,8.183985107421876,-0.8172165468394755,-1.5849316884070634,0.7414800455927848
1789075324734928100,8.19392822265625,-2.272075163656473,-1.6806553311496972,1.791556377018988
1789075324744871200,8.20387109375,-0.568057150163129,0.29835633910894394,2.501769177688658
1789075324754815200,8.213815185546874,0.24053777186870573,1.6425205385446549,2.6966674804106354
1789075324764758000,8.223758056640625,1.5229963334977625,0.48291094247102734,2.4039123223096133
1789075324774701000,8.233701171875,2.20734637863636,-0.5337321981698274,0.5554775815099477
1789075324784644000,8.24364404296875,0.22375154530592262,-0.8447364219278096,-0.831714151008427
1789075324794587100,8.253587158203125,-1.5833108092069625,-0.36306232777535913,-0.05103022227436304
1789075324804531500,8.263531494140626,-1.3188590777873992,0.2665086639493704,0.027271745546162126
1789075324814474200,8.27347412109375,0.06638999623060227,0.41619069137275216,-0.6734326375439763
1789075324824417000,8.2834169921875,1.6963444831907748,0.18972996017336843,-1.1722267933234571
1789075324834360300,8.2933603515625,1.6853344288766383,-2.7793951557189223,-1.14866646951586
1789075324844303400,8.303303466796875,0.4303495285740122,-6.010819208911061,-0.0004208557605743408
1789075324854247400,8.313247314453125,-0.28991237242314966,-3.5685493911564348,0.24928777229636906
1789075324864190500,8.3231904296875,0.5593278271973132,0.045191140857338906,-0.19692425559163093
1789075324874133200,8.33313330078125,0.6654290715694428,7.092253678414226,0.4839893853574991
1789075324884076300,8.343076171875,1.37141344088912,4.125219981843233,0.8431102820307016
1789075324894019300,8.353019287109374,1.7133038012981414,-0.9340548738032579,1.899823567253351
1789075324903963400,8.36296337890625,0.8231096965312957,-4.418482212683558,-1.318033148357272
1789075324913906400,8.372906494140626,0.04466569221112877,0.22991174843609333,-3.3155355840742584
1789075324923849500,8.382849365234375,1.1792869409680367,4.608365902113914,-3.5029654506117103
1789075324933792300,8.392792236328125,3.0604046387076376,3.252652719181776,-2.2593583054244517
1789075324943735300,8.4027353515625,2.1458137593090534,3.102484369546175,-2.654308055847883
1789075324953679400,8.412679443359375,3.489105852085352,2.6588959681600333,-4.51592610334754
1789075324963622400,8.422622314453125,3.8896588293433187,0.8479150519639254,-4.609318088272214
1789075324973565400,8.4325654296875,0.9167455001492053,-0.27002514763772484,-2.7877836293578144
1789075324983508200,8.44250830078125,-2.3885610239207744,-0.91150285025537,-0.33155952053070065
1789075324993451300,8.452451171875,-3.024780367618799,0.17013152573406695,-0.6272995396614074
1789075325003395300,8.462395263671874,1.7436662063360213,0.3506839077174663,-3.6968402555048465
1789075325013338400,8.47233837890625,5.321647442704439,-0.04722703059911727,-4.835937224903702
1789075325023281400,8.482281494140626,3.0702047327101227,-1.2285603827029465,-3.1575732195615767
1789075325033224400,8.492224365234375,0.5950327257743105,-0.9032850570082664,-1.9054145191282033
1789075325043167200,8.502167236328125,-0.8966717763483524,1.4061878171503543,-0.8497142103403806
1789075325053111300,8.512111328125,-0.5361315874617546,2.8696646247088906,0.42377310932576656
1789075325063054300,8.522054443359375,2.301839018279314,1.751509321051836,1.1265876164376736
1789075325072997400,8.531997314453125,4.124641305172443,0.2171680021971464,0.9399357485353946
1789075325082940400,8.5419404296875,2.794097634810209,0.33287761739194394,0.28673779750764367
1789075325092883500,8.551883544921875,0.2753986573696136,0.47483401899933814,0.45592356682419777
1789075325102827300,8.5618271484375,-0.935611382530257,1.218876608556509,1.9237427875012159
1789075325112770300,8.571770263671874,0.338552740418911,2.245086618965864,3.252853794711828
1789075325122713300,8.58171337890625,0.08987725480198859,5.547528912711143,0.22454992914199828
1789075325132656400,8.591656494140626,1.1588320358298718,4.068811281400919,-1.5853291632920503
1789075325142599400,8.601599365234375,1.2457646154820918,0.03456687099039554,-0.019210896426439285
1789075325152543200,8.611543212890625,-0.32428689917922016,-0.33695874922573565,1.5667945586919783
1789075325162486300,8.621486328125,-1.8828958133280276,0.9915841027081013,2.2977929577589036
1789075325172429300,8.63142919921875,-0.8849450981974601,1.0945786132365465,2.0195570311367512
1789075325182372400,8.641372314453125,-0.2612004745386541,0.25302958917319773,1.5960060401290654
1789075325192315400,8.6513154296875,0.5050421102583408,-0.26709786201417446,0.808877173039317
1789075325202259200,8.66125927734375,0.8975511895313858,-1.0755611935555933,-0.16945698747336863
1789075325212202200,8.6712021484375,-0.28295243375003337,-2.0171838722646234,-0.14299392796158789
1789075325222145300,8.681145263671874,-1.4333724689349532,-1.9629647908210752,1.2316209393173456
1789075325232088300,8.69108837890625,-2.0906185263097283,-2.0688187824338673,2.6797674912750717
1789075325242031400,8.70103125,-1.8857082404002545,-2.3276526739716528,2.8065070345282552
1789075325251975400,8.710975341796875,-0.10971592773795127,-0.9417974507540464,1.3594868562519549
1789075325261918200,8.720918212890625,0.25741847178190946,0.6665034228026867,0.13733341798186302
1789075325271861200,8.730861328125,-0.8410963118597865,1.6819862874925136,-0.34160862085819244
1789075325281804300,8.74080419921875,-2.543305010908842,2.3948978257268667,0.982999814236164
1789075325291747300,8.750747314453125,-2.404175357159972,2.8045898027300833,1.6780407647371292
1789075325301691400,8.76069140625,-0.42899698145389553,2.019795516067743,1.6957552851259707
1789075325311634200,8.77063427734375,0.5811608888208866,-0.0939513723731041,1.1351420942932366
1789075325321577200,8.7805771484375,0.48222559055536984,-1.0273130032151936,0.039649288821220395
1789075325331520300,8.790520263671874,-0.569722087700665,0.004548164823651313,-0.9538631516009569
1789075325341463300,8.80046337890625,-1.3001038161739706,0.7031418393701314,-1.5594821898519993
1789075325351407400,8.810407470703124,-0.21342764662504196,0.6022247196376324,-1.630477634051442
1789075325361350400,8.820350341796875,0.5036006792783737,0.1717933214664459,-0.9191723619699478
1789075325371293200,8.830293212890625,-0.43921091695427894,-0.10107377159893512,0.4923807816058397
1789075325381236200,8.840236328125,-2.2179966597273943,-0.23027181392014026,1.9729028319895265
1789075325391179300,8.85017919921875,-2.593726745896041,-0.3565262040048837,3.140934803971648
1789075325401123300,8.860123291015626,-0.6248129835426807,-0.5955629236608744,2.769013462436199
1789075325411066400,8.87006640625,0.008852876280248164,-0.6845557968437671,2.3473265117347237
1789075325421009400,8.880009521484375,-1.1197311746716498,-0.19724983428418635,3.0091987676054237
1789075325430952200,8.8899521484375,-1.2789663355991243,0.11152969916164875,3.8310488194644448
1789075325440896300,8.899896240234375,-1.1923849074721335,-3.1866818251460787,3.019129794511199
1789075325450839300,8.90983935546875,-3.8248964343145486,-5.535234079283476,1.40688573628664
1789075325460782300,8.9197822265625,1.360799692416191,1.9597148491144178,1.3801952977597713
1789075325470725400,8.929725341796875,0.4901952542603016,2.2722803308397532,1.939753426581621
1789075325480668400,8.93966845703125,-0.6471431810334325,0.5184785149365663,2.4720909555226562
1789075325490611200,8.949611083984376,0.6573591623604297,0.09653963530063629,2.2559932129055262
1789075325500555300,8.95955517578125,0.5019172562360763,1.19688631054461,1.7061662045031785
1789075325510498300,8.969498291015626,0.2724140886008739,-0.8134124783813953,0.7360159349679947
1789075325520441300,8.97944140625,0.6112883160591125,-2.2093659017652274,1.0942553726315498
1789075325530384400,8.98938427734375,1.1478130675569176,-2.6998247753977775,1.2722200762093065
1789075325540328200,8.999328125,-0.5389969868302344,-2.773670932853222,1.8509516920566558
1789075325550271200,9.009271240234375,0.35947774728685616,-2.5362258663028476,1.2514368158996105
1789075325560214300,9.01921435546875,1.1089774332061408,-1.5912439402937888,-0.9330021498799324
1789075325570157300,9.0291572265625,-0.051261400681734084,-0.42350247569084165,-2.2682973986834285
1789075325580100400,9.039100341796875,1.4656591200336813,0.82655194593966,-2.067631618475914
1789075325590044200,9.049044189453125,1.8550144114509224,0.6832721867740154,-1.6066004993796348
1789075325599987200,9.0589873046875,0.9721662855327129,0.41209962266683575,-0.09744915136098861
1789075325609930200,9.06893017578125,1.2900038624420762,0.026074352455139158,0.13720014699101446
1789075325619873300,9.078873291015626,1.0336778620719909,-1.6250702220499516,-0.8366331949710846
1789075325629816300,9.08881640625,1.1683122502282262,1.3951152189940212,-0.640519671240449
1789075325639760100,9.098760009765625,1.81926680624336,8.56778215829432,1.499685016015172
1789075325649703200,9.108703125,2.2805039693057534,7.962659379127621,2.6204876193106172
1789075325659646200,9.118646240234375,2.041006938661635,1.3997966548085212,2.1008651950359343
1789075325669589200,9.12858935546875,0.5903393437936901,-1.9977748229175805,2.4652239923626182
1789075325679533300,9.138533203125,0.4479647167742252,-3.061737348616123,2.7877649246573446
1789075325689476400,9.148476318359375,0.890038621944189,-2.428970775720477,2.530475924474001
1789075325699419100,9.158419189453125,0.5386217237770557,-2.5160265433609483,1.8972399805009363
1789075325709362200,9.168362060546874,0.8041504367783665,-3.0084663616776464,1.1245201625138521
1789075325719305200,9.17830517578125,2.2294950820803643,-3.5832571309447285,0.27175650147497654
1789075325729249300,9.188249267578126,3.24021497015208,-3.8959991382807493,-0.03089665804505348
1789075325739192300,9.1981923828125,1.8272446532547473,-4.424867529806495,-0.05073065480589866
1789075325749135400,9.20813525390625,0.3154557963393628,-4.3624546205133194,-0.6926894189387559
1789075325759078100,9.218078125,0.42387656970024107,-3.8509512052863832,-2.0873592322528363
1789075325769021200,9.228021240234375,2.674640065258741,-3.513275832223892,-2.414198154002428
1789075325778965200,9.23796533203125,1.92136188371405,-3.0423136862218376,-2.303766479210555
1789075325788908300,9.247908203125,0.9640202423475682,-2.3238959517866373,-2.3215952736288306
1789075325798851300,9.257851318359375,0.8766063089191913,-0.8660077580153942,-3.0448388207852837
1789075325808794400,9.26779443359375,0.6498233600281178,0.881088422769308,-3.44509486092329
1789075325818738200,9.27773828125,0.9167185390770435,1.7293536033451555,-2.865016798903048
1789075325828682000,9.287681884765625,1.0413434282638132,1.2680647100955247,-2.4407187889203428
1789075325838625000,9.297625,1.643493036838621,0.07543079629838466,-2.910800644956529
1789075325848568000,9.307568115234375,1.1562659847341477,-0.6024918461412191,-3.4112963439568875
1789075325858510800,9.3175107421875,0.8751344828009605,-0.5912094046264886,-3.155594028443098
1789075325868455000,9.327454833984374,0.9245182530425489,-0.04194353723824024,-2.83700066473037
1789075325878398000,9.33739794921875,1.732056286432594,0.6431839220136404,-2.8317335379824042
1789075325888341000,9.347341064453126,2.503255909115076,1.3384510824859142,-2.83673879892379
1789075325898284000,9.357283935546874,-0.1901062461398542,1.3718787203133105,-1.8526918137222528
1789075325908227000,9.36722705078125,0.12846855900287626,1.146501108175516,-0.8154156348973512
1789075325918171000,9.3771708984375,1.1989607787311076,1.0574269864499568,0.0998746249422431
1789075325928114000,9.387114013671875,1.3398432674966751,0.5285223545670509,0.744439479920268
1789075325938057000,9.397056884765625,1.063039419504255,-0.3845931915819645,0.3596913900375366
1789075325948000000,9.407,0.5911443765662611,-1.2860358355939387,0.45262598658353087
1789075325957943800,9.41694384765625,0.22154417145475744,-1.4383552257835863,1.0477008344665169
1789075325967886800,9.426886962890626,1.1510112790763378,-1.0408575444430113,1.2983543421581387
1789075325977830000,9.436829833984374,1.380833595663309,-0.35192075603604317,1.0007736635968087
1789075325987773000,9.44677294921875,2.014610806906223,0.8622101192981004,-0.7835404872089624
1789075325997716000,9.456716064453126,2.060051538610458,2.0804338169038297,-2.464016370138526
1789075326007660000,9.466659912109375,1.6961211958289146,2.7466099074482915,-3.522515661995113
1789075326017602800,9.476602783203125,1.3370331785120069,2.630640764534473,-3.624000937004387
1789075326027545900,9.4865458984375,-0.12295651758313178,2.035450765839219,-0.6548746520683169
1789075326037489000,9.496489013671875,-0.5126292043864726,0.7986509625792503,1.634700220182538
1789075326047432000,9.506431884765625,0.3394225089907646,-0.2177478479117155,1.1573045340016483
1789075326057376000,9.5163759765625,0.9563350946724414,-0.5601555101931095,-0.9247583454087376
1789075326067319000,9.526319091796875,-2.6321324643969533,0.44635085183680057,-2.5666645514473316
1789075326077261800,9.53626171875,0.1761516628064215,-0.5838970357865095,-0.39145051013082266
1789075326087204900,9.546204833984374,1.9805917790569363,-0.26152561483979225,-0.47475569306612014
1789075326097149000,9.55614892578125,2.6608921104133127,0.8296896594434976,-0.07357873869091272
1789075326107092000,9.566092041015626,2.716485987341404,0.6713841805815697,-2.166029448863864
1789075326117035000,9.576034912109375,1.0110695782922208,0.6656611267596483,-2.4239485636442897
1789075326126978000,9.58597802734375,-0.6579039367616176,-0.044829906329512594,-1.6392545224860309
1789075326136921900,9.595921875,-1.1491489923357963,0.6790852564781904,-1.5536594750478863
1789075326146865000,9.605864990234375,-0.7297697340548038,1.499414382380247,-1.8398326244100927
1789075326156808000,9.615807861328125,-0.501815257166326,2.0027023424476385,-1.6424162013873458
1789075326166751000,9.6257509765625,-1.0932754216834901,2.4338965416848657,0.8180421840086579
1789075326176694000,9.635694091796875,-1.3670610908985137,2.6167496018260716,4.0713577510133385
1789075326186637800,9.645637939453126,0.0915663769327104,1.63299926148355,3.002158201444149
1789075326196580900,9.655580810546875,0.27782909938693046,1.2134949155181645,0.8778454953253269
1789075326206524000,9.66552392578125,-1.414434398100525,2.012193808892369,2.3034391469523308
1789075326216467000,9.675467041015626,-3.5916052725732324,2.8801830961138006,4.076613479584455
1789075326226410000,9.685409912109375,-2.805017672753334,2.822931515106559,2.1877646030709146
1789075326236353800,9.695353759765625,-0.9061388390041887,2.2581091821461916,0.5831336501985788
1789075326246296800,9.705296875,0.446100091946125,1.671616284647584,0.7835363955557346
1789075326256239900,9.715239990234375,0.2684355403587222,1.0210802463054656,1.6476047099411486
1789075326266183000,9.725182861328125,-1.1313343725733458,0.03567453997135162,2.364887302866578
1789075326276127000,9.735126953125,-0.4365424283973872,-0.5365834959477186,1.822388445395231
1789075326286069800,9.74506982421875,0.44315030222982166,-0.5295137036919594,1.3186989187896252
1789075326296012800,9.7550126953125,0.5837887531064451,-0.41070144630670546,1.3128893557280301
1789075326305955800,9.764955810546875,0.4313372609697282,-0.4905027127742767,1.5529834754824638
1789075326315900000,9.77489990234375,-0.21375497888326644,-0.7584528077036142,1.8638164343267678
1789075326325843000,9.784843017578124,-0.34495924646034837,-0.45139644478857516,1.1821423303991556
1789075326335786000,9.794785888671875,0.06602598522379995,1.0644196218162774,0.06886486191153526
1789075326345728800,9.804728759765625,-0.8245262853309512,1.2914917629122733,-0.8000660900741815
1789075326355671800,9.814671875,-0.9067316903308034,-0.49490708521306515,-1.430495159932971
1789075326365615900,9.824615966796875,0.30376199754476546,-1.299637075445056,-1.521352657943964
1789075326375559000,9.834558837890626,-0.6658185092784464,-1.348414258095622,-0.5544160897582769
1789075326385502000,9.844501953125,-1.5666493050023913,-1.8291303208708762,0.06374795728921889
1789075326395445000,9.854445068359375,-0.7124643789887428,-1.0214800592780113,-0.8067039206534624
1789075326405388800,9.864388916015624,1.381157274659723,0.34626550675332546,-2.4600445438981056
1789075326415331800,9.874331787109375,3.357726666332781,0.5746615899294615,-3.6037475457876917
1789075326425275000,9.88427490234375,3.586322363734245,0.5932903025537729,-3.9291584805607793
1789075326435218000,9.894218017578124,1.961814451742172,-0.1505757613927126,-3.443744615358114
1789075326445161000,9.904160888671875,0.16299159085154533,-1.4255547809213398,-2.680306420457363
1789075326455104800,9.914104736328126,-1.2893480288818477,-1.4785498735278844,-1.6485311771363018
1789075326465047800,9.9240478515625,-2.3470494483590123,-1.8820424113690852,-0.6114841308921575
1789075326474990800,9.933990966796875,-0.5513245534837246,-1.56996208281219,-1.7521996414035557
1789075326484934000,9.943933837890626,1.4429744100168347,-1.0479922186285258,-1.7192834602296352
1789075326494878000,9.9538779296875,1.2133014387726784,-1.0173036503762005,-1.9609107809007167
1789075326504820700,9.96382080078125,0.398815632071346,-0.5051823955118656,-0.9742658881604671
1789075326514763800,9.973763671875,0.34174802932888265,-0.8513783441603183,-1.5439754086405038
1789075326524706800,9.983706787109375,-0.027562545186281203,-0.763044811668992,-1.2353081033974884
1789075326534649900,9.99364990234375,-0.671823741042614,-0.9271019859254359,-1.0209557431429623
1789075326544594200,10.00359423828125,-0.877162773758173,-0.623090982055664,-0.47168286149203775
1789075326554536700,10.01353662109375,-1.0441136236295103,-0.529553451180458,-0.16298691467642784
1789075326564479700,10.023479736328126,-0.589216769504547,-0.5220978744775057,-0.24743103851377962
1789075326574422800,10.0334228515625,-0.2718234292313456,0.14279635956287384,-0.32231530684530735
1789075326584367000,10.0433671875,-0.07988076144456863,0.7798246815562248,-0.9632938277691602
1789075326594310100,10.05331005859375,-0.4487155351415276,1.9184528643995522,-1.6477257059723138
1789075326604253000,10.0632529296875,-0.7747872719109058,2.854479330536723,-1.2049912910670042
1789075326614195700,10.07319580078125,-0.36713819891214367,2.7473434824198484,-1.1972709259480236
1789075326624140000,10.08314013671875,-0.0832324099600315,1.9556781409442423,-0.5799655415564775
1789075326634083000,10.0930830078125,0.037405017025768754,0.932258638036251,0.14193769690692423
1789075326644026000,10.103026123046876,-0.576018265235424,0.10991817231178283,0.7394429868072271
1789075326653969200,10.11296923828125,-1.0360466370299457,-0.1774053161293268,0.7065969482600688
1789075326663912000,10.122911865234375,-1.192039162774384,-0.6883581117361783,0.16878946347534657
1789075326673856000,10.13285595703125,-1.3143807633295654,0.00019756839871406555,0.023332944792509077
1789075326683799000,10.142799072265625,-1.0328487177714705,0.564250086030364,-0.44319268006682394
1789075326693742000,10.1527421875,-1.1969649287387727,1.565250836381316,0.15695990947186947
1789075326703685000,10.16268505859375,-1.0830793141007422,1.8933909038573502,0.9123726188272238
1789075326713629000,10.17262890625,-0.6459601087287068,2.1020061817646027,0.8070207315176725
1789075326723572000,10.182572021484376,-0.6456386216893791,1.6535446213841438,0.845009978172183
1789075326733515000,10.192514892578124,-1.0788859540641307,1.1108131242007016,1.4613748668432236
1789075326743458000,10.2024580078125,-2.000009450101852,-0.33656302790641784,2.7483237256288526
1789075326753402000,10.212402099609376,-2.53917799410671,-1.9317863932251929,3.9076767165929076
1789075326763345000,10.222344970703125,-2.8351132435485717,-1.848698360171914,3.388588545325398
1789075326773288000,10.232287841796875,-2.0887854656636713,-1.8872914179384708,2.3864245964139696
1789075326783231000,10.24223095703125,-2.031058376099169,-1.5695745447993277,2.5509488036602734
1789075326793174000,10.252174072265625,-1.8111852065965532,-0.37210254332125187,3.232173410254717
1789075326803118000,10.2621181640625,-0.42925563239008185,0.3233218535393476,3.230598708283901
1789075326813061000,10.27206103515625,0.38924920069426294,-0.1689051988095045,2.9645711058497426
1789075326823004000,10.28200390625,-0.6444762999117374,-0.5120739085912704,2.678946238020062
1789075326832946400,10.291946533203125,-0.9265607186555862,-0.1035755252867937,1.9579899250179529
1789075326842890500,10.301890380859374,-0.3696402448609471,0.05775368531048298,1.6463883198887108
1789075326852833500,10.31183349609375,0.09252601574510336,-0.26504151400625703,1.1740998937189577
1789075326862776600,10.321776611328126,0.603484072048962,-0.9145651604354381,0.8983113602489232
1789075326872719600,10.3317197265625,0.4028843428149819,-1.197313011524081,0.6001134265720844
1789075326882663400,10.341663330078125,-0.7314636784911155,-0.9253682940006256,1.0884235977381467
1789075326892606500,10.3516064453125,-0.8917509788200259,-0.8411153088212012,2.3572061007142064
1789075326902549500,10.361549560546875,0.08331687337309121,-0.8858212965101003,2.567517661145329
1789075326912492500,10.371492431640625,0.6586670300886035,-1.200310439774394,1.9102742341190575
1789075326922435600,10.381435546875,0.10952332777529954,-1.518665026295185,1.1437339815497398
1789075326932379400,10.39137939453125,-0.4522252968281507,-1.6098896040529012,1.4893442392647265
1789075326942322400,10.401322509765626,-0.25253917530775066,-1.4532231245696543,2.47320271615684
1789075326952265500,10.411265380859374,-0.1765162583351135,-1.2581769378095864,2.9118530766189097
1789075326962208500,10.42120849609375,-0.44569998671263455,-0.5746498994916677,2.120470643737912
1789075326972152800,10.43115283203125,-0.9643082655087113,0.461057422581315,0.9528507596880197
1789075326982095600,10.441095703125,-0.04612257648855447,1.3210568800926208,0.6643097121506929
1789075326992038400,10.451038330078125,1.182688273844123,1.3676947126269339,0.8589256907999515
1789075327001981400,10.4609814453125,1.922172177183628,1.3041788105279206,0.5491594844043255
1789075327011925800,10.47092578125,1.2957485435739158,1.3073755607426165,-0.3906365633994341
1789075327021868800,10.480868896484376,-0.07066182833090424,1.320593938755989,-0.5400654928445816
1789075327031811800,10.490811767578125,0.1774997164145112,1.163040155044198,-0.15679098264575003
1789075327041754400,10.50075439453125,1.260314826621115,1.0536942296624183,-0.4812111528158188
1789075327051697400,10.510697509765626,1.1217232252717018,0.937803412681818,-0.7752911297798156
1789075327061641700,10.520641845703125,0.9763016317717731,0.7549123586177825,-0.2894119851529598
1789075327071584800,10.530584716796875,1.7489616823956369,0.439986577501893,-0.03542670269012451
1789075327081527800,10.54052783203125,1.9092390458524227,0.15637129592895507,-0.20258242748379707
1789075327091470600,10.550470703125,1.6941794141113757,-0.10622165588140486,-0.436463664072752
1789075327101414700,10.56041455078125,2.1860591143272816,-0.792204270657897,-0.5730909796118736
1789075327111357700,10.570357666015624,2.2651322126507756,-1.5509727201819419,-1.3413731074124573
1789075327121300700,10.58030078125,1.7749474797844886,-2.5599738216370342,-2.347048279315233
1789075327131243800,10.590243896484376,1.652166464898735,-2.5694196953743695,-2.3385692047834397
1789075327141187600,10.6001875,1.5164742382526397,-1.2158674898684023,-2.344752277332544
1789075327151130600,10.610130615234375,1.8307867097757755,0.05742226139903068,-3.0522867987036704
1789075327161073700,10.62007373046875,1.9167351006962359,0.26489362996816634,-3.5926141573548316
1789075327171016700,10.6300166015625,0.9352854385115206,-0.2870323965400457,-3.1873961108952757
1789075327180960800,10.639960693359376,-0.020258213522285223,-1.5871896964669228,-2.227417399023473
1789075327190903600,10.649903564453124,0.7570483477331698,-2.566730894681811,-1.583250018930435
1789075327200846600,10.6598466796875,1.957404964736849,-3.0041654496133328,-1.2778458071365952
1789075327210789600,10.66978955078125,1.1799506655737757,-3.2817227463215586,-1.5793416133150457
1789075327220732700,10.679732666015624,0.13139233749508858,-3.4023908607065674,-1.7111042454272507
1789075327230676700,10.6896767578125,0.36110710205435753,-3.162864896228909,-1.4958978986918925
1789075327240619800,10.699619873046874,1.0668297516979277,-2.302255197864771,-1.2840218654230235
1789075327250562600,10.7095625,0.9465816162906586,-0.8661533039659262,-0.8043886294484138
1789075327260505600,10.719505615234375,0.007234042906761169,-0.7088941192865371,-0.9370090474337339
1789075327270449700,10.72944970703125,0.026955665334314108,-1.1853659686207771,-1.0119731030032038
1789075327280392700,10.739392822265625,0.4434206436038017,-1.4798387442946432,-0.8611112181454896
1789075327290335700,10.749335693359376,1.7750278515443205,-1.0340379275560379,-1.0073562568575143
1789075327300278800,10.75927880859375,0.624148674415052,0.005266542226076126,-0.8297454812839626
1789075327310222600,10.76922265625,-1.4258756834387778,0.48831893899440765,-0.26046383082717656
1789075327320165600,10.77916552734375,-1.113943531180918,0.8472901980638503,0.562661063273251
1789075327330108700,10.789108642578125,0.2995639613330364,1.3786539135366678,0.4987582076832652
1789075327340051700,10.7990517578125,0.7519127384103834,1.7961673779457807,-0.9784700618520379
1789075327349995500,10.80899560546875,-0.6150362704157829,2.2029905215144154,-2.2950699625357984
1789075327359938600,10.8189384765625,-0.8968938946664333,2.3701807330995797,-2.0261995378911495
1789075327369881600,10.828881591796875,-0.2744119844198227,2.675100668507814,-1.5413140804767609
1789075327379824600,10.83882470703125,-0.08652677533030509,2.2592975151479244,-1.325200555768609
1789075327389768700,10.848768798828125,-0.5744273427821696,1.5670160924881695,0.4161223023116588
1789075327399711500,10.85871142578125,0.2525156483016908,1.6869225748509167,0.5673486365675926
1789075327409654500,10.868654541015625,1.4159563469707965,1.882018445971608,-0.9571703764528036
1789075327419597600,10.87859765625,1.9886404993474482,2.1659727502405643,-2.8458076560422776
1789075327429541600,10.888541748046874,0.6509773523688316,1.691675906857848,-0.38816140545755623
1789075327439484700,10.898484619140625,0.3070857351399958,1.7495996880382298,-0.8092550664409994
1789075327449427700,10.908427734375,-0.9159037155628204,1.5829320390224455,0.0032379590079188343
1789075327459370500,10.91837060546875,-1.222230741290003,1.4663316124677657,1.9102496841996908
1789075327469313500,10.9283134765625,0.3823800455771386,0.7478565948873758,-0.24264935719519853
1789075327479257600,10.938257568359376,0.1902009386859834,-0.3314262495398521,0.18737813635021447
1789075327489200600,10.94820068359375,0.14082272140234708,-1.0649515367358922,1.0251201693460346
1789075327499143700,10.958143798828125,0.6509212382674217,-0.8526146079570055,-0.09411123910993337
1789075327509086700,10.968086669921876,0.6630943450115621,-0.02069499750435352,-0.5851593108072877
1789075327519030500,10.978030517578125,-0.34221637749299405,0.9453443295806646,0.32874417084902524
1789075327528973600,10.9879736328125,-3.3184710530042647,2.0572715525031087,3.1294249834418295
1789075327538916600,10.99791650390625,-4.009442562109232,1.997503604760766,4.662988303661346
1789075327548859600,11.007859619140625,0.3068893357850611,0.30995851409733294,0.9140791304841637
1789075327558803500,11.017803466796876,2.2721875379897654,0.1478735166966915,-1.235976504178345
1789075327568746500,11.02774658203125,0.6684392131708562,0.7437702023565769,0.4211138269886374
1789075327578689500,11.037689453125,-1.7295323209129272,0.5274000725388527,1.5004171296820044
1789075327588632600,11.047632568359376,-2.228647671470791,-0.7521481546014547,0.5860901619166136
1789075327598576600,11.05757666015625,0.13422609961628912,-1.3769061930865047,-1.9192212184235453
1789075327608519700,11.067519775390625,2.563023272335529,-0.7909107237160206,-3.172283881959319
1789075327618462500,11.07746240234375,1.0540903893731535,-0.18252748144865036,-1.7165765393584966
1789075327628405500,11.087405517578125,-1.9990145938456056,-0.2164876187175512,0.22795009297430513
1789075327638349600,11.097349609375,-2.491247491413355,-0.9240355840921401,-0.0393617040514946
1789075327648292600,11.107292724609374,0.4746387886881828,-0.9604214872032404,-2.426145196905732
1789075327658235600,11.117235595703125,2.302362749892473,-0.12723171068429945,-3.5530852800428865
1789075327668178400,11.127178466796876,1.3928596951521932,0.42235681278705595,-2.7649761697441337
1789075327678122500,11.13712255859375,-0.20691388081684708,0.15429741226434707,-1.7353753478527068
1789075327688065500,11.1470654296875,-1.575586936956644,-0.39382220769822596,-0.24817221226990221
1789075327698008600,11.157008544921876,-0.2962424156948924,-0.06549743130505084,-0.41814357900619503
1789075327707951600,11.16695166015625,2.289143202835321,0.4887392102330923,-1.380900815680623
1789075327717895400,11.1768955078125,2.7180326322615147,0.45273792252540584,-1.7907833468198775
1789075327727838500,11.18683837890625,1.6214496934652327,-0.1126952358096838,-1.6193611967533825
1789075327737781500,11.196781494140625,0.2920294741749763,-0.6979588837742805,-0.5021943196117877
1789075327747724500,11.206724609375,-0.540444116898626,-0.8103373087197542,-0.11105389834344387
1789075327757667600,11.21666748046875,0.4450805396400392,-0.795637752237916,-0.18882336672246455
1789075327767611400,11.226611328125,0.7228956105016171,-0.8872656500995159,-0.3675952950298786
1789075327777554400,11.236554443359376,-0.1725122833907604,-0.7905155869185924,-0.34298750799596306
1789075327787497500,11.24649755859375,-0.019665654456615448,-0.6887532485336065,-0.6112912386685609
1789075327797440500,11.2564404296875,0.9176433988370001,-0.18613164342045782,-1.04414197294116
1789075327807384600,11.266384521484374,2.8731062895953654,0.5492506698191165,-1.0857160923451186
1789075327817327600,11.27632763671875,3.8229216271102424,1.486579450726509,-1.8714041129767893
1789075327827270400,11.2862705078125,1.0992169405616818,1.2556857055157422,-1.7318062571942805
1789075327837214200,11.296214111328124,-1.9382700561560688,0.4451999282360077,-0.43906186387240886
1789075327847158300,11.306158203125,-2.973895399034023,0.31048925997316834,0.9330220236241817
1789075327857101300,11.316101318359374,-0.7155215746022761,0.8204974682062863,0.461919007846713
1789075327867044000,11.326044189453125,2.119008754491806,1.4624813667804002,-0.020866846939921378
1789075327876987100,11.335987060546875,1.6209420362040399,1.3263766138106583,0.5645329946249723
1789075327886931200,11.34593115234375,-0.29927316169291734,0.2520230424791574,0.6699152770727872
1789075327896874200,11.355874267578125,-0.8185330362655222,-0.18044892160892487,0.839972568526864
1789075327906817300,11.3658173828125,-0.6206164086356759,-0.09584814590513706,-0.1095014082044363
1789075327916760300,11.37576025390625,-0.08327800266742706,0.6959726783931255,-0.8826210391640663
1789075327926704000,11.3857041015625,-0.06806143657416105,0.48369887797832484,-0.23654665640592573
1789075327936647200,11.395647216796876,-1.470629894183576,0.3430447911411524,0.291658887296915
1789075327946590200,11.405590087890625,-2.119756942510605,0.38729543627798557,0.8113245661914348
1789075327956533200,11.415533203125,-2.0642904913544653,0.6037661038607358,1.0111024576485157
1789075327966477000,11.42547705078125,-1.6325450879752634,0.5599930131077766,1.2155237909972667
1789075327976420000,11.435420166015625,-0.7903601040959358,0.18892331996560097,1.4067097951978444
1789075327986363100,11.445363037109376,-0.20477555361390112,-0.09275836319625377,1.5059692108511924
1789075327996306200,11.45530615234375,-0.7828557198151945,-0.08200140686035155,0.7454886967122555
1789075328006250200,11.465250244140625,-1.2820064339473842,0.5229436776518821,0.39348318500220775
1789075328016193000,11.475193115234376,-0.780559133310616,0.44574002646207805,0.9111749334752559
1789075328026136000,11.485135986328125,-1.8979332234621047,-0.30970541611909863,1.9356945065796374
1789075328036079000,11.4950791015625,-2.6930641952216625,-1.224859190097451,2.7796821559667584
1789075328046023200,11.505023193359374,-2.0701289882496,-1.1855460013628005,3.1479619261294602
1789075328055966200,11.51496630859375,-1.195774842171371,-0.8059194922775029,3.205288910460472
1789075328065909200,11.5249091796875,0.7785238280907273,-1.6254168435305356,2.786136446672678
1789075328075852000,11.53485205078125,0.9171113377869129,-1.542611719071865,1.670476466962695
1789075328085796000,11.544796142578125,0.794598764578998,1.5907745692163704,-0.555506807604432
1789075328095739100,11.5547392578125,0.21159429371803998,3.5904245383560656,-0.7449415842235088
1789075328105682200,11.56468212890625,-0.2756780588328838,2.614914203092456,0.942529272159934
1789075328115625200,11.574625244140625,0.13827537500709294,0.15772563314735888,1.707248739042878
1789075328125569300,11.5845693359375,-0.11186638377010821,-0.6392617801338434,1.1176040995150804
1789075328135512000,11.594511962890625,-0.16494067909270524,-0.16059563562572002,0.5510001438349486
1789075328145455000,11.604455078125,-0.3869885622859001,-0.5727449426531791,1.4240578203618526
1789075328155398100,11.614398193359374,-0.43087651159018275,-1.5048627109140156,2.3096786258637905
1789075328165341200,11.624341064453125,-0.3162123137950897,-1.958923990997672,2.003903534930944
1789075328175285200,11.63428515625,-1.1404580286189914,-1.2027490650981665,1.0752695171326399
1789075328185228000,11.64422802734375,0.4407341809988022,0.8059194922775029,0.7210077509284019
1789075328195171000,11.654171142578125,1.6594038688063621,0.1572241133660078,1.1170470501542091
1789075328205114000,11.664114013671876,1.4731822090148925,-0.8941028026431799,1.3967209006249903
1789075328215058400,11.674058349609375,0.9361056688532232,-1.3514321446120738,0.9635586161851882
1789075328225001200,11.684001220703125,0.5281605355173349,-1.4209996018350124,1.1629723505049943
1789075328234944300,11.6939443359375,0.16009353132247925,-1.6259189478337763,0.9656623104661702
1789075328244887000,11.703886962890625,-0.2825321625113487,-2.521090841013193,0.7824380789250135
1789075328254831400,11.713831298828126,-0.8319441603720188,-3.5260353605538604,1.9093840072810648
1789075328264774400,11.7237744140625,-1.1315896625086665,-3.125896809315681,3.539859303244948
1789075328274717400,11.733717529296875,-1.365432320652902,-2.044262433326244,3.1365742706745863
1789075328284661200,11.7436611328125,-0.782970578366518,-2.579421449428797,2.6204163076400757
1789075328294604300,11.753604248046875,0.8259585100911557,-3.3604227735489607,3.5989737555146215
1789075328304547300,11.76354736328125,1.8287255394622683,-2.806803971648216,4.2861458723366255
1789075328314490400,11.773490478515624,1.0402490571558476,-1.1868109067320822,3.0150960089504717
1789075328324434200,11.78343408203125,0.8021767986178397,-1.239246027368307,1.1633008518069983
1789075328334377200,11.793377197265626,1.3445686885833739,-1.1535381672054528,-0.1543038420051336
1789075328344320300,11.8033203125,1.6015934848725795,0.0798123723834753,-1.30552262635231
1789075328354263300,11.81326318359375,1.3873999684415756,1.1278355706721543,-2.2198650839477776
1789075328364206300,11.823206298828126,1.6158042349241672,2.058233675533533,-3.095231037417054
1789075328374150400,11.833150390625,1.9729915331862866,3.5240900717049835,-3.0032214467614886
1789075328384093200,11.84309326171875,2.4279788420736788,3.389327380993962,-3.5221634875565764
1789075328394036200,11.8530361328125,3.2744574314936994,2.2031641245156526,-3.4702041677385567
1789075328403979300,11.862979248046875,1.761103517218679,1.5054881493359804,-2.2385072405755517
1789075328413923300,11.87292333984375,0.2813325774632394,0.5937111583143473,-0.49832946087718005
1789075328423866400,11.882866455078124,0.24700141492486,0.10299977122545241,0.4626794708251953
1789075328433809400,11.892809326171875,1.6891924194790422,-0.9692179571211338,-0.02404430793225765
1789075328443753200,11.902753173828126,1.73609664786458,-1.5189222159266471,-0.4984054487228393
1789075328453696300,11.9126962890625,0.5020831143222749,-1.4462474403381347,-0.7828940059989691
1789075328463639300,11.922639404296875,1.0539642787754535,-0.49681321109533305,-1.4837676081761717
1789075328473582300,11.932582275390626,0.9941780647240579,0.3292003901839256,-2.513291565439105
1789075328483526100,11.942526123046875,-0.32451369367241856,1.2800368874400854,-2.7270629109352824
1789075328493469200,11.95246923828125,-0.43948315802440047,1.9971143131822346,-2.5726073854997753
1789075328503412200,11.962412109375,-0.17726912252902985,1.8681845664083956,-2.1470886015504598
1789075328513355300,11.972355224609375,0.8198271677292883,1.6273954501271246,-2.0866198120623825
1789075328523299300,11.98229931640625,0.8386591478407383,0.13769523703157902,-1.9659417608052492
1789075328533242000,11.9922421875,-1.073978308278322,-0.6900900500953198,0.06223258429020643
1789075328543185200,12.00218505859375,-1.6056744705758987,-0.09360124376118183,1.556697819830477
1789075328553128200,12.012128173828126,0.45317748298645016,0.6827163064569235,-0.11510083564668894
1789075328563072300,12.022072265625,2.0995279550828037,1.7370061639249323,-2.9721447559744116
1789075328573015300,12.032015380859375,1.0593163073278964,2.8695664250314232,-3.989572324991226
1789075328582958300,12.041958251953124,-1.7302292171359062,2.969231498876214,-2.2715116845548153
1789075328592901000,12.051901123046875,-2.442955608061701,1.6127771421879529,-1.3068480297371745
1789075328602845200,12.06184521484375,-1.4978560470223425,0.22065116813778876,-1.4865797429874539
1789075328612788200,12.071788330078125,-0.3553903318427503,-0.44862931816279883,-2.2122218757182357
1789075328622731300,12.081731201171875,-0.2973546147204935,-0.5856792430281639,-2.1335347079724074
1789075328632674300,12.09167431640625,-1.32359487413764,-0.5346703558027744,-0.027344518521428107
1789075328642618000,12.1016181640625,-1.0550409680962562,-1.4772458051919937,1.3771326953187584
1789075328652561200,12.11156103515625,-1.1715618996739388,-2.7350936571776865,2.219487775067985
1789075328662504200,12.121504150390624,-1.5062540191419422,-3.3739036018908024,2.9159882767274974
1789075328672447200,12.131447265625,-1.2104516022995113,-2.8149288259148597,3.6688966020464897
1789075328682391000,12.14139111328125,-0.5541023476339876,-2.8382360517442224,3.163682350091636
1789075328692334000,12.151333984375,0.8398936580717563,-1.6907354111373423,0.7000044181272387
1789075328702277000,12.161277099609375,0.9376154888942837,-0.3182990569412708,-0.13395897311270236
1789075328712220200,12.17122021484375,-0.6433186543092131,-0.26323651041090484,2.5139988369256256
1789075328722164200,12.181164306640625,-0.9734110248968004,-0.5555418789178133,2.4091259653046726
1789075328732107300,12.191107177734375,0.08719824485108256,0.6250918004840612,0.8948705721452832
1789075328742050000,12.201050048828124,2.514290513348579,1.4289467614471911,-2.068690772140026
1789075328751993000,12.2109931640625,1.7466355775356293,2.6929028671801087,-1.6624100648850202
1789075328761937200,12.220937255859376,-0.6657106649897993,5.874163836321235,-0.08058890971392392
1789075328771880200,12.230880126953124,-2.138032750044018,4.950899821123481,-0.14595803846418856
1789075328781823200,12.2408232421875,0.501889053054899,2.719049700349569,-3.275702170857787
1789075328791766300,12.250766357421876,2.946457941532135,1.0284428840279578,-3.573610181677341
1789075328801710000,12.2607099609375,1.6829133392095565,-1.5385902084708214,-1.026877826668322
1789075328811653000,12.270653076171875,0.07057035065516828,-2.0862772822350264,-0.35822745496481656
1789075328821596200,12.28059619140625,-2.225615171907097,-1.1452800419479607,-0.6483651240438223
1789075328831539000,12.2905390625,-0.2329717205286026,-0.4871908117473125,-3.1505943204596636
1789075328841482800,12.300482666015625,0.869663357913494,0.7828700406014919,-3.33676571136862
1789075328851425800,12.31042578125,-0.5262754524230957,1.892185035198927,-0.8637041572481393
1789075328861368800,12.320368896484375,-0.5636418910041451,1.5720295367360113,0.19679975242912767
1789075328871312000,12.330311767578126,0.3541043836854398,1.3008628178477286,-0.33171266526579857
1789075328881256000,12.340255859375,1.0457283653497695,1.527322380003333,-1.4327508299052714
1789075328891199000,12.350198974609375,1.5800807412445543,1.6093039131194353,-2.9781279220372436
1789075328901141800,12.360141845703126,0.9704898767530917,1.4781278487235308,-3.405057449567318
1789075328911084800,12.370084716796875,0.5073720145106315,0.8613251531571149,-2.928841036298871
1789075328921028900,12.38002880859375,0.44163215275183315,0.39675124688744545,-2.1256430779397486
1789075328930972000,12.389971923828124,-0.09253566035628319,0.2825976289629936,-1.7901257596939801
1789075328940915000,12.3999150390625,-0.5881378151614218,0.8075619987875222,-1.5320739584445953
1789075328950858000,12.40985791015625,-0.5043056126773358,1.2552128273069858,-1.1572218241542578
1789075328960801800,12.4198017578125,-0.12417707235403358,0.8195300844788551,-0.04848609074950218
1789075328970744800,12.429744873046875,0.32400852062925695,-0.6022767420858144,1.1926432661473751
1789075328980688000,12.43968798828125,-0.47739174065813417,-2.2338532772898674,2.568975458738208
1789075328990631000,12.449630859375,-0.4600397699713707,-3.9116584797054528,2.8220272597432134
1789075329000574700,12.45957470703125,-0.03860883985757828,-4.169714957129955,2.2041379379838704
1789075329010517800,12.469517822265624,0.14232304296270012,-2.417538112080097,1.26115449231565
1789075329020460800,12.479460693359375,0.5675543882727623,-0.5562643479734659,-0.45752983297705646
1789075329030403800,12.48940380859375,1.3276444417893887,0.4718664013653993,-1.7121365110844373
1789075329040348200,12.49934814453125,2.4369931925259527,0.5849006598711013,-1.6772516601860523
1789075329050291000,12.509291015625,1.7889035244226454,1.2237842543423174,-0.8659066357284784
1789075329060233700,12.519233642578126,0.8490813192643225,1.950536686402559,-0.6706494365662335
1789075329070176800,12.5291767578125,-0.5168459452986717,1.8857301599711178,1.2320879723072051
1789075329080121000,12.53912109375,-1.8956278691291808,0.9626584524750709,3.430303534504771
1789075329090064100,12.549064208984374,-0.5026186825037002,0.7050497188180684,2.5627415327847003
1789075329100007000,12.5590068359375,1.8074048112750052,-0.4775368482172489,0.954916460046172
1789075329109950000,12.568949951171875,0.5533307787396013,-5.178946360209584,-0.6185439862757921
1789075329119894000,12.57889404296875,-0.5830488945245742,-0.36717853092253205,1.2798890034019947
1789075329129837000,12.588837158203125,-0.577133533000946,2.94126388002038,0.9656079499304294
1789075329139780000,12.598780029296876,-1.4635137785680592,3.4899282743841407,-0.18542086480259895
1789075329149723100,12.60872314453125,-0.9592205869808792,2.7467519462674854,-0.9221206903815269
