time,seconds_elapsed,z,y,x
1789075316631262000,0.090261962890625,-9.629443421313166,-1.8146429458349942,-0.38894590689875186
1789075316641205800,0.100205810546875,-9.625974868419766,-1.8354585009790956,-0.3769339820656925
1789075316651148800,0.110148681640625,-9.62443874489367,-1.8453290298692882,-0.36786932619828727
1789075316661091800,0.120091796875,-9.62475263314843,-1.8450388147510588,-0.36104276811387387
1789075316671035000,0.130034912109375,-9.626016369473934,-1.839978608752042,-0.3530967044802382
1789075316680978000,0.13997802734375,-9.626797290718555,-1.8381471555411815,-0.34113643676918
1789075316690920700,0.149920654296875,-9.62566857894957,-1.8466534103408454,-0.3267470056824386
1789075316700863700,0.15986376953125,-9.621930561465025,-1.8678670248918234,-0.3160863858604803
1789075316710806800,0.169806884765625,-9.61583867433071,-1.8989952997356652,-0.31597901649586857
1789075316720750800,0.179750732421875,-9.608273792034387,-1.9352099379330872,-0.32622163010146465
1789075316730694000,0.18969384765625,-9.599953122934698,-1.9738798603281378,-0.33923418334443123
1789075316740637000,0.199636962890625,-9.591287585920094,-2.014361216059327,-0.3463113551890477
1789075316750579700,0.209579833984375,-9.581693828144669,-2.0597788591489197,-0.3447311733255163
1789075316760522800,0.219522705078125,-9.570120294728875,-2.114554697692394,-0.33441834402792153
1789075316770465800,0.2294658203125,-9.554735678592325,-2.1859037776350974,-0.31500838136542586
1789075316780408800,0.239408935546875,-9.533031796306371,-2.283379378611594,-0.2790548600559123
1789075316790352000,0.249351806640625,-9.502846501401066,-2.4117269415833054,-0.22329454051973296
1789075316800295000,0.259294921875,-9.462557745632528,-2.5702096767082807,-0.15621676295436918
1789075316810238700,0.26923876953125,-9.414020216956734,-2.7447023202612995,-0.11494668626459315
1789075316820181200,0.27918115234375,-9.361610815283656,-2.918553158779442,-0.11257143590007908
1789075316830124300,0.289124267578125,-9.305210298147797,-3.0931615376666186,-0.12568934921366162
1789075316840067300,0.2990673828125,-9.243333979949355,-3.2722195894390342,-0.15407421623403206
1789075316850010400,0.30901025390625,-9.169874775984884,-3.469101759454608,-0.2216076834113337
1789075316859953400,0.318953369140625,-9.086746410921215,-3.6752486014217136,-0.3065539663508534
1789075316869896400,0.328896484375,-9.006856297126411,-3.858432500952482,-0.399275869994238
1789075316879839500,0.338839599609375,-8.939927956235408,-3.9998867982566355,-0.49897283681463445
1789075316889783300,0.348783203125,-8.893361435371636,-4.087321920603514,-0.6101712947279214
1789075316899726300,0.358726318359375,-8.874722201353311,-4.107651884187757,-0.7327288030561059
1789075316909669400,0.36866943359375,-8.879100270307063,-4.0687893618300555,-0.8814284683786332
1789075316919612400,0.3786123046875,-8.893344484236836,-3.9956677192568777,-1.0551987159412353
1789075316929555500,0.388555419921875,-8.902017620036005,-3.931010830429196,-1.2131050394177436
1789075316939498500,0.39849853515625,-8.895047196501492,-3.8970261432409283,-1.3644433096155524
1789075316949441300,0.408441162109375,-8.881011656886338,-3.8773289246022697,-1.5047718177601694
1789075316959384300,0.41838427734375,-8.877133354148269,-3.842272516529262,-1.6136390197142958
1789075316969327000,0.4283271484375,-8.889368566343189,-3.781334648224711,-1.6884964000388978
1789075316979271400,0.438271484375,-8.90344502249062,-3.7088185703292487,-1.7730530443400143
1789075316989214500,0.44821435546875,-8.906298073834181,-3.6364471616014837,-1.9038091297581792
1789075316999157500,0.458157470703125,-8.891616637530923,-3.5605656989261507,-2.1052098001115023
1789075317009100300,0.468100341796875,-8.849974713587761,-3.492628180992603,-2.376948327538371
1789075317019043300,0.478043212890625,-8.769252240622043,-3.4647412261575457,-2.695583192305267
1789075317028986000,0.487986083984375,-8.648063317233323,-3.4849309044882655,-3.0391847405463457
1789075317038929200,0.49792919921875,-8.494176823857426,-3.5425939889058466,-3.386645302303135
1789075317048872200,0.5078720703125,-8.326372864288091,-3.6055323833778496,-3.720488842117786
1789075317058816300,0.517816162109375,-8.159878233751654,-3.640527708913386,-4.041451857571303
1789075317068759300,0.52775927734375,-8.000910491588712,-3.6344326069086788,-4.352782829065621
1789075317078702300,0.537702392578125,-7.861625355017185,-3.583081189855933,-4.639694229574501
1789075317088645000,0.54764501953125,-7.760857872888446,-3.475059791076183,-4.885021281546354
1789075317098588200,0.557588134765625,-7.6993503880023955,-3.331749052250385,-5.078370016738772
1789075317108531200,0.56753125,-7.642092961776256,-3.176395993453264,-5.261112602242827
1789075317118474200,0.57747412109375,-7.56163001652956,-3.038051644863188,-5.4554900959610935
1789075317128417300,0.587417236328125,-7.450045372310281,-2.932531999771297,-5.662814749535918
1789075317138360300,0.5973603515625,-7.314969962388276,-2.8596725152656433,-5.872298042449355
1789075317148304100,0.60730419921875,-7.1491861104696985,-2.803628264221549,-6.099113578435778
1789075317158247200,0.6172470703125,-6.965245255091786,-2.7550457273602484,-6.329727922183275
1789075317168190200,0.627190185546875,-6.80863313614428,-2.7126170369535685,-6.515720449393987
1789075317178133200,0.63713330078125,-6.7194345112562175,-2.6504391054600474,-6.632854544433951
1789075317188076300,0.647076171875,-6.711424807801842,-2.5378841549038884,-6.684781715548038
1789075317198019300,0.657019287109375,-6.767631848192215,-2.364099221228808,-6.691829295971989
1789075317207962400,0.66696240234375,-6.834180834376812,-2.1516328208513555,-6.695881786233186
1789075317217905400,0.676905517578125,-6.859760096791386,-1.943320325282961,-6.733318659701943
1789075317227848200,0.68684814453125,-6.828060890191793,-1.7643977364584802,-6.8143135198682545
1789075317237792300,0.696792236328125,-6.755034816947579,-1.6160449118122457,-6.923026408043503
1789075317247735300,0.7067353515625,-6.675989921805262,-1.4916219749383628,-7.026848601567745
1789075317257678300,0.71667822265625,-6.632213323920965,-1.3809469929099083,-7.090635721823572
1789075317267621400,0.726621337890625,-6.625728053554893,-1.2573778963863849,-7.119629176595807
1789075317277564200,0.736564208984375,-6.643126347601413,-1.1026378549210727,-7.129057514676451
1789075317287507200,0.746507080078125,-6.6514680594891304,-0.9190392371095717,-7.147287583371996
1789075317297450200,0.7564501953125,-6.607837592077255,-0.7239264148540795,-7.20990916697979
1789075317307393300,0.766393310546875,-6.497357694229483,-0.5740478419452906,-7.322922967219352
1789075317317337300,0.77633740234375,-6.346378028210998,-0.502654630599916,-7.459303029999137
1789075317327280400,0.7862802734375,-6.210965349158644,-0.4717709416342899,-7.574413510257005
1789075317337223200,0.79622314453125,-6.119574182662367,-0.45056309923697263,-7.649719218870997
1789075317347166200,0.806166259765625,-6.069281334751844,-0.41779809003677215,-7.691531238684058
1789075317357109200,0.816109130859375,-6.046981824660301,-0.36857773019596934,-7.711585600197314
1789075317367052300,0.82605224609375,-6.052900693315268,-0.3132134973052889,-7.709388382413983
1789075317376995300,0.835995361328125,-6.057306819319725,-0.2692340520589612,-7.707588639515638
1789075317386938400,0.8459384765625,-6.0582683578282595,-0.24955813193665816,-7.707495700535178
1789075317396882200,0.855882080078125,-6.056279814359545,-0.25937621825356033,-7.7087343024194235
1789075317406825200,0.8658251953125,-6.051530574005842,-0.3023810097814537,-7.710897033411264
1789075317416768300,0.875768310546875,-6.041352878862619,-0.37248080204911527,-7.7158087708503
1789075317426711300,0.885711181640625,-5.999999708732962,-0.4485775149103254,-7.7439762961924075
1789075317436654300,0.895654296875,-5.948440201887488,-0.5256016813473776,-7.778830167430638
1789075317446597400,0.905597412109375,-5.912406180953979,-0.6052360668154433,-7.800482611790299
1789075317456540400,0.91554052734375,-5.91290711621344,-0.685906699996069,-7.7934233409285545
1789075317466483500,0.9254833984375,-5.9532923180937765,-0.7817933512806892,-7.7535472576141355
1789075317476427300,0.93542724609375,-6.016000410941243,-0.9159043731499463,-7.690204373994469
1789075317486370300,0.945370361328125,-6.073717271372676,-1.0982495568342505,-7.620642761990427
1789075317496313300,0.955313232421875,-6.114573597896099,-1.3251400577530263,-7.551581500723958
1789075317506256400,0.96525634765625,-6.136463358142971,-1.5812440859355033,-7.484241656422615
1789075317516199400,0.975199462890625,-6.159008951950073,-1.8489127335749564,-7.403952898699044
1789075317526142500,0.985142578125,-6.197437759065628,-2.114996450110525,-7.2999278760790824
1789075317536085200,0.995085205078125,-6.248085996285081,-2.372486233562976,-7.176568038392067
1789075317546028300,1.0050283203125,-6.307802506101131,-2.6185250870659944,-7.037423771595955
1789075317555971300,1.014971435546875,-6.3755550228565925,-2.853229038214683,-6.883440832108259
1789075317565915400,1.024915283203125,-6.445937888115644,-3.076903353565931,-6.719593501210213
1789075317575858400,1.0348583984375,-6.517772705748677,-3.290644303923845,-6.546807077053189
1789075317585801500,1.044801513671875,-6.5905842594593755,-3.494909277667105,-6.365546839061379
1789075317595744300,1.054744140625,-6.654590575423836,-3.6879260044261812,-6.187569276002049
1789075317605687300,1.064687255859375,-6.683406335541606,-3.880307063630223,-6.037026247835159
1789075317615630300,1.07463037109375,-6.671472736641764,-4.0876556826025245,-5.912098722440004
1789075317625573400,1.084573486328125,-6.63647507301867,-4.310228174191713,-5.792195162686705
1789075317635516400,1.094516357421875,-6.585757277694344,-4.532284825213253,-5.679487651917338
1789075317645460500,1.10446044921875,-6.535410653769969,-4.735737021268904,-5.570600576218962
1789075317655403300,1.1144033203125,-6.4923407428503035,-4.908012865555286,-5.470951284465193
1789075317665346300,1.12434619140625,-6.451365173861384,-5.058232653117179,-5.381873071086407
1789075317675289300,1.134289306640625,-6.407099915677309,-5.188256040346622,-5.310504117399454
1789075317685232400,1.144232421875,-6.363833605402708,-5.295995115053653,-5.255895744377375
1789075317695175400,1.154175537109375,-6.339962900471687,-5.373693856284022,-5.205637967780232
1789075317705118500,1.164118408203125,-6.332224999696016,-5.42511600048542,-5.161532868593931
1789075317715061500,1.1740615234375,-6.31938597638905,-5.461847356033325,-5.138479909786581
1789075317725005300,1.18400537109375,-6.30631255980432,-5.481733959764242,-5.133362420642376
1789075317734948400,1.1939482421875,-6.31006051416099,-5.482872608405351,-5.12753707548976
1789075317744891400,1.203891357421875,-6.336290933960676,-5.470606416550278,-5.108255451914668
1789075317754834400,1.21383447265625,-6.369695775434375,-5.456397273933887,-5.081839738675952
1789075317764777500,1.223777587890625,-6.391644572392106,-5.450785863792896,-5.060256852421165
1789075317774720300,1.23372021484375,-6.385047658345103,-5.453481678748131,-5.065677708426118
1789075317784663300,1.243663330078125,-6.359921400395035,-5.445355655437708,-5.105867095473409
1789075317794606300,1.2536064453125,-6.345173328596353,-5.410297201538086,-5.161186831635236
1789075317804550400,1.26355029296875,-6.362651117619872,-5.345350974375009,-5.207138435471058
1789075317814493400,1.273493408203125,-6.41892187089622,-5.253465886881947,-5.231532287493348
1789075317824436700,1.283436767578125,-6.505329403761029,-5.146157604807615,-5.231456884169578
1789075317834379800,1.2933798828125,-6.6065288475662465,-5.039577637007832,-5.208341381520032
1789075317844322600,1.303322509765625,-6.709561936539411,-4.941539872103929,-5.170429876276851
1789075317854265600,1.313265625,-6.799112443605065,-4.851773676460981,-5.138359498277306
1789075317864208600,1.323208740234375,-6.861907045692205,-4.770891921280324,-5.130615752282738
1789075317874151700,1.333151611328125,-6.8874974140226835,-4.693098779764771,-5.167938643983006
1789075317884095700,1.343095703125,-6.858221635177731,-4.631325921940803,-5.261747977536916
1789075317894038800,1.353038818359375,-6.760275640210509,-4.627172601653635,-5.390577771067619
1789075317903981600,1.362981689453125,-6.610020781335234,-4.68358977766335,-5.526480863985419
1789075317913924600,1.372924560546875,-6.4379451357960695,-4.7633100878492,-5.659869928255677
1789075317923867600,1.38286767578125,-6.269508723542094,-4.835407648071646,-5.7864048888474695
1789075317933810700,1.392810791015625,-6.117907126232981,-4.878673081563413,-5.911019110509753
1789075317943753700,1.402753662109375,-5.97794160618186,-4.88351789124608,-6.04862433117032
1789075317953696500,1.412696533203125,-5.824080247247219,-4.851419163934886,-6.2220753567159175
1789075317963640600,1.422640625,-5.6214645020157095,-4.788532207389175,-6.452866226074099
1789075317973583600,1.43258349609375,-5.348044451242685,-4.708016070650518,-6.7382035091340535
1789075317983526700,1.442526611328125,-5.012179342472553,-4.631485788677632,-7.0425687332689755
1789075317993469700,1.4524697265625,-4.653247538630664,-4.564698902083933,-7.326745155856013
1789075318003412500,1.46241259765625,-4.318294868530333,-4.497082578928769,-7.569607571280002
1789075318013355500,1.47235546875,-4.03014691196382,-4.412518043582141,-7.7754732582181685
1789075318023298600,1.482298583984375,-3.7905078425005074,-4.301349871209264,-7.9561822920680045
1789075318033241600,1.49224169921875,-3.589652677200734,-4.156788840061426,-8.124401262179017
1789075318043184600,1.5021845703125,-3.402195630395412,-3.9799370661616322,-8.291896009668708
1789075318053128700,1.512128662109375,-3.209594498699903,-3.7776360859677194,-8.461579791635275
1789075318063071500,1.522071533203125,-3.0123040401443837,-3.555395310550928,-8.628764742523432
1789075318073014500,1.5320146484375,-2.815452557528019,-3.3094930890396235,-8.791522524619102
1789075318082957600,1.54195751953125,-2.6221716268748043,-3.0279475994780656,-8.9513202878654
1789075318092900600,1.551900634765625,-2.42857870766297,-2.700468333998322,-9.109327660563588
1789075318102843600,1.56184375,-2.230480585986376,-2.3293032176576554,-9.26119229272306
1789075318112786400,1.571786376953125,-2.027741652766615,-1.9244309158958492,-9.399745023366808
1789075318122729500,1.5817294921875,-1.7686783363871275,-1.4787057947419584,-9.53181891338527
1789075318132673500,1.591673583984375,-1.4235931254595517,-1.0288541682425887,-9.64806745776236
1789075318142616600,1.601616455078125,-0.9917115284800528,-0.584027164972201,-9.738880532109738
1789075318152559600,1.6115595703125,-0.5052811797112227,-0.131169287595246,-9.792745393288135
1789075318162502400,1.62150244140625,0.005861832675771438,0.3220790869366377,-9.801357154288887
1789075318172445400,1.631445556640625,0.5134329219847917,0.7776296557299792,-9.762277774310112
1789075318182388500,1.641388427734375,0.9631924862865358,1.235085400557518,-9.680765612271427
1789075318192331500,1.65133154296875,1.3395895849965511,1.6764814064659177,-9.568976969912647
1789075318202274600,1.661274658203125,1.6180327246285975,2.080504251791537,-9.445839250543713
1789075318212218600,1.671218505859375,1.8152815359994767,2.449991644178331,-9.3205522441864
1789075318222161400,1.681161376953125,1.9530190047375857,2.787911639651656,-9.196936385911702
1789075318232104400,1.6911044921875,2.0743324312888083,3.0932816569149493,-9.071889033529162
1789075318242047500,1.701047607421875,2.177410090056062,3.3632220488786695,-8.950867283400893
1789075318251990500,1.710990478515625,2.2450331352129576,3.596492460092902,-8.842818996614218
1789075318261933600,1.72093359375,2.2780286652334034,3.783181737396121,-8.75605607444048
1789075318271876600,1.730876708984375,2.3129465416185555,3.925359380538761,-8.684019596755505
1789075318281820400,1.7408203125,2.369659631834924,4.031333783660829,-8.61994430720806
1789075318291763500,1.750763427734375,2.4404760662056506,4.098486580957472,-8.568364926618337
1789075318301706500,1.76070654296875,2.495596334272623,4.129456304238737,-8.537564130163192
1789075318311649500,1.7706494140625,2.492667879605293,4.140142533425987,-8.53324100626707
1789075318321592600,1.780592529296875,2.4453264288462697,4.147538196635246,-8.543342129042744
1789075318331535600,1.79053564453125,2.361114067938179,4.171214840298891,-8.555494923651217
1789075318341478700,1.800478759765625,2.2723140869788825,4.210602263313532,-8.56024591757059
1789075318351421700,1.810421630859375,2.2525012791365384,4.238886400772631,-8.55151900575757
1789075318361365500,1.820365478515625,2.5027736785560846,4.178557019755244,-8.51153361684978
1789075318371308500,1.83030859375,2.9352555795162916,4.072493184784054,-8.424338732999562
1789075318381251600,1.84025146484375,3.220699830082059,3.9696994575247166,-8.368927811422944
1789075318391194600,1.850194580078125,3.2608374869421124,3.9113212105751036,-8.380864917454122
1789075318401137700,1.8601376953125,3.2278874034985896,3.887308466824889,-8.404757249695063
1789075318411080700,1.870080810546875,3.2336513738527892,3.8550785143494606,-8.417378830859064
1789075318421023500,1.8800234375,3.3471064881190657,3.8235073180437085,-8.387373568695784
1789075318430966500,1.889966552734375,3.519749704413116,3.782978031517565,-8.33491623622775
1789075318440910600,1.89991064453125,3.60772346368134,3.751202252550423,-8.311629468664526
1789075318450853600,1.909853515625,3.621278234042227,3.7656457884445786,-8.299193180939554
1789075318460796700,1.919796630859375,3.6225349561050533,3.833151929223537,-8.267680436822772
1789075318470739700,1.92973974609375,3.5314530016884205,3.938022170495987,-8.257797340711951
1789075318480682500,1.9396826171875,3.387192414791882,4.055257680083811,-8.2614897654891
1789075318490625500,1.94962548828125,3.327453985404968,4.12551311957091,-8.250976554781198
1789075318500568600,1.959568603515625,3.2910306728929277,4.1713267762407655,-8.24254541104436
1789075318510511600,1.96951171875,3.2214670150622724,4.223412352786958,-8.243501688855886
1789075318520455700,1.97945556640625,3.169462102536857,4.25483508053273,-8.24750157214701
1789075318530398700,1.989398681640625,3.166717480003834,4.245023296092451,-8.253608656850457
1789075318540341500,1.999341552734375,3.194178902903199,4.207326018121838,-8.262324462747573
1789075318550284500,2.009284423828125,3.244021084436774,4.150933099770546,-8.271424299526213
1789075318560227600,2.0192275390625,3.3062107063680886,4.07439434223026,-8.284844922113418
1789075318570170600,2.029170654296875,3.3467338554143904,3.9769618497431276,-8.315861407145857
1789075318580113700,2.03911376953125,3.3707676419526336,3.871269186171889,-8.355931551727652
1789075318590056700,2.049056640625,3.3629569682016967,3.769208449362218,-8.405594285041094
1789075318600000500,2.05900048828125,3.2888530365929007,3.6857431074291465,-8.471665716841816
1789075318609943600,2.068943603515625,3.2109348073929547,3.6170512639969585,-8.530956694722175
1789075318619886600,2.078886474609375,3.280233969068527,3.4929970143049953,-8.556251879498362
1789075318629829600,2.08882958984375,3.3539731590181585,3.3749788299068806,-8.575006848850846
1789075318639772700,2.098772705078125,3.330973099441826,3.351647346419096,-8.5931059846431
1789075318649715700,2.1087158203125,3.319419147509336,3.3590815880730744,-8.59467484139502
1789075318659658800,2.11865869140625,3.377845909775793,3.331519627408683,-8.582629014292358
1789075318669602600,2.1286025390625,3.4505168859720228,3.263715964987874,-8.57977304033935
1789075318679545600,2.138545654296875,3.50910176140964,3.1766116820305585,-8.588698105072975
1789075318689488600,2.148488525390625,3.5542528625175356,3.069458005996048,-8.609069861972332
1789075318699431700,2.158431640625,3.602683715948462,2.9568744138672947,-8.628324597540498
1789075318709374700,2.168374755859375,3.6408725768283006,2.869387853594124,-8.64182003892958
1789075318719317800,2.17831787109375,3.6865307506754994,2.796567824316025,-8.646331963396072
1789075318729260800,2.1882607421875,3.743078567327559,2.715746859411895,-8.647804374036193
1789075318739203600,2.19820361328125,3.794597157640755,2.629638309493661,-8.651961493715643
1789075318749147600,2.208147705078125,3.819927705991268,2.5551763582274316,-8.663119432067871
1789075318759090700,2.218090576171875,3.8177944933548567,2.4994258294329046,-8.680306129190326
1789075318769033700,2.22803369140625,3.801221836477518,2.4561036973178387,-8.699923268330096
1789075318778976800,2.237976806640625,3.785537945133447,2.4238179230019448,-8.715801220941543
1789075318788919800,2.247919921875,3.771021051742136,2.4062385733000933,-8.726957990249991
1789075318798862600,2.257862548828125,3.7502237629070874,2.3968024903044105,-8.738510480877757
1789075318808805600,2.2678056640625,3.7248940913394093,2.3821966034553945,-8.753322850084304
1789075318818749000,2.2777490234375,3.6983190958857532,2.3600940772406758,-8.77056273869872
1789075318828692000,2.28769189453125,3.667252926492691,2.3370412645637986,-8.789760775643586
1789075318838635000,2.297635009765625,3.629691549861431,2.31932572126165,-8.810020304340124
1789075318848578000,2.307578125,3.5917598786130545,2.3060532749734817,-8.829029540714622
1789075318858521000,2.31752099609375,3.5668247593209146,2.2921000068143007,-8.842762297990918
1789075318868463900,2.3274638671875,3.5544229583874345,2.275908312078565,-8.851932861918211
1789075318878407000,2.337406982421875,3.536677750599384,2.2587319902196525,-8.863430407488346
1789075318888350000,2.347349853515625,3.506242864847183,2.247170877894014,-8.878447359356283
1789075318898294000,2.3572939453125,3.4663235269129276,2.247042283078283,-8.894142356616259
1789075318908237000,2.367237060546875,3.432039856778085,2.251492540485412,-8.906304503574967
1789075318918180000,2.37718017578125,3.408775885568559,2.248079663302004,-8.916095245227217
1789075318928123000,2.387122802734375,3.398037633933127,2.2356873608492314,-8.923308829867839
1789075318938066000,2.39706591796875,3.3915044327721,2.219324255069345,-8.929877102342248
1789075318948009000,2.407009033203125,3.388618648202717,2.206512558160722,-8.934145865702629
1789075318957952000,2.416951904296875,3.385101287731528,2.196201299765706,-8.938018323221803
1789075318967895000,2.42689501953125,3.3756001766756176,2.179824749982357,-8.945619445875286
1789075318977839000,2.436839111328125,3.3588802202820776,2.1570025311909613,-8.95743614039719
1789075318987782000,2.446781982421875,3.333638226997852,2.1352070250988007,-8.972074322080612
1789075318997725000,2.456724853515625,3.304167802363634,2.110584332756698,-8.98878697195053
1789075319007668000,2.46666796875,3.2712478217974303,2.074761616486311,-9.009144115802645
1789075319017611000,2.476611083984375,3.243385124620795,2.034048497825861,-9.028483022522925
1789075319027554000,2.486553955078125,3.219042710524797,2.0049585969418287,-9.043689944005012
1789075319037497000,2.4964970703125,3.182703569164872,1.9902387283243237,-9.059784754237532
1789075319047441000,2.50644091796875,3.1293612705558536,1.9876555799633264,-9.078915571165084
1789075319057384000,2.516384033203125,3.0701518334791063,2.0030409267522393,-9.095734019497037
1789075319067327000,2.526326904296875,3.0112802500545977,2.039245774208009,-9.10736366701424
1789075319077270000,2.53627001953125,2.9594056859105824,2.0982460985787212,-9.1109649063766
1789075319087213000,2.546213134765625,2.9073049117952583,2.168342548111826,-9.111327894470096
1789075319097156000,2.556156005859375,2.8495044647336005,2.241705890486389,-9.111832336860894
1789075319107099000,2.566098876953125,2.7813717164888976,2.3220630372710525,-9.112759388577938
1789075319117043000,2.57604296875,2.7010069709196687,2.41113160603866,-9.113803344672919
1789075319126986000,2.585986083984375,2.608096924293041,2.513623281611502,-9.113172645553947
1789075319136929000,2.595928955078125,2.5121342120975254,2.6287434064805506,-9.107650082740188
1789075319146872000,2.6058720703125,2.4314488562718033,2.7367475618645547,-9.097730161750317
1789075319156815000,2.615815185546875,2.3759707146778704,2.825841849595308,-9.085140729290247
1789075319166758000,2.6257578125,2.337604305274039,2.897645103046298,-9.072465956634282
1789075319176701000,2.635700927734375,2.3108206355057654,2.952986758778989,-9.061475191542506
1789075319186643700,2.645643798828125,2.296229507834464,2.9935145840004083,-9.05188201828897
1789075319196588000,2.655588134765625,2.297690228036791,3.019231793580949,-9.04296805947125
1789075319206531000,2.665531005859375,2.3112233710877597,3.029052930371463,-9.036232029214501
1789075319216473900,2.675473876953125,2.3369424803644416,3.027083383864164,-9.030274582114815
1789075319226417000,2.6854169921875,2.371759088332206,3.0173168998703357,-9.02446501905322
1789075319236360000,2.69535986328125,2.4165733587011693,3.000152999101579,-9.018295390507578
1789075319246302700,2.705302734375,2.4593372724115845,2.9773110526964066,-9.014303690522908
1789075319256245800,2.715245849609375,2.4955174238175153,2.9522680891156194,-9.012598055648803
1789075319266190000,2.725190185546875,2.5242253396466374,2.932028434163332,-9.011207478073239
1789075319276132900,2.7351328125,2.548106858232617,2.9180829109191895,-9.009014936465025
1789075319286076000,2.745075927734375,2.571049050141871,2.9086551573604345,-9.005542876440286
1789075319296019000,2.75501904296875,2.589735922694206,2.8969448458224534,-9.003963498294352
1789075319305961700,2.764961669921875,2.602110543359816,2.87492532171607,-9.007453093975782
1789075319315904800,2.77490478515625,2.611209795616567,2.8410467252507803,-9.015563919717072
1789075319325847800,2.784847900390625,2.6244927632987496,2.806112482252717,-9.022648909541964
1789075319335790800,2.794790771484375,2.6376205404192206,2.779588340203464,-9.027028732061385
1789075319345735000,2.80473486328125,2.652114929717779,2.753418418419361,-9.030800067293644
1789075319355678000,2.814677978515625,2.669823604887724,2.710451091091335,-9.038577715557814
1789075319365620700,2.824620849609375,2.709260127741098,2.659858675712347,-9.041869742840529
1789075319375563800,2.834563720703125,2.749048532772064,2.6152935577988625,-9.042861676487327
1789075319385506800,2.8445068359375,2.805256449945271,2.58133634313941,-9.035355246379972
1789075319395449900,2.854449951171875,2.8454759398698806,2.5680247338846325,-9.026566959768534
1789075319405393000,2.864392822265625,2.8666493685409424,2.567885325413942,-9.019903410226107
1789075319415337000,2.8743369140625,2.8807877840086817,2.581487149786949,-9.011512013977766
1789075319425279700,2.88427978515625,2.896113655695319,2.6126059261500836,-8.997620266747473
1789075319435222800,2.894222900390625,2.8588854565411803,2.6259236728847024,-9.00564867490232
1789075319445165800,2.904165771484375,2.7865961731389164,2.6051880511090157,-9.034283233234286
1789075319455108900,2.91410888671875,2.7360739003866907,2.5748385055527088,-9.058393592140078
1789075319465052000,2.924052001953125,2.723669469104707,2.5621438591524957,-9.065727588289976
1789075319474995000,2.933994873046875,2.7345646648675204,2.5744568127587435,-9.058957071241736
1789075319484938000,2.94393798828125,2.734888197733462,2.5972400147140027,-9.052354311975837
1789075319494881800,2.9538818359375,2.7103724728971716,2.6245731350585815,-9.05184402436614
1789075319504824800,2.963824951171875,2.674979672476649,2.6570512170761824,-9.052895579245686
1789075319514768000,2.973767822265625,2.6455548405498264,2.697969502919912,-9.049440470355748
1789075319524711000,2.9837109375,2.6206620990946887,2.7431264492467045,-9.043107175680994
1789075319534654000,2.993654052734375,2.594506790357828,2.7798648190572854,-9.039430532994865
1789075319544597000,3.003596923828125,2.5776868807211515,2.7982185141324996,-9.038579469123482
1789075319554540000,3.0135400390625,2.57728005348593,2.7994121078312397,-9.03832403305769
1789075319564483800,3.02348388671875,2.539652625881135,2.7377348193362354,-9.067820761176943
1789075319574427000,3.033427001953125,2.5367481366112825,2.7084049722164867,-9.077437315306067
1789075319584370000,3.043369873046875,2.6102374434530735,2.7143235486105084,-9.054803458693623
1789075319594313000,3.05331298828125,2.6698271120190618,2.7437644548892974,-9.028520431923866
1789075319604256000,3.063256103515625,2.7071280841484664,2.7600474811702966,-9.01243672760725
1789075319614199000,3.073198974609375,2.7471879995971915,2.754873293402791,-9.001889030107856
1789075319624141800,3.083141845703125,2.793477164824307,2.736006388108432,-8.99339592705071
1789075319634086000,3.0930859375,2.840862893116474,2.701024214315414,-8.989124825602769
1789075319644029000,3.10302880859375,2.89444221535176,2.661622470514476,-8.983783464574813
1789075319653972000,3.112971923828125,2.9504724378705025,2.618097217042744,-8.97834448839128
1789075319663915000,3.1229150390625,2.9926588439539072,2.5747195553481577,-8.97692760733068
1789075319673858000,3.132858154296875,3.0084216457530855,2.5361215291455386,-8.982643646889924
1789075319683800800,3.14280078125,3.0056480893865225,2.5000641273364423,-8.99367357494831
1789075319693743900,3.152743896484375,3.0087498547941443,2.4613188016176224,-9.00331877065003
1789075319703688000,3.16268798828125,3.026244594952464,2.4167510533556342,-9.00952697764039
1789075319713631000,3.172630859375,3.0543963382035493,2.3735402726605535,-9.011512013977766
1789075319723574000,3.182573974609375,3.071148735561967,2.341683975803107,-9.014153468397259
1789075319733517000,3.19251708984375,3.086697310088575,2.3021648892328144,-9.0190196131289
1789075319743459800,3.2024599609375,3.0983053302958607,2.2612553712174295,-9.025386225551367
1789075319753403000,3.21240283203125,3.118907096558809,2.2216100279189646,-9.028135816520452
1789075319763346000,3.222345947265625,3.145569478034973,2.1854393749937415,-9.027714376237988
1789075319773290000,3.2322900390625,3.171694683894515,2.1557988544896243,-9.025701282849907
1789075319783233000,3.24223291015625,3.200600752644241,2.1298495897188783,-9.021656391373277
1789075319793175800,3.25217578125,3.2374630410954355,2.099678177208453,-9.015573272067307
1789075319803118800,3.262118896484375,3.2692174850136038,2.0607855519734324,-9.01308963855803
1789075319813062000,3.272061767578125,3.2899779489696024,2.0102130103386937,-9.016956250858307
1789075319823005200,3.282005126953125,3.299930018663406,1.9507137965351342,-9.026379912763833
1789075319832948200,3.2919482421875,3.3048116532251237,1.8905738006100057,-9.037383537337183
1789075319842891300,3.301891357421875,3.3148613380745053,1.8302632704235613,-9.046115125325322
1789075319852835300,3.31183544921875,3.3225250045701857,1.7732595266975462,-9.054654990133642
1789075319862778400,3.3217783203125,3.317521497194469,1.7223042693555355,-9.06631620183289
1789075319872721200,3.33172119140625,3.2918487112775443,1.6752482114091514,-9.084472036248444
1789075319882664200,3.341664306640625,3.2592665843635795,1.628691042895615,-9.104665513971447
1789075319892607200,3.351607177734375,3.2334155192703005,1.5812987387321888,-9.122221628928184
1789075319902550300,3.36155029296875,3.218248053015768,1.5405202997505665,-9.134553871756792
1789075319912493300,3.371493408203125,3.2102079544231295,1.5035706252768635,-9.143533881548047
1789075319922437000,3.38143701171875,3.200443516255915,1.464326117864251,-9.153321116068959
1789075319932380200,3.391380126953125,3.190392954623699,1.419895001593977,-9.163823805382847
1789075319942323200,3.4013232421875,3.1850258746325966,1.3752889671482145,-9.17248992691934
1789075319952266200,3.411266357421875,3.1834803987562657,1.33894865674451,-9.17840236583352
1789075319962209300,3.421209228515625,3.1808523883402344,1.313830582100898,-9.182940593785046
1789075319972152300,3.43115234375,3.16706906992048,1.2980312476836144,-9.189951933851837
1789075319982095400,3.441095458984375,3.137801766642928,1.2862890797026454,-9.201631850251555
1789075319992039200,3.4510390625,3.10345438362211,1.2727857472680508,-9.215149503472446
1789075320001982200,3.460982177734375,3.074822163377702,1.2572438947431743,-9.226872674492
1789075320011925200,3.47092529296875,3.0510467355147,1.236164281835407,-9.237607418996095
1789075320021868300,3.480868408203125,3.02834127497077,1.2095106681875885,-9.248600522175431
1789075320031811300,3.490811279296875,3.0047151924505826,1.18414570611082,-9.25958368848264
1789075320041754400,3.50075439453125,2.9780253384456037,1.1646438639137893,-9.270671484208107
1789075320051697200,3.510697265625,2.9507307965457437,1.1555637547489255,-9.28053003039956
1789075320061641200,3.52064111328125,2.928269666151702,1.1553224933389574,-9.287672303369641
1789075320071584300,3.530584228515625,2.9171009141445157,1.1538052937090397,-9.291372911453246
1789075320081527300,3.54052734375,2.917708524648845,1.1568948572222142,-9.290799495479463
1789075320091470300,3.55047021484375,2.9207071219429372,1.1736136445719747,-9.287760566174983
1789075320101413400,3.560413330078125,2.9182483306139706,1.200510784652084,-9.285096315401791
1789075320111356200,3.570356201171875,2.9128336120888587,1.2390646794520317,-9.281730053839087
1789075320121299200,3.58029931640625,2.904567303524911,1.2896401436962186,-9.277429141774773
1789075320131243300,3.5902431640625,2.8883205176010724,1.3469868556410074,-9.274351049503684
1789075320141186300,3.600186279296875,2.866528664770722,1.3998970464430749,-9.273277282792328
1789075320151129300,3.61012939453125,2.8415836086064576,1.4384861586868762,-9.275050137683749
1789075320161072000,3.620072021484375,2.812370665864646,1.4654602364607154,-9.279731573498248
1789075320171015200,3.63001513671875,2.789356577762961,1.484111160916835,-9.283709829479456
1789075320180958200,3.639958251953125,2.7742186298638583,1.4979050007306038,-9.286032134947181
1789075320190901200,3.6499013671875,2.7623671562895176,1.504529095045477,-9.288495310190319
1789075320200845300,3.65984521484375,2.7497467441692947,1.5064556791938841,-9.29192470011711
1789075320210788400,3.669788330078125,2.7210563639968632,1.5235316094182432,-9.297585794618724
1789075320220731100,3.679731201171875,2.676214182707667,1.560014104771614,-9.304547450324893
1789075320230674200,3.689674072265625,2.636480430473387,1.6013099917560816,-9.308874081352352
1789075320240617200,3.6996171875,2.602543089558184,1.6457643427714705,-9.310672655206918
1789075320250560300,3.709560302734375,2.565845344018936,1.701633967901021,-9.310814109504223
1789075320260503300,3.71950341796875,2.5222531627908347,1.7754723804414272,-9.308938963282108
1789075320270447400,3.729447265625,2.460848846018314,1.8570966245524585,-9.309448081848025
1789075320280390100,3.73939013671875,2.3893166645936668,1.9432357157394289,-9.31049963672757
1789075320290333200,3.749333251953125,2.3370117462083697,2.008171713769436,-9.30999753242433
1789075320300276200,3.759276123046875,2.30903535952419,2.0399210431210695,-9.310074689313769
1789075320310219300,3.76921923828125,2.2936139185085893,2.0565281867899,-9.310233094745874
1789075320320162300,3.779162353515625,2.281670090475678,2.076362914203107,-9.30876652932465
1789075320330105300,3.789105224609375,2.273447621053457,2.106728680241853,-9.303951237997412
1789075320340049200,3.799049072265625,2.270540939826518,2.1467938563875855,-9.295497882428764
1789075320349992200,3.8089921875,2.282281354241818,2.177663480295241,-9.285438845229148
1789075320359935200,3.818935302734375,2.2901861360169944,2.190320425033569,-9.280514832830429
1789075320369878300,3.828878173828125,2.2559726085089147,2.1839934139691293,-9.290380977806448
1789075320379821300,3.8388212890625,2.242971234247088,2.1708615451954305,-9.296603213322163
1789075320389764400,3.848764404296875,2.251867219016701,2.1676985511198636,-9.29519100843668
1789075320399707400,3.858707275390625,2.2483964741662144,2.1702290925107897,-9.295439430239796
1789075320409651200,3.868651123046875,2.218234998527914,2.177565719009191,-9.300968422794341
1789075320419594200,3.87859423828125,2.1760193663500247,2.2046846120812,-9.304553295543789
1789075320429537300,3.888537353515625,2.1613201021291313,2.2444557737164197,-9.298469007194042
1789075320439480300,3.898480224609375,2.1654460960179565,2.288739298209548,-9.28670491964221
1789075320449423400,3.90842333984375,2.1560841011717913,2.335661646773666,-9.277197671106457
1789075320459366400,3.918366455078125,2.1435119121074675,2.3610361803963777,-9.27368527907133
1789075320469309400,3.928309326171875,2.1422978601425884,2.3544138396471737,-9.275649857142566
1789075320479253200,3.938253173828125,2.1527871054530143,2.3173105820469555,-9.28256241301
1789075320489196300,3.9481962890625,2.174424936765432,2.2680311489626765,-9.28968715032339
1789075320499139300,3.958139404296875,2.2019538719430565,2.2251893477104603,-9.293561945930122
1789075320509082400,3.968082275390625,2.2279256408065558,2.1933232601113617,-9.29494726280868
1789075320519025400,3.978025390625,2.2553457087822255,2.1698582133717834,-9.293842516437172
1789075320528968400,3.987968505859375,2.2816925945684314,2.1542997019730508,-9.29103271971345
1789075320538911200,3.9979111328125,2.3060417306661605,2.1407120522558687,-9.28816096366942
1789075320548855300,4.007855224609375,2.3282081158973273,2.1227776055060326,-9.286745836174488
1789075320558798300,4.01779833984375,2.348805352115631,2.0990083151228727,-9.286960355708002
1789075320568741400,4.027741455078125,2.3723837961018086,2.0671973187118766,-9.28810192695856
1789075320578684400,4.037684326171875,2.406142127188295,2.0266952124536037,-9.28834567258656
1789075320588627500,4.04762744140625,2.4505076308764515,1.9809712798938155,-9.28661198066175
1789075320598570200,4.0575703125,2.502723994195461,1.9409270004056394,-9.281140855774282
1789075320608513300,4.06751318359375,2.5540856403812766,1.9092009057991206,-9.273726780125498
1789075320618457300,4.077457275390625,2.6059213338196274,1.8914216496109961,-9.262942351260781
1789075320628400400,4.087400390625,2.6616213014706966,1.8990066979125142,-9.245535289385915
1789075320638343400,4.097343505859375,2.7087375651717185,1.910686468181759,-9.22942937323749
1789075320648286500,4.107286376953125,2.7204025762632487,1.8819081174649297,-9.231913006746769
1789075320658229200,4.117229248046875,2.684396027858555,1.8334286025866866,-9.252186563968658
1789075320668172300,4.12717236328125,2.681410290046036,1.8426842144489288,-9.25121216597855
1789075320678115300,4.137115234375,2.708778773964941,1.903847562072426,-9.230833394816518
1789075320688059400,4.147059326171875,2.7162609464138745,1.974788645736128,-9.213713333189487
1789075320698002400,4.15700244140625,2.6885750671088693,2.0484971482865513,-9.205737532004713
1789075320707945500,4.166945556640625,2.6567265151664614,2.1330068847060204,-9.19578370874524
1789075320717888300,4.17688818359375,2.642495160718262,2.2195498805187643,-9.179389623305202
1789075320727831300,4.186831298828125,2.629393394821882,2.302601380953938,-9.16267989604473
1789075320737774300,4.1967744140625,2.592923320558667,2.3722645536363123,-9.155299138143658
1789075320747718400,4.206718505859375,2.5327736800223586,2.410889760106802,-9.16204452075064
1789075320757661400,4.216661376953125,2.478399115756154,2.434012277019024,-9.170797151526807
1789075320767604200,4.226604248046875,2.4628140086114407,2.495446988929808,-9.158474845570325
1789075320777547300,4.23654736328125,2.4468473548032343,2.5778774348571893,-9.139906338700651
1789075320787490300,4.246490234375,2.405160714935511,2.652734230659902,-9.129544519162177
1789075320797433300,4.256433349609375,2.345869298663735,2.7276316507339478,-9.12290025884211
1789075320807376400,4.26637646484375,2.286652555063367,2.807402522063255,-9.113729694914817
1789075320817320400,4.276320556640625,2.2355592044249177,2.8698551788449285,-9.106952163603902
1789075320827263500,4.286263427734375,2.187363767185062,2.9180095534220336,-9.10335501589477
1789075320837206500,4.29620654296875,2.138099677800387,2.9529312291994687,-9.103796329921483
1789075320847149600,4.306149658203125,2.0865888324022293,2.995354074387252,-9.101887865951657
1789075320857092600,4.316092529296875,2.0419877663925288,3.0451857345268127,-9.095467477515339
1789075320867035600,4.32603564453125,2.014252641118318,3.0953473572731016,-9.084711690223216
1789075320876978700,4.335978759765625,1.9963157101504503,3.122552759584784,-9.079360392323135
1789075320886922500,4.345922607421875,1.9625915735945105,3.026309476882219,-9.119214263805747
1789075320896865500,4.355865478515625,1.9391487386867403,2.878435375663638,-9.171952166780828
1789075320906808600,4.36580859375,1.9460176015429198,2.7859561216697095,-9.199014361229539
1789075320916751600,4.375751708984375,1.9521064199373126,2.7047330057054757,-9.221935218089818
1789075320926694700,4.385694580078125,1.9601320516131817,2.6053809433326123,-9.248797506052256
1789075320936637700,4.3956376953125,2.0079414121448993,2.486560794901848,-9.27122385739386
1789075320946580700,4.405580810546875,2.107673121485114,2.3565263017565012,-9.283042890003323
1789075320956524500,4.415524658203125,2.2684112343214453,2.21677866223976,-9.27957842876315
1789075320966467600,4.425467529296875,2.510846802635491,2.0632269537761805,-9.252520910489558
1789075320976410600,4.43541064453125,2.804568759942055,1.9020166933834552,-9.202561240056157
1789075320986353700,4.445353759765625,3.1020065229013563,1.7475206898070872,-9.137513306084275
1789075320996296700,4.455296630859375,3.3443495906263587,1.5962188060969114,-9.079526396539807
1789075321006239700,4.46523974609375,3.4578868302181363,1.463970874685794,-9.059261022624373
1789075321016183600,4.47518359375,3.469972404809296,1.3612109035655855,-9.070653938776253
1789075321026126600,4.485126708984375,3.4608512329816814,1.2853862856440246,-9.08519099817276
1789075321036069600,4.495069580078125,3.4575086445555088,1.2138234168201685,-9.096299836686253
1789075321046012700,4.5050126953125,3.492406354935467,1.1449445263832807,-9.091897217813134
1789075321055955700,4.514955810546875,3.538651096498966,1.0819256140209734,-9.081727121454477
1789075321065898800,4.524898681640625,3.5607062764406203,1.0246448799844832,-9.079750268423556
1789075321075841800,4.534841796875,3.5383296094596384,0.9715647394429892,-9.094320061045885
1789075321085785600,4.54478564453125,3.4451328548461198,0.9236210850071161,-9.135008045265078
1789075321095728600,4.554728759765625,3.3854829805254933,0.808134464913234,-9.168195444595813
1789075321105671700,4.564671630859375,3.4293498870417474,0.6581680675905197,-9.163885180181264
1789075321115614700,4.57461474609375,3.4911844119250772,0.5153083239352331,-9.149671361389755
1789075321125557800,4.584557861328125,3.5274998801484703,0.40429950684253124,-9.141316790020465
1789075321135500500,4.59450048828125,3.5754929266840216,0.32164562742281705,-9.12594035719037
1789075321145444600,4.604444580078125,3.677454587033391,0.268880471114628,-9.087048024216294
1789075321155387600,4.6143876953125,3.8100069082185626,0.24524092632466926,-9.032945262628793
1789075321165330700,4.62433056640625,3.9288147816896437,0.23792046550977974,-8.982105302229524
1789075321175273700,4.634273681640625,4.011583373530208,0.2324834072886966,-8.945587297171354
1789075321185216800,4.644216796875,4.065710977298021,0.21537260668035596,-8.921544742804766
1789075321195159600,4.65415966796875,4.099271301594376,0.21728620348302646,-8.90613090057373
1789075321205102600,4.6641025390625,4.136880901281535,0.26538404383361336,-8.887418601319194
1789075321215046700,4.674046630859375,4.198157792282104,0.35492563694044943,-8.855500783532857
1789075321224989700,4.68398974609375,4.275321403722465,0.4849946168772876,-8.812309292060137
1789075321234932700,4.6939326171875,4.336830934435129,0.6409825395118445,-8.772197061902284
1789075321244875800,4.703875732421875,4.367845665901899,0.7808352468382567,-8.745431804573535
1789075321254818600,4.713818603515625,4.37693585806936,0.883754938564822,-8.731084714791178
1789075321264761600,4.72376171875,4.360577720725536,0.9859359407532959,-8.72832401790619
1789075321274704600,4.73370458984375,4.3298567115083335,1.0992868639927358,-8.730078752619027
1789075321284648700,4.743648681640625,4.296532826316357,1.2338719331145285,-8.728560164749622
1789075321294591700,4.753591796875,4.274221625787019,1.384261524285376,-8.716948637410997
1789075321304534800,4.76353466796875,4.29867217643261,1.5432370113633571,-8.678145151764154
1789075321314477600,4.7734775390625,4.358084150344133,1.7011444308184087,-8.618791045519709
1789075321324420600,4.783420654296875,4.4194358601465815,1.8491027031891047,-8.556858028697967
1789075321334363600,4.79336376953125,4.475443870833516,1.9862603262126444,-8.496796650967001
1789075321344307700,4.8033076171875,4.533314168260992,2.116295842271298,-8.434496554398537
1789075321354250800,4.813250732421875,4.5621778591737145,2.264175788708776,-8.380361644107102
1789075321364193800,4.82319384765625,4.539059433914721,2.414193623957783,-8.350985912019015
1789075321374136600,4.833136474609375,4.498464388675988,2.5485242068618534,-8.333020047217607
1789075321384079600,4.84307958984375,4.442732856842875,2.6721482484430075,-8.324189675030112
1789075321394022700,4.853022705078125,4.368697314295172,2.7855609848722813,-8.326196338677406
1789075321403965700,4.862965576171875,4.254854954276979,2.8875243987873196,-8.35037917829752
1789075321413909800,4.87290966796875,4.123594426468014,2.9761385017856954,-8.385044248965382
1789075321423852800,4.882852783203125,4.009646560248732,3.0547336073338984,-8.412000644952059
1789075321433795600,4.892795654296875,3.9125314631476997,3.1271982473030686,-8.431079439431429
1789075321443738600,4.902738525390625,3.8308611879378556,3.196956258662045,-8.44241507243812
1789075321453681700,4.912681640625,3.764965989486873,3.2797128678038714,-8.440314885288476
1789075321463624700,4.922624755859375,3.7117616380438205,3.379291140148043,-8.424583063149452
1789075321473568800,4.93256884765625,3.6714039086923003,3.477862865798175,-8.402119302406907
1789075321483511800,4.94251171875,3.629284722626209,3.566928511956334,-8.383058043584228
1789075321493454600,4.95245458984375,3.589149696114659,3.6274727047681807,-8.374356266212462
1789075321503397600,4.962397705078125,3.562760286360979,3.6613299661844967,-8.370888297840953
1789075321513340700,4.972340576171875,3.5468113143399354,3.6770480520591136,-8.370773147028684
1789075321523283700,4.98228369140625,3.531620174948871,3.683962653753161,-8.374154606160522
1789075321533226800,4.992226806640625,3.520359360744059,3.6758915755003687,-8.382440788468719
1789075321543170800,5.0021708984375,3.527415124474466,3.6487788199082014,-8.391315584319829
1789075321553113600,5.012113525390625,3.53808352574408,3.6183550400719042,-8.399993980816006
1789075321563056600,5.022056640625,3.552064412562549,3.610030863840878,-8.39767401343584
1789075321572999700,5.031999755859375,3.585848316481709,3.608961773304641,-8.3837623924613
1789075321582942700,5.041942626953125,3.597107669381797,3.6224414326027032,-8.373118833371997
1789075321592885800,5.0518857421875,3.5844857959568497,3.6411055088013407,-8.370435877898334
1789075321602829600,5.06182958984375,3.5554768513545394,3.658512570676207,-8.375216097912192
1789075321612772600,5.071772705078125,3.5017218802914023,3.67372592189908,-8.391191665679216
1789075321622715600,5.081715576171875,3.4209926853239536,3.689039810886979,-8.417728959470987
1789075321632658700,5.09165869140625,3.315132263970375,3.7092014321669935,-8.451159519907831
1789075321642601700,5.101601806640625,3.1903003079041836,3.7459360025852915,-8.482944651225209
1789075321652544800,5.111544677734375,3.054974722613394,3.8047640391290187,-8.506545891565084
1789075321662488600,5.121488525390625,2.9045275560364123,3.8742026092752813,-8.527873341754079
1789075321672431600,5.131431640625,2.732338220989704,3.9488659283325074,-8.550506029322744
1789075321682374700,5.141374755859375,2.5297832660347224,4.027846233806014,-8.575958450487256
1789075321692317700,5.151317626953125,2.3130397728599608,4.101652936033904,-8.60213392522931
1789075321702260700,5.1612607421875,2.1414954577185212,4.156187659297883,-8.62035347253084
1789075321712203800,5.171203857421875,2.0449200204521416,4.1923344929561015,-8.626297475627064
1789075321722146800,5.181146728515625,2.027854319360852,4.198060469387471,-8.627541922730208
1789075321732090600,5.191090576171875,2.073093975535035,4.173590921780467,-8.628661282148956
1789075321742033700,5.20103369140625,2.149778863547742,4.126796437379718,-8.632401637721062
1789075321751976700,5.210976806640625,2.2415584448397157,4.052956417404115,-8.644034207847714
1789075321761919700,5.220919677734375,2.3461828946575523,3.942600438196957,-8.66728005887866
1789075321771862800,5.23086279296875,2.5042025423154235,3.7948268747434017,-8.688995047080516
1789075321781805800,5.240805908203125,2.8008912404730912,3.6470781534701584,-8.661651113080978
1789075321791749600,5.25074951171875,3.209108468748629,3.513171495066583,-8.57494196692109
1789075321801692700,5.260692626953125,3.6523943800568577,3.408630339618027,-8.438696928697825
1789075321811635700,5.2706357421875,4.039898198388516,3.3377348486617207,-8.289097903382778
1789075321821578500,5.28057861328125,4.294765232121944,3.2942689241617917,-8.17760152196884
1789075321831521500,5.290521484375,4.443813345555961,3.2311616028636694,-8.122962169286609
1789075321841464600,5.300464599609375,4.546255482898652,3.187946730515361,-8.083249752101302
1789075321851408400,5.310408447265625,4.584486721615493,3.2240237138077616,-8.047271845269202
1789075321861351400,5.320351318359375,4.550867652869225,3.287083688832819,-8.040835674741864
1789075321871294500,5.33029443359375,4.463897225424647,3.3362598076730965,-8.06928669320047
1789075321881237500,5.340237548828125,4.33836793474406,3.3679464470520615,-8.124400677657126
1789075321891180500,5.3501806640625,4.1618811947643755,3.38436099075824,-8.209460303044319
1789075321901123600,5.36012353515625,3.909271292307973,3.389400738491118,-8.330661501392722
1789075321911067400,5.3700673828125,3.6603915162906047,3.3390266420379278,-8.46302414522469
1789075321921010400,5.380010498046875,3.4622257362052795,3.226941647081077,-8.588958801835775
1789075321930953500,5.389953369140625,3.3038349171474573,3.0837638869851824,-8.703188992127776
1789075321940896500,5.399896484375,3.1654473139375447,2.9065736749112605,-8.814882941940427
1789075321950839600,5.409839599609375,3.0558374769225716,2.7559835927322505,-8.90150616338253
1789075321960782600,5.419782470703125,2.9982816522717473,2.7353151909738775,-8.927413342577218
1789075321970725600,5.4297255859375,2.9123025739520787,2.8114301701441407,-8.932232141035795
1789075321980669400,5.43966943359375,2.85112768202126,2.8822353524684905,-8.929398378914595
1789075321990612500,5.449612548828125,2.7801246390372514,2.948690230628848,-8.930089868310093
1789075322000555500,5.459555419921875,2.684750832645595,3.0186104468122124,-8.935910537287592
1789075322010498600,5.46949853515625,2.6367390814095732,3.099561467836797,-8.922484654003382
1789075322020441600,5.479441650390625,2.638614227631688,3.1793697485670447,-8.89380216487646
1789075322030384600,5.489384521484375,2.6488763861879705,3.2432743577226995,-8.867639549615978
1789075322040328400,5.499328369140625,2.6699519074425098,3.2779689467459914,-8.84853971234858
1789075322050271500,5.509271484375,2.704702902828157,3.232340583515167,-8.854771300214528
1789075322060214500,5.519214599609375,2.736656376449764,3.1410441095650192,-8.877775743705033
1789075322070157600,5.529157470703125,2.7402050088420506,3.0075521694421767,-8.922795035126805
1789075322080100600,5.5391005859375,2.6899717821642755,2.8111893471255898,-9.001759266248344
1789075322090043600,5.549043701171875,2.529260995726287,2.5095190611630676,-9.13649623799622
1789075322099987500,5.558987548828125,2.609867148835957,2.342344631668925,-9.15818842984438
1789075322109930500,5.568930419921875,2.632239724163711,2.3880109888225793,-9.139973558717966
1789075322119873500,5.57887353515625,2.6201161556497214,2.4628327133119106,-9.123587656584382
1789075322129816600,5.588816650390625,2.647950795775652,2.511266197091341,-9.102324503803253
1789075322139759600,5.598759521484375,2.704820099467039,2.58438550157696,-9.065057726204394
1789075322149702700,5.60870263671875,2.7909733653098345,2.742983825905621,-8.992046266007423
1789075322159646500,5.618646484375,2.9032036139562725,2.9173350151613353,-8.901176493036747
1789075322169589500,5.628589599609375,3.01510916069299,3.0812764540836213,-8.808248033970594
1789075322179532500,5.638532470703125,3.1206431265711783,3.1022257186099886,-8.764027783972024
1789075322189475600,5.6484755859375,3.178925804191828,3.0373291758075354,-8.765811744779349
1789075322199418600,5.658418701171875,3.2036168855950233,3.0224671222403643,-8.761956822916865
1789075322209361700,5.668361572265625,3.2001921718433497,3.0362995404988524,-8.758428648790717
1789075322219305500,5.678305419921875,3.2016908859685063,3.058074149933457,-8.750300871914625
1789075322229248500,5.68824853515625,3.244235896231234,3.0497973199754953,-8.737507441315055
1789075322239191600,5.698191650390625,3.328369638945162,3.0320947822853923,-8.711988969177007
1789075322249134600,5.708134521484375,3.4141996641829606,3.027415684558451,-8.680346461200713
1789075322259077600,5.71807763671875,3.508054005922377,3.037684565116465,-8.639238205742835
1789075322269020700,5.728020751953125,3.609226561720669,3.05315452144891,-8.591980195483565
1789075322278963500,5.73796337890625,3.7037665476366874,3.0773125188887116,-8.542987908777594
1789075322288907500,5.747907470703125,3.7874537156268953,3.1098791559726,-8.494366208949685
1789075322298850600,5.7578505859375,3.8543881939977407,3.1485689521118996,-8.449887015753983
1789075322308793600,5.767793701171875,3.912650121091306,3.1986595554485917,-8.404171558761597
1789075322318736600,5.777736572265625,3.9736853122904896,3.26052476773113,-8.351599075481294
1789075322328679700,5.7876796875,4.028241078342497,3.3196748758360743,-8.302012914535403
1789075322338622500,5.79762255859375,4.069487280966341,3.3670825236991044,-8.262712000760436
1789075322348566500,5.80756640625,4.09785646636039,3.409995782752335,-8.231032083383202
1789075322358509600,5.817509521484375,4.113558477883041,3.456209836916625,-8.2038787035197
1789075322368452600,5.82745263671875,4.122394695289433,3.508242514231801,-8.177315690764784
1789075322378395600,5.837395751953125,4.138832035349309,3.5679143081232905,-8.143123498305679
1789075322388338700,5.847338623046875,4.156369445605576,3.634729251767695,-8.10455206784904
1789075322398282500,5.857282470703125,4.170417844702303,3.712031687156856,-8.062186505806446
1789075322408225500,5.8672255859375,4.18211763484627,3.7923335966229437,-8.018633779805898
1789075322418168600,5.87716845703125,4.177414863982796,3.8651311218082904,-7.986261788511276
1789075322428111600,5.887111572265625,4.13847723056227,3.932521819514036,-7.9736232562124725
1789075322438054700,5.8970546875,4.066987573105097,3.9976077474087472,-7.978040488132834
1789075322447997700,5.906997802734375,3.9759383519142864,4.067281295354664,-7.988713857838511
1789075322457941500,5.91694140625,3.871627498090267,4.149734245374798,-7.99753721576333
1789075322467884500,5.926884521484375,3.791074244211614,4.223920594570041,-7.997290547525882
1789075322477827600,5.93682763671875,3.7248654497668143,4.294774876733124,-7.990662069296836
1789075322487770600,5.9467705078125,3.6634544109925624,4.3605347583666445,-7.983432702565192
1789075322497713700,5.956713623046875,3.620564240553975,4.402346778179705,-7.980052996999025
1789075322507656400,5.966656494140625,3.6003932669237253,4.414015588663518,-7.982733029863238
1789075322517600500,5.9766005859375,3.604360709249973,4.399832457271218,-7.988769971939921
1789075322527543600,5.98654345703125,3.624100597986579,4.357856771329045,-8.00283532217145
1789075322537486600,5.996486572265625,3.653436582586169,4.290702220466732,-8.025752671900392
1789075322547429600,6.0064296875,3.686854283541441,4.1993186527550215,-8.058737242135406
1789075322557372700,6.01637255859375,3.723135849495232,4.075484475554526,-8.105498993310333
1789075322567315500,6.0263154296875,3.7576065666347738,3.911489845140278,-8.170131332218647
1789075322577259500,6.036259521484375,3.7983839827030894,3.704892336796224,-8.247208142158389
1789075322587202600,6.04620263671875,3.8639962725594637,3.4417388284936545,-8.33033007748127
1789075322597145600,6.0561455078125,3.981839684912562,3.1144205987945197,-8.403315818715095
1789075322607088600,6.066088623046875,4.134470333008468,2.731103126236796,-8.462719609320164
1789075322617031700,6.07603173828125,4.261879738347232,2.3416595720142124,-8.516065999582409
1789075322626974500,6.085974365234375,4.386501558794081,2.012917446991801,-8.536813604056835
1789075322636918500,6.09591845703125,4.506066095851361,1.729066749227792,-8.5367475530833
1789075322646861600,6.105861572265625,4.62809614623934,1.485520004801452,-8.517294080072642
1789075322656804600,6.1158046875,4.756897005936503,1.2957001743875443,-8.477232703319192
1789075322666747600,6.12574755859375,4.848066638636589,1.1699468656927345,-8.443807988101243
1789075322676690700,6.135690673828125,4.888588034117221,1.1067332344759255,-8.4289500261873
1789075322686633500,6.145633544921875,4.877061262452602,1.1195213313132524,-8.433937166950106
1789075322696577500,6.15557763671875,4.8164738150209185,1.2060086514160036,-8.456801909708977
1789075322706520600,6.1655205078125,4.747506661778688,1.3352866271056234,-8.476356505006551
1789075322716463600,6.175463623046875,4.668069844709336,1.5133751031935214,-8.490537006050348
1789075322726406700,6.18540673828125,4.527051892995834,1.7414970456033945,-8.523107150265574
1789075322736349700,6.195349609375,4.371998401667177,1.925041449009627,-8.564472595354914
1789075322746292500,6.20529248046875,4.204760843808948,2.019033737915009,-8.626349498075246
1789075322756236500,6.215236572265625,4.0066640373066065,1.9969081230856478,-8.725216699540615
1789075322766179600,6.2251796875,3.7703210867792367,1.935151924135536,-8.843655447438358
1789075322776122600,6.23512255859375,3.532902615974843,1.881145462529361,-8.952668195343017
1789075322786065700,6.245065673828125,3.3417616199597715,1.8101567403316496,-9.04026230764389
1789075322796008700,6.2550087890625,3.204850519043207,1.7299499618031084,-9.105305565440654
1789075322805951500,6.264951416015625,3.116137631845474,1.6568970005519688,-9.149577253365516
1789075322815895600,6.2748955078125,3.089731270956993,1.6199132776781915,-9.165143655809759
1789075322825838600,6.284838623046875,3.082860508404672,1.6287961107052862,-9.165883076000213
1789075322835781600,6.29478173828125,3.0654519852250814,1.637620783804357,-9.170148332229257
1789075322845724700,6.304724609375,3.0610707014009355,1.635827616777271,-9.17193170851469
1789075322855667700,6.314667724609375,3.0625851976171132,1.650895129788667,-9.16872385238409
1789075322865610500,6.324610595703125,3.0752386352241037,1.6901332074604927,-9.157333858841657
1789075322875554600,6.334554443359375,3.0964100180685517,1.7432143709152936,-9.140231332871318
1789075322885497600,6.34449755859375,3.0968580540969968,1.7894949144445358,-9.131130911570787
1789075322895440600,6.354440673828125,3.066719228681922,1.8347602895818649,-9.13231982909441
1789075322905383700,6.3643837890625,3.0199340966314074,1.8775516758210955,-9.139211926695705
1789075322915326700,6.37432666015625,2.980134001162648,1.9067722173474728,-9.146224435806275
1789075322925270500,6.3842705078125,2.954752891668677,1.9256768243037163,-9.150497290819883
1789075322935213600,6.394213623046875,2.9381802347913384,1.9525708225786684,-9.150136056292057
1789075322945156600,6.404156494140625,2.938197185926139,2.0109365023076533,-9.137481157380343
1789075322955099600,6.414099609375,2.952349629919231,2.0855735178798436,-9.116163059541583
1789075322965042700,6.424042724609375,2.975196252499521,2.182299907924235,-9.086042646566034
1789075322974985500,6.4339853515625,2.992390840667486,2.287000637848675,-9.054591277247667
1789075322984928500,6.443928466796875,3.0104747788906097,2.371694352532923,-9.026766866254807
1789075322994872600,6.45387255859375,3.021054625093937,2.4643457482233644,-8.998368454766274
1789075323004815600,6.463815673828125,3.0203590440452097,2.5637352199971675,-8.97079012748897
1789075323014758700,6.473758544921875,3.0037291040226815,2.6218130226954814,-8.959582504776119
1789075323024701700,6.48370166015625,2.9711592520684,2.652853180864453,-8.961304506263136
1789075323034644500,6.49364453125,2.93241392634958,2.6551459679767486,-8.973380728504061
1789075323044588500,6.503588623046875,2.8954020002946255,2.6327652093425393,-8.991972616249322
1789075323054531600,6.513531494140625,2.8579712643057107,2.604277658265829,-9.012219285464287
1789075323064474600,6.523474609375,2.818790762040019,2.5838477414384484,-9.030420712587237
1789075323074417700,6.533417724609375,2.7828181159049272,2.585702429394424,-9.041043228888512
1789075323084360700,6.543360595703125,2.740916956503689,2.5855782184928655,-9.053869977235793
1789075323094303500,6.553303466796875,2.6845056257128714,2.5503251188039777,-9.080730511632561
1789075323104247600,6.56324755859375,2.5723291530802843,2.4676126410648225,-9.135883659055828
1789075323114190600,6.573190673828125,2.678338335254788,2.396885492412746,-9.12424349014461
1789075323124133600,6.583133544921875,2.7774980899259445,2.355874998240918,-9.105258803689479
1789075323134076700,6.59307666015625,2.719760478967428,2.3006826878510416,-9.136749335974454
1789075323144019700,6.603019775390625,2.667418589572608,2.2421385828152296,-9.166684455510973
1789075323153962500,6.61296240234375,2.682986161060631,2.2016753472626207,-9.171947490605712
1789075323163906600,6.622906494140625,2.7146561415657398,2.2011166904665527,-9.16275705293417
1789075323173849600,6.632849609375,2.7689117556273937,2.245035327170044,-9.13582520686686
1789075323183792600,6.642792724609375,2.825323378679156,2.3005599382542075,-9.104689479368924
1789075323193735700,6.652735595703125,2.8989570624276992,2.358853575660288,-9.066544165369868
1789075323203678700,6.6626787109375,3.0027012222796676,2.4598843849003313,-9.005727585357427
1789075323213621500,6.67262158203125,3.121481623221934,2.6352739772930738,-8.91527106936276
1789075323223565600,6.682565673828125,3.245163824731111,2.8800872345238924,-8.7945661300987
1789075323233508600,6.692508544921875,3.3555998834371565,3.1376810628727076,-8.664023102909326
1789075323243451600,6.70245166015625,3.4437022375211117,3.2504639769658445,-8.587536075556278
1789075323253394700,6.712394775390625,3.4779055358961224,3.3272987948432564,-8.544217742833494
1789075323263337700,6.722337646484375,3.48063233051151,3.4151875061765313,-8.508355571335553
1789075323273281500,6.732281494140625,3.4583903958261013,3.511640339976549,-8.47811007067561
1789075323283224600,6.742224609375,3.4245652831137177,3.59276671756804,-8.45782190040648
1789075323293167600,6.752167724609375,3.3858328168764706,3.6626077310353518,-8.443449091660977
1789075323303110700,6.762110595703125,3.3510753917500375,3.738440093871951,-8.424059331536293
1789075323313053700,6.7720537109375,3.344612040954828,3.8021842517688866,-8.398058628839253
1789075323322996700,6.781996826171875,3.347247650155425,3.874924786069989,-8.363687572681904
1789075323332940500,6.7919404296875,3.3496409750327465,3.959446943579614,-8.323045765691996
1789075323342883600,6.801883544921875,3.3578631521940228,4.046583959762752,-8.277700895577668
1789075323352826600,6.81182666015625,3.3423476031541823,4.158665447588264,-8.228281323370338
1789075323362769700,6.821769775390625,3.292714680457115,4.343687668462097,-8.152349591812492
1789075323372712700,6.831712646484375,3.1814339876204727,4.687050731772184,-8.005023772126435
1789075323382655700,6.84165576171875,3.039773061828315,5.016643920665979,-7.858971041116118
1789075323392599600,6.851599609375,2.9033099969401954,5.201572618037462,-7.790046557971834
1789075323402542600,6.86154248046875,2.7671365626484152,5.346199115636945,-7.741543516087532
1789075323412485600,6.871485595703125,2.6457716981709,5.50893000972569,-7.669547954934835
1789075323422428700,6.8814287109375,2.5259558167010545,5.651933874559402,-7.605626394644379
1789075323432371700,6.891371826171875,2.384922521287948,5.756641618746519,-7.57255706873536
1789075323442314800,6.901314697265625,2.2493283481888473,5.824091353163123,-7.5624635447442525
1789075323452258600,6.911258544921875,2.182320512320846,5.842814758333564,-7.567652345559001
1789075323462201600,6.92120166015625,2.172561334850639,5.8335927564799785,-7.577568759417534
1789075323472144600,6.93114453125,2.209592696258426,5.809110641652345,-7.585664972111583
1789075323482087700,6.941087646484375,2.2518689725823697,5.775113679504394,-7.599180871766805
1789075323492030700,6.95103076171875,2.2914077867664395,5.734121743902564,-7.618378324189782
1789075323501973500,6.960973388671875,2.3548837952464816,5.6739563212752335,-7.644026560187339
1789075323511917600,6.97091748046875,2.471739073345065,5.569072051477432,-7.684159248611331
1789075323521860600,6.980860595703125,2.656007553242147,5.422703094124794,-7.727243772578239
1789075323531803600,6.9908037109375,2.882500725406408,5.241929762867093,-7.770698298901319
1789075323541746700,7.00074658203125,3.1048420385882256,4.993451845648885,-7.84829825593233
1789075323551689700,7.010689697265625,3.324133024288714,4.64885427210778,-7.969235834908485
1789075323561633500,7.020633544921875,3.536230299092829,4.241050593069195,-8.104256884294747
1789075323571576600,7.03057666015625,3.7215716689184304,3.840330442550778,-8.220228365296125
1789075323581519600,7.04051953125,3.8448990656405684,3.4554882446438073,-8.333471298116445
1789075323591462700,7.050462646484375,3.8925983899265524,3.128653999069333,-8.439764850190281
1789075323601405700,7.06040576171875,3.9045433870032427,2.9391084555521605,-8.50214911791086
1789075323611348700,7.0703486328125,3.891316241161525,2.833977809777856,-8.543805654901266
1789075323621292500,7.08029248046875,3.8507434077546,2.781596757416427,-8.579329972746967
1789075323631235600,7.090235595703125,3.787757959270477,2.7605960549637674,-8.614079214566946
1789075323641178600,7.1001787109375,3.71903601296097,2.7528435411408543,-8.64644594516456
1789075323651121700,7.11012158203125,3.671023384942114,2.739519949187338,-8.6711601151824
1789075323661064700,7.120064697265625,3.6320685081258413,2.720095702271163,-8.69365076393187
1789075323671007700,7.1300078125,3.587324526514113,2.7107722858697176,-8.71511499224305
1789075323680951600,7.13995166015625,3.5781069085747,2.8056542170912024,-8.688832549995183
1789075323690894600,7.14989453125,3.5785467612966895,2.9738983216434716,-8.632513865923881
1789075323700837600,7.159837646484375,3.612335925912857,3.178819421207905,-8.54497060702741
1789075323710780700,7.16978076171875,3.6399548774614927,3.389991105599701,-8.45157453044951
1789075323720723700,7.1797236328125,3.694011169558763,3.5998631055697796,-8.340601296126842
1789075323730666800,7.189666748046875,3.78676368753612,3.807791862517595,-8.205579662218689
1789075323740610600,7.199610595703125,3.848876152577996,3.9909105878576634,-8.088829598060249
1789075323750553600,7.2095537109375,3.883423734346032,4.15210945007354,-7.990579651710391
1789075323760496600,7.21949658203125,3.9699399882823228,4.266435209694505,-7.8871742222934955
1789075323770439700,7.229439697265625,4.109117572826147,4.2979879935607315,-7.798257921478152
1789075323780382700,7.2393828125,4.291975601403415,4.279189477327466,-7.709594718641042
1789075323790326500,7.249326416015625,4.447340058377385,4.282935385857522,-7.618924267634749
1789075323800269600,7.25926953125,4.582703929851949,4.3086274609968065,-7.523623234218358
1789075323810212600,7.269212646484375,4.728512622973323,4.3154625677138565,-7.428885679903626
1789075323820155600,7.27915576171875,4.868287881149351,4.302223731434345,-7.345818689638376
1789075323830098200,7.28909814453125,4.974501645985246,4.282509561660886,-7.285937344649434
1789075323840041200,7.299041259765625,5.035617501205206,4.264616177573799,-7.254376669737696
1789075323849985000,7.308985107421875,5.075545606967807,4.250498512633144,-7.2348074613928794
1789075323859928000,7.318927978515625,5.107240137392282,4.23744350848794,-7.22014765239954
1789075323869871000,7.32887109375,5.131907545658946,4.240235769554973,-7.2009917010307305
1789075323879814100,7.338814208984375,5.15642414727807,4.259624945157766,-7.171977203470468
1789075323889757200,7.348757080078125,5.186377971515059,4.283290775166452,-7.136196865037083
1789075323899701000,7.358700927734375,5.201082788693904,4.291125998836756,-7.120770163324475
1789075323909644000,7.36864404296875,5.20965187959671,4.280258567863703,-7.121048980265855
1789075323919587000,7.378587158203125,5.2420653719455,4.23992188130021,-7.121389172005653
1789075323929530000,7.388530029296875,5.2926253463596105,4.199269260655344,-7.108070840749144
1789075323939473200,7.39847314453125,5.317059530392289,4.194420067058504,-7.092679794871807
1789075323949416200,7.408416259765625,5.294915503123402,4.2122897780090565,-7.098654777628183
1789075323959360000,7.418360107421875,5.261838578429818,4.2208407487332815,-7.118142737430333
1789075323969303000,7.428302978515625,5.252282230055332,4.197285685622692,-7.139097262653708
1789075323979246000,7.43824609375,5.257672690922021,4.162751547858119,-7.155329435530304
1789075323989189000,7.448189208984375,5.249705073043704,4.1448236769795415,-7.171568038147687
1789075323999132200,7.458132080078125,5.222638202419876,4.121976469877362,-7.20442576713264
1789075324009076200,7.468076171875,5.210170935034752,4.087503414650262,-7.23303460650146
1789075324019019000,7.47801904296875,5.221262822413444,4.055419008125365,-7.243092474657296
1789075324028962000,7.487962158203125,5.235260368105769,4.0345360868334765,-7.244650225493311
1789075324038905000,7.497905029296875,5.253654687452316,4.018604942730069,-7.240185062777996
1789075324048848100,7.50784814453125,5.270531587973236,4.012902639435231,-7.2310776272147885
1789075324058791200,7.517791259765625,5.280374936595559,4.022121718679368,-7.218765842652321
1789075324068735200,7.5277353515625,5.293554151642322,4.044152640962601,-7.1967702839434144
1789075324078678000,7.537677978515625,5.338015809181332,4.0607182835772635,-7.154474864527582
1789075324088621000,7.54762109375,5.414566549420356,4.057171989272534,-7.098744209477305
1789075324098564000,7.557564208984375,5.478487525188923,4.0492639926269645,-7.054080307364464
1789075324108507100,7.567507080078125,5.521258160901069,4.047798303988576,-7.021497888189554
1789075324118451200,7.577451171875,5.550955380028486,4.05669677297622,-6.992887879776954
1789075324128394200,7.587394287109375,5.555474903279543,4.089878327088058,-6.969934289690852
1789075324138337000,7.5973369140625,5.562050774538517,4.110213259108364,-6.952706091514229
1789075324148280000,7.607280029296875,5.553070180225372,4.109443443779647,-6.960338193827867
1789075324158223000,7.61722314453125,5.516506582459807,4.082776386128366,-7.004959425842761
1789075324168166100,7.627166259765625,5.5092468205899,4.033623648163676,-7.039066278105974
1789075324178110200,7.637110107421875,5.519660662576556,3.9799630773857233,-7.061419564211368
1789075324188053200,7.64705322265625,5.505421124821901,3.960525386466086,-7.083429735967517
1789075324197996000,7.65699609375,5.423897856867313,3.9794109964609143,-7.135545707651972
1789075324207939000,7.66693896484375,5.349977465131879,4.0331671365678305,-7.161123801022768
1789075324217882000,7.676882080078125,5.283223311764002,4.214915742598474,-7.105805818426608
1789075324227826200,7.686826171875,5.161502473455667,4.497878113220632,-7.021276354393363
1789075324237769200,7.696769287109375,5.051185072693229,4.797850070832669,-6.901922245216369
1789075324247712300,7.706712158203125,5.040198983776569,5.114467750558257,-6.678997286927699
1789075324257655000,7.716655029296875,4.741122221438586,5.667189895880222,-6.4478779162675135
1789075324267598000,7.72659814453125,4.605762733878195,6.305403628265857,-5.932893673187494
1789075324277542100,7.736542236328125,4.721913955360651,6.9015469821631905,-5.122748672169447
1789075324287485200,7.746485107421875,4.67422632151246,7.471301510828733,-4.301358931298553
1789075324297428200,7.75642822265625,4.510724443051219,7.947265410640835,-3.558749004893005
1789075324307371300,7.766371337890625,4.293284930436313,8.286400919383764,-3.0122467569991946
1789075324317314000,7.77631396484375,4.136735647591948,8.471259474128484,-2.701033858926594
1789075324327257000,7.786257080078125,4.096168951664865,8.543951200851797,-2.5283783676728606
1789075324337201200,7.796201171875,4.055833141884207,8.583967569419741,-2.456850716292858
1789075324347144200,7.806144287109375,3.979038948278129,8.6348081143409,-2.4036961953409013
1789075324357087200,7.816087158203125,3.8847362782493233,8.68507290520072,-2.376701951561868
1789075324367030000,7.826030029296875,3.7760426792964337,8.731109264710545,-2.3831974510610103
1789075324376973000,7.83597314453125,3.6586695148035884,8.777666433224082,-2.395223550549894
1789075324386917000,7.845917236328125,3.5223113715946672,8.828034099936485,-2.4144405844561754
1789075324396860200,7.855860107421875,3.372576152679324,8.878030595248937,-2.444730654910207
1789075324406803200,7.86580322265625,3.218558434139192,8.922515633663535,-2.489979078912735
1789075324416746200,7.875746337890625,3.0466330107256767,8.962930646160244,-2.5601319348081946
1789075324426689000,7.88568896484375,2.8375290725186466,9.003854192700981,-2.6550752408280966
1789075324436633000,7.895633056640625,2.602887957473099,9.042285922425984,-2.7626906891554595
1789075324446576000,7.905576171875,2.3620669847488402,9.068579470589757,-2.889970038373768
1789075324456519200,7.915519287109375,2.120818580392748,9.084690647435188,-3.023395343001187
1789075324466462200,7.925462158203125,1.9010918336234985,9.093199532583355,-3.1416487974599003
1789075324476405200,7.9354052734375,1.710097552602738,9.102921300652623,-3.2222344923034307
1789075324486348000,7.94534814453125,1.5779130418166518,9.115987118452788,-3.252596312819421
1789075324496292000,7.9552919921875,1.4683308234609662,9.131309775269031,-3.26091639739722
1789075324506235100,7.965235107421875,1.3847645053714512,9.144801709526776,-3.2596678586408494
1789075324516178200,7.97517822265625,1.3137152851581573,9.15658274821341,-3.2559967689126728
1789075324526121200,7.985121337890625,1.251162529002875,9.164012605953216,-3.259730110222101
1789075324536064300,7.995064208984375,1.2028226417910306,9.16986133198142,-3.2614787074550984
1789075324546008000,8.005008056640625,1.1602497936733067,9.174979990169405,-3.2625071737200018
1789075324555951000,8.014951171875,1.1201771648734806,9.180222566998005,-3.2617624928325415
1789075324565894100,8.02489404296875,1.0739170065451413,9.187658269956707,-3.2563834301427006
1789075324575837200,8.034837158203125,1.0329513744283467,9.194901665213704,-3.2491812436789274
1789075324585780200,8.0447802734375,1.006502197311446,9.198557265111804,-3.2471406777620313
1789075324595724300,8.054724365234375,0.9864068462006748,9.198075619074702,-3.2546561679586765
1789075324605667000,8.0646669921875,0.9645620210740715,9.197507463797926,-3.262798265621066
1789075324615610000,8.074610107421876,0.928780440531671,9.201389273667335,-3.2622356633022425
1789075324625553200,8.08455322265625,0.9014038463715464,9.205046627131104,-3.2595980082750318
1789075324635496200,8.09449609375,0.9037965867269784,9.202166687780618,-3.2670538772389293
1789075324645439200,8.104439208984376,0.9279374138362705,9.19326792653203,-3.2852859917610884
1789075324655383000,8.114383056640625,0.9660745445288718,9.179833859941363,-3.311758403623104
1789075324665326000,8.124326171875,1.0028852489233016,9.162601570111512,-3.348331353738904
1789075324675269000,8.13426904296875,1.0077074083827435,9.145570355811715,-3.393143724411726
1789075324685212200,8.144212158203125,0.9880860314592719,9.12851283802688,-3.4444615314558145
1789075324695155200,8.1541552734375,0.9662072309978306,9.107613842383026,-3.5054508376866576
1789075324705099300,8.164099365234375,0.958526321106404,9.08131035734713,-3.5751100648462772
1789075324715042000,8.1740419921875,0.9544459199249744,9.058489453729987,-3.633617198872566
1789075324724985000,8.183985107421876,0.9252550428844988,9.04421718274951,-3.6764717134758826
1789075324734928100,8.19392822265625,0.8746093629483133,9.035043111690879,-3.7112569033920764
1789075324744871200,8.20387109375,0.8116664384316653,9.02675868294835,-3.7455560633569953
1789075324754815200,8.213815185546874,0.7481172185849398,9.013471915873884,-3.790518071633577
1789075324764758000,8.223758056640625,0.7134869269695132,8.994236469528078,-3.8425282448559996
1789075324774701000,8.233701171875,0.6906855317704379,8.9788308106035,-3.8825206480264662
1789075324784644000,8.24364404296875,0.6531244474001229,8.968862374296783,-3.9119481103017923
1789075324794587100,8.253587158203125,0.6003417919678613,8.959892885899544,-3.9408521332249045
1789075324804531500,8.263531494140626,0.5437358519203961,8.945480914187431,-3.9815950625017282
1789075324814474200,8.27347412109375,0.4960977563023567,8.923589984896779,-4.036560578398406
1789075324824417000,8.2834169921875,0.4614295438293367,8.887586359101533,-4.119258150829374
1789075324834360300,8.2933603515625,0.4369757417807355,8.825202091380953,-4.253848992104828
1789075324844303400,8.303303466796875,0.4050770670862868,8.744996920287608,-4.419424754230678
1789075324854247400,8.313247314453125,0.3650300476517528,8.629142343664169,-4.644892382739484
1789075324864190500,8.3231904296875,0.2958512061539106,8.486096977776288,-4.906016138780116
1789075324874133200,8.33313330078125,0.23524008558569476,8.31518277723193,-5.1935336884886025
1789075324884076300,8.343076171875,0.2771445694551803,8.168107132914662,-5.419926030626892
1789075324894019300,8.353019287109374,0.34361484611406923,8.075209653508663,-5.553673991337418
1789075324903963400,8.36296337890625,0.3720456620348617,8.007689776465297,-5.648794407489896
1789075324913906400,8.372906494140626,0.3641446431193501,7.948382431972027,-5.7324523493856185
1789075324923849500,8.382849365234375,0.37095856091789897,7.897147334775328,-5.802397992271184
1789075324933792300,8.392792236328125,0.3896402093058452,7.847464143195748,-5.868207558265328
1789075324943735300,8.4027353515625,0.41658005601651965,7.793826661032438,-5.9374342392265795
1789075324953679400,8.412679443359375,0.47688901530038563,7.728796847239137,-6.017364100509882
1789075324963622400,8.422622314453125,0.5460493164945394,7.652847580024599,-6.10787673060596
1789075324973565400,8.4325654296875,0.5811269500186667,7.578326299786567,-6.196907597711682
1789075324983508200,8.44250830078125,0.5486169750254601,7.515159941777586,-6.276286839374899
1789075324993451300,8.452451171875,0.4929118562752381,7.455850259196758,-6.351199749279022
1789075325003395300,8.462395263671874,0.47725499906856567,7.387824186196923,-6.431380370453
1789075325013338400,8.47233837890625,0.491473567100428,7.316471599122881,-6.511381543406844
1789075325023281400,8.482281494140626,0.5055354467332362,7.2528200879454605,-6.581140723809599
1789075325033224400,8.492224365234375,0.5140817778149619,7.1988383223891255,-6.639490621447563
1789075325043167200,8.502167236328125,0.5198836324941367,7.1491925402104854,-6.692469931963085
1789075325053111300,8.512111328125,0.5310436166729777,7.102036821281909,-6.74162296218872
1789075325063054300,8.522054443359375,0.5673124327430501,7.057657581329345,-6.7851341871351
1789075325072997400,8.531997314453125,0.6330868178259581,7.0181099993169305,-6.820244663482904
1789075325082940400,8.5419404296875,0.703980409086123,6.981558676511049,-6.850740339511632
1789075325092883500,8.551883544921875,0.7684730472628026,6.949286053937673,-6.8765738689482205
1789075325102827300,8.5618271484375,0.8691722864609212,6.933380628797411,-6.880638049647212
1789075325112770300,8.571770263671874,0.9606007162276655,6.951341232901811,-6.850290842178463
1789075325122713300,8.58171337890625,1.0627806955028325,6.961276935982704,-6.82506463098526
1789075325132656400,8.591656494140626,1.1999051469091326,6.954092577436566,-6.809639682838321
1789075325142599400,8.601599365234375,1.3441630303919314,6.936899450573325,-6.800223619717359
1789075325152543200,8.611543212890625,1.457642110055685,6.920563817322254,-6.793485835894942
1789075325162486300,8.621486328125,1.5619234455242752,6.9067375365436074,-6.784377231287956
1789075325172429300,8.63142919921875,1.6772757717140019,6.8852955200642345,-6.778631381112337
1789075325182372400,8.641372314453125,1.8081541683375835,6.8605924559622995,-6.770026049852371
1789075325192315400,8.6513154296875,1.9544018373981118,6.829455559420585,-6.760862500187754
1789075325202259200,8.66125927734375,2.0987930649369955,6.78498454953134,-6.762355953615903
1789075325212202200,8.6712021484375,2.221209192033112,6.735708185186982,-6.772510267883539
1789075325222145300,8.681145263671874,2.3141394046649335,6.686725250831246,-6.789910315495729
1789075325232088300,8.69108837890625,2.389743803964555,6.634860623559355,-6.814553173843025
1789075325242031400,8.70103125,2.4746824333205817,6.57496641908884,-6.842233792451023
1789075325251975400,8.710975341796875,2.578736389774084,6.5029293568819755,-6.872585091573
1789075325261918200,8.720918212890625,2.678769712409377,6.420482544341683,-6.911726430872083
1789075325271861200,8.730861328125,2.757954016022384,6.3306590655535455,-6.9632508664041755
1789075325281804300,8.74080419921875,2.8128029198020696,6.244279589739442,-7.019082059219479
1789075325291747300,8.750747314453125,2.861467581988871,6.162741708737611,-7.071278110402822
1789075325301691400,8.76069140625,2.924353954012692,6.079189565303921,-7.117724219757318
1789075325311634200,8.77063427734375,3.0078976218789815,5.996855565488338,-7.152668691888451
1789075325321577200,8.7805771484375,3.093215021419525,5.918966270121932,-7.181103928256034
1789075325331520300,8.790520263671874,3.163091398461163,5.84269083969295,-7.213057401877641
1789075325341463300,8.80046337890625,3.217560655273497,5.764495254856348,-7.251779054459929
1789075325351407400,8.810407470703124,3.265286283044517,5.682405000668764,-7.295106155011058
1789075325361350400,8.820350341796875,3.312457491803169,5.5998786931514735,-7.337531922808289
1789075325371293200,8.830293212890625,3.3549002107352015,5.523341981437802,-7.376159467366337
1789075325381236200,8.840236328125,3.381728304167092,5.458309829556942,-7.412229144135117
1789075325391179300,8.85017919921875,3.3959342319130896,5.405299539381265,-7.444514041668176
1789075325401123300,8.860123291015626,3.4097184271156786,5.358527851334214,-7.471973711001873
1789075325411066400,8.87006640625,3.4205414344251155,5.3186821631580585,-7.495457462441921
1789075325421009400,8.880009521484375,3.423401792292297,5.290764228662848,-7.513889191189408
1789075325430952200,8.8899521484375,3.422076388907432,5.268541290938854,-7.530091553449631
1789075325440896300,8.899896240234375,3.389663481080532,5.249585830578208,-7.55793759175241
1789075325450839300,8.90983935546875,3.349198199701309,5.252119148448109,-7.5741984062016
1789075325460782300,8.9197822265625,3.3255510743930934,5.2588031562566755,-7.57998108125627
1789075325470725400,8.929725341796875,3.3103008982911706,5.274991489991545,-7.575404274860024
1789075325480668400,8.93966845703125,3.304706147024035,5.3025733244001865,-7.55857179800272
1789075325490611200,8.949611083984376,3.3153698721185325,5.3365024820089335,-7.529969972896575
1789075325500555300,8.95955517578125,3.3309009109884498,5.374598696169257,-7.49594436917603
1789075325510498300,8.969498291015626,3.3488167991682887,5.415217706805468,-7.4586349214792245
1789075325520441300,8.97944140625,3.375806220641732,5.461739219483733,-7.412403331658243
1789075325530384400,8.98938427734375,3.393538276687264,5.521392600935697,-7.3599278790116305
1789075325540328200,8.999328125,3.391089714491367,5.599128167045116,-7.302099374899267
1789075325550271200,9.009271240234375,3.3766745279088615,5.689390037250519,-7.238737786579132
1789075325560214300,9.01921435546875,3.335110053116083,5.7887289478808635,-7.179002572062611
1789075325570157300,9.0291572265625,3.2705653924912212,5.898892034864425,-7.118768760374188
1789075325580100400,9.039100341796875,3.2025852044597265,6.015028935560584,-7.0521817802667615
1789075325590044200,9.049044189453125,3.133005472277105,6.1375102368474,-6.977510862424969
1789075325599987200,9.0589873046875,3.0608658264786004,6.263383518660068,-6.8972109987854955
1789075325609930200,9.06893017578125,2.98708747356236,6.383204076305032,-6.819267927405238
1789075325619873300,9.078873291015626,2.9028391645580527,6.502807191807031,-6.7422121602535245
1789075325629816300,9.08881640625,2.8168367053627965,6.641172875446081,-6.6430912762880325
1789075325639760100,9.098760009765625,2.7403400333985686,6.792816558331251,-6.520624588048458
1789075325649703200,9.108703125,2.6789348398432136,6.93750501525104,-6.392552334886789
1789075325659646200,9.118646240234375,2.6243942713603374,7.073133967402577,-6.265280292192101
1789075325669589200,9.12858935546875,2.561626849541068,7.208456045562029,-6.135685359507799
1789075325679533300,9.138533203125,2.482089786967635,7.346161219465732,-6.003626082536578
1789075325689476400,9.148476318359375,2.3934591712258753,7.4822326546877616,-5.8700879651844495
1789075325699419100,9.158419189453125,2.3083831792257725,7.6164248520344495,-5.7299079255998135
1789075325709362200,9.168362060546874,2.236635455354303,7.747041528981923,-5.581327137416601
1789075325719305200,9.17830517578125,2.169401701775938,7.869027740228176,-5.435301294413208
1789075325729249300,9.188249267578126,2.106186390058696,7.98155346468985,-5.294256746953725
1789075325739192300,9.1981923828125,2.0492674020066857,8.087397519430517,-5.154114701291919
1789075325749135400,9.20813525390625,2.008566119914502,8.187640100902318,-5.009849438220262
1789075325759078100,9.218078125,1.9602993710041046,8.27723152450025,-4.880066874009371
1789075325769021200,9.228021240234375,1.885565909320116,8.357045065927505,-4.7722974041640756
1789075325778965200,9.23796533203125,1.7942896013751626,8.434353931057453,-4.670392734698951
1789075325788908300,9.247908203125,1.708956273613125,8.50886644346714,-4.5660739898294205
1789075325798851300,9.257851318359375,1.6395504366926847,8.577132754963635,-4.462629397445917
1789075325808794400,9.26779443359375,1.584266064105183,8.637957518282532,-4.3641921118304134
1789075325818738200,9.27773828125,1.5326998352579773,8.69275527639687,-4.272846538041532
1789075325828682000,9.287681884765625,1.4863348283156752,8.743141647809743,-4.185534165291488
1789075325838625000,9.297625,1.4507130414448677,8.788051633638142,-4.103162171553075
1789075325848568000,9.307568115234375,1.4198944170720875,8.828070340293646,-4.027338576544821
1789075325858510800,9.3175107421875,1.387535869780928,8.864822154107689,-3.957279828673601
1789075325868455000,9.327454833984374,1.3582035384431481,8.89824453123808,-3.8919028088778256
1789075325878398000,9.33739794921875,1.3500289998158812,8.926439529109,-3.829683376330137
1789075325888341000,9.347341064453126,1.3439273219399153,8.951379909098147,-3.7732033642172813
1789075325898284000,9.357283935546874,1.3316918174840509,8.974964782825111,-3.7211598732471463
1789075325908227000,9.36722705078125,1.3201730829954146,8.995636983975768,-3.6750589240685105
1789075325918171000,9.3771708984375,1.3100124851174653,9.014380847412347,-3.63251917450279
1789075325928114000,9.387114013671875,1.3006614500567317,9.030626464292407,-3.5953351067513224
1789075325938057000,9.397056884765625,1.2900113150961696,9.043371964097023,-3.567023789024353
1789075325948000000,9.407,1.2707961808860302,9.054320643612742,-3.5460838768482206
1789075325957943800,9.41694384765625,1.2461011539600788,9.0655335270226,-3.5261481732785698
1789075325967886800,9.426886962890626,1.2167042329534887,9.078042295461893,-3.5041625514417887
1789075325977830000,9.436829833984374,1.1909878270905465,9.089259855046867,-3.4838600603863594
1789075325987773000,9.44677294921875,1.1732687766570598,9.098267337366938,-3.466316804911196
1789075325997716000,9.456716064453126,1.1683799817021936,9.104826842013,-3.450708901412785
1789075326007660000,9.466659912109375,1.1890415153283624,9.104687725803256,-3.4440126186445355
1789075326017602800,9.476602783203125,1.2177302880655974,9.101248399004339,-3.4430838133618233
1789075326027545900,9.4865458984375,1.2413484064750373,9.096689128264785,-3.446692066986859
1789075326037489000,9.496489013671875,1.265605918766558,9.089551531469821,-3.456687391300499
1789075326047432000,9.506431884765625,1.3402598854735492,9.075097474181652,-3.4665117429614063
1789075326057376000,9.5163759765625,1.5720913499258458,9.05089242272973,-3.432239763264358
1789075326067319000,9.526319091796875,1.7380479280628263,9.022118163666129,-3.4279674927726385
1789075326077261800,9.53626171875,1.7992150750786065,8.986797843959927,-3.4886525553599
1789075326087204900,9.546204833984374,1.7895280860617755,8.949036560842394,-3.589252279706299
1789075326097149000,9.55614892578125,1.7629935687489806,8.904386102733016,-3.711354810808599
1789075326107092000,9.566092041015626,1.7536375652521847,8.850955541318655,-3.841322376197576
1789075326117035000,9.576034912109375,1.7687478944920003,8.795923389926552,-3.9589927700713274
1789075326126978000,9.58597802734375,1.800835808148235,8.74161779924333,-4.063434264537692
1789075326136921900,9.595921875,1.839726679817587,8.6868820004493,-4.16219771336764
1789075326146865000,9.605864990234375,1.8924539152681827,8.624766612797975,-4.266429072214663
1789075326156808000,9.615807861328125,1.951354578656703,8.55677561111152,-4.375410255937278
1789075326166751000,9.6257509765625,2.0006777047522366,8.4918942658782,-4.478328194098174
1789075326176694000,9.635694091796875,2.0678139893054963,8.423663025695085,-4.575636183422803
1789075326186637800,9.645637939453126,2.1621252810321745,8.350521801638603,-4.665230237369239
1789075326196580900,9.655580810546875,2.2526918332725763,8.285499586629866,-4.737747484308481
1789075326206524000,9.66552392578125,2.3043286431379615,8.243068558135628,-4.786675181345641
1789075326216467000,9.675467041015626,2.309061370748281,8.222028692716359,-4.82046200787425
1789075326226410000,9.685409912109375,2.2850269996881485,8.2101471162647,-4.852062138013541
1789075326236353800,9.695353759765625,2.2590122684657574,8.19901548139751,-4.882969609713554
1789075326246296800,9.705296875,2.2385487416297196,8.188155064687132,-4.910541507250071
1789075326256239900,9.715239990234375,2.2071683917209506,8.180434115046262,-4.9375370662033555
1789075326266183000,9.725182861328125,2.167425141005963,8.173442648723722,-4.966635150393843
1789075326276127000,9.735126953125,2.1367240055330097,8.166154829803109,-4.991861946108937
1789075326286069800,9.74506982421875,2.1195427152380346,8.160282138377427,-5.008761642983555
1789075326296012800,9.7550126953125,2.1138779674746093,8.154746131560206,-5.020160404354334
1789075326305955800,9.764955810546875,2.110107655155659,8.149403601488471,-5.030411164733767
1789075326315900000,9.77489990234375,2.108466756080836,8.143517466059327,-5.040622762146592
1789075326325843000,9.784843017578124,2.1238515183478595,8.136783189368247,-5.045037071457505
1789075326335786000,9.794785888671875,2.1486095275074244,8.129613443869351,-5.04610966912508
1789075326345728800,9.804728759765625,2.157647404965758,8.125354032859205,-5.049118203291297
1789075326355671800,9.814671875,2.1532130757801236,8.12178494220078,-5.056743291342258
1789075326365615900,9.824615966796875,2.1302428268201647,8.119370866796373,-5.070333425277472
1789075326375559000,9.834558837890626,2.0816893699228762,8.124304231545329,-5.082582081475854
1789075326385502000,9.844501953125,2.016460818687081,8.136805985721946,-5.0888785512715575
1789075326395445000,9.854445068359375,1.9571498209320008,8.14707311271429,-5.095601722046733
1789075326405388800,9.864388916015624,1.9253850017502903,8.148361398959159,-5.105632117673754
1789075326415331800,9.874331787109375,1.9340584298104047,8.136642319592832,-5.121023163551092
1789075326425275000,9.88427490234375,1.980495332945138,8.107537221139669,-5.149354355022311
1789075326435218000,9.894218017578124,2.040842395749688,8.06969702756703,-5.18510780544877
1789075326445161000,9.904160888671875,2.0915978927358982,8.023824918708204,-5.235822093641757
1789075326455104800,9.914104736328126,2.1183402075804767,7.98105077586472,-5.29016334016025
1789075326465047800,9.9240478515625,2.124388693964481,7.947751732853055,-5.337658081784844
1789075326474990800,9.933990966796875,2.131198812370747,7.907862790057063,-5.393893763747811
1789075326484934000,9.943933837890626,2.147131710039824,7.870869568702578,-5.441475014612078
1789075326494878000,9.9538779296875,2.165515215731412,7.8301541119545695,-5.492687899976969
1789075326504820700,9.96382080078125,2.1839291165612638,7.791784926071762,-5.53975769418776
1789075326514763800,9.973763671875,2.2086752891525623,7.754311812245845,-5.5823664173364635
1789075326524706800,9.983706787109375,2.241151033082604,7.713112955895066,-5.626324217006564
1789075326534649900,9.99364990234375,2.2804284198515115,7.6714178404599425,-5.667396232107281
1789075326544594200,10.00359423828125,2.3199679646879434,7.626280475616455,-5.712091113880276
1789075326554536700,10.01353662109375,2.355238746163994,7.571799528366327,-5.769845383712649
1789075326564479700,10.023479736328126,2.3860654077127577,7.507181802505254,-5.841173420867324
1789075326574422800,10.0334228515625,2.418226094344258,7.434702841749787,-5.920116609200835
1789075326584367000,10.0433671875,2.4519357639834283,7.361358788597584,-5.997398586323857
1789075326594310100,10.05331005859375,2.4846844796359537,7.286054833549261,-6.075369714754819
1789075326604253000,10.0632529296875,2.520758248057961,7.221368718627095,-6.137427234739064
1789075326614195700,10.07319580078125,2.5600775742724537,7.159414074495435,-6.19347996135056
1789075326624140000,10.08314013671875,2.6055238589346406,7.094702825132012,-6.248746506020426
1789075326634083000,10.0930830078125,2.65442554474771,7.029509929731488,-6.301620018073916
1789075326644026000,10.103026123046876,2.7055110043406483,6.962703169393539,-6.353845295351744
1789075326653969200,10.11296923828125,2.763612480175495,6.8929907507419585,-6.404646677306294
1789075326663912000,10.122911865234375,2.824734472875297,6.820806389018893,-6.455064612901211
1789075326673856000,10.13285595703125,2.886623066033423,6.7486074142485855,-6.50338879108727
1789075326683799000,10.142799072265625,2.9402792528972026,6.682100513640045,-6.547876752111315
1789075326693742000,10.1527421875,2.9893241465732454,6.622470513063669,-6.586140139532088
1789075326703685000,10.16268505859375,3.0394413456559177,6.562181171795725,-6.623441403922438
1789075326713629000,10.17262890625,3.0932828259587284,6.493177193674445,-6.666379797416925
1789075326723572000,10.182572021484376,3.1534143463164566,6.4180567784994835,-6.710803461033105
1789075326733515000,10.192514892578124,3.2074811598077413,6.342935194280743,-6.75645111348629
1789075326743458000,10.2024580078125,3.2482860484048723,6.2755298835277555,-6.799761847424507
1789075326753402000,10.212402099609376,3.278238119076192,6.21695962113738,-6.8390779587686055
1789075326763345000,10.222344970703125,3.2961472852542992,6.162002288547158,-6.880083338373899
1789075326773288000,10.232287841796875,3.2977070819169283,6.109016548290849,-6.926429494485259
1789075326783231000,10.24223095703125,3.277688668499887,6.062143737956881,-6.976929263144731
1789075326793174000,10.252174072265625,3.2477059104293584,6.024514556786418,-7.023392323634028
1789075326803118000,10.2621181640625,3.2252342586413025,5.99198299101591,-7.061470417615771
1789075326813061000,10.27206103515625,3.208338068898022,5.961525893431902,-7.0948682448267935
1789075326823004000,10.28200390625,3.1899618697300554,5.935239944052696,-7.125128358533978
1789075326832946400,10.291946533203125,3.170974552926421,5.913704404070973,-7.151461654186249
1789075326842890500,10.301890380859374,3.1530490201354024,5.896326568290591,-7.173701543045044
1789075326852833500,10.31183349609375,3.140244483619928,5.884232225871086,-7.189231705132126
1789075326862776600,10.321776611328126,3.134014064797759,5.8763990480273955,-7.198354338264465
1789075326872719600,10.3317197265625,3.123476011909544,5.874086679431795,-7.204818565842509
1789075326882663400,10.341663330078125,3.098132311816513,5.884508120203018,-7.207254268556833
1789075326892606500,10.3516064453125,3.0665842041254043,5.907396243837476,-7.202023382166027
1789075326902549500,10.361549560546875,3.0414152760773896,5.941178686451911,-7.184885784882306
1789075326912492500,10.371492431640625,3.021968232807517,5.983326221829652,-7.158064413452148
1789075326922435600,10.381435546875,2.9950086219504475,6.0332315317273135,-7.127442480695247
1789075326932379400,10.39137939453125,2.9550638573139905,6.090636841991543,-7.095216619873047
1789075326942322400,10.401322509765626,2.904566134481132,6.1552855475127695,-7.060194406330585
1789075326952265500,10.411265380859374,2.8411130684852597,6.229736685124039,-7.020602400654554
1789075326962208500,10.42120849609375,2.7599957509830593,6.315646789860725,-6.976061832660436
1789075326972152800,10.43115283203125,2.667034558691084,6.409403516444564,-6.926532370337844
1789075326982095600,10.441095703125,2.5767937312737104,6.506186897373199,-6.870230052879452
1789075326992038400,10.451038330078125,2.501538583803177,6.604846009045839,-6.803578190842271
1789075327001981400,10.4609814453125,2.4382681808978317,6.705921534210443,-6.727247230833768
1789075327011925800,10.47092578125,2.372317745128274,6.809716839727759,-6.646072337925434
1789075327021868800,10.480868896484376,2.299065461912751,6.919349765357374,-6.557994241499901
1789075327031811800,10.490811767578125,2.2241839700601993,7.033359590896963,-6.461830453774333
1789075327041754400,10.50075439453125,2.147682329659909,7.148541967347263,-6.360519950810074
1789075327051697400,10.510697509765626,2.0636130304843188,7.26727531427741,-6.252887843608856
1789075327061641700,10.520641845703125,1.9769462621614335,7.391061268422007,-6.134681735423207
1789075327071584800,10.530584716796875,1.8947141152851283,7.518488793939351,-6.004395313343405
1789075327081527800,10.54052783203125,1.8162886672154068,7.647529015350341,-5.864024719622731
1789075327091470600,10.550470703125,1.744792433886975,7.777243775022029,-5.713192937642336
1789075327101414700,10.56041455078125,1.6841675770543514,7.905526456063986,-5.553071933791041
1789075327111357700,10.570357666015624,1.6318794636733829,8.02594147247076,-5.393665800210833
1789075327121300700,10.58030078125,1.5854644801095128,8.134722749707102,-5.242421345776319
1789075327131243800,10.590243896484376,1.5406509403929114,8.236197503322362,-5.095277896919846
1789075327141187600,10.6001875,1.5020152125284074,8.32963917260766,-4.952924020427465
1789075327151130600,10.610130615234375,1.4754557069048284,8.412215164485573,-4.819548692421614
1789075327161073700,10.62007373046875,1.454300836803764,8.484567868512869,-4.697608950665593
1789075327171016700,10.6300166015625,1.4294383443564176,8.55121914602816,-4.5829856694027775
1789075327180960800,10.639960693359376,1.4071001096896827,8.614621650880574,-4.469763779370487
1789075327190903600,10.649903564453124,1.3950393772788345,8.674490720909834,-4.356315971627831
1789075327200846600,10.6598466796875,1.3898381553739307,8.730198579606414,-4.245278732158243
1789075327210789600,10.66978955078125,1.3845381492696702,8.780902930927276,-4.1411534640342
1789075327220732700,10.679732666015624,1.3788998511217534,8.826903050079942,-4.044107632777094
1789075327230676700,10.6896767578125,1.379626850222051,8.868696949714423,-3.951359790974855
1789075327240619800,10.699619873046874,1.388125067845732,8.908008384883404,-3.8588735227182505
1789075327250562600,10.7095625,1.394948045733571,8.944337589371203,-3.7713790713995694
1789075327260505600,10.719505615234375,1.3959171830266712,8.97532426378727,-3.696668990591168
1789075327270449700,10.72944970703125,1.3856225835055112,9.000787790867685,-3.6381647791743275
1789075327280392700,10.739392822265625,1.377818777886778,9.020227235352992,-3.5927024201601743
1789075327290335700,10.749335693359376,1.37559101883471,9.035158847025036,-3.5558418852746483
1789075327300278800,10.75927880859375,1.366180216410756,9.046908906051517,-3.5294963146626945
1789075327310222600,10.76922265625,1.349859488467872,9.054519381055234,-3.5162396504655478
1789075327320165600,10.77916552734375,1.3383994984291494,9.059017276996373,-3.5090248967811464
1789075327330108700,10.789108642578125,1.3380702664747834,9.059766049537062,-3.507222231273353
1789075327340051700,10.7990517578125,1.3415168997973204,9.056301003775,-3.514848196107149
1789075327349995500,10.80899560546875,1.3496077056638895,9.046914751270412,-3.5358585431709884
1789075327359938600,10.8189384765625,1.3740877746649085,9.03325213662088,-3.5612685864984988
1789075327369881600,10.828881591796875,1.417493931801617,9.015786038035154,-3.5884126140117645
1789075327379824600,10.83882470703125,1.4621455589547752,8.995695436164736,-3.620771161302924
1789075327389768700,10.848768798828125,1.5093629449427126,8.974503595054149,-3.6538308426007626
1789075327399711500,10.85871142578125,1.5592964580215514,8.949167493745684,-3.694774262885749
1789075327409654500,10.868654541015625,1.613755924092233,8.91523190639615,-3.752972477093339
1789075327419597600,10.87859765625,1.6538376129813492,8.87653421921134,-3.8265330956056713
1789075327429541600,10.888541748046874,1.6808251347586511,8.835180464559793,-3.909580212126672
1789075327439484700,10.898484619140625,1.6956646842330694,8.78967718901336,-4.00458723103255
1789075327449427700,10.908427734375,1.6839932434007525,8.74894536565244,-4.097622365343571
1789075327459370500,10.91837060546875,1.6549821068413555,8.710221959504485,-4.190876110841334
1789075327469313500,10.9283134765625,1.6149829816691577,8.669884688419103,-4.288975542804598
1789075327479257600,10.938257568359376,1.568040320969373,8.6324220959872,-4.380971689456701
1789075327489200600,10.94820068359375,1.52748633839339,8.596958568418026,-4.464240632034838
1789075327499143700,10.958143798828125,1.5016153995558619,8.559699974125623,-4.543905997163057
1789075327509086700,10.968086669921876,1.4924350448869168,8.52040841270089,-4.620133496797084
1789075327519030500,10.978030517578125,1.4730283336274326,8.488559568497537,-4.684545763213932
1789075327528973600,10.9879736328125,1.4137344331376254,8.475869598272443,-4.725609887269139
1789075327538916600,10.99791650390625,1.3586128498964012,8.469947222486137,-4.7523225376278155
1789075327548859600,11.007859619140625,1.337477853539586,8.458507544583082,-4.778620469705761
1789075327558803500,11.017803466796876,1.341710522673279,8.445066463729738,-4.801152911770344
1789075327568746500,11.02774658203125,1.3449345992863178,8.435597793638706,-4.816867490513623
1789075327578689500,11.037689453125,1.3350874512717128,8.429908057564496,-4.8295551226511595
1789075327588632600,11.047632568359376,1.3252858959645033,8.420476212352513,-4.848666942617297
1789075327598576600,11.05757666015625,1.3407524912960826,8.402242052003741,-4.875971713650227
1789075327608519700,11.067519775390625,1.3749892535492778,8.37469528890848,-4.913683896929025
1789075327618462500,11.07746240234375,1.397871385834366,8.34241506755054,-4.961898769521713
1789075327628405500,11.087405517578125,1.3889425217084586,8.311283431705832,-5.016353413286805
1789075327638349600,11.097349609375,1.3664214778207242,8.27947199690342,-5.074802679646015
1789075327648292600,11.107292724609374,1.3576733770892022,8.242385836568474,-5.137137263005972
1789075327658235600,11.117235595703125,1.3615136859044432,8.200928621542454,-5.20206127833724
1789075327668178400,11.127178466796876,1.3649617805317042,8.15427325335145,-5.274005401563644
1789075327678122500,11.13712255859375,1.348947926580906,8.104649098482728,-5.354005405473709
1789075327688065500,11.1470654296875,1.3198570027835665,8.057960997065901,-5.4311739853501315
1789075327698008600,11.157008544921876,1.3107860998384653,8.01395000590384,-5.498078945365548
1789075327707951600,11.16695166015625,1.34106491824612,7.968030550771951,-5.557196320244669
1789075327717895400,11.1768955078125,1.4019395120561122,7.915743898695707,-5.616576729974151
1789075327727838500,11.18683837890625,1.4815858802229165,7.861079411572217,-5.672628872063756
1789075327737781500,11.196781494140625,1.535643925885856,7.813376580154896,-5.72392709762454
1789075327747724500,11.206724609375,1.5614213412210345,7.773724368724227,-5.7707519771635525
1789075327757667600,11.21666748046875,1.5676947224020956,7.738671760043501,-5.81598286550939
1789075327767611400,11.226611328125,1.553092050423473,7.706400306513905,-5.8625657529860735
1789075327777554400,11.236554443359376,1.5195504308275878,7.675940286320447,-5.911116141143441
1789075327787497500,11.24649755859375,1.4841693208448588,7.641814144834876,-5.96408434574306
1789075327797440500,11.2564404296875,1.477905438144505,7.6033695556283,-6.014563656136393
1789075327807384600,11.266384521484374,1.5277356369793413,7.564550287890434,-6.050950728291273
1789075327817327600,11.27632763671875,1.6113175910294055,7.525345235705375,-6.078093586760759
1789075327827270400,11.2862705078125,1.685987632088363,7.4827026102870695,-6.110401865169406
1789075327837214200,11.296214111328124,1.7272804503329098,7.438306419199705,-6.152923494556545
1789075327847158300,11.306158203125,1.743275161191821,7.396894796881079,-6.1981707495152945
1789075327857101300,11.316101318359374,1.7709154477894304,7.355401341497898,-6.239575942093134
1789075327867044000,11.326044189453125,1.824840076331049,7.311070616862177,-6.276033156874775
1789075327876987100,11.335987060546875,1.8903034592360257,7.263869305226207,-6.311365167018771
1789075327886931200,11.34593115234375,1.9535162867352365,7.215791210755706,-6.347165379196405
1789075327896874200,11.355874267578125,2.0147357484601436,7.163586391744017,-6.387038539901376
1789075327906817300,11.3658173828125,2.0804807247854766,7.102777995038032,-6.433701506876945
1789075327916760300,11.37576025390625,2.1566569326236844,7.0350541198551655,-6.4828410930991165
1789075327926704000,11.3857041015625,2.2373579244099555,6.960922131195664,-6.535304270786047
1789075327936647200,11.395647216796876,2.3099472136721015,6.884751330184936,-6.590504764482379
1789075327946590200,11.405590087890625,2.372644931256026,6.809823807233571,-6.645844374388456
1789075327956533200,11.415533203125,2.431651246976107,6.736107998159527,-6.699426326972246
1789075327966477000,11.42547705078125,2.4952058736503124,6.6633133955836295,-6.74867346522212
1789075327976420000,11.435420166015625,2.56895266238451,6.596094547313451,-6.7869298383802175
1789075327986363100,11.445363037109376,2.6479087101995944,6.532412640997767,-6.818104728844761
1789075327996306200,11.45530615234375,2.709889073294401,6.463896154132485,-6.858933582839369
1789075328006250200,11.465250244140625,2.7524945815727113,6.391361079275607,-6.909751331406832
1789075328016193000,11.475193115234376,2.792885336410999,6.3156350994229316,-6.962967957809567
1789075328026136000,11.485135986328125,2.8198507924869656,6.2374494514584535,-7.02232557118535
1789075328036079000,11.4950791015625,2.837015570038557,6.16080518771708,-7.082810727286338
1789075328046023200,11.505023193359374,2.8473469944387673,6.094706283387541,-7.135653844201564
1789075328055966200,11.51496630859375,2.8564526764363047,6.043834758806228,-7.175175122728944
1789075328065909200,11.5249091796875,2.857071977378428,6.005159867975116,-7.207329671880602
1789075328075852000,11.53485205078125,2.858694317883253,5.978019932115077,-7.229214755952357
1789075328085796000,11.544796142578125,2.8722701310321685,5.958591593545675,-7.239863575738668
1789075328095739100,11.5547392578125,2.883659247791767,5.94433335109055,-7.2470526104599235
1789075328105682200,11.56468212890625,2.8940371416822073,5.931787757772207,-7.253195935520529
1789075328115625200,11.574625244140625,2.899367981316149,5.922498535901307,-7.2586536164045325
1789075328125569300,11.5845693359375,2.8925808053940534,5.92131838620603,-7.262321491262316
1789075328135512000,11.594511962890625,2.875775801065564,5.9286757632315155,-7.262994275957346
1789075328145455000,11.604455078125,2.850023227910697,5.945034192836284,-7.259774729388952
1789075328155398100,11.614398193359374,2.81385535146445,5.9703486668348305,-7.253107088193297
1789075328165341200,11.624341064453125,2.752910761158168,6.004376608642936,-7.24840227150321
1789075328175285200,11.63428515625,2.6764883234739303,6.049212360191345,-7.2397408261418335
1789075328185228000,11.64422802734375,2.612621123719215,6.100604109254479,-7.219917935296893
1789075328195171000,11.654171142578125,2.569204591318965,6.157183490088582,-7.187395137354732
1789075328205114000,11.664114013671876,2.5427915084287522,6.220752583679556,-7.141907059377432
1789075328215058400,11.674058349609375,2.524263625830412,6.292016323426365,-7.085830951890349
1789075328225001200,11.684001220703125,2.5055916585862636,6.3662219618439675,-7.025922134372592
1789075328234944300,11.6939443359375,2.4813088657230136,6.432578055804967,-6.973911376628279
1789075328244887000,11.703886962890625,2.4438978573478756,6.490227696219086,-6.933591056677699
1789075328254831400,11.713831298828126,2.389522416298836,6.553652997425198,-6.892765125292539
1789075328264774400,11.7237744140625,2.3144752124905583,6.633851154255867,-6.841463977122307
1789075328274717400,11.733717529296875,2.2224071696460244,6.721784873774648,-6.785936735689639
1789075328284661200,11.7436611328125,2.1319537223912772,6.809676507717371,-6.727070705223083
1789075328294604300,11.753604248046875,2.0553128196507693,6.903242095643281,-6.655171590182185
1789075328304547300,11.76354736328125,1.9710221328094601,7.01176910585761,-6.566622369113564
1789075328314490400,11.773490478515624,1.8715490744054317,7.133110004937649,-6.464242775613069
1789075328324434200,11.78343408203125,1.7778743270166217,7.260514149579405,-6.3477943247497075
1789075328334377200,11.793377197265626,1.699059879629314,7.38624363900721,-6.223101192632317
1789075328344320300,11.8033203125,1.6307279555507004,7.507262466526031,-6.095253980398177
1789075328354263300,11.81326318359375,1.5661469084382056,7.620726348620653,-5.970100245031714
1789075328364206300,11.823206298828126,1.5039906042546034,7.726718287399411,-5.848607370260358
1789075328374150400,11.833150390625,1.4448803897686302,7.823976300102472,-5.733070189023017
1789075328384093200,11.84309326171875,1.4129196096234022,7.90352329954803,-5.631019096824526
1789075328394036200,11.8530361328125,1.3946841341003775,7.969498285236954,-5.541868987253308
1789075328403979300,11.862979248046875,1.382034057494253,8.030915169230102,-5.455708122625946
1789075328413923300,11.87292333984375,1.363932729744911,8.098287746757268,-5.359832504191995
1789075328423866400,11.882866455078124,1.348734137699753,8.16866827392876,-5.255871194458008
1789075328433809400,11.892809326171875,1.3451593479529023,8.236518405839801,-5.149826064187288
1789075328443753200,11.902753173828126,1.3420982068166136,8.30259334477186,-5.04342320652008
1789075328453696300,11.9126962890625,1.3383093359276652,8.366388063812256,-4.937900638818741
1789075328463639300,11.922639404296875,1.333952894283831,8.424314183080195,-4.839618251504004
1789075328473582300,11.932582275390626,1.3225114628151058,8.478318160468339,-4.747573297274112
1789075328483526100,11.942526123046875,1.3070341999590396,8.531551153483987,-4.655607545760273
1789075328493469200,11.95246923828125,1.2940638053573668,8.581966166469455,-4.565705448777973
1789075328503412200,11.962412109375,1.301197018238157,8.627696236509085,-4.476619928875565
1789075328513355300,11.972355224609375,1.3306149820327757,8.665278655928374,-4.394634304106235
1789075328523299300,11.98229931640625,1.3526336293563246,8.700949104246497,-4.31674267065227
1789075328533242000,11.9922421875,1.3467680983237922,8.743585299924016,-4.231585137848556
1789075328543185200,12.00218505859375,1.3257025139413774,8.791137909215688,-4.138695549488068
1789075328553128200,12.012128173828126,1.3195789164945482,8.835432393494248,-4.04527316942513
1789075328563072300,12.022072265625,1.3363013571061193,8.870355238315463,-3.962511007325351
1789075328573015300,12.032015380859375,1.3567327352382241,8.899282642114162,-3.8900451983124014
1789075328582958300,12.041958251953124,1.3787301936432719,8.925462208509444,-3.821731540542841
1789075328592901000,12.051901123046875,1.4071639687061308,8.949840862962603,-3.7537455072924493
1789075328602845200,12.06184521484375,1.4486251292549073,8.970090454787016,-3.689085695855319
1789075328612788200,12.071788330078125,1.5047574969738722,8.982612082707881,-3.635765609078109
1789075328622731300,12.081731201171875,1.56538323058933,8.989176263529062,-3.593694646067917
1789075328632674300,12.09167431640625,1.6312496413372457,8.991439532285929,-3.558571017977595
1789075328642618000,12.1016181640625,1.7076104119621216,8.989652064347267,-3.5271257861390706
1789075328652561200,12.11156103515625,1.7834299153171478,8.985905279034375,-3.499038632556796
1789075328662504200,12.121504150390624,1.8474286324970424,8.977534925574064,-3.487305232404172
1789075328672447200,12.131447265625,1.8919009575605392,8.968176145598292,-3.4875355340287086
1789075328682391000,12.14139111328125,1.9234363519005477,8.953475420072674,-3.5079981840819117
1789075328692334000,12.151333984375,1.9520450451388953,8.928556667393446,-3.5553891730710863
1789075328702277000,12.161277099609375,1.96340858906582,8.901213902437686,-3.617156477937102
1789075328712220200,12.17122021484375,1.946662329187244,8.87787452790439,-3.6829680897578596
1789075328722164200,12.181164306640625,1.9010151151254773,8.855042518371343,-3.7609526621922846
1789075328732107300,12.191107177734375,1.8559962620951234,8.824225939825176,-3.8547032512962818
1789075328742050000,12.201050048828124,1.8246020297914742,8.78456671413183,-3.958860960385203
1789075328751993000,12.2109931640625,1.7824176695346832,8.745096873530745,-4.06407139339745
1789075328761937200,12.220937255859376,1.6968638308897614,8.720890653035044,-4.151761659549177
1789075328771880200,12.230880126953124,1.5759936180613934,8.706373467382788,-4.229145635741949
1789075328781823200,12.2408232421875,1.4722801456086336,8.685878960886598,-4.307931295426189
1789075328791766300,12.250766357421876,1.4099411783345044,8.657299932134151,-4.385613962304592
1789075328801710000,12.2607099609375,1.3813658028438687,8.622583423539997,-4.4624280296549195
1789075328811653000,12.270653076171875,1.3524831149697303,8.586982533326745,-4.539261678488552
1789075328821596200,12.28059619140625,1.3276393272228537,8.551143158182501,-4.6136409199073904
1789075328831539000,12.2905390625,1.3245776015646755,8.512554776591061,-4.685328438024222
1789075328841482800,12.300482666015625,1.3171408756926655,8.47371212797761,-4.7572819136008615
1789075328851425800,12.31042578125,1.2885296982362866,8.438944765979052,-4.826415363320708
1789075328861368800,12.320368896484375,1.2441934206426144,8.408048692455887,-4.891529348266125
1789075328871312000,12.330311767578126,1.1962907558042555,8.382035714799166,-4.947800686064363
1789075328881256000,12.340255859375,1.1624743378549813,8.357288227033614,-4.997476278859376
1789075328891199000,12.350198974609375,1.1412285015348345,8.328727318459748,-5.0497792975485325
1789075328901141800,12.360141845703126,1.1260828087206929,8.294404777619242,-5.1093222043633455
1789075328911084800,12.370084716796875,1.117992148984596,8.254448030284047,-5.175381945726275
1789075328921028900,12.38002880859375,1.1189381245978176,8.208309963965416,-5.248049707052111
1789075328930972000,12.389971923828124,1.1199470093794166,8.158759458854794,-5.3245437486678355
1789075328940915000,12.3999150390625,1.120249645587802,8.100961934402585,-5.412008681631088
1789075328950858000,12.40985791015625,1.1371234773688017,8.032343740728496,-5.5098816113621
1789075328960801800,12.4198017578125,1.1942355037748813,7.956864429113268,-5.606468008413911
1789075328970744800,12.429744873046875,1.2648435560919344,7.887532534211873,-5.6883548489838835
1789075328980688000,12.43968798828125,1.3099750757165252,7.830151189345121,-5.757005191361904
1789075328990631000,12.449630859375,1.3241964932925998,7.779790536895394,-5.821662664711475
1789075329000574700,12.45957470703125,1.3190581074908374,7.730192100989818,-5.888515017756819
1789075329010517800,12.469517822265624,1.314249245904386,7.679695254939794,-5.955286706781387
1789075329020460800,12.479460693359375,1.3145873918175697,7.626192797333002,-6.023574645587802
1789075329030403800,12.48940380859375,1.3362047648638486,7.566965532338619,-6.0931105386286974
1789075329040348200,12.49934814453125,1.388791568930447,7.502561741489171,-6.160616387146711
1789075329050291000,12.509291015625,1.4648169701211153,7.439185540121794,-6.219583539900183
1789075329060233700,12.519233642578126,1.5404814290449023,7.3739827078491444,-6.278671104162931
1789075329070176800,12.5291767578125,1.5903459685407577,7.310547469770908,-6.340117214250564
1789075329080121000,12.53912109375,1.6264299660958348,7.256636431363225,-6.392679176136851
1789075329090064100,12.549064208984374,1.6795179976828396,7.20584147914946,-6.436260543709993
1789075329100007000,12.5590068359375,1.7375098756633698,7.130125436168909,-6.504825545892119
1789075329109950000,12.568949951171875,1.78730047314018,7.043132212370634,-6.585609393656253
1789075329119894000,12.57889404296875,1.8367131772153078,6.962306279030442,-6.657565791842341
1789075329129837000,12.588837158203125,1.882272128471732,6.886933934921026,-6.7229147545874115
1789075329139780000,12.598780029296876,1.9261941261760889,6.812173000708222,-6.78634648553431
1789075329149723100,12.60872314453125,1.984537009551376,6.738476480856537,-6.842873259398341
1789075329159667000,12.6186669921875,2.0699651759900153,6.659515172344446,-6.894670666652917
1789075329169610000,12.62860986328125,2.1687087510757146,6.571464548447728,-6.948592226454616
1789075329179553000,12.638552978515625,2.2776912499725817,6.47847120745182,-7.000850821480155
1789075329189497000,12.6484970703125,2.4018277711205185,6.382496220296621,-7.047364150851965
1789075329199440100,12.658440185546874,2.532655898861587,6.284644333353638,-7.0893772461950775
1789075329209383000,12.6683828125,2.653228151656687,6.187094059705734,-7.130964225080609
1789075329219326000,12.678325927734376,2.7567963704198597,6.089802144733071,-7.175289104497432
1789075329229270000,12.68827001953125,2.848680581130087,5.992884908291697,-7.220856092929839
1789075329239213000,12.698213134765625,2.929109331846237,5.897118010929226,-7.267372929432987
1789075329249156000,12.708156005859376,3.000487930144369,5.80934445040822,-7.308831898024677
1789075329259099000,12.718098876953125,3.057694210705161,5.733107598423958,-7.345228907051682
1789075329269043000,12.72804296875,3.1041189850106834,5.668532542660832,-7.375809338754415
1789075329278986000,12.737986083984374,3.1315140646755695,5.613058492720127,-7.406589092421531
1789075329288929000,12.747928955078125,3.126117174068093,5.574430948162078,-7.437976748853921
1789075329298872000,12.7578720703125,3.1031027937054634,5.556674342197179,-7.460863703444599
1789075329308816000,12.76781591796875,3.0791514247536655,5.553703801953792,-7.472991363611817
1789075329318759000,12.777759033203125,3.072666738909483,5.552242497229575,-7.476745163187384
1789075329328702000,12.787701904296876,3.0713688080534336,5.546679602405429,-7.4814049716919655
1789075329338645000,12.79764501953125,3.0544390083014963,5.546821056702733,-7.488226926666497
1789075329348589000,12.807589111328125,3.009355127210915,5.566452808889746,-7.49191467526853
1789075329358531800,12.81753173828125,2.9615964739531275,5.605504716339707,-7.481821735799312
1789075329368475000,12.827474853515625,2.9369749506548044,5.652130273914337,-7.45640613951385
1789075329378418000,12.83741796875,2.9327094021648166,5.697825272640586,-7.423232184186578
1789075329388362000,12.847362060546875,2.9275533345758915,5.748594505891203,-7.386032042083143
1789075329398305000,12.857304931640625,2.9086887673690915,5.8124412473797795,-7.343394677361846
1789075329408248000,12.867248046875,2.8780253335580226,5.892697271877527,-7.291328974559903
1789075329418190800,12.87719091796875,2.846090564636886,5.986017360609769,-7.227567573267221
