time,seconds_elapsed,z,y,x
1790266289505566500,0.05256640625,0,0,0
1790266289515566600,0.062566650390625,-0.4077005386352539,-0.22235769033432007,-0.3070995807647705
1790266289525566500,0.07256640625,-0.5749235153198242,-0.11764270067214966,-0.25260138511657715
1790266289535566600,0.082566650390625,-0.33310508728027344,0.08325636386871338,0.04584455490112305
1790266289545566500,0.09256640625,0.06560993194580078,0.38677525520324707,0.017545461654663086
1790266289555566600,0.102566650390625,-0.17535400390625,0.5298058390617371,0.22064077854156494
1790266289565566500,0.11256640625,-0.7848567962646484,0.49187690019607544,0.630089282989502
1790266289575566600,0.122566650390625,-1.4779548645019531,0.4462578296661377,1.0139001607894897
1790266289585566500,0.13256640625,-1.9758796691894531,0.41965723037719727,1.1349233388900757
1790266289595566600,0.142566650390625,-2.6549253463745117,0.5198134183883667,1.2540117502212524
1790266289605566500,0.15256640625,-3.368483543395996,0.662365198135376,1.0149446725845337
1790266289615566600,0.162566650390625,-4.723686218261719,0.32040953636169434,1.4219835996627808
1790266289625566500,0.17256640625,-4.22068452835083,0.488278865814209,1.754090428352356
1790266289635566600,0.182566650390625,3.041576385498047,3.466482162475586,-4.062959671020508
1790266289645566500,0.19256640625,8.700639724731445,6.3394036293029785,-10.59338665008545
1790266289655566600,0.202566650390625,-0.2506980895996094,3.381690263748169,-4.705605506896973
1790266289665566500,0.21256640625,-2.9800920486450195,0.03576779365539551,0.3113694190979004
1790266289675566600,0.222566650390625,-2.4811630249023438,-1.6326353549957275,3.428239345550537
1790266289685566500,0.23256640625,-0.2714672088623047,-1.594376802444458,4.792694091796875
1790266289695566600,0.242566650390625,1.5772285461425781,-0.4882934093475342,4.651428699493408
1790266289705566500,0.25256640625,2.0894765853881836,0.4422481060028076,4.249421119689941
1790266289715566600,0.262566650390625,1.3164596557617188,0.4940977096557617,4.096182823181152
1790266289725566500,0.27256640625,0.4816913604736328,0.16599488258361816,2.821556568145752
1790266289735566600,0.282566650390625,0.3077812194824219,-0.22377586364746094,1.3327604532241821
1790266289745566500,0.29256640625,0.2901449203491211,-0.053255558013916016,0.29398834705352783
1790266289755566600,0.302566650390625,-0.4713106155395508,-0.3781747817993164,-1.5806519985198975
1790266289765566500,0.31256640625,-1.4104204177856445,-1.0297741889953613,-2.2309322357177734
1790266289775566600,0.322566650390625,-1.9335517883300781,-1.379115343093872,-3.7232446670532227
1790266289785566500,0.33256640625,-2.5250911712646484,-1.2619845867156982,-4.9600701332092285
1790266289795566600,0.342566650390625,-2.8123626708984375,-1.1946862936019897,-4.748167514801025
1790266289805566500,0.35256640625,-2.5896081924438477,-1.6951245069503784,-2.751173973083496
1790266289815566600,0.362566650390625,-1.3920559883117676,-2.5798404216766357,-0.7813286185264587
1790266289825566500,0.37256640625,0.014039993286132812,-2.2886414527893066,0.6688182353973389
1790266289835566600,0.382566650390625,1.3282852172851562,-1.136988878250122,1.399194359779358
1790266289845566500,0.39256640625,1.9536285400390625,0.08711034059524536,1.3664294481277466
1790266289855566600,0.402566650390625,2.335890769958496,0.27573883533477783,1.6216955184936523
1790266289865566500,0.41256640625,3.848712921142578,0.12040054798126221,2.595487117767334
1790266289875566600,0.422566650390625,5.7323760986328125,-0.6720394492149353,4.010246753692627
1790266289885566500,0.43256640625,5.30621337890625,-1.4388703107833862,3.968595027923584
1790266289895566600,0.442566650390625,4.945601463317871,-2.8847389221191406,3.2576825618743896
1790266289905566500,0.45256640625,2.316887855529785,-4.384852409362793,1.316253900527954
1790266289915566600,0.462566650390625,-2.0720977783203125,-4.7559428215026855,-1.255918264389038
1790266289925566500,0.47256640625,-7.605615139007568,-3.385500907897949,-2.8098912239074707
1790266289935566600,0.482566650390625,-12.190718650817871,-2.0416476726531982,-2.809338092803955
1790266289945566500,0.49256640625,-12.816911697387695,-1.6326543092727661,-2.631302833557129
1790266289955566600,0.502566650390625,-9.551403999328613,-2.574052095413208,-1.9885454177856445
1790266289965566500,0.51256640625,-5.073065757751465,-4.409534454345703,-0.05958747863769531
1790266289975566600,0.522566650390625,-1.550539493560791,-5.166087627410889,0.16933870315551758
1790266289985566500,0.53256640625,-0.7160015106201172,-5.844298362731934,-1.2842345237731934
1790266289995566600,0.542566650390625,-1.3555173873901367,-6.544250011444092,-3.093169689178467
1790266290005566500,0.55256640625,-2.275420904159546,-7.152011394500732,-4.586655616760254
1790266290015566600,0.562566650390625,-3.1887168884277344,-7.695781707763672,-5.601327896118164
1790266290025566500,0.57256640625,-4.096120357513428,-7.917453765869141,-6.444852828979492
1790266290035566600,0.582566650390625,-4.628493785858154,-9.674126625061035,-6.480784893035889
1790266290045566500,0.59256640625,-3.6082754135131836,-10.451184272766113,-6.568853855133057
1790266290055566600,0.602566650390625,-1.6341205835342407,-10.05432415008545,-5.176826000213623
1790266290065566500,0.61256640625,-0.7509472370147705,-9.095004081726074,-2.864593029022217
1790266290075566600,0.622566650390625,-0.8171080946922302,-9.544889450073242,-1.502455711364746
1790266290085566500,0.63256640625,-1.2562248706817627,-9.18002986907959,-1.0181665420532227
1790266290095566600,0.642566650390625,-1.3573012351989746,-7.366045951843262,-0.7363824844360352
1790266290105566500,0.65256640625,-1.3416852951049805,-6.855201244354248,1.4573240280151367
1790266290115566600,0.662566650390625,-1.3685486316680908,-7.3414106369018555,3.940366744995117
1790266290125566500,0.67256640625,-2.011901378631592,-7.484094619750977,7.047861099243164
1790266290135566600,0.682566650390625,-2.189922332763672,-5.857839584350586,11.380001068115234
1790266290145566500,0.69256640625,-0.3257259726524353,-3.4608187675476074,16.290376663208008
1790266290155566600,0.702566650390625,2.0986135005950928,-0.9441337585449219,19.802818298339844
1790266290165566500,0.71256640625,4.9149298667907715,1.315913200378418,22.018600463867188
1790266290175566600,0.722566650390625,6.3719940185546875,3.4593143463134766,22.278833389282227
1790266290185566500,0.73256640625,5.203907489776611,5.372752666473389,20.75153160095215
1790266290195566600,0.742566650390625,0.9701896905899048,6.672733783721924,20.020503997802734
1790266290205566500,0.75256640625,-3.3294193744659424,7.5533294677734375,19.50829315185547
1790266290215566600,0.762566650390625,-6.24066162109375,8.693147659301758,18.379297256469727
1790266290225566500,0.77256640625,-8.001518249511719,9.277081489562988,16.369022369384766
1790266290235566600,0.782566650390625,-12.77989673614502,9.07824420928955,13.612640380859375
1790266290245566500,0.79256640625,-12.11146354675293,9.131553649902344,10.462631225585938
1790266290255566600,0.802566650390625,-9.763579368591309,8.785259246826172,10.39004135131836
1790266290265566500,0.81256640625,-13.661347389221191,8.66586685180664,11.421116828918457
1790266290275566600,0.822566650390625,-19.65618324279785,9.989677429199219,9.725156784057617
1790266290285566500,0.83256640625,-24.297168731689453,8.047833442687988,4.267234802246094
1790266290295566600,0.842566650390625,-20.67598533630371,3.9599406719207764,-2.156564235687256
1790266290305566500,0.85256640625,-10.901718139648438,0.07683658599853516,-5.7269721031188965
1790266290315566600,0.862566650390625,-4.4939799308776855,-2.2040374279022217,-6.420274257659912
1790266290325566500,0.87256640625,-1.5277186632156372,-2.760511875152588,-5.19525146484375
1790266290335566600,0.882566650390625,-1.696713924407959,-2.415614128112793,-3.0463104248046875
1790266290345566500,0.89256640625,-3.3758368492126465,-1.6028640270233154,-2.642354965209961
1790266290355566600,0.902566650390625,-2.8113579750061035,-1.4088687896728516,-3.2185182571411133
1790266290365566500,0.91256640625,0.7580392360687256,-1.4789984226226807,-3.2465972900390625
1790266290375566600,0.922566650390625,4.387116432189941,-1.6415975093841553,-2.653268337249756
1790266290385566500,0.93256640625,7.8399176597595215,-2.0529494285583496,-0.8381071090698242
1790266290395566600,0.942566650390625,7.970488548278809,-2.154344081878662,-0.04021739959716797
1790266290405566500,0.95256640625,3.51790452003479,-0.6081016063690186,-0.24363040924072266
1790266290415566600,0.962566650390625,-1.43100905418396,1.4276115894317627,-1.994093894958496
1790266290425566500,0.97256640625,-3.529113292694092,2.2377867698669434,-2.1913270950317383
1790266290435566600,0.982566650390625,-2.373763084411621,3.7660045623779297,-2.0622596740722656
1790266290445566500,0.99256640625,3.0071475505828857,3.055647850036621,-3.614190101623535
1790266290455566600,1.002566650390625,7.476296424865723,1.3309581279754639,-7.10532808303833
1790266290465566500,1.01256640625,9.452051162719727,0.9409210681915283,-7.758395195007324
1790266290475566600,1.022566650390625,8.215534210205078,0.210823655128479,-6.4233832359313965
1790266290485566500,1.03256640625,6.008438587188721,-0.6195943355560303,-6.750033378601074
1790266290495566600,1.042566650390625,2.7414207458496094,-0.8600389361381531,-7.315864562988281
1790266290505566500,1.05256640625,-0.7497124671936035,-0.15373986959457397,-8.34606647491455
1790266290515566600,1.062566650390625,-3.155548095703125,0.2173459231853485,-8.888510704040527
1790266290525566500,1.07256640625,-9.002866744995117,-0.3362663686275482,-7.477777004241943
1790266290535566600,1.082566650390625,-14.252837181091309,-0.22877976298332214,-6.548357963562012
1790266290545566500,1.09256640625,-11.62092399597168,-1.760765552520752,-5.566102504730225
1790266290555566600,1.102566650390625,-9.41032600402832,-4.077341556549072,-4.479214191436768
1790266290565566500,1.11256640625,-7.225717067718506,-4.337443828582764,-4.991025447845459
1790266290575566600,1.122566650390625,-1.3048176765441895,-3.9179062843322754,-5.638731956481934
1790266290585566500,1.13256640625,5.789556980133057,-7.172571659088135,-1.8831181526184082
1790266290595566600,1.142566650390625,10.76961612701416,-11.664396286010742,6.218015670776367
1790266290605566500,1.15256640625,11.484949111938477,-12.539152145385742,8.778470039367676
1790266290615566600,1.162566650390625,7.823357582092285,-10.817803382873535,8.811990737915039
1790266290625566500,1.17256640625,4.347271919250488,-6.670186996459961,7.700925827026367
1790266290635566600,1.182566650390625,-1.3909759521484375,-7.1916184425354,3.6793370246887207
1790266290645566500,1.19256640625,-9.398324966430664,-9.497708320617676,2.497532844543457
1790266290655566600,1.202566650390625,-9.381485939025879,-8.676916122436523,0.8577942848205566
1790266290665566500,1.21256640625,-4.074098587036133,-4.25459623336792,-1.7347030639648438
1790266290675566600,1.222566650390625,-1.2493791580200195,-0.7381830215454102,-4.426797866821289
1790266290685566500,1.23256640625,1.2795000076293945,2.4587883949279785,-2.4767098426818848
1790266290695566600,1.242566650390625,1.5019640922546387,2.5540294647216797,-1.8944993019104004
1790266290705566500,1.25256640625,-0.949866771697998,1.883206844329834,-2.1471190452575684
1790266290715566600,1.262566650390625,-1.1805086135864258,0.9751381874084473,-3.6554503440856934
1790266290725566500,1.27256640625,1.2612085342407227,0.6381793022155762,-0.7928147315979004
1790266290735566600,1.282566650390625,0.3744778633117676,-1.5907025337219238,-4.326042652130127
1790266290745566500,1.29256640625,6.8437299728393555,-3.339033603668213,-2.626704216003418
1790266290755566600,1.302566650390625,2.597965717315674,-2.934082508087158,3.5614614486694336
1790266290765566500,1.31256640625,-5.590341567993164,-2.955521583557129,9.74294376373291
1790266290775566600,1.322566650390625,-7.580031394958496,-2.0357494354248047,11.579123497009277
1790266290785566500,1.33256640625,-4.162003040313721,-1.109799861907959,6.981973648071289
1790266290795566600,1.342566650390625,-0.6530287265777588,-0.1315016746520996,1.4235587120056152
1790266290805566500,1.35256640625,0.20954680442810059,1.5309934616088867,0.3964080810546875
1790266290815566600,1.362566650390625,0.190565824508667,4.59847354888916,1.5190343856811523
1790266290825566500,1.37256640625,0.940507173538208,7.007548809051514,0.9919238090515137
1790266290835566600,1.382566650390625,1.1854288578033447,7.952035427093506,1.5090327262878418
1790266290845566500,1.39256640625,0.19980311393737793,6.983991622924805,3.0836586952209473
1790266290855566600,1.402566650390625,-1.0424962043762207,5.373697280883789,1.5210814476013184
1790266290865566500,1.41256640625,-2.4874980449676514,2.7231006622314453,-1.0790257453918457
1790266290875566600,1.422566650390625,-2.914947748184204,1.423840045928955,-2.8984732627868652
1790266290885566500,1.43256640625,-1.1852951049804688,-0.6194162368774414,-2.6569669246673584
1790266290895566600,1.442566650390625,-1.2264013290405273,-2.6122312545776367,-2.5417640209198
1790266290905566500,1.45256640625,-1.1419179439544678,-3.995847225189209,-2.1273388862609863
1790266290915566600,1.462566650390625,0.4247555732727051,-4.387607574462891,-1.9524848461151123
1790266290925566500,1.47256640625,2.426452159881592,-2.9946165084838867,-2.84907603263855
1790266290935566600,1.482566650390625,2.733123779296875,-0.8814067840576172,-3.9590749740600586
1790266290945566500,1.49256640625,0.8217906951904297,0.10334014892578125,-4.315732955932617
1790266290955566600,1.502566650390625,-2.320215940475464,0.5416994094848633,-3.443988800048828
1790266290965566500,1.51256640625,-3.4733901023864746,0.19797420501708984,-2.4884042739868164
1790266290975566600,1.522566650390625,-2.647446632385254,-0.08483600616455078,-1.9607088565826416
1790266290985566500,1.53256640625,-0.3838663101196289,0.3307676315307617,-0.6593407392501831
1790266290995566600,1.542566650390625,1.9240857362747192,1.4694132804870605,1.1556236743927002
1790266291005566500,1.55256640625,2.9265832901000977,3.6600613594055176,3.01054048538208
1790266291015566600,1.562566650390625,0.6760945320129395,17.604324340820312,3.053422451019287
1790266291025566500,1.57256640625,3.812304973602295,16.85165023803711,1.1555585861206055
1790266291035566600,1.582566650390625,6.463465690612793,6.422509670257568,0.6176263093948364
1790266291045566500,1.59256640625,3.9062066078186035,-1.1907081604003906,-1.1418421268463135
1790266291055566600,1.602566650390625,-1.4932289123535156,-7.573849678039551,-3.91300106048584
1790266291065566500,1.61256640625,-2.0660247802734375,-9.299189567565918,-5.5671796798706055
1790266291075566600,1.622566650390625,-1.3105692863464355,-10.00495719909668,-5.669281482696533
1790266291085566500,1.63256640625,-1.768397569656372,-5.985998153686523,-1.1271164417266846
1790266291095566600,1.642566650390625,-3.394717216491699,0.20607566833496094,0.7428864240646362
1790266291105566500,1.65256640625,-3.187960624694824,0.3542594909667969,2.037005662918091
1790266291115566600,1.662566650390625,-0.10103905200958252,-4.2639007568359375,2.200594902038574
1790266291125566500,1.67256640625,1.1401594877243042,-7.43528938293457,0.7164154052734375
1790266291135566600,1.682566650390625,0.16020464897155762,-8.372529029846191,0.18491864204406738
1790266291145566500,1.69256640625,-1.7991375923156738,-7.1441192626953125,1.3778326511383057
1790266291155566600,1.702566650390625,-2.9744248390197754,-6.425660133361816,2.7493879795074463
1790266291165566500,1.71256640625,-1.6459580659866333,-5.526752471923828,2.3027470111846924
1790266291175566600,1.722566650390625,0.647566556930542,-3.394136428833008,0.3095583915710449
1790266291185566500,1.73256640625,1.7781177759170532,-0.043365478515625,-0.9936010837554932
1790266291195566600,1.742566650390625,0.9934985637664795,1.5004653930664062,-1.0500524044036865
1790266291205566500,1.75256640625,-0.7569222450256348,0.6406116485595703,-0.3292412757873535
1790266291215566600,1.762566650390625,-2.918562412261963,-2.0781774520874023,-0.18611812591552734
1790266291225566500,1.77256640625,-4.2259626388549805,-3.910233497619629,-0.3740248680114746
1790266291235566600,1.782566650390625,-2.4555258750915527,-3.5178937911987305,-0.36110806465148926
1790266291245566500,1.79256640625,0.7457892894744873,-1.8142509460449219,-0.13027119636535645
1790266291255566600,1.802566650390625,2.7007205486297607,0.34374046325683594,0.30384373664855957
1790266291265566500,1.81256640625,2.8123135566711426,1.1501684188842773,0.07982206344604492
1790266291275566600,1.822566650390625,1.2410802841186523,1.4705877304077148,0.08384966850280762
1790266291285566500,1.83256640625,-0.24151718616485596,1.4147329330444336,0.18175959587097168
1790266291295566600,1.842566650390625,-0.25943994522094727,0.7756128311157227,-0.06022357940673828
1790266291305566500,1.85256640625,0.07483458518981934,0.6169948577880859,-0.6407743692398071
1790266291315566600,1.862566650390625,0.1559460163116455,1.111520767211914,-1.316811203956604
1790266291325566500,1.87256640625,0.5812089443206787,1.7054133415222168,-1.9861863851547241
1790266291335566600,1.882566650390625,1.7948325872421265,2.414431571960449,-2.066282272338867
1790266291345566500,1.89256640625,2.422767400741577,2.982039451599121,-2.1386427879333496
1790266291355566600,1.902566650390625,0.8440099358558655,4.283456802368164,-1.8488119840621948
1790266291365566500,1.91256640625,-1.4094500541687012,7.059892654418945,-1.3911510705947876
1790266291375566600,1.922566650390625,-0.6833070516586304,5.527224063873291,0.6584041118621826
1790266291385566500,1.93256640625,0.6858310699462891,0.04880809783935547,0.9717514514923096
1790266291395566600,1.942566650390625,-0.2387559413909912,-1.6798152923583984,0.6503996849060059
1790266291405566500,1.95256640625,-0.9376087188720703,-0.7402524948120117,0.7713785171508789
1790266291415566600,1.962566650390625,0.08724546432495117,-0.33532238006591797,1.094785213470459
1790266291425566500,1.97256640625,1.3910082578659058,-1.0627412796020508,0.3994166851043701
1790266291435566600,1.982566650390625,1.907860279083252,-2.01962947845459,-0.9499850273132324
1790266291445566500,1.99256640625,-0.08030962944030762,-2.280040740966797,-1.3724528551101685
1790266291455566600,2.002566650390625,-2.51986026763916,-2.4580163955688477,-1.0545978546142578
1790266291465566500,2.01256640625,-3.073105812072754,-1.6430511474609375,-0.08272790908813477
1790266291475566600,2.022566650390625,-1.5113378763198853,0.37067699432373047,0.6910128593444824
1790266291485566500,2.03256640625,0.8825836777687073,1.5535945892333984,0.6370649337768555
1790266291495566600,2.042566650390625,0.9972160458564758,1.2307415008544922,-0.34034252166748047
1790266291505566500,2.05256640625,-1.0608388185501099,0.5003824234008789,-1.1983851194381714
1790266291515566600,2.062566650390625,-0.30083417892456055,-0.10657787322998047,-1.3513894081115723
1790266291525566500,2.07256640625,0.3079308271408081,0.0062160491943359375,-0.5800576210021973
1790266291535566600,2.082566650390625,0.38101232051849365,0.11226558685302734,0.34015488624572754
1790266291545566500,2.09256640625,0.7322739362716675,0.1443042755126953,0.47629761695861816
1790266291555566600,2.102566650390625,0.5468875169754028,0.2956523895263672,0.15097498893737793
1790266291565566500,2.11256640625,0.14490699768066406,0.14996910095214844,0.5727579593658447
1790266291575566600,2.122566650390625,0.7370297908782959,-0.5604677200317383,0.5398209095001221
1790266291585566500,2.13256640625,0.30881214141845703,-1.3900957107543945,-0.16090905666351318
1790266291595566600,2.142566650390625,-2.6124460697174072,-1.417912483215332,-0.9971225261688232
1790266291605566500,2.15256640625,-4.097164630889893,-0.59552001953125,-1.043799877166748
1790266291615566600,2.162566650390625,-1.7682777643203735,0.2373180389404297,-0.45207834243774414
1790266291625566500,2.17256640625,1.3674834966659546,-0.5467758178710938,-0.5827078819274902
1790266291635566600,2.182566650390625,1.1861562728881836,-0.9042501449584961,-0.8684301376342773
1790266291645566500,2.19256640625,2.7595672607421875,1.2969646453857422,0.8928741216659546
1790266291655566600,2.202566650390625,2.805408477783203,1.5511951446533203,2.2417690753936768
1790266291665566500,2.21256640625,-0.38991403579711914,1.4898719787597656,2.053140163421631
1790266291675566600,2.222566650390625,-0.91474449634552,1.738722324371338,0.5996134281158447
1790266291685566500,2.23256640625,-0.1042032241821289,1.8059005737304688,-0.7317891120910645
1790266291695566600,2.242566650390625,1.971604347229004,1.474015235900879,-2.0792593955993652
1790266291705566500,2.25256640625,4.392263412475586,1.253006935119629,-1.2262070178985596
1790266291715566600,2.262566650390625,4.739770412445068,0.09313583374023438,-1.3665225505828857
1790266291725566500,2.27256640625,3.372321128845215,-0.7397661209106445,-1.1226106882095337
1790266291735566600,2.282566650390625,-0.0915185809135437,-2.2236061096191406,-1.8201003074645996
1790266291745566500,2.29256640625,-3.8725781440734863,-3.4087257385253906,-3.2132067680358887
1790266291755566600,2.302566650390625,-5.780231475830078,-4.282629013061523,-4.143726825714111
1790266291765566500,2.31256640625,-6.138893127441406,-3.3107433319091797,-2.7075679302215576
1790266291775566600,2.322566650390625,-6.0096211433410645,-2.088362693786621,-1.548755168914795
1790266291785566500,2.33256640625,-1.1197081804275513,-0.5779266357421875,-0.2881120443344116
1790266291795566600,2.342566650390625,-1.7719831466674805,0.44124507904052734,0.7673734426498413
1790266291805566500,2.35256640625,-0.05838346481323242,2.2774739265441895,-0.2026519477367401
1790266291815566600,2.362566650390625,0.6472080945968628,3.029571533203125,0.5945988297462463
1790266291825566500,2.37256640625,-0.3353118896484375,2.8035898208618164,0.48602741956710815
1790266291835566600,2.382566650390625,-0.6417690515518188,2.3831558227539062,-0.6545051336288452
1790266291845566500,2.39256640625,1.3391398191452026,1.6599273681640625,1.3746812343597412
1790266291855566600,2.402566650390625,1.9705322980880737,1.4850740432739258,2.108579635620117
1790266291865566500,2.41256640625,0.29270052909851074,0.9136390686035156,0.9716552495956421
1790266291875566600,2.422566650390625,-0.9408648014068604,0.07917022705078125,-0.3477974832057953
1790266291885566500,2.43256640625,-1.727118730545044,-0.7120218276977539,-0.8834733366966248
1790266291895566600,2.442566650390625,-1.2822778224945068,-1.8267974853515625,-0.8964541554450989
1790266291905566500,2.45256640625,-1.1024389266967773,-3.7699661254882812,-1.300953984260559
1790266291915566600,2.462566650390625,-0.9035146236419678,-3.1933155059814453,0.11022210121154785
1790266291925566500,2.47256640625,-1.3523606061935425,-1.572962760925293,0.8459141254425049
1790266291935566600,2.482566650390625,-1.2603883743286133,0.2600240707397461,1.0546934604644775
1790266291945566500,2.49256640625,0.0004779696464538574,1.5871410369873047,0.7867943644523621
1790266291955566600,2.502566650390625,1.3397114276885986,0.4700918197631836,0.8051665425300598
1790266291965566500,2.51256640625,-1.1672297716140747,-4.641378402709961,0.34223949909210205
1790266291975566600,2.522566650390625,-1.4430640935897827,-5.309205055236816,0.34966766834259033
1790266291985566500,2.53256640625,-0.040708303451538086,-1.6855688095092773,-0.13774645328521729
1790266291995566600,2.542566650390625,-0.2836228609085083,1.442530632019043,-0.48620396852493286
1790266292005566500,2.55256640625,-2.106738805770874,4.035334587097168,1.2335891723632812
1790266292015566600,2.562566650390625,-2.063927173614502,3.520557403564453,3.5752177238464355
1790266292025566500,2.57256640625,0.6761964559555054,2.2078194618225098,6.1344451904296875
1790266292035566600,2.582566650390625,2.0981602668762207,1.7388172149658203,6.41873836517334
1790266292045566500,2.59256640625,2.4792513847351074,1.5761919021606445,4.635148525238037
1790266292055566600,2.602566650390625,2.4360780715942383,1.8516607284545898,3.0944414138793945
1790266292065566500,2.61256640625,1.3660879135131836,2.819247245788574,3.2482268810272217
1790266292075566600,2.622566650390625,1.1905410289764404,2.50222110748291,2.459465265274048
1790266292085566500,2.63256640625,0.016523122787475586,-1.751786231994629,-0.9529138803482056
1790266292095566600,2.642566650390625,-0.019397974014282227,-10.432564735412598,-3.9366438388824463
1790266292105566500,2.65256640625,-5.826138496398926,-11.542901992797852,-4.342131614685059
1790266292115566600,2.662566650390625,-5.639225006103516,-5.098760604858398,-4.684496879577637
1790266292125566500,2.67256640625,-3.7679014205932617,-1.462057113647461,-3.51318097114563
1790266292135566600,2.682566650390625,-2.5313000679016113,-0.38510608673095703,-2.5964765548706055
1790266292145566500,2.69256640625,-0.28874802589416504,-0.20252418518066406,-1.639631748199463
1790266292155566600,2.702566650390625,0.9069705009460449,-0.8224344253540039,-0.9391088485717773
1790266292165566500,2.71256640625,-1.320188045501709,-0.8652095794677734,-0.042125701904296875
1790266292175566600,2.722566650390625,-2.9861791133880615,-0.3189373016357422,0.6222918033599854
1790266292185566500,2.73256640625,-1.9591107368469238,-0.004796028137207031,0.3523824214935303
1790266292195566600,2.742566650390625,-0.6193935871124268,0.5827951431274414,0.2814919948577881
1790266292205566500,2.75256640625,0.45777034759521484,1.4392728805541992,0.4530510902404785
1790266292215566600,2.762566650390625,2.1691408157348633,3.197585105895996,0.3922309875488281
1790266292225566500,2.77256640625,1.2749278545379639,3.485250473022461,0.2034914493560791
1790266292235566600,2.782566650390625,0.6476726531982422,2.3194990158081055,-0.322098970413208
1790266292245566500,2.79256640625,1.7534377574920654,0.9067001342773438,-0.6345539093017578
1790266292255566600,2.802566650390625,3.8278040885925293,-0.16782188415527344,-1.020200490951538
1790266292265566500,2.81256640625,5.140941619873047,-1.4341459274291992,-1.289790153503418
1790266292275566600,2.822566650390625,5.093053817749023,-2.650265693664551,-2.2570762634277344
1790266292285566500,2.83256640625,3.4366893768310547,-4.365994453430176,-5.164400577545166
1790266292295566600,2.842566650390625,0.8923549652099609,-6.789760589599609,-9.969059944152832
1790266292305566500,2.85256640625,-2.3230528831481934,-7.82199764251709,-12.37578296661377
1790266292315566600,2.862566650390625,-3.9518051147460938,-5.68610954284668,-7.529349327087402
1790266292325566500,2.87256640625,-2.5343494415283203,-4.040409564971924,-1.120395302772522
1790266292335566600,2.882566650390625,-3.118743419647217,-3.022207260131836,4.395005702972412
1790266292345566500,2.89256640625,-1.7305631637573242,-1.4854001998901367,5.389522552490234
1790266292355566600,2.902566650390625,-0.2561368942260742,0.08978033065795898,5.749214172363281
1790266292365566500,2.91256640625,-1.3624300956726074,1.1314034461975098,5.43278169631958
1790266292375566600,2.922566650390625,-1.893354892730713,1.5523285865783691,3.111318349838257
1790266292385566500,2.93256640625,-2.0318169593811035,1.595588207244873,1.034862756729126
1790266292395566600,2.942566650390625,-1.7897467613220215,1.3685755729675293,0.9014606475830078
1790266292405566500,2.95256640625,-0.3967013359069824,0.9722690582275391,1.291745901107788
1790266292415566600,2.962566650390625,0.864224910736084,0.5723309516906738,1.8176429271697998
1790266292425566500,2.97256640625,0.6529288291931152,0.22357416152954102,2.151878833770752
1790266292435566600,2.982566650390625,-0.2660188674926758,-0.13232707977294922,2.023747444152832
1790266292445566500,2.99256640625,-0.37635087966918945,-0.6562032699584961,1.5686033964157104
1790266292455566600,3.002566650390625,0.1748652458190918,-1.1808090209960938,1.2266567945480347
1790266292465566500,3.01256640625,0.11620712280273438,-1.4771757125854492,1.2824679613113403
1790266292475566600,3.022566650390625,-0.33049964904785156,-1.6664204597473145,1.5396300554275513
1790266292485566500,3.03256640625,-0.47666358947753906,-1.6802000999450684,1.8219879865646362
1790266292495566600,3.042566650390625,-0.5378918647766113,-1.3122305870056152,2.1367270946502686
1790266292505566500,3.05256640625,-0.31323814392089844,-0.6439270973205566,2.401681900024414
1790266292515566600,3.062566650390625,0.1169576644897461,0.1674513816833496,2.4240031242370605
1790266292525566500,3.07256640625,0.2536435127258301,0.8980307579040527,2.227546215057373
1790266292535566600,3.082566650390625,0.4301900863647461,1.248457431793213,2.1388587951660156
1790266292545566500,3.09256640625,0.5220718383789062,1.1346745491027832,2.0406317710876465
1790266292555566600,3.102566650390625,0.020272254943847656,0.7062511444091797,1.7134252786636353
1790266292565566500,3.11256640625,-0.2025918960571289,0.24569129943847656,1.457146167755127
1790266292575566600,3.122566650390625,0.3046903610229492,0.050444602966308594,1.3922784328460693
1790266292585566500,3.13256640625,0.43179798126220703,0.09032821655273438,1.6515616178512573
1790266292595566600,3.142566650390625,-0.35328006744384766,0.16668462753295898,1.7227098941802979
1790266292605566500,3.15256640625,-1.1672163009643555,0.1145787239074707,1.3827283382415771
1790266292615566600,3.162566650390625,-1.3587570190429688,-0.21695423126220703,1.1443603038787842
1790266292625566500,3.17256640625,-0.40100860595703125,-0.7361266613006592,1.3453961610794067
1790266292635566600,3.182566650390625,1.146388053894043,-1.0439510345458984,1.423005223274231
1790266292645566500,3.19256640625,2.0652694702148438,-1.1425807476043701,1.2303786277770996
1790266292655566600,3.202566650390625,1.5695953369140625,-1.0250461101531982,0.7132043242454529
1790266292665566500,3.21256640625,0.8896589279174805,-0.8758325576782227,0.15109211206436157
1790266292675566600,3.222566650390625,0.9118213653564453,-0.9802606105804443,-0.2431793212890625
1790266292685566500,3.23256640625,1.4464454650878906,-1.1651191711425781,-0.19382333755493164
1790266292695566600,3.242566650390625,1.618403434753418,-1.1183435916900635,0.30085617303848267
1790266292705566500,3.25256640625,1.3344202041625977,-1.0297012329101562,0.4062049388885498
1790266292715566600,3.262566650390625,1.4581451416015625,-1.1489708423614502,0.10603475570678711
1790266292725566500,3.27256640625,2.557694435119629,-1.288806438446045,0.10797366499900818
1790266292735566600,3.282566650390625,3.5275092124938965,-1.3122291564941406,0.24922695755958557
1790266292745566500,3.29256640625,3.50972843170166,-1.2399823665618896,-0.2210114300251007
1790266292755566600,3.302566650390625,3.115860939025879,-0.9479713439941406,-1.3851439952850342
1790266292765566500,3.31256640625,3.0368385314941406,-0.5798780918121338,-2.171271800994873
1790266292775566600,3.322566650390625,3.030069351196289,-0.260898232460022,-2.313124895095825
1790266292785566500,3.33256640625,2.6881275177001953,-0.07224667072296143,-2.2786731719970703
1790266292795566600,3.342566650390625,3.038987159729004,0.24137890338897705,-2.1304914951324463
1790266292805566500,3.35256640625,3.3632640838623047,0.841584324836731,-1.9820306301116943
1790266292815566600,3.362566650390625,2.4521636962890625,1.7722859382629395,-1.903320550918579
1790266292825566500,3.37256640625,1.7153053283691406,2.5921201705932617,-1.6149718761444092
1790266292835566600,3.382566650390625,1.6076488494873047,3.142658233642578,-0.8915959596633911
1790266292845566500,3.39256640625,1.605027198791504,2.7507028579711914,0.2987021207809448
1790266292855566600,3.402566650390625,1.8447561264038086,1.3183257579803467,1.110224962234497
1790266292865566500,3.41256640625,1.3944644927978516,-0.32401978969573975,1.2988393306732178
1790266292875566600,3.422566650390625,0.7786474227905273,-1.561950445175171,1.5493584871292114
1790266292885566500,3.43256640625,1.220785140991211,-2.2684717178344727,1.958208680152893
1790266292895566600,3.442566650390625,1.3610420227050781,-2.1905174255371094,1.4194257259368896
1790266292905566500,3.45256640625,0.48624324798583984,-1.1240695714950562,0.23767180740833282
1790266292915566600,3.462566650390625,1.1694297790527344,-0.10938173532485962,0.20706303417682648
1790266292925566500,3.47256640625,2.1004858016967773,0.4518220126628876,0.5559450387954712
1790266292935566600,3.482566650390625,1.7940034866333008,0.9309267997741699,0.4509831666946411
1790266292945566500,3.49256640625,2.028143882751465,1.0732457637786865,0.6373788118362427
1790266292955566600,3.502566650390625,3.0060386657714844,0.8920461535453796,1.0266692638397217
1790266292965566500,3.51256640625,3.2710695266723633,0.6259944438934326,0.6518513560295105
1790266292975566600,3.522566650390625,3.0471296310424805,0.5504182577133179,-0.4084417223930359
1790266292985566500,3.53256640625,2.971329689025879,0.535067081451416,-0.8462909460067749
1790266292995566600,3.542566650390625,3.568190574645996,0.41787588596343994,-0.4254767894744873
1790266293005566500,3.55256640625,4.408499717712402,0.36109113693237305,-0.1895957589149475
1790266293015566600,3.562566650390625,4.631130218505859,0.7012472748756409,-0.2078946828842163
1790266293025566500,3.57256640625,4.16566276550293,1.2875845432281494,-0.6672543287277222
1790266293035566600,3.582566650390625,2.9049181938171387,1.8368022441864014,-1.089066982269287
1790266293045566500,3.59256640625,1.9800658226013184,2.0837583541870117,-0.7571603059768677
1790266293055566600,3.602566650390625,1.9772419929504395,1.9139809608459473,-0.05019533634185791
1790266293065566500,3.61256640625,1.5143699645996094,1.5062730312347412,-0.11520785093307495
1790266293075566600,3.622566650390625,1.0346450805664062,1.0343559980392456,-0.3998624086380005
1790266293085566500,3.63256640625,1.224111557006836,0.6989970207214355,-0.33065366744995117
1790266293095566600,3.642566650390625,0.8635377883911133,0.5218478441238403,-0.11626684665679932
1790266293105566500,3.65256640625,0.26061534881591797,0.3668813705444336,0.0944974422454834
1790266293115566600,3.662566650390625,-0.1305694580078125,0.19017338752746582,0.14249038696289062
1790266293125566500,3.67256640625,-0.7173967361450195,-0.15856003761291504,-0.07456958293914795
1790266293135566600,3.682566650390625,-0.7811212539672852,-0.7224545478820801,-0.6690455675125122
1790266293145566500,3.69256640625,0.5111885070800781,-1.2133004665374756,-1.1416759490966797
1790266293155566600,3.702566650390625,2.1312732696533203,-1.4967594146728516,-1.327404260635376
1790266293165566500,3.71256640625,2.7642626762390137,-1.5308165550231934,-1.6965222358703613
1790266293175566600,3.722566650390625,2.922236442565918,-1.390489101409912,-2.047427177429199
1790266293185566500,3.73256640625,2.239633083343506,-1.0861866474151611,-2.1239116191864014
1790266293195566600,3.742566650390625,0.3917417526245117,-0.6504545211791992,-2.131876230239868
1790266293205566500,3.75256640625,-0.38741207122802734,-0.06072092056274414,-2.107490062713623
1790266293215566600,3.762566650390625,-0.558659553527832,0.7206125259399414,-2.153599262237549
1790266293225566500,3.77256640625,-0.790919303894043,1.510396957397461,-2.5557150840759277
1790266293235566600,3.782566650390625,-0.09961843490600586,2.0232834815979004,-2.8986456394195557
1790266293245566500,3.79256640625,0.9439024925231934,2.2268571853637695,-3.021019458770752
1790266293255566600,3.802566650390625,1.034679889678955,2.111201763153076,-2.9507627487182617
1790266293265566500,3.81256640625,0.6235694885253906,1.614790439605713,-2.7540807723999023
1790266293275566600,3.822566650390625,0.30023956298828125,0.848762035369873,-2.521358013153076
1790266293285566500,3.83256640625,0.09485578536987305,-0.04821300506591797,-2.408500909805298
1790266293295566600,3.842566650390625,0.19106292724609375,-1.0177311897277832,-2.3882105350494385
1790266293305566500,3.85256640625,0.28185510635375977,-1.7981977462768555,-2.367762327194214
1790266293315566600,3.862566650390625,-0.13859987258911133,-2.3157825469970703,-2.3293275833129883
1790266293325566500,3.87256640625,-0.7930192947387695,-2.5250582695007324,-2.1437411308288574
1790266293335566600,3.882566650390625,-1.002072811126709,-2.4985947608947754,-1.8077778816223145
1790266293345566500,3.89256640625,-1.1820807456970215,-2.170753002166748,-1.4389218091964722
1790266293355566600,3.902566650390625,-1.5537548065185547,-1.7205438613891602,-0.9419243335723877
1790266293365566500,3.91256640625,-2.1051230430603027,-1.198859691619873,-0.45337724685668945
1790266293375566600,3.922566650390625,-2.471012592315674,-0.7444615364074707,0.044400691986083984
1790266293385566500,3.93256640625,-3.3123621940612793,-0.765810489654541,0.2575113773345947
1790266293395566600,3.942566650390625,-3.631265640258789,-1.3801264762878418,0.20559215545654297
1790266293405566500,3.95256640625,-3.1211490631103516,-2.215874671936035,-0.32851099967956543
1790266293415566600,3.962566650390625,-3.4489593505859375,-3.283167839050293,-0.8955464363098145
1790266293425566500,3.97256640625,-3.5501341819763184,-4.586673736572266,-0.7277967929840088
1790266293435566600,3.982566650390625,-3.268458366394043,-5.778424263000488,-0.15147614479064941
1790266293445566500,3.99256640625,-3.6787009239196777,-6.7870283126831055,0.5768237113952637
1790266293455566600,4.002566650390625,-3.1653757095336914,-7.375522613525391,1.2622566223144531
1790266293465566500,4.01256640625,-1.591897964477539,-6.949429512023926,1.8139939308166504
1790266293475566600,4.022566650390625,-1.575948715209961,-5.600676536560059,2.0886025428771973
1790266293485566500,4.03256640625,-2.5539350509643555,-3.8522701263427734,2.0030529499053955
1790266293495566600,4.042566650390625,-2.658437728881836,-1.7762107849121094,1.86018967628479
1790266293505566500,4.05256640625,-1.903395652770996,0.41597461700439453,1.6831769943237305
1790266293515566600,4.062566650390625,-1.1941661834716797,2.3202905654907227,1.522406816482544
1790266293525566500,4.07256640625,-0.9515328407287598,3.815502166748047,1.5621716976165771
1790266293535566600,4.082566650390625,-1.134721279144287,4.954261302947998,1.3748481273651123
1790266293545566500,4.09256640625,-1.6459369659423828,5.671296119689941,1.003194808959961
1790266293555566600,4.102566650390625,-1.7278614044189453,5.712158203125,0.48784470558166504
1790266293565566500,4.11256640625,-1.7850470542907715,4.877929210662842,-0.37383031845092773
1790266293575566600,4.122566650390625,-2.631624221801758,3.3782248497009277,-1.24543035030365
1790266293585566500,4.13256640625,-3.7120795249938965,1.4835362434387207,-1.7188661098480225
1790266293595566600,4.142566650390625,-4.258462905883789,-0.532191276550293,-1.6679503917694092
1790266293605566500,4.15256640625,-4.259093284606934,-2.486752510070801,-1.1260336637496948
1790266293615566600,4.162566650390625,-4.282050609588623,-4.166590690612793,-0.6076123714447021
1790266293625566500,4.17256640625,-3.2390379905700684,-5.282247543334961,-0.43086671829223633
1790266293635566600,4.182566650390625,-1.358901023864746,-5.508434295654297,-0.6708939075469971
1790266293645566500,4.19256640625,-0.4241485595703125,-4.94019889831543,-0.8213515281677246
1790266293655566600,4.202566650390625,-0.31538867950439453,-3.881028175354004,-0.7194883823394775
1790266293665566500,4.21256640625,-0.7179770469665527,-3.030284881591797,-0.4159836769104004
1790266293675566600,4.222566650390625,-1.2535605430603027,-2.5926637649536133,0.07055175304412842
1790266293685566500,4.23256640625,-1.5321378707885742,-2.6246681213378906,0.8474724292755127
1790266293695566600,4.242566650390625,-1.7264480590820312,-2.9149913787841797,1.7565951347351074
1790266293705566500,4.25256640625,-2.0107693672180176,-3.4583206176757812,1.9245014190673828
1790266293715566600,4.262566650390625,-1.959505558013916,-3.7499046325683594,1.644719123840332
1790266293725566500,4.27256640625,-1.9953536987304688,-3.1343584060668945,1.5344691276550293
1790266293735566600,4.282566650390625,-2.3650875091552734,-2.113064765930176,1.716433048248291
1790266293745566500,4.29256640625,-2.137681484222412,-1.3717155456542969,1.9164998531341553
1790266293755566600,4.302566650390625,-0.6674528121948242,-1.064164161682129,1.8756628036499023
1790266293765566500,4.31256640625,0.949676513671875,-0.7268128395080566,1.7940070629119873
1790266293775566600,4.322566650390625,1.4872207641601562,-0.1842794418334961,1.4323043823242188
1790266293785566500,4.33256640625,0.867802619934082,0.5485119819641113,0.613257884979248
1790266293795566600,4.342566650390625,0.36630773544311523,1.276939868927002,-0.41058290004730225
1790266293805566500,4.35256640625,0.7757010459899902,1.9917373657226562,-0.9826874732971191
1790266293815566600,4.362566650390625,1.5294160842895508,2.4196009635925293,-0.653526782989502
1790266293825566500,4.37256640625,1.9704957008361816,2.6536073684692383,0.21314799785614014
1790266293835566600,4.382566650390625,1.334228515625,2.6776371002197266,0.6473836898803711
1790266293845566500,4.39256640625,-0.20805740356445312,2.484377861022949,0.2766681909561157
1790266293855566600,4.402566650390625,-1.630256175994873,1.9221677780151367,-0.07057344913482666
1790266293865566500,4.41256640625,-1.9976825714111328,0.8742594718933105,0.01708042621612549
1790266293875566600,4.422566650390625,-1.5518436431884766,-0.25307750701904297,0.4450021982192993
1790266293885566500,4.43256640625,-1.4571137428283691,-1.0516400337219238,0.6170437335968018
1790266293895566600,4.442566650390625,-1.909524917602539,-1.45872163772583,0.27332961559295654
1790266293905566500,4.45256640625,-2.3693408966064453,-1.7606592178344727,-0.1381129026412964
1790266293915566600,4.462566650390625,-2.225937843322754,-2.283695697784424,0.0550997257232666
1790266293925566500,4.47256640625,-0.5278215408325195,-2.6804418563842773,0.8303155899047852
1790266293935566600,4.482566650390625,0.8685493469238281,-2.6302971839904785,1.640871524810791
1790266293945566500,4.49256640625,0.06439447402954102,-1.8290963172912598,2.21700382232666
1790266293955566600,4.502566650390625,-1.9327812194824219,-0.4752364158630371,1.813987374305725
1790266293965566500,4.51256640625,-3.0448503494262695,0.22011518478393555,1.5234687328338623
1790266293975566600,4.522566650390625,-1.8804502487182617,-0.028357982635498047,1.7442853450775146
1790266293985566500,4.53256640625,0.05258655548095703,-0.7796411514282227,2.2422971725463867
1790266293995566600,4.542566650390625,0.6941556930541992,-1.5659904479980469,2.362764358520508
1790266294005566500,4.55256640625,0.34552860260009766,-2.1929879188537598,2.270596504211426
1790266294015566600,4.562566650390625,-0.24193572998046875,-2.6826930046081543,2.1901931762695312
1790266294025566500,4.57256640625,-0.7500009536743164,-3.0469446182250977,1.9869639873504639
1790266294035566600,4.582566650390625,-0.6761293411254883,-3.252562999725342,1.746381163597107
1790266294045566500,4.59256640625,0.5929222106933594,-3.2143173217773438,1.8249775171279907
1790266294055566600,4.602566650390625,1.685816764831543,-2.749187469482422,2.0812509059906006
1790266294065566500,4.61256640625,2.1808104515075684,-1.8305864334106445,1.9206663370132446
1790266294075566600,4.622566650390625,2.3293237686157227,-0.8186790943145752,1.7479193210601807
1790266294085566500,4.63256640625,2.114391326904297,0.08873796463012695,1.2628211975097656
1790266294095566600,4.642566650390625,1.897186279296875,0.6738772392272949,0.6415529847145081
1790266294105566500,4.65256640625,1.3570756912231445,0.9698717594146729,-0.06411939859390259
1790266294115566600,4.662566650390625,1.3931236267089844,0.8519768714904785,-0.4519057869911194
1790266294125566500,4.67256640625,1.7095084190368652,0.5919194221496582,-0.6315370798110962
1790266294135566600,4.682566650390625,1.8426518440246582,0.10596418380737305,-0.6635788679122925
1790266294145566500,4.69256640625,2.1955032348632812,-0.3846735954284668,-0.5913827419281006
1790266294155566600,4.702566650390625,2.632631301879883,-0.8515796661376953,-0.1970587968826294
1790266294165566500,4.71256640625,2.269378185272217,-1.1466784477233887,0.321321964263916
1790266294175566600,4.722566650390625,1.7415785789489746,-1.3000233173370361,0.7970561981201172
1790266294185566500,4.73256640625,2.0279273986816406,-1.3750404119491577,0.6943835616111755
1790266294195566600,4.742566650390625,1.8614730834960938,-1.3403258323669434,0.48068878054618835
1790266294205566500,4.75256640625,1.925835132598877,-1.2427252531051636,0.4863488972187042
1790266294215566600,4.762566650390625,3.262704849243164,-0.9073230028152466,0.9105199575424194
1790266294225566500,4.77256640625,3.858043670654297,-0.5207940340042114,1.0230202674865723
1790266294235566600,4.782566650390625,3.3444676399230957,-0.14866375923156738,1.0651495456695557
1790266294245566500,4.79256640625,3.9153900146484375,0.47569048404693604,0.8376131057739258
1790266294255566600,4.802566650390625,4.734857559204102,1.5106515884399414,-0.20989374816417694
1790266294265566500,4.81256640625,4.437263011932373,2.2246336936950684,-0.8126804828643799
1790266294275566600,4.822566650390625,3.752516746520996,2.240250587463379,-1.3267446756362915
1790266294285566500,4.83256640625,1.9147109985351562,2.1756539344787598,-2.3239827156066895
1790266294295566600,4.842566650390625,1.881871223449707,1.7039718627929688,-2.282335042953491
1790266294305566500,4.85256640625,3.441953659057617,0.7685345411300659,-1.667704463005066
1790266294315566600,4.862566650390625,2.7130093574523926,-0.14863300323486328,-1.3650143146514893
1790266294325566500,4.87256640625,1.1425485610961914,-0.683998167514801,-0.4234246015548706
1790266294335566600,4.882566650390625,0.08406257629394531,-0.825302243232727,0.28454965353012085
1790266294345566500,4.89256640625,-0.36639881134033203,-0.7937511801719666,0.3527838885784149
1790266294355566600,4.902566650390625,0.5481538772583008,-0.4529791474342346,0.9796054363250732
1790266294365566500,4.91256640625,2.35504150390625,0.025593101978302002,1.8187832832336426
1790266294375566600,4.922566650390625,4.685878276824951,-0.03756898641586304,1.7777819633483887
1790266294385566500,4.93256640625,5.497742652893066,0.1201525330543518,0.5120164155960083
1790266294395566600,4.942566650390625,4.505390644073486,0.7949903011322021,-0.8657023906707764
1790266294405566500,4.95256640625,2.5920848846435547,1.674403429031372,-1.902537226676941
1790266294415566600,4.962566650390625,1.6752939224243164,2.3016695976257324,-1.830353021621704
1790266294425566500,4.97256640625,2.868785858154297,2.5153307914733887,-0.5120195150375366
1790266294435566600,4.982566650390625,4.323122024536133,2.476020574569702,0.8608054518699646
1790266294445566500,4.99256640625,4.129116058349609,2.7513744831085205,1.2702126502990723
1790266294455566600,5.002566650390625,2.844964027404785,3.268247365951538,1.4038536548614502
1790266294465566500,5.01256640625,1.6401233673095703,3.4736709594726562,1.6092042922973633
1790266294475566600,5.022566650390625,0.8850221633911133,3.1848223209381104,1.7085875272750854
1790266294485566500,5.03256640625,0.9176702499389648,2.481565475463867,1.8109979629516602
1790266294495566600,5.042566650390625,2.0194692611694336,1.6092758178710938,2.1165716648101807
1790266294505566500,5.05256640625,3.5602517127990723,0.7768998146057129,2.1103506088256836
1790266294515566600,5.062566650390625,4.20488166809082,0.06932258605957031,1.7103992700576782
1790266294525566500,5.07256640625,3.5624847412109375,-0.5421617031097412,1.2213460206985474
1790266294535566600,5.082566650390625,2.526947498321533,-1.0478663444519043,0.6467956304550171
1790266294545566500,5.09256640625,2.351104736328125,-1.3502624034881592,0.22583258152008057
1790266294555566600,5.102566650390625,3.706195831298828,-1.3188433647155762,-0.015763282775878906
1790266294565566500,5.11256640625,5.843195915222168,-0.9169659614562988,-0.23317718505859375
1790266294575566600,5.122566650390625,6.444547653198242,-0.32971954345703125,-0.652599036693573
1790266294585566500,5.13256640625,4.085973262786865,0.24935102462768555,-1.5232350826263428
1790266294595566600,5.142566650390625,-1.4162025451660156,0.79595947265625,-2.2954797744750977
1790266294605566500,5.15256640625,-5.772433280944824,1.278904676437378,-2.52565336227417
1790266294615566600,5.162566650390625,-4.674334526062012,1.692307472229004,-2.4009294509887695
1790266294625566500,5.17256640625,-1.4869194030761719,2.151693820953369,-2.4295835494995117
1790266294635566600,5.182566650390625,-0.10390233993530273,2.450434684753418,-2.2012851238250732
1790266294645566500,5.19256640625,-0.11783123016357422,2.3697588443756104,-1.7335164546966553
1790266294655566600,5.202566650390625,-1.0116000175476074,1.6098313331604004,-0.9475469589233398
1790266294665566500,5.21256640625,-2.4355382919311523,0.07017660140991211,0.06091451644897461
1790266294675566600,5.222566650390625,-2.4557580947875977,-1.8703632354736328,0.5913715362548828
1790266294685566500,5.23256640625,-1.1460189819335938,-3.707597255706787,0.2824399471282959
1790266294695566600,5.242566650390625,0.20902538299560547,-4.8609161376953125,-0.2550241947174072
1790266294705566500,5.25256640625,0.8500232696533203,-5.91245698928833,-0.26890063285827637
1790266294715566600,5.262566650390625,-0.19330263137817383,-6.805409908294678,0.11220026016235352
1790266294725566500,5.27256640625,-1.8015437126159668,-6.994399547576904,0.6874215602874756
1790266294735566600,5.282566650390625,-1.1937241554260254,-6.157618045806885,1.1164820194244385
1790266294745566500,5.29256640625,0.06009674072265625,-4.653470516204834,0.8480086326599121
1790266294755566600,5.302566650390625,0.1967320442199707,-3.0932745933532715,0.08532571792602539
1790266294765566500,5.31256640625,-0.46260738372802734,-1.7039928436279297,-0.2285977602005005
1790266294775566600,5.322566650390625,-0.8471107482910156,-0.582420825958252,0.15517306327819824
1790266294785566500,5.33256640625,-0.9489469528198242,0.3920612335205078,0.4492781162261963
1790266294795566600,5.342566650390625,-1.1926708221435547,1.0221343040466309,0.6211951971054077
1790266294805566500,5.35256640625,-1.5378828048706055,1.2827849388122559,0.8442318439483643
1790266294815566600,5.362566650390625,-1.4641342163085938,1.2310824394226074,0.9808404445648193
1790266294825566500,5.37256640625,-1.3624730110168457,1.0030441284179688,0.904788613319397
1790266294835566600,5.382566650390625,-1.1237168312072754,0.6164627075195312,0.7566334009170532
1790266294845566500,5.39256640625,-1.3274946212768555,0.2393207550048828,0.3332434892654419
1790266294855566600,5.402566650390625,-1.9040298461914062,-0.017147064208984375,-0.2675532102584839
1790266294865566500,5.41256640625,-2.8658957481384277,-0.2519407272338867,-0.5570392608642578
1790266294875566600,5.422566650390625,-3.6225404739379883,-0.6242694854736328,-0.36607885360717773
1790266294885566500,5.43256640625,-4.084598064422607,-1.2578773498535156,0.05111420154571533
1790266294895566600,5.442566650390625,-4.383040428161621,-2.211581230163574,0.6436470746994019
1790266294905566500,5.45256640625,-4.729599475860596,-3.577199935913086,1.8495514392852783
1790266294915566600,5.462566650390625,-3.7877297401428223,-4.914318084716797,2.83385968208313
1790266294925566500,5.47256640625,-2.3236732482910156,-5.3440446853637695,2.760434627532959
1790266294935566600,5.482566650390625,-1.0860347747802734,-4.5600128173828125,2.1389153003692627
1790266294945566500,5.49256640625,-0.5759191513061523,-3.1184587478637695,1.465712547302246
1790266294955566600,5.502566650390625,-1.0043492317199707,-1.7584037780761719,0.6890932321548462
1790266294965566500,5.51256640625,-1.2623109817504883,-0.8157033920288086,0.14230799674987793
1790266294975566600,5.522566650390625,-0.724158763885498,-0.28897571563720703,-0.1882389783859253
1790266294985566500,5.53256640625,-0.21624994277954102,-0.05497169494628906,-0.39291632175445557
1790266294995566600,5.542566650390625,0.1628403663635254,-0.06296348571777344,-0.37793660163879395
1790266295005566500,5.55256640625,0.3993511199951172,-0.1434774398803711,-0.2312396764755249
1790266295015566600,5.562566650390625,0.21539878845214844,-0.17493152618408203,0.10325872898101807
1790266295025566500,5.57256640625,0.0030059814453125,-0.07833576202392578,0.3353012800216675
1790266295035566600,5.582566650390625,-0.16399192810058594,0.012182235717773438,0.2522740364074707
1790266295045566500,5.59256640625,-0.5299158096313477,-0.06337642669677734,0.08900368213653564
1790266295055566600,5.602566650390625,-0.897315502166748,-0.3430137634277344,-0.20934808254241943
1790266295065566500,5.61256640625,-1.3746895790100098,-0.7917861938476562,-0.3995990753173828
1790266295075566600,5.622566650390625,-2.034846782684326,-1.4132757186889648,-0.2862433195114136
1790266295085566500,5.63256640625,-2.403738498687744,-2.0302181243896484,0.13525032997131348
1790266295095566600,5.642566650390625,-2.0574193000793457,-2.3013830184936523,0.7041796445846558
1790266295105566500,5.65256640625,-1.2112760543823242,-1.9836945533752441,1.0978494882583618
1790266295115566600,5.662566650390625,-0.7423272132873535,-1.3027949333190918,1.084243893623352
1790266295125566500,5.67256640625,-0.6158585548400879,-0.5096650123596191,0.7724912166595459
1790266295135566600,5.682566650390625,-0.570314884185791,0.1852703094482422,0.36481404304504395
1790266295145566500,5.69256640625,-0.3032112121582031,0.6448760032653809,-0.3014700412750244
1790266295155566600,5.702566650390625,0.10163116455078125,0.8707151412963867,-1.041574478149414
1790266295165566500,5.71256640625,-0.19014787673950195,0.8428630828857422,-1.4623289108276367
1790266295175566600,5.722566650390625,-0.9752941131591797,0.43718624114990234,-1.5412147045135498
1790266295185566500,5.73256640625,-2.3411550521850586,-0.3098297119140625,-1.3327219486236572
1790266295195566600,5.742566650390625,-3.719841957092285,-1.084061622619629,-0.7151319980621338
1790266295205566500,5.75256640625,-3.046903610229492,-1.9465579986572266,0.07694506645202637
1790266295215566600,5.762566650390625,-0.691248893737793,-2.498669147491455,0.820683479309082
1790266295225566500,5.77256640625,0.44196462631225586,-2.644042491912842,1.6392407417297363
1790266295235566600,5.782566650390625,-0.3273935317993164,-2.425490379333496,2.318805456161499
1790266295245566500,5.79256640625,-1.3796424865722656,-1.8625292778015137,1.9922668933868408
1790266295255566600,5.802566650390625,-2.1661977767944336,-1.3463006019592285,1.250704050064087
1790266295265566500,5.81256640625,-1.943493366241455,-1.329695701599121,0.9780547618865967
1790266295275566600,5.822566650390625,-0.8785781860351562,-1.5368695259094238,0.8467049598693848
1790266295285566500,5.83256640625,-0.27344608306884766,-1.5976018905639648,0.5264770984649658
1790266295295566600,5.842566650390625,-0.37101030349731445,-1.487720012664795,0.0499110221862793
1790266295305566500,5.85256640625,-0.6666665077209473,-1.280771255493164,-0.3965449333190918
1790266295315566600,5.862566650390625,-0.9564990997314453,-1.0252513885498047,-0.7154867649078369
1790266295325566500,5.87256640625,-0.7170133590698242,-0.8154616355895996,-0.7374484539031982
1790266295335566600,5.882566650390625,-0.13533401489257812,-0.5271735191345215,-0.4856107234954834
1790266295345566500,5.89256640625,-0.07577228546142578,-0.1801447868347168,0.06233394145965576
1790266295355566600,5.902566650390625,-0.8198175430297852,0.051878929138183594,0.48793303966522217
1790266295365566500,5.91256640625,-0.6775407791137695,0.13244247436523438,0.3656219244003296
1790266295375566600,5.922566650390625,0.6625862121582031,0.053255558013916016,-0.3840256929397583
1790266295385566500,5.93256640625,1.1035585403442383,-0.48872804641723633,-0.6590613126754761
1790266295395566600,5.942566650390625,0.9697475433349609,-0.7854795455932617,-0.4229964017868042
1790266295405566500,5.95256640625,0.01493072509765625,-0.8572289943695068,-0.3268519639968872
1790266295415566600,5.962566650390625,-1.0827255249023438,-1.0051214694976807,-0.22400522232055664
1790266295425566500,5.97256640625,-0.9584579467773438,-1.389517068862915,0.11328566074371338
1790266295435566600,5.982566650390625,0.8540878295898438,-1.9768412113189697,0.6828457117080688
1790266295445566500,5.99256640625,2.8785195350646973,-2.5061774253845215,1.05679190158844
1790266295455566600,6.002566650390625,3.117067337036133,-2.634823799133301,0.9373214244842529
1790266295465566500,6.01256640625,2.000765800476074,-2.369884490966797,0.3885089159011841
1790266295475566600,6.022566650390625,0.9228687286376953,-1.9542481899261475,-0.39157915115356445
1790266295485566500,6.03256640625,0.6989107131958008,-1.5029287338256836,-0.702223539352417
1790266295495566600,6.042566650390625,1.7896814346313477,-1.1671648025512695,-0.46165138483047485
1790266295505566500,6.05256640625,3.3214921951293945,-0.8068684339523315,-0.14094603061676025
1790266295515566600,6.062566650390625,3.0011096000671387,-0.18421578407287598,-0.02769458293914795
1790266295525566500,6.07256640625,1.5816898345947266,0.43930625915527344,-0.10945439338684082
1790266295535566600,6.082566650390625,1.1308202743530273,0.9308342933654785,-0.3572428822517395
1790266295545566500,6.09256640625,2.884366035461426,1.1359868049621582,0.09173274040222168
1790266295555566600,6.102566650390625,4.9619598388671875,1.054530382156372,0.5310355424880981
1790266295565566500,6.11256640625,5.032661437988281,1.0145217180252075,0.13228380680084229
1790266295575566600,6.122566650390625,4.460941314697266,1.1096572875976562,-0.47425490617752075
1790266295585566500,6.13256640625,4.089967727661133,1.1374576091766357,-1.3223564624786377
1790266295595566600,6.142566650390625,3.471714973449707,1.1285247802734375,-2.085726261138916
1790266295605566500,6.15256640625,4.125706195831299,1.1344068050384521,-1.874272108078003
1790266295615566600,6.162566650390625,4.780768394470215,1.2449853420257568,-1.8707447052001953
1790266295625566500,6.17256640625,3.505565643310547,1.4757931232452393,-2.1737561225891113
1790266295635566600,6.182566650390625,3.109264373779297,1.4186766147613525,-1.8080074787139893
1790266295645566500,6.19256640625,4.031729698181152,1.1248385906219482,-1.196324348449707
1790266295655566600,6.202566650390625,4.430145740509033,1.3225395679473877,-0.5799568891525269
1790266295665566500,6.21256640625,4.2608466148376465,1.7908382415771484,-0.2555297613143921
1790266295675566600,6.222566650390625,2.9063358306884766,2.3834519386291504,-1.1065342426300049
1790266295685566500,6.23256640625,1.7476806640625,2.5493338108062744,-1.499388575553894
1790266295695566600,6.242566650390625,1.7811527252197266,2.25356388092041,-1.2507827281951904
1790266295705566500,6.25256640625,1.8727188110351562,2.0416982173919678,-0.8474257588386536
1790266295715566600,6.262566650390625,2.527334690093994,1.677001953125,0.04340553283691406
1790266295725566500,6.27256640625,3.289092540740967,1.2813339233398438,0.7278622388839722
1790266295735566600,6.282566650390625,3.387632369995117,1.1059577465057373,0.5457727909088135
1790266295745566500,6.29256640625,2.594498634338379,1.1386051177978516,-0.031079530715942383
1790266295755566600,6.302566650390625,1.8473377227783203,1.0841097831726074,-0.5276161432266235
1790266295765566500,6.31256640625,0.7016439437866211,0.8827433586120605,-0.9766035079956055
1790266295775566600,6.322566650390625,0.7693901062011719,0.5175158977508545,-0.593220591545105
1790266295785566500,6.33256640625,1.2604122161865234,0.1615288257598877,0.03642416000366211
1790266295795566600,6.342566650390625,1.5673694610595703,-0.03941226005554199,0.13780713081359863
1790266295805566500,6.35256640625,1.2918376922607422,-0.20473861694335938,0.268237829208374
1790266295815566600,6.362566650390625,0.6048908233642578,-0.43979573249816895,0.22600960731506348
1790266295825566500,6.37256640625,0.9931516647338867,-0.5651812553405762,-0.30159974098205566
1790266295835566600,6.382566650390625,1.922393798828125,-0.4373798370361328,-0.6533905267715454
1790266295845566500,6.39256640625,2.400517463684082,-0.17410969734191895,-0.7056412696838379
1790266295855566600,6.402566650390625,2.639554023742676,0.11965155601501465,-0.9113664627075195
1790266295865566500,6.41256640625,1.9388799667358398,0.2601802349090576,-1.2717382907867432
1790266295875566600,6.422566650390625,0.37716102600097656,0.23774218559265137,-1.4148640632629395
1790266295885566500,6.43256640625,0.1978921890258789,0.1824970245361328,-1.4413175582885742
1790266295895566600,6.442566650390625,0.9711689949035645,0.1463165283203125,-1.6643428802490234
1790266295905566500,6.45256640625,1.8244924545288086,0.19837045669555664,-1.664947271347046
1790266295915566600,6.462566650390625,1.7533655166625977,0.3468174934387207,-1.6033027172088623
1790266295925566500,6.47256640625,0.5763335227966309,0.5211281776428223,-1.5893638134002686
1790266295935566600,6.482566650390625,-1.122870922088623,0.580085277557373,-1.4335297346115112
1790266295945566500,6.49256640625,-1.3153791427612305,0.5649347305297852,-1.3176325559616089
1790266295955566600,6.502566650390625,-0.3789219856262207,0.5034937858581543,-1.1317274570465088
1790266295965566500,6.51256640625,0.040424346923828125,0.284177303314209,-1.0642991065979004
1790266295975566600,6.522566650390625,0.15198659896850586,-0.11536645889282227,-1.0247876644134521
1790266295985566500,6.53256640625,0.22640705108642578,-0.6736845970153809,-1.021630048751831
1790266295995566600,6.542566650390625,0.21124792098999023,-1.162674903869629,-0.8477268218994141
1790266296005566500,6.55256640625,-0.4625401496887207,-1.5633330345153809,-0.4385836124420166
1790266296015566600,6.562566650390625,-0.5974869728088379,-1.6879816055297852,-0.13234710693359375
1790266296025566500,6.57256640625,-0.2693490982055664,-1.5675692558288574,-0.5062906742095947
1790266296035566600,6.582566650390625,-0.8564152717590332,-1.5083322525024414,-1.1928770542144775
1790266296045566500,6.59256640625,-1.7693915367126465,-1.6699447631835938,-1.3399367332458496
1790266296055566600,6.602566650390625,-2.3897275924682617,-1.8983397483825684,-0.8709917068481445
1790266296065566500,6.61256640625,-2.6453919410705566,-1.999936580657959,-0.07383871078491211
1790266296075566600,6.622566650390625,-3.142681121826172,-2.504696846008301,0.8011124134063721
1790266296085566500,6.63256640625,-3.9478559494018555,-3.1997976303100586,1.8770434856414795
1790266296095566600,6.642566650390625,-4.019763946533203,-3.8909683227539062,3.015059471130371
1790266296105566500,6.65256640625,-3.259444236755371,-4.445603370666504,3.7459287643432617
1790266296115566600,6.662566650390625,-2.794736862182617,-4.576606750488281,4.1561503410339355
1790266296125566500,6.67256640625,-3.07735538482666,-4.701051712036133,4.3372087478637695
1790266296135566600,6.682566650390625,-3.3036980628967285,-4.920709133148193,4.4764084815979
1790266296145566500,6.69256640625,-3.0544114112854004,-5.0009050369262695,4.0203704833984375
1790266296155566600,6.702566650390625,-2.5157151222229004,-4.771965026855469,3.398017644882202
1790266296165566500,6.71256640625,-1.432307243347168,-4.1957855224609375,3.0120224952697754
1790266296175566600,6.722566650390625,-0.6583013534545898,-3.238640785217285,2.5751090049743652
1790266296185566500,6.73256640625,-0.2888517379760742,-1.8488178253173828,1.5910453796386719
1790266296195566600,6.742566650390625,-0.42640256881713867,-0.29189205169677734,0.11209297180175781
1790266296205566500,6.75256640625,-0.0990138053894043,1.5000805854797363,-1.3285067081451416
1790266296215566600,6.762566650390625,0.24105405807495117,2.1578216552734375,-1.1216613054275513
1790266296225566500,6.77256640625,0.11413955688476562,2.066791534423828,-0.15167617797851562
1790266296235566600,6.782566650390625,-0.2946438789367676,1.7711801528930664,0.34412848949432373
1790266296245566500,6.79256640625,-0.5393185615539551,1.3299894332885742,0.0374302864074707
1790266296255566600,6.802566650390625,-0.9267921447753906,0.9544429779052734,-0.494718074798584
1790266296265566500,6.81256640625,-1.56854248046875,0.8034820556640625,-0.8793509602546692
1790266296275566600,6.822566650390625,-2.2802276611328125,0.6902861595153809,-1.0227243900299072
1790266296285566500,6.83256640625,-2.7384562492370605,0.43926239013671875,-0.7294014692306519
1790266296295566600,6.842566650390625,-2.1814088821411133,-0.30112361907958984,-0.2736067771911621
1790266296305566500,6.85256640625,-1.16148042678833,-1.002608299255371,-0.06240963935852051
1790266296315566600,6.862566650390625,-0.41637659072875977,-1.4250988960266113,-0.3606938123703003
1790266296325566500,6.87256640625,-0.20833444595336914,-1.5837860107421875,-0.6567786931991577
1790266296335566600,6.882566650390625,-0.44928932189941406,-1.643117904663086,-0.8413968086242676
1790266296345566500,6.89256640625,-1.0075759887695312,-1.6637344360351562,-0.8429710865020752
1790266296355566600,6.902566650390625,-1.2607316970825195,-1.603525161743164,-0.6997320652008057
1790266296365566500,6.91256640625,-0.7722291946411133,-1.3869495391845703,-0.428155779838562
1790266296375566600,6.922566650390625,-0.37694454193115234,-0.9004960060119629,0.21148598194122314
1790266296385566500,6.93256640625,-0.4211902618408203,-0.3900489807128906,0.7722811698913574
1790266296395566600,6.942566650390625,-1.1223735809326172,-0.10963249206542969,0.8619294166564941
1790266296405566500,6.95256640625,-2.3719325065612793,-0.034108638763427734,0.47671937942504883
1790266296415566600,6.962566650390625,-3.735288143157959,-0.25665807723999023,0.28070759773254395
1790266296425566500,6.97256640625,-3.5585193634033203,-0.8942499160766602,0.7340686321258545
1790266296435566600,6.982566650390625,-1.894683837890625,-1.595381259918213,1.397477388381958
1790266296445566500,6.99256640625,-0.5817012786865234,-2.143596649169922,2.1378867626190186
1790266296455566600,7.002566650390625,0.17277145385742188,-2.5731935501098633,2.9039196968078613
1790266296465566500,7.01256640625,0.785468578338623,-2.5252161026000977,3.1856040954589844
1790266296475566600,7.022566650390625,0.9065694808959961,-1.9222521781921387,3.1630377769470215
1790266296485566500,7.03256640625,0.3626079559326172,-0.9801468849182129,2.7012786865234375
1790266296495566600,7.042566650390625,-1.2519898414611816,-0.37816858291625977,2.0399820804595947
1790266296505566500,7.05256640625,-3.378180503845215,-0.4178338050842285,1.5510838031768799
1790266296515566600,7.062566650390625,-3.823391914367676,-1.1354150772094727,1.5727119445800781
1790266296525566500,7.07256640625,-2.0358099937438965,-2.0724215507507324,1.9693243503570557
1790266296535566600,7.082566650390625,0.18899965286254883,-2.5242462158203125,1.947493553161621
1790266296545566500,7.09256640625,1.0372509956359863,-2.265636444091797,1.0933563709259033
1790266296555566600,7.102566650390625,0.8720574378967285,-1.6462287902832031,0.07921159267425537
1790266296565566500,7.11256640625,0.5750002861022949,-1.0166115760803223,-0.2828705310821533
1790266296575566600,7.122566650390625,-0.043941497802734375,-0.5461134910583496,-0.2703145742416382
1790266296585566500,7.13256640625,-0.1672983169555664,-0.2623777389526367,-0.13035213947296143
1790266296595566600,7.142566650390625,0.535224437713623,-0.09439611434936523,0.08110404014587402
1790266296605566500,7.15256640625,1.0514459609985352,0.10275602340698242,0.25041258335113525
1790266296615566600,7.162566650390625,0.22644615173339844,0.31234216690063477,0.2120422124862671
1790266296625566500,7.17256640625,-0.4590940475463867,0.19446611404418945,0.034154295921325684
1790266296635566600,7.182566650390625,0.5683345794677734,-0.38022851943969727,0.08835017681121826
1790266296645566500,7.19256640625,1.8651747703552246,-1.1474528312683105,0.2648632526397705
1790266296655566600,7.202566650390625,2.040264129638672,-1.7168583869934082,0.42431843280792236
1790266296665566500,7.21256640625,1.4823150634765625,-1.9271929264068604,0.5051225423812866
1790266296675566600,7.222566650390625,0.40041065216064453,-1.849656581878662,0.36388957500457764
1790266296685566500,7.23256640625,-0.5527076721191406,-1.7506682872772217,0.10857701301574707
1790266296695566600,7.242566650390625,0.21812057495117188,-1.8552932739257812,0.19483983516693115
1790266296705566500,7.25256640625,2.10556697845459,-2.0004217624664307,0.5531387329101562
1790266296715566600,7.262566650390625,3.171051025390625,-1.8848941326141357,0.5534639358520508
1790266296725566500,7.27256640625,2.409834861755371,-1.3934788703918457,0.22763770818710327
1790266296735566600,7.282566650390625,1.5407648086547852,-0.8303730487823486,-0.11810529232025146
1790266296745566500,7.29256640625,2.023650646209717,-0.7320585250854492,-0.10205954313278198
1790266296755566600,7.302566650390625,2.337313652038574,-0.9397250413894653,-0.05305367708206177
1790266296765566500,7.31256640625,1.6328401565551758,-1.0658015012741089,-0.28973740339279175
1790266296775566600,7.322566650390625,0.3188915252685547,-0.89878249168396,-0.7344842553138733
1790266296785566500,7.33256640625,0.043883323669433594,-0.6144081354141235,-0.7668536901473999
1790266296795566600,7.342566650390625,2.435511589050293,-0.4802640676498413,0.04630082845687866
1790266296805566500,7.35256640625,4.046680927276611,-0.3447164297103882,0.7721881866455078
1790266296815566600,7.362566650390625,3.994678497314453,0.04995685815811157,0.5940619111061096
1790266296825566500,7.37256640625,4.278887748718262,0.2996760308742523,-0.13207507133483887
1790266296835566600,7.382566650390625,3.7899951934814453,0.5865676999092102,-1.2568215131759644
1790266296845566500,7.39256640625,3.2764739990234375,1.1150206327438354,-1.30206298828125
1790266296855566600,7.402566650390625,5.24036979675293,1.5234341621398926,-0.3073248863220215
1790266296865566500,7.41256640625,6.366527557373047,2.0925509929656982,-1.0382330417633057
1790266296875566600,7.422566650390625,5.471353530883789,2.3700790405273438,-2.2850661277770996
1790266296885566500,7.43256640625,4.791767597198486,2.2464723587036133,-2.6556625366210938
1790266296895566600,7.442566650390625,3.9973316192626953,2.023104190826416,-2.3599352836608887
1790266296905566500,7.45256640625,3.9299087524414062,1.697114109992981,-1.233778476715088
1790266296915566600,7.462566650390625,4.833281517028809,1.5621418952941895,-0.4996688961982727
1790266296925566500,7.47256640625,4.424652099609375,1.8888450860977173,-0.4107400178909302
1790266296935566600,7.482566650390625,3.58107328414917,2.090116024017334,0.10210180282592773
1790266296945566500,7.49256640625,2.2289113998413086,2.107429027557373,0.22848725318908691
1790266296955566600,7.502566650390625,2.120817184448242,1.6534271240234375,0.2146240472793579
1790266296965566500,7.51256640625,2.482868194580078,1.0711644887924194,0.14327502250671387
1790266296975566600,7.522566650390625,2.380000114440918,0.8880831599235535,-0.13758695125579834
1790266296985566500,7.53256640625,2.61135196685791,0.9553802013397217,0.22749793529510498
1790266296995566600,7.542566650390625,1.8406753540039062,0.9304249882698059,0.03934013843536377
1790266297005566500,7.55256640625,0.7483739852905273,0.8399096727371216,-0.6084327697753906
1790266297015566600,7.562566650390625,0.6920099258422852,0.6231409311294556,-0.602332353591919
1790266297025566500,7.57256640625,1.3620967864990234,0.3247624635696411,-0.7540462017059326
1790266297035566600,7.582566650390625,1.937790870666504,0.1527271270751953,-0.7988758087158203
1790266297045566500,7.59256640625,2.1912059783935547,0.2496652603149414,-0.4159897565841675
1790266297055566600,7.602566650390625,1.7501840591430664,0.3508627414703369,-0.476931095123291
1790266297065566500,7.61256640625,1.696639060974121,0.37471866607666016,-0.6898493766784668
1790266297075566600,7.622566650390625,1.4668426513671875,0.41956329345703125,-0.8369563221931458
1790266297085566500,7.63256640625,1.1003398895263672,0.3528711795806885,-0.738463282585144
1790266297095566600,7.642566650390625,1.473236083984375,0.3153955936431885,-0.6370841264724731
1790266297105566500,7.65256640625,2.8192644119262695,0.30022716522216797,-0.5950037240982056
1790266297115566600,7.662566650390625,3.054597854614258,0.31467652320861816,-0.7979142665863037
1790266297125566500,7.67256640625,2.112335205078125,0.24064874649047852,-0.8685972690582275
1790266297135566600,7.682566650390625,1.891584873199463,0.07479190826416016,-0.6371721029281616
1790266297145566500,7.69256640625,2.9249467849731445,-0.03685808181762695,-0.7715737819671631
1790266297155566600,7.702566650390625,3.4277167320251465,-0.040244102478027344,-1.3459430932998657
1790266297165566500,7.71256640625,2.616140842437744,0.10167598724365234,-1.635160207748413
1790266297175566600,7.722566650390625,1.4541187286376953,0.2936744689941406,-1.474716305732727
1790266297185566500,7.73256640625,0.7353658676147461,0.5168657302856445,-1.360468864440918
1790266297195566600,7.742566650390625,1.0753769874572754,0.7571253776550293,-1.4285354614257812
1790266297205566500,7.75256640625,1.191927433013916,0.9943594932556152,-1.5649399757385254
1790266297215566600,7.762566650390625,-0.18987035751342773,1.2205781936645508,-1.6227854490280151
1790266297225566500,7.77256640625,-1.5748586654663086,1.288893222808838,-1.4719796180725098
1790266297235566600,7.782566650390625,-2.01373291015625,1.1110568046569824,-1.1820176839828491
1790266297245566500,7.79256640625,-2.1644086837768555,0.5179643630981445,-1.0803015232086182
1790266297255566600,7.802566650390625,-3.666123867034912,-0.4763679504394531,-1.2344305515289307
1790266297265566500,7.81256640625,-4.882419109344482,-2.000476837158203,-1.2104936838150024
1790266297275566600,7.822566650390625,-4.396649360656738,-3.562516689300537,-1.1951748132705688
1790266297285566500,7.83256640625,-3.6601815223693848,-5.145873069763184,-1.0329182147979736
1790266297295566600,7.842566650390625,-3.539060115814209,-6.854887008666992,-0.5948139429092407
1790266297305566500,7.85256640625,-3.6866416931152344,-8.334633827209473,0.6059951782226562
1790266297315566600,7.862566650390625,-2.609315872192383,-8.996238708496094,1.604438304901123
1790266297325566500,7.87256640625,-1.4180350303649902,-9.112335205078125,2.397111415863037
1790266297335566600,7.882566650390625,-2.221768379211426,-8.548480987548828,2.9838764667510986
1790266297345566500,7.89256640625,-3.1260595321655273,-7.23223876953125,3.2144830226898193
1790266297355566600,7.902566650390625,-2.668954849243164,-5.418613433837891,3.28548526763916
1790266297365566500,7.91256640625,-2.4000401496887207,-3.660801887512207,3.128023386001587
1790266297375566600,7.922566650390625,-2.7146658897399902,-2.2229204177856445,2.979541301727295
1790266297385566500,7.93256640625,-3.185701847076416,-1.0424022674560547,2.932236671447754
1790266297395566600,7.942566650390625,-3.335783004760742,-0.2348785400390625,3.1813268661499023
1790266297405566500,7.95256640625,-2.4617919921875,0.44817113876342773,3.2038779258728027
1790266297415566600,7.962566650390625,-1.5676155090332031,1.211674690246582,2.645576000213623
1790266297425566500,7.97256640625,-1.2784242630004883,1.9124765396118164,1.5288130044937134
1790266297435566600,7.982566650390625,-1.1089749336242676,2.3064088821411133,0.20552945137023926
1790266297445566500,7.99256640625,-0.8723635673522949,2.429751396179199,-0.8644406795501709
1790266297455566600,8.002566650390625,-0.6193866729736328,2.308786392211914,-1.5521939992904663
1790266297465566500,8.01256640625,-0.33870887756347656,2.0223045349121094,-2.1089274883270264
1790266297475566600,8.022566650390624,-0.3171391487121582,1.6715459823608398,-2.392745018005371
1790266297485566500,8.03256640625,-0.6891045570373535,1.3554410934448242,-2.375213861465454
1790266297495566600,8.042566650390626,-1.238419532775879,1.152785301208496,-2.323272228240967
1790266297505566500,8.05256640625,-1.7963271141052246,0.8747634887695312,-2.031864643096924
1790266297515566600,8.062566650390625,-2.2715954780578613,0.4755830764770508,-1.5889652967453003
1790266297525566500,8.07256640625,-2.4821009635925293,-0.09053516387939453,-1.1152344942092896
1790266297535566600,8.082566650390625,-2.6323108673095703,-0.9541444778442383,-0.7646703720092773
1790266297545566500,8.09256640625,-2.426126003265381,-2.01326847076416,-0.5272870063781738
1790266297555566600,8.102566650390624,-1.9553375244140625,-3.0671138763427734,-0.3648848533630371
1790266297565566500,8.11256640625,-1.3179097175598145,-4.065180778503418,-0.25705790519714355
1790266297575566600,8.122566650390626,-0.5280084609985352,-4.896442413330078,-0.19763362407684326
1790266297585566500,8.13256640625,-0.4688529968261719,-5.33794641494751,0.004376888275146484
1790266297595566600,8.142566650390625,-1.2522454261779785,-5.1820759773254395,0.09963512420654297
1790266297605566500,8.15256640625,-2.4376349449157715,-4.174141883850098,-0.15593504905700684
1790266297615566600,8.162566650390625,-3.250363349914551,-2.8473620414733887,-0.6590085029602051
1790266297625566500,8.17256640625,-2.832207679748535,-2.040097236633301,-0.678903341293335
1790266297635566600,8.182566650390624,-1.8369059562683105,-1.5597906112670898,-0.19148874282836914
1790266297645566500,8.19256640625,-0.9342160224914551,-0.8928756713867188,0.18872427940368652
1790266297655566600,8.202566650390626,-0.1048736572265625,-0.25093507766723633,0.3588099479675293
1790266297665566500,8.21256640625,-0.028037548065185547,0.3041505813598633,0.25235676765441895
1790266297675566600,8.222566650390625,-0.6021685600280762,0.6881561279296875,-0.1787722110748291
1790266297685566500,8.23256640625,-0.9161300659179688,0.7144894599914551,-0.38439345359802246
1790266297695566600,8.242566650390625,-0.8948473930358887,0.4945974349975586,-0.14403796195983887
1790266297705566500,8.25256640625,-0.6030230522155762,0.10020685195922852,0.36161375045776367
1790266297715566600,8.262566650390625,-0.444338321685791,-0.36077213287353516,0.795250654220581
1790266297725566500,8.27256640625,-0.5123167037963867,-0.8574042320251465,1.083913803100586
1790266297735566600,8.282566650390624,-0.47977638244628906,-1.338801383972168,1.2684831619262695
1790266297745566500,8.29256640625,-0.6865968704223633,-1.6459856033325195,1.296386480331421
1790266297755566600,8.302566650390625,-0.714141845703125,-1.8141117095947266,1.0807335376739502
1790266297765566500,8.31256640625,-0.007664680480957031,-1.806600570678711,0.8081128597259521
1790266297775566600,8.322566650390625,0.29824209213256836,-1.4777827262878418,0.6322288513183594
1790266297785566500,8.33256640625,0.12959909439086914,-1.046126365661621,0.49789857864379883
1790266297795566600,8.342566650390625,-0.17159223556518555,-0.8084864616394043,0.28654980659484863
1790266297805566500,8.35256640625,-0.400390625,-0.8025541305541992,0.08004879951477051
1790266297815566600,8.362566650390624,0.08843040466308594,-1.0120749473571777,0.0058977603912353516
1790266297825566500,8.37256640625,0.10373306274414062,-1.246199607849121,-0.06339609622955322
1790266297835566600,8.382566650390626,-0.7225770950317383,-1.4183712005615234,-0.13581228256225586
1790266297845566500,8.39256640625,-1.1260967254638672,-1.6094021797180176,-0.2838728427886963
1790266297855566600,8.402566650390625,-1.3372278213500977,-1.7818036079406738,-0.2809605598449707
1790266297865566500,8.41256640625,-1.370509147644043,-2.071786403656006,-0.14715921878814697
1790266297875566600,8.422566650390625,-1.1728992462158203,-2.327362537384033,-0.021558284759521484
1790266297885566500,8.43256640625,0.1017007827758789,-2.5573720932006836,0.42303144931793213
1790266297895566600,8.442566650390624,0.8927469253540039,-2.6246979236602783,1.1570342779159546
1790266297905566500,8.45256640625,-0.09680652618408203,-2.5376386642456055,1.5002285242080688
1790266297915566600,8.462566650390626,-0.8238630294799805,-2.5390028953552246,1.1087454557418823
1790266297925566500,8.47256640625,-0.023049354553222656,-2.6880624294281006,0.5290569067001343
1790266297935566600,8.482566650390625,1.7457990646362305,-2.6522552967071533,0.14451873302459717
1790266297945566500,8.49256640625,3.8533987998962402,-2.031614303588867,0.02540147304534912
1790266297955566600,8.502566650390625,5.335389614105225,-0.8652522563934326,-0.03836202621459961
1790266297965566500,8.51256640625,5.141347885131836,0.44727540016174316,-0.330973744392395
1790266297975566600,8.522566650390624,3.9783992767333984,1.292059063911438,-0.8624645471572876
1790266297985566500,8.53256640625,3.0822362899780273,1.8617676496505737,-1.8370921611785889
1790266297995566600,8.542566650390626,3.7155933380126953,2.2213683128356934,-2.6260910034179688
1790266298005566500,8.55256640625,5.632595062255859,2.3449130058288574,-2.6132664680480957
1790266298015566600,8.562566650390625,7.197356700897217,2.337228775024414,-2.176889657974243
1790266298025566500,8.57256640625,5.963263988494873,2.278435468673706,-2.109240770339966
1790266298035566600,8.582566650390625,3.675492286682129,2.138974666595459,-2.5548806190490723
1790266298045566500,8.59256640625,2.9543933868408203,1.5368075370788574,-2.5802254676818848
1790266298055566600,8.602566650390624,3.0951600074768066,0.5190603733062744,-2.4664530754089355
1790266298065566500,8.61256640625,2.6846446990966797,-0.21962237358093262,-2.481656551361084
1790266298075566600,8.622566650390626,2.048518180847168,-0.6055118441581726,-1.9316726922988892
1790266298085566500,8.63256640625,1.2124671936035156,-0.8744385242462158,-1.084540843963623
1790266298095566600,8.642566650390625,0.38115882873535156,-1.129745364189148,-0.540557861328125
1790266298105566500,8.65256640625,0.9087610244750977,-1.2585575580596924,0.0893712043762207
1790266298115566600,8.662566650390625,1.6372647285461426,-0.69096839427948,-0.35610055923461914
1790266298125566500,8.67256640625,2.083371639251709,0.6594210863113403,-0.7322990894317627
1790266298135566600,8.682566650390624,3.302234649658203,1.6853723526000977,-0.34134066104888916
1790266298145566500,8.69256640625,4.565258502960205,2.382420063018799,-0.36178088188171387
1790266298155566600,8.702566650390626,5.97407341003418,2.8874692916870117,-0.15407752990722656
1790266298165566500,8.71256640625,6.808409214019775,3.246162176132202,-0.18406367301940918
1790266298175566600,8.722566650390625,6.767050266265869,3.6723427772521973,-0.7333731055259705
1790266298185566500,8.73256640625,5.913398742675781,4.2599077224731445,-1.3360192775726318
1790266298195566600,8.742566650390625,3.9062881469726562,4.80005407333374,-1.8743308782577515
1790266298205566500,8.75256640625,1.5141925811767578,4.88234806060791,-2.0841245651245117
1790266298215566600,8.762566650390625,1.2141475677490234,3.844480514526367,-0.9091558456420898
1790266298225566500,8.77256640625,1.4753003120422363,2.1091043949127197,0.11130785942077637
1790266298235566600,8.782566650390624,1.3742656707763672,0.6406559944152832,1.1713027954101562
1790266298245566500,8.79256640625,1.9133853912353516,-0.37611889839172363,2.236083507537842
1790266298255566600,8.802566650390625,2.194307804107666,-0.9445281028747559,2.15516996383667
1790266298265566500,8.81256640625,2.1239585876464844,-1.2980782985687256,1.5910741090774536
1790266298275566600,8.822566650390625,2.1455421447753906,-1.4662725925445557,0.7831469774246216
1790266298285566500,8.83256640625,1.6422758102416992,-1.4636526107788086,-0.27711713314056396
1790266298295566600,8.842566650390625,1.512559413909912,-1.3358299732208252,-1.04087495803833
1790266298305566500,8.85256640625,2.479503631591797,-1.100846290588379,-1.1154555082321167
1790266298315566600,8.862566650390624,3.1728639602661133,-0.608790397644043,-1.0606099367141724
1790266298325566500,8.87256640625,3.373232841491699,0.05631589889526367,-1.0657973289489746
1790266298335566600,8.882566650390626,2.87528133392334,0.8079843521118164,-0.9920891523361206
1790266298345566500,8.89256640625,1.2297048568725586,1.5355100631713867,-0.9724280834197998
1790266298355566600,8.902566650390625,-0.5207328796386719,2.1751322746276855,-0.7881217002868652
1790266298365566500,8.91256640625,-2.0746612548828125,2.79740309715271,-0.6903347969055176
1790266298375566600,8.922566650390625,-2.505129337310791,2.9822044372558594,-0.5806801319122314
1790266298385566500,8.93256640625,-0.38310670852661133,2.40756893157959,-0.47846126556396484
1790266298395566600,8.942566650390624,2.280500888824463,1.5684549808502197,-0.2623445987701416
1790266298405566500,8.95256640625,3.9207658767700195,0.5557303428649902,0.0472104549407959
1790266298415566600,8.962566650390626,3.873990058898926,-0.45275163650512695,0.2801830768585205
1790266298425566500,8.97256640625,2.708690643310547,-1.6716160774230957,0.24342060089111328
1790266298435566600,8.982566650390625,1.6605143547058105,-2.964705467224121,0.12012171745300293
1790266298445566500,8.99256640625,1.2741413116455078,-3.9297499656677246,-0.45296430587768555
1790266298455566600,9.002566650390625,1.0630874633789062,-4.679824352264404,-1.304904818534851
1790266298465566500,9.01256640625,0.3391127586364746,-5.535821437835693,-1.6396421194076538
1790266298475566600,9.022566650390624,-0.0880136489868164,-6.390533924102783,-1.410573959350586
1790266298485566500,9.03256640625,-0.9970722198486328,-6.907181739807129,-0.7011065483093262
1790266298495566600,9.042566650390626,-3.5849714279174805,-6.585943222045898,0.5453281402587891
1790266298505566500,9.05256640625,-6.801762104034424,-4.823723793029785,1.358025074005127
1790266298515566600,9.062566650390625,-7.459967613220215,-2.81459379196167,1.4871556758880615
1790266298525566500,9.07256640625,-6.12077522277832,-1.7306489944458008,0.9047119617462158
1790266298535566600,9.082566650390625,-5.254800319671631,-1.834549903869629,-0.12380719184875488
1790266298545566500,9.09256640625,-4.73879861831665,-2.99704647064209,-0.1357707977294922
1790266298555566600,9.102566650390624,-4.240734100341797,-4.402085304260254,1.2070698738098145
1790266298565566500,9.11256640625,-4.15621280670166,-5.234659194946289,2.5251705646514893
1790266298575566600,9.122566650390626,-5.231463432312012,-4.948357582092285,2.7528772354125977
1790266298585566500,9.13256640625,-5.2645344734191895,-3.6536684036254883,2.055551052093506
1790266298595566600,9.142566650390625,-2.612382411956787,-2.2700586318969727,1.9242280721664429
1790266298605566500,9.15256640625,-0.011311531066894531,-0.9252233505249023,2.0282986164093018
1790266298615566600,9.162566650390625,1.062885046005249,0.4185829162597656,1.681593894958496
1790266298625566500,9.17256640625,0.7511377334594727,1.5687885284423828,1.0317602157592773
1790266298635566600,9.182566650390624,0.06569147109985352,2.5227136611938477,0.6139419078826904
1790266298645566500,9.19256640625,-0.2364511489868164,3.0919318199157715,0.7647782564163208
1790266298655566600,9.202566650390626,-0.08441591262817383,3.073878765106201,1.1793304681777954
1790266298665566500,9.21256640625,-0.036206722259521484,2.412264347076416,1.810001254081726
1790266298675566600,9.222566650390625,-0.27121591567993164,1.2170448303222656,2.0668272972106934
1790266298685566500,9.23256640625,-1.016408920288086,-0.07677650451660156,1.149226427078247
1790266298695566600,9.242566650390625,-1.3545045852661133,-0.8433036804199219,-0.2230907678604126
1790266298705566500,9.25256640625,-1.3998303413391113,-0.9499092102050781,-1.2241268157958984
1790266298715566600,9.262566650390625,-1.621241569519043,-0.7513818740844727,-1.65763258934021
1790266298725566500,9.27256640625,-2.086684226989746,-0.5451717376708984,-1.6732220649719238
1790266298735566600,9.282566650390624,-2.9832921028137207,-0.6322879791259766,-1.4332245588302612
1790266298745566500,9.29256640625,-4.2683329582214355,-1.1890907287597656,-0.676504373550415
1790266298755566600,9.302566650390625,-4.929845809936523,-2.1392464637756348,0.6831892728805542
1790266298765566500,9.31256640625,-4.134028434753418,-3.278963565826416,1.8674871921539307
1790266298775566600,9.322566650390625,-1.9287757873535156,-4.207306861877441,1.7225639820098877
1790266298785566500,9.33256640625,0.2788810729980469,-4.6291890144348145,0.19123625755310059
1790266298795566600,9.342566650390625,1.386364459991455,-4.600683689117432,-0.938593864440918
1790266298805566500,9.35256640625,1.0956034660339355,-4.204693794250488,-1.2907707691192627
1790266298815566600,9.362566650390624,-0.469602108001709,-3.225273609161377,-1.1565338373184204
1790266298825566500,9.37256640625,-2.3756275177001953,-1.9689831733703613,-0.15183472633361816
1790266298835566600,9.382566650390626,-2.5912890434265137,-1.1735992431640625,1.5295753479003906
1790266298845566500,9.39256640625,-1.6381950378417969,-0.8284845352172852,2.96968674659729
1790266298855566600,9.402566650390625,-0.5055856704711914,-0.602569580078125,3.5113000869750977
1790266298865566500,9.41256640625,0.2944173812866211,-0.4236898422241211,3.541511297225952
1790266298875566600,9.422566650390625,0.0734872817993164,-0.3643798828125,3.1118245124816895
1790266298885566500,9.43256640625,-0.5248856544494629,-0.47728776931762695,2.52089786529541
1790266298895566600,9.442566650390624,-0.9673500061035156,-0.7975716590881348,2.1597986221313477
1790266298905566500,9.45256640625,-0.9412727355957031,-1.0680127143859863,2.017057180404663
1790266298915566600,9.462566650390626,-0.20514249801635742,-1.1479945182800293,1.9644749164581299
1790266298925566500,9.47256640625,0.284700870513916,-1.0189528465270996,1.777618646621704
1790266298935566600,9.482566650390625,-0.2104191780090332,-0.7806735038757324,1.4424211978912354
1790266298945566500,9.49256640625,-1.1039700508117676,-0.7773828506469727,1.0612952709197998
1790266298955566600,9.502566650390625,-1.329331874847412,-1.2023391723632812,1.0684220790863037
1790266298965566500,9.51256640625,0.033831119537353516,-1.8917865753173828,1.5234671831130981
1790266298975566600,9.522566650390624,1.3682403564453125,-2.287532329559326,1.7887400388717651
1790266298985566500,9.53256640625,1.5329813957214355,-2.2297821044921875,1.5988935232162476
1790266298995566600,9.542566650390626,1.2809858322143555,-1.9351987838745117,0.8640055656433105
1790266299005566500,9.55256640625,0.8022317886352539,-1.4607043266296387,0.08367812633514404
1790266299015566600,9.562566650390625,0.5161666870117188,-1.2439641952514648,-0.12133800983428955
1790266299025566500,9.57256640625,-0.055954933166503906,-1.3508405685424805,0.08799958229064941
1790266299035566600,9.582566650390625,-1.211822509765625,-1.439408302307129,0.3686518669128418
1790266299045566500,9.59256640625,-1.4538049697875977,-1.4086346626281738,0.7587220668792725
1790266299055566600,9.602566650390624,-1.419510841369629,-1.3902685642242432,1.4522387981414795
1790266299065566500,9.61256640625,-1.4857778549194336,-1.656400203704834,2.1393487453460693
1790266299075566600,9.622566650390626,0.32521533966064453,-2.316136598587036,2.038754463195801
1790266299085566500,9.63256640625,3.6393585205078125,-2.882864475250244,1.6132054328918457
1790266299095566600,9.642566650390625,5.382650852203369,-2.6372692584991455,0.8136235475540161
1790266299105566500,9.65256640625,5.268986225128174,-1.6401340961456299,0.2969573736190796
1790266299115566600,9.662566650390625,4.461365699768066,-0.7470276355743408,-0.44402116537094116
1790266299125566500,9.67256640625,3.1029052734375,-0.2769308090209961,-1.4675602912902832
1790266299135566600,9.682566650390624,1.0794239044189453,0.030484914779663086,-2.2322702407836914
1790266299145566500,9.69256640625,-0.6002168655395508,0.25858068466186523,-2.2950997352600098
1790266299155566600,9.702566650390626,-0.03299999237060547,0.6761825084686279,-1.8054730892181396
1790266299165566500,9.71256640625,1.0513877868652344,0.8929128646850586,-0.5865873098373413
1790266299175566600,9.722566650390625,1.5929336547851562,0.4945859909057617,1.2706249952316284
1790266299185566500,9.73256640625,1.645094871520996,-0.28695225715637207,2.2267954349517822
1790266299195566600,9.742566650390625,1.2525959014892578,-1.0117586851119995,2.2096495628356934
1790266299205566500,9.75256640625,1.4996061325073242,-1.4399287700653076,1.6428687572479248
1790266299215566600,9.762566650390625,2.186497688293457,-1.5976482629776,0.929004430770874
1790266299225566500,9.77256640625,2.7730703353881836,-1.488394021987915,0.31105780601501465
1790266299235566600,9.782566650390624,3.730772018432617,-1.4971730709075928,0.030845999717712402
1790266299245566500,9.79256640625,4.306194305419922,-1.568943977355957,-0.5686728954315186
1790266299255566600,9.802566650390625,4.53164005279541,-1.554701805114746,-1.3138986825942993
1790266299265566500,9.81256640625,4.722602367401123,-1.1600874662399292,-1.9990782737731934
1790266299275566600,9.822566650390625,4.645983695983887,-0.26460689306259155,-2.424403190612793
1790266299285566500,9.83256640625,4.721331596374512,0.540573000907898,-2.276163339614868
1790266299295566600,9.842566650390625,5.040277004241943,1.067397952079773,-2.4535140991210938
1790266299305566500,9.85256640625,4.318624973297119,1.693274736404419,-2.6719775199890137
1790266299315566600,9.862566650390624,2.801497459411621,2.1601641178131104,-2.8183698654174805
1790266299325566500,9.87256640625,1.4344453811645508,2.4733428955078125,-1.9122538566589355
1790266299335566600,9.882566650390626,1.7522163391113281,2.321024179458618,-0.015977859497070312
1790266299345566500,9.89256640625,3.413825035095215,1.6184531450271606,1.3373030424118042
1790266299355566600,9.902566650390625,4.346808433532715,0.6097487211227417,1.1795772314071655
1790266299365566500,9.91256640625,4.700719833374023,-0.6346697807312012,0.6378788948059082
1790266299375566600,9.922566650390625,5.064901828765869,-1.4972172975540161,-0.18852317333221436
1790266299385566500,9.93256640625,4.857485771179199,-1.1800546646118164,-1.8858331441879272
1790266299395566600,9.942566650390624,3.7407126426696777,0.34513846039772034,-3.8466382026672363
1790266299405566500,9.95256640625,2.5072221755981445,2.3293936252593994,-4.574422359466553
1790266299415566600,9.962566650390626,2.1830224990844727,3.9418153762817383,-3.5875425338745117
1790266299425566500,9.97256640625,1.5880475044250488,4.919158458709717,-2.2208244800567627
1790266299435566600,9.982566650390625,1.0474967956542969,5.108546733856201,-0.84270179271698
1790266299445566500,9.99256640625,1.7902746200561523,4.292581081390381,0.8005613088607788
1790266299455566600,10.002566650390625,1.5694842338562012,2.934237003326416,1.2733184099197388
1790266299465566500,10.01256640625,0.6597452163696289,1.9010834693908691,0.804679274559021
1790266299475566600,10.022566650390624,1.5059266090393066,0.959606945514679,0.4120604991912842
1790266299485566500,10.03256640625,2.3752923011779785,0.1381380558013916,0.3625224828720093
1790266299495566600,10.042566650390626,3.2913336753845215,-0.3096458911895752,0.5211387872695923
1790266299505566500,10.05256640625,2.484409809112549,-0.5291569232940674,0.8166368007659912
1790266299515566600,10.062566650390625,-1.1727848052978516,-0.8215856552124023,1.017686128616333
1790266299525566500,10.07256640625,-3.4050464630126953,-1.5340330600738525,0.9777301549911499
1790266299535566600,10.082566650390625,-1.1095848083496094,-2.213106870651245,0.9356893301010132
1790266299545566500,10.09256640625,2.963499069213867,-2.2784178256988525,1.0158100128173828
1790266299555566600,10.102566650390624,5.850931644439697,-1.9800031185150146,1.1732439994812012
1790266299565566500,10.11256640625,6.14124870300293,-1.94706392288208,0.9463050365447998
1790266299575566600,10.122566650390626,3.7816319465637207,-2.270235538482666,0.7110705375671387
1790266299585566500,10.13256640625,0.6809678077697754,-2.6174187660217285,0.8156425952911377
1790266299595566600,10.142566650390625,0.08011388778686523,-2.610299587249756,0.45726728439331055
1790266299605566500,10.15256640625,2.1714725494384766,-2.0560789108276367,-0.4260183572769165
1790266299615566600,10.162566650390625,2.919156074523926,-1.1186871528625488,-0.8894780874252319
1790266299625566500,10.17256640625,1.5710296630859375,-0.24282312393188477,-0.6056349277496338
1790266299635566600,10.182566650390624,0.13770818710327148,0.33049774169921875,0.009804487228393555
1790266299645566500,10.19256640625,0.39149951934814453,0.5455451011657715,0.1017003059387207
1790266299655566600,10.202566650390626,1.0942888259887695,0.5362663269042969,-0.367581844329834
1790266299665566500,10.21256640625,1.0793795585632324,0.40769243240356445,-0.8532507419586182
1790266299675566600,10.222566650390625,1.1173639297485352,0.2572917938232422,-1.2815511226654053
1790266299685566500,10.23256640625,0.6540703773498535,0.1510019302368164,-1.5298967361450195
1790266299695566600,10.242566650390625,-1.0160622596740723,-0.07147216796875,-1.6017382144927979
1790266299705566500,10.25256640625,-2.5450658798217773,-0.473360538482666,-1.4981132745742798
1790266299715566600,10.262566650390625,-2.924128532409668,-0.8095493316650391,-1.6455470323562622
1790266299725566500,10.27256640625,-1.9353609085083008,-1.099231243133545,-2.3078064918518066
1790266299735566600,10.282566650390624,-0.6431889533996582,-1.206425666809082,-3.0026679039001465
1790266299745566500,10.29256640625,-0.4276266098022461,-1.21848726272583,-3.139726161956787
1790266299755566600,10.302566650390625,-1.2889456748962402,-1.316080093383789,-2.7683985233306885
1790266299765566500,10.31256640625,-2.165644645690918,-1.3738632202148438,-2.1447980403900146
1790266299775566600,10.322566650390625,-4.374504089355469,-1.280256748199463,-1.6251075267791748
1790266299785566500,10.33256640625,-8.838199615478516,-1.3100767135620117,-1.0327576398849487
1790266299795566600,10.342566650390625,-12.258752822875977,-2.43007755279541,1.3238515853881836
1790266299805566500,10.35256640625,-11.431570053100586,-5.594354629516602,4.765447616577148
1790266299815566600,10.362566650390624,-7.013528347015381,-9.723919868469238,6.519772052764893
1790266299825566500,10.37256640625,-4.195268630981445,-13.218277931213379,8.7427339553833
1790266299835566600,10.382566650390626,-3.2789902687072754,-14.915436744689941,10.324974060058594
1790266299845566500,10.39256640625,-1.3394832611083984,-13.587636947631836,9.74533462524414
1790266299855566600,10.402566650390625,0.6673989295959473,-8.867145538330078,7.289938449859619
1790266299865566500,10.41256640625,1.3718359470367432,-3.6535940170288086,4.058627128601074
1790266299875566600,10.422566650390625,0.613955020904541,0.03018951416015625,1.8411345481872559
1790266299885566500,10.43256640625,-0.8959388732910156,2.2873735427856445,0.6265842914581299
1790266299895566600,10.442566650390624,-0.9766402244567871,3.333345890045166,0.4536440372467041
1790266299905566500,10.45256640625,0.16492128372192383,3.281277656555176,0.6891708374023438
1790266299915566600,10.462566650390626,1.2081630229949951,2.591935157775879,0.9998040199279785
1790266299925566500,10.47256640625,1.7256004810333252,2.103196144104004,0.8684792518615723
1790266299935566600,10.482566650390625,1.9913628101348877,1.9874730110168457,0.2960014343261719
1790266299945566500,10.49256640625,2.127045154571533,2.120849609375,-0.4408611059188843
1790266299955566600,10.502566650390625,2.1407763957977295,2.452817440032959,-1.1020276546478271
1790266299965566500,10.51256640625,1.98781156539917,2.901700973510742,-1.8460530042648315
1790266299975566600,10.522566650390624,1.0056629180908203,3.2402219772338867,-2.8894972801208496
1790266299985566500,10.53256640625,-0.7116327285766602,3.1317591667175293,-4.078932285308838
1790266299995566600,10.542566650390626,-2.5300216674804688,2.358891487121582,-4.894965171813965
1790266300005566500,10.55256640625,-3.5400571823120117,1.1515803337097168,-4.225098609924316
1790266300015566600,10.562566650390625,-3.664839267730713,0.12332439422607422,-2.528111219406128
1790266300025566500,10.57256640625,-3.247347831726074,-0.2611579895019531,-1.2286863327026367
1790266300035566600,10.582566650390625,-2.332625389099121,-0.28470277786254883,-0.4224228858947754
1790266300045566500,10.59256640625,-2.1829447746276855,-0.19089794158935547,-0.034249305725097656
1790266300055566600,10.602566650390624,-4.163978099822998,0.01968669891357422,0.18326663970947266
1790266300065566500,10.61256640625,-7.891072750091553,-0.0046558380126953125,0.5417532920837402
1790266300075566600,10.622566650390626,-7.3684234619140625,-0.667236328125,0.8998808860778809
1790266300085566500,10.63256640625,-2.244302749633789,-1.8300237655639648,-1.1997710466384888
1790266300095566600,10.642566650390625,3.5868096351623535,-3.2583189010620117,-2.7969107627868652
1790266300105566500,10.65256640625,7.172951698303223,-4.631424427032471,-2.464207410812378
1790266300115566600,10.662566650390625,5.512900352478027,-4.999751091003418,-1.0070371627807617
1790266300125566500,10.67256640625,-0.6155662536621094,-4.75697135925293,2.370565176010132
1790266300135566600,10.682566650390624,-6.152533054351807,-5.4082770347595215,5.829540252685547
1790266300145566500,10.69256640625,-5.709815979003906,-6.4269256591796875,7.310230255126953
1790266300155566600,10.702566650390626,-3.1738171577453613,-6.688652992248535,6.904682159423828
1790266300165566500,10.71256640625,-2.581758499145508,-5.748412609100342,6.086267948150635
1790266300175566600,10.722566650390625,-2.289712429046631,-4.287997722625732,4.540863037109375
1790266300185566500,10.73256640625,-1.559870719909668,-2.9744067192077637,2.4550609588623047
1790266300195566600,10.742566650390625,-0.012099742889404297,-2.1591620445251465,0.5908346176147461
1790266300205566500,10.75256640625,1.5780119895935059,-1.6637177467346191,-0.40503478050231934
1790266300215566600,10.762566650390625,2.1671066284179688,-0.982975959777832,-0.31499624252319336
1790266300225566500,10.77256640625,1.8224163055419922,-0.34914064407348633,-0.43382883071899414
1790266300235566600,10.782566650390624,1.148664951324463,0.13909006118774414,-0.9720015525817871
1790266300245566500,10.79256640625,0.6748075485229492,0.5010800361633301,-1.5855770111083984
1790266300255566600,10.802566650390625,0.6807589530944824,0.7345190048217773,-2.0798072814941406
1790266300265566500,10.81256640625,0.6126441955566406,0.6051702499389648,-2.0594329833984375
1790266300275566600,10.822566650390625,1.1326842308044434,0.2191910743713379,-1.570247769355774
1790266300285566500,10.83256640625,1.7542400360107422,0.1472153663635254,-1.082460641860962
1790266300295566600,10.842566650390625,1.8714160919189453,0.38583803176879883,-0.7285003662109375
1790266300305566500,10.85256640625,1.8222694396972656,0.27913928031921387,-0.6281147003173828
1790266300315566600,10.862566650390624,1.2469453811645508,-0.20331358909606934,-0.6923427581787109
1790266300325566500,10.87256640625,0.4439516067504883,-1.0066051483154297,-0.8226978778839111
1790266300335566600,10.882566650390626,-0.17916202545166016,-1.9324095249176025,-1.1453741788864136
1790266300345566500,10.89256640625,-0.6149978637695312,-2.765735626220703,-1.3308416604995728
1790266300355566600,10.902566650390625,-0.3018474578857422,-3.5094335079193115,-1.0699963569641113
1790266300365566500,10.91256640625,0.5704965591430664,-3.9876420497894287,-0.48505687713623047
1790266300375566600,10.922566650390625,1.7292604446411133,-3.984661817550659,0.00684356689453125
1790266300385566500,10.93256640625,1.7792210578918457,-3.2860817909240723,0.09432756900787354
1790266300395566600,10.942566650390624,1.533900260925293,-2.152832508087158,-0.25943243503570557
1790266300405566500,10.95256640625,2.50673770904541,-0.9863219261169434,-0.2678215503692627
1790266300415566600,10.962566650390626,4.394315719604492,-0.011592864990234375,0.08354496955871582
1790266300425566500,10.97256640625,5.303977012634277,0.9730862379074097,0.0932307243347168
1790266300435566600,10.982566650390625,5.016542911529541,2.1041698455810547,-0.3743184804916382
1790266300445566500,10.99256640625,4.325815200805664,3.019341468811035,-0.8813592195510864
1790266300455566600,11.002566650390625,3.836465835571289,3.5041465759277344,-1.2295482158660889
1790266300465566500,11.01256640625,3.881093978881836,3.4117431640625,-1.6982296705245972
1790266300475566600,11.022566650390624,3.95654296875,2.9360134601593018,-2.1010055541992188
1790266300485566500,11.03256640625,4.083019256591797,2.265798568725586,-2.2625350952148438
1790266300495566600,11.042566650390626,3.480762481689453,1.6315147876739502,-2.395246982574463
1790266300505566500,11.05256640625,2.8165388107299805,1.0589516162872314,-1.8757470846176147
1790266300515566600,11.062566650390625,3.1321582794189453,0.40822213888168335,-1.0475164651870728
1790266300525566500,11.07256640625,3.1537370681762695,-0.023467659950256348,-0.8836291432380676
1790266300535566600,11.082566650390625,3.142117500305176,-0.17453616857528687,-0.8787713050842285
1790266300545566500,11.09256640625,3.5506796836853027,-0.3352803587913513,-0.9565657377243042
1790266300555566600,11.102566650390624,3.9949893951416016,-0.180250883102417,-1.0129258632659912
1790266300565566500,11.11256640625,4.550870895385742,0.39743685722351074,-1.1486550569534302
1790266300575566600,11.122566650390626,5.689003944396973,1.1892439126968384,-1.4044990539550781
1790266300585566500,11.13256640625,7.045289993286133,1.9978063106536865,-1.4699108600616455
1790266300595566600,11.142566650390625,7.632144451141357,2.8403306007385254,-1.6369214057922363
1790266300605566500,11.15256640625,6.348766326904297,3.9618844985961914,-2.570751190185547
1790266300615566600,11.162566650390625,2.5935497283935547,5.032772064208984,-3.6396872997283936
1790266300625566500,11.17256640625,-0.5391159057617188,5.063878536224365,-3.078136444091797
1790266300635566600,11.182566650390624,-0.6646203994750977,4.031447410583496,-1.1046674251556396
1790266300645566500,11.19256640625,0.9445972442626953,2.491478204727173,0.1028752326965332
1790266300655566600,11.202566650390626,3.2448043823242188,1.0574105978012085,0.6399781703948975
1790266300665566500,11.21256640625,4.881264686584473,0.07115578651428223,1.7127774953842163
1790266300675566600,11.222566650390625,4.862858295440674,-0.6790528297424316,3.239966869354248
1790266300685566500,11.23256640625,1.878702163696289,-0.9641909599304199,2.9252052307128906
1790266300695566600,11.242566650390625,-2.009524345397949,-1.0932209491729736,1.1234855651855469
1790266300705566500,11.25256640625,-2.9407520294189453,-1.5640292167663574,-0.8054285049438477
1790266300715566600,11.262566650390625,-0.6157150268554688,-2.4392192363739014,-1.7002687454223633
1790266300725566500,11.27256640625,2.9839344024658203,-2.6662299633026123,-1.3222651481628418
1790266300735566600,11.282566650390624,5.479187965393066,-2.3716986179351807,-0.5772092342376709
1790266300745566500,11.29256640625,4.690582752227783,-1.9594664573669434,-0.10305094718933105
1790266300755566600,11.302566650390625,1.912825584411621,-1.7027182579040527,0.18891549110412598
1790266300765566500,11.31256640625,-0.8553705215454102,-1.4129109382629395,-0.1219637393951416
1790266300775566600,11.322566650390625,-2.466668128967285,-1.0166292190551758,-0.9096710681915283
1790266300785566500,11.33256640625,-1.3569631576538086,-0.5139331817626953,-1.8585214614868164
1790266300795566600,11.342566650390625,0.7063450813293457,0.007718086242675781,-2.0654330253601074
1790266300805566500,11.35256640625,1.7485437393188477,0.5298323631286621,-1.814469575881958
1790266300815566600,11.362566650390624,1.3273882865905762,1.1179556846618652,-1.2862002849578857
1790266300825566500,11.37256640625,-0.3942561149597168,1.2882966995239258,-0.5807163715362549
1790266300835566600,11.382566650390626,-1.2495455741882324,0.49971961975097656,-0.008351564407348633
1790266300845566500,11.39256640625,0.7652549743652344,-0.4617934226989746,-0.23038220405578613
1790266300855566600,11.402566650390625,2.594748020172119,-1.2478408813476562,-0.8110150098800659
1790266300865566500,11.41256640625,2.953895092010498,-1.8809151649475098,-1.2473171949386597
1790266300875566600,11.422566650390625,2.190700054168701,-2.368779182434082,-1.5118231773376465
1790266300885566500,11.43256640625,0.09176015853881836,-2.924041748046875,-1.4457294940948486
1790266300895566600,11.442566650390624,-2.1920828819274902,-3.4660511016845703,-1.0201326608657837
1790266300905566500,11.45256640625,-3.1981201171875,-3.7053236961364746,-0.5806059837341309
1790266300915566600,11.462566650390626,-2.6738786697387695,-3.448596477508545,-0.07380914688110352
1790266300925566500,11.47256640625,-1.5962438583374023,-2.7261314392089844,0.1711113452911377
1790266300935566600,11.482566650390625,-1.0479650497436523,-1.9164071083068848,0.23140597343444824
1790266300945566500,11.49256640625,-2.1470460891723633,-1.517087459564209,0.6488132476806641
1790266300955566600,11.502566650390625,-4.382030963897705,-1.7160420417785645,1.4302232265472412
1790266300965566500,11.51256640625,-5.117433071136475,-2.4500770568847656,2.066088914871216
1790266300975566600,11.522566650390624,-4.515152454376221,-3.4111294746398926,2.1657726764678955
1790266300985566500,11.53256640625,-4.317895412445068,-4.373691082000732,2.419088125228882
1790266300995566600,11.542566650390626,-3.1146206855773926,-5.012064456939697,3.1247177124023438
1790266301005566500,11.55256640625,-1.7918496131896973,-5.026350975036621,3.8246407508850098
1790266301015566600,11.562566650390625,-1.7417359352111816,-4.4174089431762695,3.6508193016052246
1790266301025566500,11.57256640625,-2.300220489501953,-3.5127458572387695,2.9473118782043457
1790266301035566600,11.582566650390625,-2.8817591667175293,-2.351141929626465,2.4023094177246094
1790266301045566500,11.59256640625,-3.448765277862549,-0.993931770324707,2.1330795288085938
1790266301055566600,11.602566650390624,-3.063723564147949,0.2685718536376953,2.043206214904785
1790266301065566500,11.61256640625,-2.380481243133545,1.1886043548583984,2.1621875762939453
1790266301075566600,11.622566650390626,-1.4229836463928223,1.5660533905029297,2.0621159076690674
1790266301085566500,11.63256640625,-0.33387088775634766,1.59578275680542,1.5140209197998047
1790266301095566600,11.642566650390625,0.3503232002258301,1.682429313659668,0.7660791873931885
1790266301105566500,11.65256640625,0.41148853302001953,2.016885757446289,0.15993642807006836
1790266301115566600,11.662566650390625,-0.19341802597045898,2.301604747772217,-0.25951361656188965
1790266301125566500,11.67256640625,-1.135141372680664,2.121804714202881,-0.34458649158477783
1790266301135566600,11.682566650390624,-2.3790602684020996,1.0881047248840332,0.044074058532714844
1790266301145566500,11.69256640625,-3.8243460655212402,-0.7128658294677734,0.8145885467529297
1790266301155566600,11.702566650390626,-4.179995059967041,-2.898519515991211,1.5991356372833252
1790266301165566500,11.71256640625,-3.017436981201172,-4.739005088806152,1.6159424781799316
1790266301175566600,11.722566650390625,-1.7032527923583984,-5.993762969970703,0.8014495372772217
1790266301185566500,11.73256640625,-0.9312882423400879,-6.455090045928955,-0.3444470167160034
1790266301195566600,11.742566650390625,-0.8320980072021484,-5.728487968444824,-1.3899086713790894
1790266301205566500,11.75256640625,-1.3755121231079102,-3.9957103729248047,-1.7032768726348877
1790266301215566600,11.762566650390625,-1.9818763732910156,-2.1287217140197754,-1.3529483079910278
1790266301225566500,11.77256640625,-1.644059181213379,-0.8796567916870117,-0.6971607208251953
1790266301235566600,11.782566650390624,-0.41002607345581055,-0.13154172897338867,-0.09010529518127441
1790266301245566500,11.79256640625,0.508941650390625,0.4719991683959961,0.21345114707946777
1790266301255566600,11.802566650390625,0.0406651496887207,1.0346016883850098,0.3089003562927246
1790266301265566500,11.81256640625,-0.6005120277404785,1.267082691192627,0.4749317169189453
1790266301275566600,11.822566650390625,-0.46314525604248047,1.068631649017334,0.5035073757171631
1790266301285566500,11.83256640625,-0.335482120513916,0.8216772079467773,0.6942183971405029
1790266301295566600,11.842566650390625,-0.3512125015258789,0.5509448051452637,0.9802272319793701
1790266301305566500,11.85256640625,-0.6678862571716309,0.15674924850463867,0.9072363376617432
1790266301315566600,11.862566650390624,-1.5278806686401367,-0.17922353744506836,0.5993905067443848
1790266301325566500,11.87256640625,-2.601536273956299,-0.6284313201904297,1.0145225524902344
1790266301335566600,11.882566650390626,-2.138050079345703,-1.3286490440368652,1.815399408340454
1790266301345566500,11.89256640625,-0.17676305770874023,-1.942577838897705,2.1880407333374023
1790266301355566600,11.902566650390625,0.930027961730957,-2.094761848449707,1.9968030452728271
1790266301365566500,11.91256640625,1.391035556793213,-1.6289286613464355,1.3088746070861816
1790266301375566600,11.922566650390625,2.452127456665039,-0.7799162864685059,0.5895717144012451
1790266301385566500,11.93256640625,3.048862934112549,0.10484075546264648,0.043292999267578125
1790266301395566600,11.942566650390624,2.4824752807617188,0.8671183586120605,-0.25807738304138184
1790266301405566500,11.95256640625,0.037517547607421875,1.0953288078308105,-0.34894537925720215
1790266301415566600,11.962566650390626,-5.86561393737793,0.6365327835083008,-0.26674556732177734
1790266301425566500,11.97256640625,-11.779196739196777,-0.7406692504882812,0.6517517566680908
1790266301435566600,11.982566650390625,-9.996371269226074,-3.3931212425231934,2.795508623123169
1790266301445566500,11.99256640625,-2.069986343383789,-5.726971626281738,4.652624130249023
1790266301455566600,12.002566650390625,3.161655902862549,-5.695053577423096,4.25994873046875
1790266301465566500,12.01256640625,3.6922974586486816,-5.123556137084961,2.538576602935791
1790266301475566600,12.022566650390624,0.6164455413818359,-4.426307678222656,2.380455255508423
1790266301485566500,12.03256640625,-2.474562644958496,-3.839268207550049,3.075122594833374
1790266301495566600,12.042566650390626,-2.790426254272461,-4.037378311157227,1.5303471088409424
1790266301505566500,12.05256640625,0.20061874389648438,-4.520167827606201,-0.032346248626708984
1790266301515566600,12.062566650390625,2.9683003425598145,-4.190505504608154,-0.7590203285217285
1790266301525566500,12.07256640625,4.026476860046387,-2.842637777328491,-1.5566306114196777
1790266301535566600,12.082566650390625,4.018134593963623,-1.1537892818450928,-1.794622778892517
1790266301545566500,12.09256640625,3.613158702850342,-0.0073277950286865234,-1.7300959825515747
1790266301555566600,12.102566650390624,3.4538612365722656,0.48027539253234863,-1.3103011846542358
1790266301565566500,12.11256640625,3.7083444595336914,0.5640120506286621,-1.2189838886260986
1790266301575566600,12.122566650390626,4.053040504455566,0.6806361675262451,-1.3579540252685547
1790266301585566500,12.13256640625,5.034256935119629,0.9242149591445923,-1.258183240890503
1790266301595566600,12.142566650390625,6.091787338256836,1.1781944036483765,-1.205230474472046
1790266301605566500,12.15256640625,5.428265571594238,1.329195261001587,-1.5088785886764526
1790266301615566600,12.162566650390625,3.634528636932373,1.2526150941848755,-1.974940538406372
1790266301625566500,12.17256640625,3.6710424423217773,0.8054624199867249,-2.039323329925537
1790266301635566600,12.182566650390624,7.035594940185547,-0.018541455268859863,-1.584890365600586
1790266301645566500,12.19256640625,9.930724143981934,-0.6104365587234497,-1.502730369567871
1790266301655566600,12.202566650390626,10.604283332824707,-0.4787905216217041,-1.3894755840301514
1790266301665566500,12.21256640625,7.9681525230407715,0.17482459545135498,-2.558417558670044
1790266301675566600,12.222566650390625,4.029845237731934,2.0157971382141113,-5.110391616821289
1790266301685566500,12.23256640625,1.3202095031738281,3.911655902862549,-5.45264196395874
1790266301695566600,12.242566650390625,-1.070084571838379,4.238739013671875,-4.7754130363464355
1790266301705566500,12.25256640625,-1.58624267578125,3.5399365425109863,-2.297459125518799
1790266301715566600,12.262566650390625,0.2312154769897461,2.5736069679260254,2.7898802757263184
1790266301725566500,12.27256640625,1.5877389907836914,0.8558973073959351,5.361464500427246
1790266301735566600,12.282566650390624,2.0790634155273438,0.308913916349411,4.109282970428467
1790266301745566500,12.29256640625,3.302847385406494,0.6255030035972595,2.4589264392852783
1790266301755566600,12.302566650390625,2.617724895477295,0.707840621471405,0.2746696472167969
1790266301765566500,12.31256640625,-0.26522254943847656,0.939569354057312,-1.0090422630310059
1790266301775566600,12.322566650390625,-1.9679508209228516,1.2207422256469727,-0.2806692123413086
1790266301785566500,12.33256640625,-2.0417356491088867,1.0683614015579224,0.426586389541626
1790266301795566600,12.342566650390625,-0.25220680236816406,0.44866353273391724,1.1609439849853516
1790266301805566500,12.35256640625,2.946119785308838,-0.1815662384033203,1.4874954223632812
1790266301815566600,12.362566650390624,4.645345687866211,-0.36578381061553955,0.952507495880127
1790266301825566500,12.37256640625,5.528916358947754,-0.2340404987335205,0.17187929153442383
1790266301835566600,12.382566650390626,5.814789772033691,0.02838122844696045,-0.38823962211608887
1790266301845566500,12.39256640625,4.692865371704102,0.35695934295654297,-1.5098797082901
1790266301855566600,12.402566650390625,3.717254638671875,0.6584429740905762,-2.488858699798584
1790266301865566500,12.41256640625,3.3863253593444824,1.0711474418640137,-2.9066014289855957
1790266301875566600,12.422566650390625,3.0225934982299805,1.5852694511413574,-3.060835123062134
1790266301885566500,12.43256640625,3.36629581451416,2.1531763076782227,-2.7028019428253174
1790266301895566600,12.442566650390624,3.2566404342651367,2.609848976135254,-2.3705289363861084
1790266301905566500,12.45256640625,2.730949878692627,2.6714158058166504,-1.667435884475708
1790266301915566600,12.462566650390626,4.06382942199707,2.2982044219970703,-0.86588454246521
1790266301925566500,12.47256640625,5.972082614898682,1.81354820728302,-0.8181390762329102
1790266301935566600,12.482566650390625,6.800872802734375,1.3692717552185059,-1.114458680152893
1790266301945566500,12.49256640625,6.535057067871094,1.1390082836151123,-1.4675216674804688
1790266301955566600,12.502566650390625,5.2686052322387695,0.9884610176086426,-1.750060796737671
1790266301965566500,12.51256640625,2.698762893676758,0.5957202911376953,-2.042788028717041
1790266301975566600,12.522566650390624,-1.0377535820007324,-0.13943719863891602,-2.249687671661377
1790266301985566500,12.53256640625,-4.251816749572754,-1.1033997535705566,-2.445502519607544
1790266301995566600,12.542566650390626,-4.306447982788086,-1.7014374732971191,-2.243978500366211
1790266302005566500,12.55256640625,-2.21718692779541,-1.8222541809082031,-2.0061259269714355
1790266302015566600,12.562566650390625,-1.8011159896850586,-1.6117959022521973,-1.8911974430084229
1790266302025566500,12.57256640625,-1.53941011428833,-1.4087114334106445,-1.2818267345428467
1790266302035566600,12.582566650390625,-1.1302170753479004,-1.5212812423706055,-0.41258764266967773
1790266302045566500,12.59256640625,-2.5288476943969727,-2.3347859382629395,0.34624147415161133
1790266302055566600,12.602566650390624,-4.0929436683654785,-3.7469496726989746,1.0203218460083008
1790266302065566500,12.61256640625,-4.436722755432129,-5.315489768981934,1.1744005680084229
1790266302075566600,12.622566650390626,-3.1426968574523926,-6.54142427444458,0.6796360015869141
1790266302085566500,12.63256640625,-1.2671818733215332,-6.845335006713867,-0.39186644554138184
1790266302095566600,12.642566650390625,-1.340402603149414,-6.739582061767578,-0.9884364604949951
1790266302105566500,12.65256640625,-2.1420722007751465,-6.602953910827637,-0.8674397468566895
1790266302115566600,12.662566650390625,-1.7533464431762695,-6.128823280334473,-0.5793142318725586
1790266302125566500,12.67256640625,-1.445753574371338,-5.152984142303467,-0.33452653884887695
1790266302135566600,12.682566650390624,-1.7581186294555664,-4.048005104064941,-0.14262032508850098
1790266302145566500,12.69256640625,-1.8248333930969238,-2.7545666694641113,0.6384737491607666
1790266302155566600,12.702566650390626,-1.799088478088379,-1.2904906272888184,1.7021353244781494
1790266302165566500,12.71256640625,-1.6211881637573242,0.07465219497680664,2.4161715507507324
1790266302175566600,12.722566650390625,-2.016737937927246,1.2450551986694336,3.0411136150360107
1790266302185566500,12.73256640625,-2.998257637023926,1.965087890625,3.842447280883789
1790266302195566600,12.742566650390625,-3.0614748001098633,2.0559024810791016,4.597846508026123
1790266302205566500,12.75256640625,-2.0539393424987793,1.484792709350586,4.969810962677002
1790266302215566600,12.762566650390625,-1.6967535018920898,0.552729606628418,4.324984550476074
1790266302225566500,12.77256640625,-1.7337517738342285,-0.19139385223388672,3.194429636001587
