time,seconds_elapsed,z,y,x
1790266289518655000,0.065655029296875,10.023533821105957,0.5551348328590393,-3.0723843574523926
1790266289535907300,0.0829072265625,10.504491806030273,0.8446664214134216,-2.352144718170166
1790266289553159700,0.10015966796875,10.289137840270996,1.2538390159606934,-1.6701902151107788
1790266289570412000,0.117412109375,8.851051330566406,1.2849457263946533,-0.6628118753433228
1790266289587664400,0.134664306640625,7.432106971740723,1.4333007335662842,-0.33738797903060913
1790266289604917000,0.1519169921875,5.063212871551514,1.5744773149490356,-0.7489534616470337
1790266289622169300,0.16916943359375,4.201796531677246,1.7443677186965942,-0.7130611538887024
1790266289639421700,0.186421630859375,18.84108543395996,8.506484031677246,-15.220745086669922
1790266289656674000,0.203674072265625,6.075376510620117,3.436093330383301,-5.661418437957764
1790266289673926400,0.220926513671875,6.697510719299316,0.37806597352027893,0.040677983313798904
1790266289691178800,0.2381787109375,10.401599884033203,1.703689694404602,1.1174482107162476
1790266289708431000,0.25543115234375,10.612168312072754,2.6775684356689453,1.4021940231323242
1790266289725683500,0.272683349609375,9.588040351867676,1.9166508913040161,-0.33499518036842346
1790266289742936000,0.28993603515625,9.56889820098877,2.201396942138672,-1.6271194219589233
1790266289760188400,0.3071884765625,7.8795647621154785,1.2490534782409668,-3.4552359580993652
1790266289777440800,0.324440673828125,6.831508636474609,0.7920243144035339,-5.938985824584961
1790266289794693000,0.341693115234375,6.297909259796143,0.5790630578994751,-5.333601474761963
1790266289811945500,0.358945556640625,7.927421569824219,-1.1988041400909424,-1.5074782371520996
1790266289829197800,0.37619775390625,10.451848983764648,-0.25363919138908386,1.1078768968582153
1790266289846450200,0.3934501953125,11.531012535095215,1.069591760635376,1.9884356260299683
1790266289863702500,0.41070263671875,14.225330352783203,0.7202396392822266,4.67078971862793
1790266289880955000,0.427954833984375,14.854642868041992,-0.44745782017707825,6.156732559204102
1790266289898207500,0.44520751953125,12.88056468963623,-2.754138946533203,4.445864677429199
1790266289915459800,0.4624599609375,4.661218643188477,-2.610569477081299,0.7250252366065979
1790266289932712200,0.479712158203125,-4.3070807456970215,-0.05024927482008934,0.7345965504646301
1790266289949964500,0.496964599609375,-2.0817556381225586,-0.7872386574745178,2.014756679534912
1790266289967217000,0.514216796875,4.6995038986206055,-3.735196113586426,5.398207664489746
1790266289984469200,0.53146923828125,5.639883041381836,-5.163711071014404,3.7399818897247314
1790266290001721600,0.5487216796875,3.2781670093536377,-6.5491557121276855,1.672582983970642
1790266290018974000,0.565973876953125,0.5455635786056519,-7.3292155265808105,0.5264210104942322
1790266290036226300,0.583226318359375,-1.1485549211502075,-10.463813781738281,0.7082754969596863
1790266290053479000,0.60047900390625,0.8111668825149536,-10.566704750061035,2.981456995010376
1790266290070731300,0.617731201171875,0.11006984114646912,-11.172088623046875,6.192625045776367
1790266290087983600,0.634983642578125,-1.1413763761520386,-10.131211280822754,6.656832695007324
1790266290105236000,0.652236083984375,-1.7252250909805298,-10.289137840270996,10.061819076538086
1790266290122488300,0.66948828125,-2.988635540008545,-11.648261070251465,14.770894050598145
1790266290139740700,0.68674072265625,-1.4739787578582764,-8.817551612854004,22.91127586364746
1790266290156993000,0.703992919921875,3.1800613403320312,-5.2115678787231445,28.443483352661133
1790266290174245400,0.721245361328125,5.97727108001709,-1.9070796966552734,28.993831634521484
1790266290191498000,0.738498046875,0.4019941985607147,0.4546363055706024,27.433712005615234
1790266290208750300,0.755750244140625,-5.900700569152832,2.2157537937164307,26.469404220581055
1790266290226002700,0.773002685546875,-10.076175689697266,3.1202406883239746,23.21038055419922
1790266290243255000,0.790255126953125,-11.772686958312988,3.4791641235351562,18.427127838134766
1790266290260507400,0.80750732421875,-14.021940231323242,3.3571300506591797,20.42034912109375
1790266290277759700,0.824759765625,-23.021347045898438,4.646861553192139,15.385849952697754
1790266290295012000,0.84201220703125,-17.2666072845459,-2.0721843242645264,5.26181697845459
1790266290312264400,0.859264404296875,-5.335994720458984,-6.235695838928223,3.0723843574523926
1790266290329516800,0.876516845703125,-3.507878065109253,-5.9676995277404785,6.295516490936279
1790266290346769200,0.89376904296875,-5.838487148284912,-4.340580463409424,6.293123722076416
1790266290364021500,0.911021484375,-0.8039883971214294,-3.9122650623321533,6.4079790115356445
1790266290381273900,0.92827392578125,4.833501815795898,-4.208974838256836,8.752944946289062
1790266290398526500,0.9455263671875,1.3160524368286133,-3.1585259437561035,9.107083320617676
1790266290415778800,0.96277880859375,-6.273981094360352,0.19142581522464752,6.321837425231934
1790266290433031200,0.98003125,-5.161318302154541,3.2518460750579834,7.403393268585205
1790266290450283500,0.997283447265625,3.5772697925567627,0.6436693072319031,2.038684844970703
1790266290467536000,1.014535888671875,5.089533805847168,0.04785645380616188,2.139183521270752
1790266290484788200,1.031788330078125,0.8805587291717529,-1.337587833404541,1.5361921787261963
1790266290502040600,1.04904052734375,-5.649454116821289,-0.44745782017707825,-0.24646073579788208
1790266290519293000,1.06629296875,-12.63888931274414,-0.641276478767395,0.20817556977272034
1790266290536545300,1.083545166015625,-18.611373901367188,-1.0600204467773438,1.6510475873947144
1790266290553798000,1.1007978515625,-14.646467208862305,-4.778466701507568,3.1417760848999023
1790266290571050200,1.11805029296875,-6.647261142730713,-4.551148891448975,1.8711873292922974
1790266290588302600,1.135302490234375,4.536791801452637,-12.44985580444336,12.361321449279785
1790266290605555000,1.152554931640625,4.500899314880371,-14.579468727111816,16.000804901123047
1790266290622807300,1.169807373046875,-1.7252250909805298,-9.432506561279297,13.969298362731934
1790266290640059600,1.1870595703125,-14.261222839355469,-13.378271102905273,9.870393753051758
1790266290657312000,1.20431201171875,-10.679167747497559,-10.463813781738281,6.5874409675598145
1790266290674564400,1.221564453125,-5.048855781555176,-4.048655986785889,3.1513473987579346
1790266290691816700,1.238816650390625,-3.2470602989196777,-2.9168508052825928,4.7234320640563965
1790266290709069000,1.256069091796875,-6.206982135772705,-4.680361270904541,2.581855535507202
1790266290726321700,1.27332177734375,-3.445664644241333,-6.029912948608398,6.628118515014648
1790266290743574000,1.290573974609375,3.0963125228881836,-9.717252731323242,5.436492919921875
1790266290760826400,1.307826416015625,-9.66939640045166,-10.179067611694336,15.120245933532715
1790266290778078700,1.32507861328125,-9.028120040893555,-8.673981666564941,14.055439949035645
1790266290795331000,1.3423310546875,-3.7328033447265625,-6.975078105926514,5.5968122482299805
1790266290812583400,1.35958349609375,-3.5772697925567627,-2.306680917739868,6.7621169090271
1790266290829835800,1.376835693359375,-2.4287149906158447,0.47617170214653015,6.228517532348633
1790266290847088000,1.394088134765625,-4.366901397705078,-1.373480200767517,7.17368221282959
1790266290864340500,1.411340576171875,-6.843472957611084,-5.489135265350342,2.682354211807251
1790266290881597700,1.42859765625,-4.72582483291626,-8.628518104553223,1.797009825706482
1790266290898849500,1.445849609375,-5.087141036987305,-11.743973731994629,1.8592232465744019
1790266290916100600,1.4631005859375,-2.084148406982422,-11.949756622314453,1.4691931009292603
1790266290933352000,1.48035205078125,-0.9068797826766968,-8.717052459716797,-0.7800601720809937
1790266290950603300,1.497603271484375,-5.513063430786133,-8.068597793579102,-0.4450650215148926
1790266290967854600,1.5148544921875,-6.199803352355957,-8.934800148010254,0.397208571434021
1790266290985106000,1.53210595703125,-2.3641088008880615,-8.12123966217041,2.2372891902923584
1790266291002358500,1.549358642578125,-0.19142581522464752,-4.563112735748291,5.242674350738525
1790266291019611100,1.566611083984375,0.363709032535553,9.291330337524414,2.8761727809906006
1790266291036863500,1.583863525390625,2.723032236099243,-7.369893550872803,1.3926228284835815
1790266291054116000,1.6011162109375,-3.9122650623321533,-17.31207275390625,-2.045863389968872
1790266291071368400,1.618368408203125,-3.108276605606079,-19.106689453125,-3.538984775543213
1790266291088621000,1.63562109375,-5.041677474975586,-9.714859962463379,2.2612173557281494
1790266291105873200,1.652873046875,-3.493520975112915,-11.236695289611816,4.328616142272949
1790266291123125500,1.67012548828125,-0.6221339106559753,-17.185253143310547,2.342573404312134
1790266291140377900,1.6873779296875,-3.452843189239502,-16.503297805786133,3.4480574131011963
1790266291157630200,1.704630126953125,-4.015156269073486,-15.366706848144531,5.0225348472595215
1790266291174882300,1.72188232421875,-0.2847459018230438,-11.3778715133667,2.0506489276885986
1790266291192135000,1.739135009765625,-0.882951557636261,-7.767102241516113,1.490728497505188
1790266291209387300,1.75638720703125,-4.350151538848877,-11.124232292175293,2.2468605041503906
1790266291226640000,1.773639892578125,-5.381458282470703,-13.263416290283203,2.021935224533081
1790266291243892200,1.790892333984375,-0.2225325107574463,-10.435099601745605,2.4263222217559814
1790266291261144800,1.808144775390625,1.0289137363433838,-8.2695951461792,2.3401806354522705
1790266291278397400,1.8253974609375,-1.8424733877182007,-7.884350776672363,2.4646072387695312
1790266291295649500,1.8426494140625,-1.7874385118484497,-8.834300994873047,1.9573289155960083
1790266291312902000,1.85990185546875,-1.6175481081008911,-8.185846328735352,0.7585247755050659
1790266291330154200,1.877154296875,-0.03349951654672623,-7.0061845779418945,0.15553347766399384
1790266291347406600,1.894406494140625,0.02153540402650833,-5.766702651977539,0.2967100143432617
1790266291364658700,1.91165869140625,-3.2997024059295654,-1.6845471858978271,1.7371892929077148
1790266291381911000,1.9289111328125,-1.031306505203247,-9.81535816192627,3.1752755641937256
1790266291399163600,1.94616357421875,-2.809173822402954,-10.15035343170166,3.036491870880127
1790266291416416300,1.963416259765625,-0.8877372145652771,-9.903892517089844,3.2757742404937744
1790266291433668600,1.980668701171875,-0.007178467698395252,-11.485548973083496,1.1126625537872314
1790266291450921200,1.997921142578125,-4.242474555969238,-11.827722549438477,1.1724830865859985
1790266291468173600,2.015173583984375,-3.8285162448883057,-9.528220176696777,2.7014968395233154
1790266291485426200,2.03242626953125,-0.29431718587875366,-7.891529083251953,2.3258235454559326
1790266291502678300,2.04967822265625,-3.2135608196258545,-8.992227554321289,0.8303094506263733
1790266291519930600,2.0669306640625,-1.397408366203308,-9.351150512695312,1.428515076637268
1790266291537183000,2.084182861328125,-1.0528420209884644,-9.190832138061523,2.6703901290893555
1790266291554435300,2.101435302734375,-1.3160524368286133,-9.042476654052734,2.3258235454559326
1790266291571687400,2.1186875,-0.7585247755050659,-10.078569412231445,2.495713949203491
1790266291588939800,2.135939697265625,-3.6705899238586426,-11.026126861572266,1.0432707071304321
1790266291606192000,2.153192138671875,-5.125426292419434,-9.688538551330566,1.0169496536254883
1790266291623444500,2.170444580078125,0.4259224236011505,-10.363314628601074,0.763310432434082
1790266291640696600,2.187696533203125,1.1988041400909424,-8.181060791015625,2.414358139038086
1790266291657949000,2.204948974609375,-1.3830515146255493,-8.087740898132324,3.4983067512512207
1790266291675201300,2.222201171875,-2.4646072387695312,-7.6737823486328125,1.1748759746551514
1790266291692453600,2.23945361328125,0.9619147181510925,-8.023134231567383,-1.098305583000183
1790266291709706200,2.256706298828125,3.5509488582611084,-9.461220741271973,-0.41874396800994873
1790266291726958800,2.273958740234375,0.17946170270442963,-11.322836875915527,-0.5359922647476196
1790266291744211200,2.291211181640625,-5.4556355476379395,-13.526626586914062,-3.1824541091918945
1790266291761463800,2.3084638671875,-6.259624004364014,-12.911670684814453,-2.1678972244262695
1790266291778716200,2.325716064453125,-1.495514154434204,-10.279565811157227,-0.4450650215148926
1790266291795968500,2.342968505859375,-0.9523434042930603,-8.214560508728027,0.37806597352027893
1790266291813220900,2.360220947265625,1.5672988891601562,-6.5491557121276855,1.1772687435150146
1790266291830473000,2.377472900390625,0.22971096634864807,-7.2813591957092285,-0.6197410821914673
1790266291847725300,2.394725341796875,3.1680972576141357,-8.10688304901123,2.2444677352905273
1790266291864977700,2.411977783203125,0.2512463629245758,-9.111868858337402,0.43549370765686035
1790266291882230000,2.42922998046875,-1.1724830865859985,-10.549955368041992,-0.794417142868042
1790266291899482600,2.446482666015625,-0.7704889178276062,-13.540983200073242,-1.215553879737854
1790266291916735000,2.46373486328125,-1.1318050622940063,-12.076576232910156,1.093519926071167
1790266291933987600,2.480987548828125,-1.526620864868164,-8.913264274597168,1.5864413976669312
1790266291951240000,2.498239990234375,0.4737788736820221,-9.300901412963867,1.7467604875564575
1790266291968492500,2.515492431640625,-2.9072794914245605,-15.584453582763672,1.5433706045150757
1790266291985745000,2.532744873046875,-1.0767701864242554,-9.659825325012207,0.8805587291717529
1790266292002997200,2.549997314453125,-3.902693748474121,-5.259424209594727,3.3164522647857666
1790266292020249600,2.56724951171875,-1.1126625537872314,-7.252645492553711,7.743174076080322
1790266292037501700,2.584501708984375,0.605384111404419,-7.740781307220459,7.197610378265381
1790266292054754000,2.601754150390625,0.07417750358581543,-7.118647575378418,5.089533805847168
1790266292072006400,2.61900634765625,-0.7992027401924133,-6.955935478210449,4.433900356292725
1790266292089258800,2.6362587890625,-1.2346965074539185,-18.81476402282715,-1.7180466651916504
1790266292106511400,2.653511474609375,-8.707481384277344,-16.92922019958496,-2.251646041870117
1790266292123764000,2.670763916015625,-5.982056617736816,-10.131211280822754,-0.7082754969596863
1790266292141016300,2.688016357421875,-2.9766714572906494,-9.351150512695312,0.7393822073936462
1790266292158269000,2.70526904296875,-3.7423746585845947,-10.112068176269531,1.9142581224441528
1790266292175521300,2.722521240234375,-6.228517532348633,-9.119047164916992,2.8211379051208496
1790266292192773600,2.739773681640625,-4.338187217712402,-8.02791976928711,2.6943182945251465
1790266292210026000,2.75702587890625,-2.0243279933929443,-5.398207664489746,2.7876384258270264
1790266292227278000,2.774278076171875,-3.9457645416259766,-5.553741455078125,2.0650060176849365
1790266292244530400,2.791530517578125,-2.390429735183716,-7.791030406951904,1.2323036193847656
1790266292261782800,2.80878271484375,0.13160525262355804,-9.753145217895508,0.5527420043945312
1790266292279035400,2.826035400390625,-1.3663017749786377,-12.138789176940918,-2.6009981632232666
1790266292296287700,2.843287841796875,-6.068198204040527,-15.940984725952148,-10.427921295166016
1790266292313539800,2.860539794921875,-9.19561767578125,-13.048062324523926,-3.9529430866241455
1790266292330792200,2.877792236328125,-8.93240737915039,-10.86580753326416,6.166304111480713
1790266292348044500,2.89504443359375,-6.199803352355957,-8.008777618408203,7.324429988861084
1790266292365297000,2.912296875,-7.893921852111816,-6.1088762283325195,6.50608491897583
1790266292382549200,2.92954931640625,-8.343772888183594,-5.759523868560791,2.8905298709869385
1790266292399801600,2.946801513671875,-7.003791809082031,-6.206982135772705,3.326023578643799
1790266292417054200,2.96405419921875,-5.706881999969482,-6.733402729034424,4.096512317657471
1790266292434306600,2.981306640625,-7.350750923156738,-7.18086051940918,3.8261234760284424
1790266292451559200,2.99855908203125,-6.888936519622803,-7.860422611236572,3.084348440170288
1790266292468811800,3.015811767578125,-7.664210796356201,-8.008777618408203,3.3068809509277344
1790266292486064000,3.033064208984375,-8.128418922424316,-7.63310432434082,3.768695592880249
1790266292503316500,3.05031640625,-8.02074146270752,-6.276373863220215,4.187439441680908
1790266292520568600,3.067568603515625,-7.781459331512451,-4.713860511779785,3.8835511207580566
1790266292537821000,3.084821044921875,-7.645068168640137,-4.170690059661865,3.649054527282715
1790266292555073300,3.1020732421875,-8.606983184814453,-4.639683246612549,3.005385160446167
1790266292572325600,3.11932568359375,-8.159524917602539,-4.783252239227295,2.7661030292510986
1790266292589578000,3.136577880859375,-9.008976936340332,-4.359723091125488,2.991028308868408
1790266292606830600,3.15383056640625,-10.37767219543457,-4.266402721405029,2.306680917739868
1790266292624083000,3.1710830078125,-9.013762474060059,-4.78803825378418,2.438286304473877
1790266292641335600,3.18833544921875,-7.10429048538208,-4.766502857208252,2.148754835128784
1790266292658588000,3.205587890625,-8.343772888183594,-4.225724697113037,1.0648061037063599
1790266292675840500,3.222840576171875,-8.240880966186523,-4.168296813964844,0.3852444589138031
1790266292693092900,3.2400927734375,-7.9250288009643555,-3.8883368968963623,0.9810572862625122
1790266292710345000,3.257344970703125,-8.157132148742676,-3.675375461578369,0.5718846321105957
1790266292727597300,3.274597412109375,-6.285944938659668,-3.589233875274658,0.5551348328590393
1790266292744849700,3.291849609375,-6.374479293823242,-3.1513473987579346,-0.5120640397071838
1790266292762102000,3.30910205078125,-6.671189308166504,-2.2612173557281494,-2.2085752487182617
1790266292779354400,3.326354248046875,-7.054041385650635,-1.5696916580200195,-2.3162522315979004
1790266292796606700,3.343606689453125,-6.38165807723999,-0.6652047038078308,-2.060220241546631
1790266292813859300,3.360859375,-7.685746192932129,1.0648061037063599,-1.8233308792114258
1790266292831111700,3.378111572265625,-8.176275253295898,2.2947168350219727,-0.7489534616470337
1790266292848364300,3.3953642578125,-7.946564197540283,0.9188438653945923,1.246660590171814
1790266292865617000,3.412616943359375,-8.798408508300781,-1.7802600860595703,1.6271194219589233
1790266292882869200,3.429869140625,-8.367700576782227,-3.1345977783203125,2.227717876434326
1790266292900121300,3.447121337890625,-9.29611587524414,-1.950150489807129,0.4905286431312561
1790266292917373700,3.464373779296875,-7.75753116607666,-0.4905286431312561,0.7585247755050659
1790266292934626000,3.4816259765625,-8.039883613586426,0.26560330390930176,0.6891329288482666
1790266292951878400,3.49887841796875,-6.597012042999268,0.02392822690308094,1.3232308626174927
1790266292969130800,3.516130859375,-6.613761901855469,-0.363709032535553,0.02632104977965355
1790266292986382800,3.5333828125,-6.460621356964111,-0.5383850932121277,-0.2967100143432617
1790266293003635200,3.55063525390625,-5.0464630126953125,-0.763310432434082,0.26081767678260803
1790266293020887600,3.567887451171875,-5.426921844482422,-0.014356935396790504,-0.15314064919948578
1790266293038140000,3.585139892578125,-7.460821151733398,0.576670229434967,-0.2392822653055191
1790266293055392000,3.60239208984375,-7.590033531188965,0.031106693670153618,0.916451096534729
1790266293072644400,3.619644287109375,-8.365307807922363,-0.9930213689804077,0.6221339106559753
1790266293089897000,3.63689697265625,-8.394021987915039,-1.6821542978286743,1.1461620330810547
1790266293107149300,3.6541494140625,-9.174081802368164,-2.251646041870117,1.6462619304656982
1790266293124402000,3.67140185546875,-10.009177207946777,-3.184846878051758,1.435693621635437
1790266293141654300,3.688654296875,-8.25523853302002,-4.395615100860596,0.698704183101654
1790266293158907000,3.705906982421875,-6.044270038604736,-5.010570526123047,0.3517449200153351
1790266293176159500,3.723159423828125,-5.819344520568848,-5.056034088134766,-0.040677983313798904
1790266293193411800,3.740411865234375,-8.4562349319458,-4.644468784332275,0.08135596662759781
1790266293210664000,3.757663818359375,-8.762516975402832,-3.6945180892944336,0.26560330390930176
1790266293227916300,3.774916259765625,-8.396414756774902,-2.7804598808288574,-0.19621145725250244
1790266293245168600,3.792168701171875,-6.577869415283203,-2.7972097396850586,-0.20338992774486542
1790266293262421000,3.8094208984375,-6.874579429626465,-3.8356947898864746,0.20099709928035736
1790266293279673300,3.82667333984375,-7.073183536529541,-5.601597785949707,0.5599204897880554
1790266293296925700,3.84392578125,-6.608976364135742,-7.503891944885254,0.6508477330207825
1790266293314178300,3.86117822265625,-6.98704195022583,-8.676374435424805,0.7130611538887024
1790266293331430700,3.8784306640625,-7.319644451141357,-9.032905578613281,1.3184453248977661
1790266293348683300,3.895683349609375,-7.465606689453125,-8.621339797973633,2.1439690589904785
1790266293365935600,3.912935546875,-7.999206066131592,-7.9728851318359375,3.0484559535980225
1790266293383188200,3.930188232421875,-9.001798629760742,-8.133204460144043,3.469592809677124
1790266293400440300,3.9474404296875,-8.334200859069824,-9.681360244750977,2.809173822402954
1790266293417692700,3.964692626953125,-8.638090133666992,-11.925827980041504,2.196611166000366
1790266293434945000,3.981945068359375,-8.169096946716309,-14.165510177612305,3.043670415878296
1790266293452197400,3.999197265625,-7.601997375488281,-15.550954818725586,4.039084434509277
1790266293469449500,4.016449462890625,-5.931807518005371,-14.088939666748047,4.584648132324219
1790266293486701800,4.033701904296875,-7.192824840545654,-11.045269012451172,4.256831645965576
1790266293503954200,4.0509541015625,-5.929414749145508,-7.384250640869141,3.8572301864624023
1790266293521206500,4.06820654296875,-5.175675392150879,-4.6301116943359375,3.7878382205963135
1790266293538459000,4.085458984375,-5.737988471984863,-2.9551360607147217,3.3068809509277344
1790266293555711000,4.1027109375,-5.812166213989258,-3.136990547180176,2.304288148880005
1790266293572963300,4.11996337890625,-7.04207706451416,-5.551348686218262,0.7537391185760498
1790266293590216000,4.1372158203125,-8.513663291931152,-8.951549530029297,0.3852444589138031
1790266293607468300,4.15446826171875,-8.707481384277344,-12.162717819213867,1.2658032178878784
1790266293624721000,4.171720947265625,-6.936792850494385,-13.940585136413574,1.5002998113632202
1790266293641973200,4.18897314453125,-4.993820667266846,-13.220345497131348,1.1365907192230225
1790266293659225900,4.206225830078125,-5.405386447906494,-11.466405868530273,1.4883357286453247
1790266293676478200,4.223478271484375,-6.338587284088135,-10.853843688964844,2.469393014907837
1790266293693730600,4.24073046875,-6.7692952156066895,-11.274980545043945,4.053441524505615
1790266293710983000,4.25798291015625,-7.0061845779418945,-11.935399055480957,3.8261234760284424
1790266293728235300,4.2752353515625,-7.475177764892578,-10.456634521484375,3.8524444103240967
1790266293745487400,4.2924873046875,-6.896114826202393,-9.229117393493652,4.108476638793945
1790266293762739700,4.30973974609375,-4.242474555969238,-8.597412109375,3.900300979614258
1790266293779992000,4.326991943359375,-4.677968502044678,-7.396214962005615,2.6967110633850098
1790266293797244700,4.34424462890625,-5.216353416442871,-6.041877269744873,0.9690931439399719
1790266293814497000,4.3614970703125,-4.094119548797607,-5.146961688995361,1.459621787071228
1790266293831749600,4.37874951171875,-4.893322467803955,-4.8574299812316895,2.3952155113220215
1790266293849002200,4.396002197265625,-7.860422611236572,-5.242674350738525,1.6701902151107788
1790266293866254600,4.413254638671875,-8.46341323852539,-6.802794933319092,1.9812572002410889
1790266293883507000,4.4305068359375,-8.583054542541504,-7.8795647621154785,2.376072883605957
1790266293900759300,4.44775927734375,-9.731609344482422,-8.063812255859375,1.765903115272522
1790266293918011600,4.46501171875,-8.69791030883789,-8.61894702911377,2.5842485427856445
1790266293935263700,4.482263671875,-6.999006271362305,-8.149953842163086,4.00319242477417
1790266293952516000,4.49951611328125,-10.301101684570312,-5.78345251083374,3.596412420272827
1790266293969768400,4.5167685546875,-10.246066093444824,-5.278566837310791,3.452843189239502
1790266293987021000,4.53402099609375,-7.680960655212402,-6.38165807723999,3.9912281036376953
1790266294004273200,4.551273193359375,-8.382058143615723,-7.240681171417236,3.7160534858703613
1790266294021525500,4.568525390625,-9.492327690124512,-7.657032489776611,3.3236305713653564
1790266294038777900,4.58577783203125,-8.547162055969238,-7.544569969177246,3.0388846397399902
1790266294056030200,4.6030302734375,-7.04207706451416,-6.293123722076416,3.13220477104187
1790266294073282300,4.6202822265625,-6.874579429626465,-4.264009952545166,2.5459632873535156
1790266294090534700,4.63753466796875,-7.3746795654296875,-2.7493531703948975,1.3040883541107178
1790266294107787000,4.654787109375,-8.140382766723633,-2.139183521270752,0.05742774158716202
1790266294125039400,4.672039306640625,-7.75753116607666,-2.3018953800201416,-0.3565305769443512
1790266294142291500,4.68929150390625,-7.324429988861084,-2.837887763977051,-0.3517449200153351
1790266294159543800,4.706543701171875,-7.295716285705566,-3.2446675300598145,0.4259224236011505
1790266294176796200,4.723796142578125,-7.793423175811768,-3.239881753921509,0.9619147181510925
1790266294194048800,4.741048828125,-7.977670669555664,-2.950350284576416,0.6795616149902344
1790266294211301000,4.758301025390625,-6.376872539520264,-2.304288148880005,1.2658032178878784
1790266294228553700,4.7755537109375,-6.372086524963379,-1.5050854682922363,1.3591232299804688
1790266294245806000,4.79280615234375,-5.283352375030518,-0.12681959569454193,0.6652047038078308
1790266294263058700,4.81005859375,-5.414957523345947,1.2993026971817017,-0.5096712112426758
1790266294280311000,4.82731103515625,-7.814958572387695,1.3040883541107178,-1.9597218036651611
1790266294297563400,4.8445634765625,-6.534798622131348,0.2967100143432617,-1.428515076637268
1790266294314815700,4.861815673828125,-7.726424217224121,-1.191625714302063,-0.6963114142417908
1790266294332068000,4.879068115234375,-9.753145217895508,-1.588834285736084,0.7561319470405579
1790266294349320200,4.8963203125,-9.418149948120117,-1.2945170402526855,1.277767300605774
1790266294366572500,4.913572509765625,-5.986842155456543,-0.7728816866874695,2.3976082801818848
1790266294383825000,4.930824951171875,-4.402793884277344,-0.6125625967979431,0.397208571434021
1790266294401077200,4.9480771484375,-7.164111137390137,0.6939185857772827,-1.557727575302124
1790266294418329300,4.965329345703125,-7.164111137390137,1.3471591472625732,-0.397208571434021
1790266294435581700,4.982581787109375,-5.06799840927124,1.160519003868103,1.7060825824737549
1790266294452834000,4.999833984375,-6.9583282470703125,1.7084753513336182,2.0793628692626953
1790266294470086400,5.01708642578125,-8.530412673950195,1.2394821643829346,2.500499725341797
1790266294487338800,5.0343388671875,-7.800601959228516,-0.41874396800994873,2.940778970718384
1790266294504591400,5.05159130859375,-5.161318302154541,-2.210968017578125,2.950350284576416
1790266294521843700,5.06884375,-5.632704734802246,-3.682554006576538,2.155933141708374
1790266294539096300,5.086096435546875,-6.704689025878906,-4.742574691772461,1.306481122970581
1790266294556348700,5.1033486328125,-3.806980848312378,-4.895715236663818,0.9762716293334961
1790266294573601300,5.120601318359375,-2.3545374870300293,-4.304687976837158,0.2919243574142456
1790266294590853600,5.137853515625,-9.934999465942383,-3.665804386138916,-1.1102696657180786
1790266294608105700,5.155105712890625,-13.677373886108398,-3.1489546298980713,-0.9092726111412048
1790266294625358000,5.172358154296875,-8.468199729919434,-2.7182464599609375,-0.4211367964744568
1790266294642610400,5.1896103515625,-7.786244869232178,-3.098705291748047,0.607776939868927
1790266294659862800,5.20686279296875,-9.702896118164062,-5.527420520782471,2.3186452388763428
1790266294677115000,5.224114990234375,-8.647661209106445,-9.212367057800293,2.775674343109131
1790266294694367200,5.2413671875,-6.080162525177002,-11.641081809997559,1.9142581224441528
1790266294711619600,5.25861962890625,-6.829115867614746,-13.643875122070312,2.3808584213256836
1790266294728872000,5.275871826171875,-7.707281589508057,-13.442877769470215,3.2829527854919434
1790266294746124300,5.293124267578125,-5.699703693389893,-11.071590423583984,2.610569477081299
1790266294763376400,5.31037646484375,-6.436692714691162,-8.8438720703125,1.9286150932312012
1790266294780628700,5.327628662109375,-6.534798622131348,-7.252645492553711,2.4813570976257324
1790266294797881300,5.34488134765625,-6.8410797119140625,-6.57547664642334,2.7349963188171387
1790266294815134000,5.362134033203125,-6.58265495300293,-6.8410797119140625,2.837887763977051
1790266294832386300,5.37938623046875,-6.034698486328125,-7.6043901443481445,2.5196423530578613
1790266294849639000,5.396638916015625,-6.56829833984375,-8.26241683959961,1.5146567821502686
1790266294866891300,5.413891357421875,-8.015955924987793,-8.824729919433594,1.1868400573730469
1790266294884143900,5.431143798828125,-8.714659690856934,-9.963713645935059,1.856830358505249
1790266294901396500,5.448396484375,-9.281759262084961,-12.145967483520508,3.601198196411133
1790266294918648800,5.46564892578125,-7.176074981689453,-13.861621856689453,4.541577339172363
1790266294935901400,5.4829013671875,-5.280959606170654,-12.284751892089844,3.4959139823913574
1790266294953153800,5.50015380859375,-5.836094379425049,-9.903892517089844,2.2444677352905273
1790266294970406400,5.517406494140625,-5.484349727630615,-8.681160926818848,1.5672988891601562
1790266294987658800,5.53465869140625,-4.768895626068115,-8.37966537475586,1.3519448041915894
1790266295004910800,5.551910888671875,-4.527220249176025,-8.470592498779297,1.6462619304656982
1790266295022163000,5.569162841796875,-4.981856822967529,-8.315058708190918,2.117648124694824
1790266295039414800,5.586414794921875,-5.517848968505859,-8.24566650390625,1.9286150932312012
1790266295056667000,5.6036669921875,-6.254838466644287,-8.7505521774292,1.4763715267181396
1790266295073919000,5.6209189453125,-7.448856830596924,-9.734002113342285,1.6893328428268433
1790266295091171600,5.638171630859375,-7.362715244293213,-10.339386940002441,2.6368906497955322
1790266295108424000,5.655423828125,-6.247660160064697,-9.418149948120117,3.0652058124542236
1790266295125676500,5.672676513671875,-6.183053493499756,-7.977670669555664,2.555534601211548
1790266295142929000,5.689928955078125,-5.917450428009033,-6.991827964782715,1.557727575302124
1790266295160181500,5.707181396484375,-6.087340831756592,-6.695117950439453,0.6556333899497986
1790266295177433900,5.724433837890625,-7.980063438415527,-7.41535758972168,0.729810893535614
1790266295194686200,5.741686279296875,-10.28195858001709,-8.544769287109375,1.8664016723632812
1790266295211938600,5.7589384765625,-7.04207706451416,-9.422935485839844,3.218346357345581
1790266295229191000,5.77619091796875,-6.98704195022583,-9.214759826660156,4.642076015472412
1790266295246443000,5.793443115234375,-8.872586250305176,-8.094919204711914,3.869194269180298
1790266295263695400,5.8106953125,-8.791230201721191,-7.812565803527832,3.2997024059295654
1790266295280947700,5.82794775390625,-7.630711555480957,-7.791030406951904,2.792423963546753
1790266295298200000,5.845199951171875,-8.214560508728027,-7.2574310302734375,1.8735800981521606
1790266295315452400,5.862452392578125,-8.83669376373291,-6.5180487632751465,1.3280165195465088
1790266295332704500,5.87970458984375,-8.193024635314941,-5.733202934265137,1.6199408769607544
1790266295349956900,5.896956787109375,-9.181260108947754,-4.898108005523682,2.4574289321899414
1790266295367209200,5.914209228515625,-8.159524917602539,-4.388436794281006,1.828116536140442
1790266295384461600,5.931461669921875,-7.594819068908691,-4.8574299812316895,1.2849457263946533
1790266295401713700,5.948713623046875,-9.07119083404541,-4.711467742919922,1.4189438819885254
1790266295418966000,5.965966064453125,-10.277173042297363,-4.807180881500244,1.6869399547576904
1790266295436218400,5.98321826171875,-7.121040344238281,-5.481956481933594,2.541177749633789
1790266295453470700,6.000470703125,-6.467799663543701,-5.4628143310546875,2.3162522315979004
1790266295470722800,6.017722900390625,-8.568697929382324,-4.4721856117248535,0.9786644577980042
1790266295487975400,6.034975341796875,-8.21695327758789,-3.407379388809204,0.8039883971214294
1790266295505227800,6.052227783203125,-6.151947021484375,-2.3736801147460938,1.2729816436767578
1790266295522480400,6.06948046875,-8.358129501342773,-0.9834501147270203,1.1653046607971191
1790266295539733000,6.08673291015625,-7.032505512237549,-0.13160525262355804,1.3495519161224365
1790266295556985300,6.1039853515625,-4.436293125152588,-0.064606212079525,1.6366907358169556
1790266295574238000,6.121238037109375,-5.347958564758301,0.2512463629245758,0.5335994362831116
1790266295591490000,6.138489990234375,-6.278766632080078,0.38285163044929504,-0.8709874153137207
1790266295608742400,6.155742431640625,-4.78803825378418,0.5575276613235474,-0.48813581466674805
1790266295625994800,6.172994873046875,-6.721438884735107,0.9403793215751648,-0.7369893789291382
1790266295643247000,6.1902470703125,-5.422136306762695,0.5335994362831116,0.33738797903060913
1790266295660499500,6.20749951171875,-5.314459323883057,1.1581261157989502,1.1868400573730469
1790266295677751600,6.22475146484375,-7.678567886352539,1.8855443000793457,-0.06939185410737991
1790266295695004000,6.24200390625,-7.719245910644531,1.3040883541107178,0.46420758962631226
1790266295712256300,6.25925634765625,-6.795616149902344,0.5670989751815796,1.947757601737976
1790266295729508600,6.276508544921875,-5.9676995277404785,-0.16031911969184875,2.438286304473877
1790266295746760700,6.2937607421875,-7.204789161682129,-0.4043870270252228,1.6462619304656982
1790266295764013000,6.311012939453125,-8.83669376373291,-1.0169496536254883,1.0600204467773438
1790266295781265400,6.328265380859375,-7.908278942108154,-1.9453648328781128,2.2372891902923584
1790266295798517800,6.345517822265625,-7.582854747772217,-2.5674986839294434,2.5124638080596924
1790266295815770000,6.36277001953125,-8.295916557312012,-3.273381471633911,2.4023938179016113
1790266295833022200,6.380022216796875,-6.687939167022705,-3.4576287269592285,1.828116536140442
1790266295850274600,6.397274658203125,-5.970092296600342,-3.311666488647461,1.7060825824737549
1790266295867527000,6.41452685546875,-7.6737823486328125,-3.5054850578308105,1.2801600694656372
1790266295884779300,6.431779296875,-7.767102241516113,-3.926621913909912,1.306481122970581
1790266295902032000,6.449031982421875,-6.094519138336182,-4.206582069396973,1.3256237506866455
1790266295919284200,6.4662841796875,-6.946363925933838,-4.252045631408691,1.4333007335662842
1790266295936536800,6.483536865234375,-9.083154678344727,-4.510470867156982,1.7132610082626343
1790266295953789200,6.5007890625,-7.475177764892578,-4.9531426429748535,1.9812572002410889
1790266295971041800,6.518041748046875,-6.908079147338867,-5.874379634857178,2.0482561588287354
1790266295988294100,6.535294189453125,-6.50608491897583,-7.1234331130981445,2.100898265838623
1790266296005546500,6.55254638671875,-7.269395351409912,-8.054241180419922,2.723032236099243
1790266296022798600,6.569798583984375,-6.599404811859131,-8.212167739868164,2.1774685382843018
1790266296040051000,6.587051025390625,-7.853243827819824,-8.578269004821777,1.332802176475525
1790266296057303300,6.60430322265625,-8.49452018737793,-9.104690551757812,2.210968017578125
1790266296074555600,6.6215556640625,-9.150154113769531,-10.16710376739502,3.625126361846924
1790266296091807700,6.638807861328125,-9.511469841003418,-11.56690502166748,5.453242778778076
1790266296109060000,6.65606005859375,-8.171489715576172,-12.332608222961426,6.350551128387451
1790266296126312400,6.6733125,-8.549555778503418,-12.732209205627441,6.5874409675598145
1790266296143564800,6.690564697265625,-8.149953842163086,-13.024133682250977,5.869594097137451
1790266296160817200,6.707817138671875,-6.491727828979492,-12.301501274108887,5.041677474975586
1790266296178069200,6.7250693359375,-5.328815937042236,-10.411170959472656,3.9864425659179688
1790266296195321600,6.742321533203125,-5.374279499053955,-7.5804619789123535,1.3471591472625732
1790266296212574000,6.759573974609375,-4.749752998352051,-5.986842155456543,0.9882357716560364
1790266296229826300,6.776826416015625,-5.312066078186035,-6.372086524963379,2.258824586868286
1790266296247078400,6.794078369140625,-5.7858452796936035,-7.106683254241943,1.557727575302124
1790266296264330800,6.811330810546875,-6.903293132781982,-7.384250640869141,0.8614161610603333
1790266296281583000,6.8285830078125,-7.936992645263672,-7.70249605178833,1.1461620330810547
1790266296298835700,6.845835693359375,-6.6352972984313965,-8.927620887756348,1.8233308792114258
1790266296316088000,6.863088134765625,-5.651846885681152,-9.473184585571289,1.3663017749786377
1790266296333340700,6.880340576171875,-6.1399827003479,-9.492327690124512,1.0719845294952393
1790266296350593300,6.89759326171875,-7.008577346801758,-9.329615592956543,1.2490534782409668
1790266296367845600,6.914845703125,-6.321837425231934,-8.628518104553223,1.9669002294540405
1790266296385098000,6.932097900390625,-6.7070817947387695,-7.685746192932129,2.9001009464263916
1790266296402350300,6.949350341796875,-8.846264839172363,-7.365108013153076,2.4430718421936035
1790266296419602700,6.966602783203125,-10.138389587402344,-7.984848976135254,2.746960401535034
1790266296436854800,6.983854736328125,-7.57806921005249,-8.944371223449707,3.9050865173339844
1790266296454107100,7.001107177734375,-6.369693756103516,-9.480362892150879,5.099104881286621
1790266296471359500,7.018359375,-6.041877269744873,-8.590232849121094,5.161318302154541
1790266296488611800,7.03561181640625,-7.898707389831543,-6.996613502502441,4.161118507385254
1790266296505864200,7.0528642578125,-11.296515464782715,-7.051648139953613,3.4791641235351562
1790266296523116300,7.0701162109375,-9.011369705200195,-8.329415321350098,4.041477680206299
1790266296540368600,7.08736865234375,-6.747759819030762,-8.082955360412598,3.0652058124542236
1790266296557621000,7.10462109375,-7.29093074798584,-6.754938125610352,1.5912270545959473
1790266296574873300,7.121873291015625,-8.432307243347168,-5.699703693389893,1.5409778356552124
1790266296592125400,7.13912548828125,-7.719245910644531,-5.091926574707031,1.7778671979904175
1790266296609377800,7.156377685546875,-8.197810173034668,-4.412364959716797,1.7467604875564575
1790266296626630100,7.173630126953125,-8.82233715057373,-4.453042984008789,1.3878371715545654
1790266296643882500,7.190882568359375,-6.884150981903076,-5.374279499053955,1.545763373374939
1790266296661134600,7.208134521484375,-7.664210796356201,-5.61116886138916,1.667797327041626
1790266296678387200,7.22538720703125,-9.772287368774414,-5.106283664703369,1.2299108505249023
1790266296695639600,7.2426396484375,-8.236095428466797,-4.957928657531738,1.4380863904953003
1790266296712892200,7.25989208984375,-6.259624004364014,-4.48414945602417,1.4811571836471558
1790266296730144500,7.27714453125,-8.047062873840332,-3.1513473987579346,0.7728816866874695
1790266296747397000,7.294397216796875,-7.255038261413574,-2.825923442840576,0.7920243144035339
1790266296764649500,7.3116494140625,-8.583054542541504,-2.6560330390930176,0.35413774847984314
1790266296781902000,7.328902099609375,-9.619147300720215,-1.8735800981521606,0.11485548317432404
1790266296799154400,7.346154541015625,-5.752345561981201,-1.4189438819885254,1.5984054803848267
1790266296816406500,7.363406494140625,-5.682953834533691,-0.5886343717575073,1.074377417564392
1790266296833659000,7.380658935546875,-6.338587284088135,0.04307080805301666,-0.6915257573127747
1790266296850911200,7.3979111328125,-4.429114818572998,0.9236295223236084,0.6245267391204834
1790266296868163600,7.41516357421875,-3.9792640209198,1.8185452222824097,-1.179661512374878
1790266296885415700,7.432415771484375,-5.223531723022461,1.612762451171875,-1.6630117893218994
1790266296902668000,7.44966796875,-5.544169902801514,1.0600204467773438,0.02632104977965355
1790266296919920400,7.46692041015625,-5.170889854431152,1.2299108505249023,0.5838487148284912
1790266296937172700,7.4841728515625,-7.0061845779418945,1.399801254272461,1.3519448041915894
1790266296954424800,7.5014248046875,-7.2574310302734375,0.5120640397071838,1.4979069232940674
1790266296971677200,7.51867724609375,-7.178467750549316,-0.19142581522464752,1.0887342691421509
1790266296988929500,7.535929443359375,-7.412964344024658,-0.38285163044929504,1.4811571836471558
1790266297006182000,7.553181884765625,-8.841479301452637,-0.8542376756668091,0.7154539823532104
1790266297023434200,7.570434326171875,-7.805387496948242,-1.667797327041626,0.6029912829399109
1790266297040686300,7.587686279296875,-7.051648139953613,-2.0243279933929443,1.1054840087890625
1790266297057938700,7.604938720703125,-7.467999458312988,-2.287538528442383,0.9810572862625122
1790266297075191000,7.62219091796875,-7.726424217224121,-2.651247501373291,0.9044869542121887
1790266297092443400,7.639443359375,-7.161718368530273,-3.1250264644622803,1.196411371231079
1790266297109695500,7.656695556640625,-5.467599868774414,-3.531806230545044,1.129412293434143
1790266297126947800,7.67394775390625,-6.632904529571533,-4.115654945373535,1.3088740110397339
1790266297144200200,7.6912001953125,-4.823930263519287,-4.701896667480469,1.1868400573730469
1790266297161452500,7.70845263671875,-5.319244861602783,-4.9052863121032715,0.6149554252624512
1790266297178705000,7.725704833984375,-6.7692952156066895,-4.9124650955200195,1.0360921621322632
1790266297195957200,7.742957275390625,-5.86002254486084,-4.867001056671143,1.0217353105545044
1790266297213209900,7.7602099609375,-7.513463020324707,-4.840680122375488,0.9954141974449158
1790266297230462200,7.777462158203125,-8.58066177368164,-5.31685209274292,1.454836130142212
1790266297247714800,7.79471484375,-9.360722541809082,-6.8554368019104,1.430907964706421
1790266297264967400,7.811967529296875,-10.825129508972168,-9.731609344482422,1.3758729696273804
1790266297282219800,7.8292197265625,-9.300901412963867,-12.722638130187988,1.4931213855743408
1790266297299472000,7.846471923828125,-9.241081237792969,-15.814165115356445,2.7972097396850586
1790266297316724200,7.86372412109375,-6.929614543914795,-16.962718963623047,4.208974838256836
1790266297333976600,7.8809765625,-7.793423175811768,-16.220945358276367,5.115854740142822
1790266297351229000,7.89822900390625,-7.549355506896973,-13.490734100341797,5.257031440734863
1790266297368481300,7.915481201171875,-7.405786037445068,-10.817951202392578,4.9292144775390625
1790266297385733400,7.9327333984375,-8.066205024719238,-8.975478172302246,4.910071849822998
1790266297402985700,7.94998583984375,-6.786045074462891,-7.82692289352417,5.032105922698975
1790266297420238000,7.967238037109375,-5.804987907409668,-6.580262184143066,3.4983067512512207
1790266297437490400,7.984490478515625,-5.431707382202148,-6.044270038604736,1.3280165195465088
1790266297454742500,8.001742431640626,-4.969892501831055,-6.273981094360352,0.12681959569454193
1790266297471995000,8.018994873046875,-4.790431022644043,-6.853044033050537,-0.4833501875400543
1790266297489247200,8.036247314453124,-5.678168296813965,-7.2574310302734375,-0.4331009089946747
1790266297506499600,8.05349951171875,-6.745367050170898,-7.728816986083984,0.15314064919948578
1790266297523752000,8.070751953125,-7.343572616577148,-8.595019340515137,1.0145567655563354
1790266297541004000,8.088004150390624,-7.379465103149414,-10.222138404846191,1.5361921787261963
1790266297558256400,8.10525634765625,-6.656832695007324,-11.897113800048828,1.8711873292922974
1790266297575508700,8.1225087890625,-5.637490272521973,-13.146167755126953,2.091326951980591
1790266297592761000,8.139760986328126,-6.879364967346191,-12.973884582519531,2.335394859313965
1790266297610013200,8.15701318359375,-8.82233715057373,-10.710273742675781,1.6510475873947144
1790266297627265500,8.174265625,-7.922635555267334,-9.410971641540527,1.9573289155960083
1790266297644518000,8.191517822265626,-6.56829833984375,-8.133204460144043,2.6273193359375
1790266297661770200,8.208770263671875,-6.269195556640625,-6.943971157073975,2.5531418323516846
1790266297679022300,8.226022216796874,-7.350750923156738,-6.376872539520264,1.9142581224441528
1790266297696274700,8.243274658203125,-7.424928665161133,-6.63051176071167,2.4335005283355713
1790266297713527000,8.260527099609375,-7.334001541137695,-7.207181930541992,3.1800613403320312
1790266297730779400,8.277779296875,-7.5637125968933105,-7.846065521240234,3.541377544403076
1790266297748031700,8.29503173828125,-8.126026153564453,-8.044670104980469,3.421736478805542
1790266297765283800,8.312283935546875,-7.288537979125977,-7.692924976348877,2.957528829574585
1790266297782536200,8.3295361328125,-7.685746192932129,-6.690331935882568,2.6703901290893555
1790266297799788800,8.346788818359375,-8.468199729919434,-6.178267955780029,2.201396942138672
1790266297817041400,8.36404150390625,-8.008777618408203,-6.2189459800720215,1.9645073413848877
1790266297834293800,8.381293701171876,-9.477970123291016,-6.1710896492004395,1.7371892929077148
1790266297851546400,8.39854638671875,-10.080962181091309,-6.113661766052246,1.6295121908187866
1790266297868798700,8.415798828125,-10.207781791687012,-6.2500529289245605,1.797009825706482
1790266297886051000,8.433051025390625,-8.228917121887207,-6.252445697784424,2.60339093208313
1790266297903303400,8.450303466796875,-9.652647018432617,-5.788238048553467,3.16331148147583
1790266297920555800,8.4675556640625,-9.42054271697998,-5.570491313934326,2.1439690589904785
1790266297937808100,8.48480810546875,-6.209374904632568,-4.811966419219971,1.5649060010910034
1790266297955060200,8.502060302734375,-4.084548473358154,-2.4574289321899414,1.2634103298187256
1790266297972312600,8.5193125,-5.874379634857178,-0.4905286431312561,0.28953152894973755
1790266297989565000,8.53656494140625,-6.118447303771973,0.6269195079803467,-1.3471591472625732
1790266298006817300,8.5538173828125,-2.801995277404785,1.0408778190612793,-1.129412293434143
1790266298024069400,8.5710693359375,-4.642076015472412,1.1485549211502075,-1.1126625537872314
1790266298041321700,8.58832177734375,-6.752545356750488,0.519242525100708,-1.3926228284835815
1790266298058574000,8.605573974609374,-6.8410797119140625,-0.973878800868988,-1.2538390159606934
1790266298075826400,8.622826416015625,-7.984848976135254,-1.5385849475860596,-0.11964113265275955
1790266298093078500,8.64007861328125,-9.372686386108398,-1.9334007501602173,1.0001999139785767
1790266298110331000,8.657330810546876,-8.003992080688477,-1.490728497505188,1.0839486122131348
1790266298127583200,8.674583251953125,-6.668796539306641,0.6484549641609192,0.9786644577980042
1790266298144835600,8.691835693359375,-4.402793884277344,1.7826528549194336,1.0839486122131348
1790266298162088000,8.709087890625,-2.682354211807251,2.2923240661621094,1.160519003868103
1790266298179340000,8.726340087890625,-3.3930225372314453,2.9623143672943115,0.14117653667926788
1790266298196592400,8.74359228515625,-7.113861560821533,3.486342668533325,-0.6436693072319031
1790266298213844700,8.7608447265625,-7.9585280418396,1.5960127115249634,1.1198409795761108
1790266298231097000,8.77809716796875,-7.917850017547607,-1.4476577043533325,2.8689942359924316
1790266298248349200,8.79534912109375,-6.994220733642578,-3.2303106784820557,3.996013879776001
1790266298265601500,8.8126015625,-6.903293132781982,-4.151547431945801,3.0580272674560547
1790266298282854000,8.82985400390625,-7.439285755157471,-4.5200419425964355,1.3878371715545654
1790266298300106200,8.847106201171876,-6.348158359527588,-4.527220249176025,0.8422735929489136
1790266298317358300,8.8643583984375,-5.249852657318115,-3.9361932277679443,0.9451649188995361
1790266298334610700,8.881610595703124,-6.072983741760254,-3.012563705444336,1.1389836072921753
1790266298351863000,8.898863037109376,-8.877371788024902,-2.2372891902923584,1.5314065217971802
1790266298369115400,8.916115478515625,-10.590633392333984,-1.8185452222824097,1.9142581224441528
1790266298386367700,8.93336767578125,-6.364908218383789,-3.3092737197875977,2.273181438446045
1790266298403620000,8.9506201171875,-3.0556344985961914,-5.458028316497803,2.8450660705566406
1790266298420872700,8.967872802734375,-4.1419758796691895,-7.848458290100098,2.9168508052825928
1790266298438125300,8.985125244140624,-5.173282623291016,-10.322636604309082,2.400001049041748
1790266298455377700,9.002377685546875,-5.371886730194092,-11.995220184326172,0.9834501147270203
1790266298472630300,9.01963037109375,-5.9509501457214355,-13.792229652404785,1.1389836072921753
1790266298489882600,9.036882568359376,-8.800801277160645,-14.242080688476562,2.840280532836914
1790266298507135000,9.054135009765625,-12.978670120239258,-11.212766647338867,3.7902309894561768
1790266298524387000,9.071386962890625,-10.738987922668457,-9.56650447845459,2.6775684356689453
1790266298541639400,9.088639404296876,-9.573683738708496,-11.274980545043945,1.9621145725250244
1790266298558891800,9.105891845703125,-8.769695281982422,-13.469198226928711,4.287938117980957
1790266298576144100,9.12314404296875,-10.322636604309082,-12.67717456817627,4.254438877105713
1790266298593396200,9.140396240234375,-6.386443614959717,-10.317851066589355,3.814159393310547
1790266298610648600,9.157648681640625,-3.5054850578308105,-8.011170387268066,3.541377544403076
1790266298627901000,9.17490087890625,-4.342973232269287,-6.137589931488037,2.555534601211548
1790266298645153300,9.1921533203125,-4.809573650360107,-5.221138954162598,2.8594231605529785
1790266298662405400,9.2094052734375,-4.680361270904541,-6.111268997192383,3.900300979614258
1790266298679657700,9.22665771484375,-5.649454116821289,-8.298309326171875,3.297309637069702
1790266298696910000,9.24391015625,-6.120840549468994,-9.267401695251465,1.098305583000183
1790266298714162400,9.261162353515624,-6.597012042999268,-8.889336585998535,0.32303106784820557
1790266298731414500,9.27841455078125,-8.075776100158691,-8.796015739440918,0.5838487148284912
1790266298748667000,9.2956669921875,-10.193424224853516,-9.934999465942383,2.3736801147460938
1790266298765919200,9.312919189453124,-8.568697929382324,-11.700902938842773,4.077369689941406
1790266298783171600,9.330171630859375,-4.910071849822998,-12.423535346984863,1.9142581224441528
1790266298800424000,9.347423828125,-4.60857629776001,-11.92343521118164,0.8446664214134216
1790266298817676000,9.364676025390626,-7.843672752380371,-9.93260669708252,1.5170495510101318
1790266298834928400,9.381928466796875,-8.305487632751465,-8.477770805358887,4.350151538848877
1790266298852180700,9.3991806640625,-6.618547439575195,-7.869993686676025,5.661418437957764
1790266298869433000,9.41643310546875,-6.357729911804199,-7.470392227172852,5.328815937042236
1790266298886685200,9.433685302734375,-7.554141044616699,-7.5565338134765625,4.400400638580322
1790266298903937500,9.4509375,-7.726424217224121,-7.802994728088379,4.130012035369873
1790266298921190000,9.46818994140625,-6.896114826202393,-7.460821151733398,3.8524444103240967
1790266298938442200,9.485442138671875,-8.365307807922363,-6.912864685058594,3.139383316040039
1790266298955694300,9.5026943359375,-8.518448829650879,-7.427321434020996,3.2374889850616455
1790266298972946700,9.51994677734375,-6.424728870391846,-7.884350776672363,3.696911096572876
1790266298990199000,9.537198974609375,-6.881757736206055,-7.223931789398193,2.744567632675171
1790266299007451400,9.554451416015626,-7.846065521240234,-6.183053493499756,1.6414763927459717
1790266299024703500,9.571703369140625,-9.174081802368164,-5.989234924316406,1.919043779373169
1790266299041955800,9.588955810546874,-10.279565811157227,-5.582455158233643,2.438286304473877
1790266299059208200,9.606208251953126,-10.6624174118042,-5.357530117034912,3.627519130706787
1790266299076460500,9.62346044921875,-6.9344000816345215,-6.142375946044922,3.201596736907959
1790266299093713200,9.640713134765624,-3.8117663860321045,-5.5106706619262695,1.94297194480896
1790266299110965500,9.657965576171875,-4.984249591827393,-3.5270206928253174,0.6747759580612183
1790266299128218000,9.675218017578125,-7.874779224395752,-2.4837498664855957,-1.0863415002822876
1790266299145470500,9.692470458984374,-10.248459815979004,-1.6390835046768188,-1.0671988725662231
1790266299162723000,9.70972314453125,-8.444271087646484,-0.8111668825149536,0.8781659007072449
1790266299179975400,9.726975341796875,-8.037490844726562,-1.6175481081008911,3.31884503364563
1790266299197227800,9.744227783203126,-8.458627700805664,-2.4909284114837646,2.9766714572906494
1790266299214480100,9.761480224609375,-7.36032247543335,-2.572284460067749,1.7132610082626343
1790266299231732200,9.778732177734375,-5.907878875732422,-2.3473589420318604,1.0408778190612793
1790266299248984600,9.795984619140626,-5.26899528503418,-2.280359983444214,-0.22013968229293823
1790266299266237000,9.81323681640625,-5.036891460418701,-1.277767300605774,-1.3567304611206055
1790266299283489300,9.8304892578125,-4.890929698944092,0.21296121180057526,-1.2681959867477417
1790266299300741400,9.847741455078125,-5.37906551361084,1.2897313833236694,-1.6151553392410278
1790266299317993700,9.86499365234375,-8.008777618408203,2.062613010406494,-1.093519926071167
1790266299335246000,9.88224609375,-7.121040344238281,1.6941183805465698,2.1583259105682373
1790266299352498400,9.89949853515625,-5.178068161010742,-0.01196411345154047,2.3952155113220215
1790266299369750500,9.91675048828125,-4.555934429168701,-1.9812572002410889,1.2323036193847656
1790266299387003000,9.9340029296875,-5.367101192474365,-0.9332008361816406,-1.9142581224441528
1790266299404255200,9.951255126953125,-7.274180889129639,2.2755744457244873,-3.053241729736328
1790266299421507600,9.968507568359374,-8.00638484954834,4.113262176513672,-0.7513462901115417
1790266299438759700,9.985759765625,-7.824530124664307,3.4265220165252686,1.9932212829589844
1790266299456012000,10.003011962890625,-8.508877754211426,0.8757730722427368,2.6153552532196045
1790266299473264400,10.020264404296874,-7.501499176025391,-1.1581261157989502,2.038684844970703
1790266299490516700,10.037516845703125,-5.8719868659973145,-2.6297121047973633,2.2468605041503906
1790266299507769000,10.05476904296875,-9.114261627197266,-3.4480574131011963,2.794816732406616
1790266299525021200,10.072021240234376,-11.94736385345459,-5.048855781555176,2.8498518466949463
1790266299542273500,10.0892734375,-5.123033046722412,-5.855237007141113,3.0388846397399902
1790266299559526000,10.10652587890625,-2.0985054969787598,-6.041877269744873,3.005385160446167
1790266299576778200,10.1237783203125,-6.38165807723999,-7.087540626525879,2.854637384414673
1790266299594030300,10.1410302734375,-7.223931789398193,-7.458428382873535,2.414358139038086
1790266299611282700,10.15828271484375,-4.692325115203857,-6.376872539520264,1.521835207939148
1790266299628535000,10.17553515625,-7.066005229949951,-5.3934221267700195,2.4837498664855957
1790266299645787400,10.192787353515625,-6.168696880340576,-5.402993679046631,2.586641311645508
1790266299663039500,10.21003955078125,-5.647061347961426,-5.912664890289307,1.8233308792114258
1790266299680291800,10.227291748046875,-5.663811206817627,-6.436692714691162,1.2705888748168945
1790266299697544200,10.244544189453125,-8.298309326171875,-7.223931789398193,1.2394821643829346
1790266299714796500,10.261796630859376,-8.453842163085938,-8.080561637878418,0.8111668825149536
1790266299732048600,10.279048583984375,-6.025127410888672,-8.623732566833496,-0.5359922647476196
1790266299749301000,10.296301025390624,-6.465406894683838,-8.965906143188477,-0.4833501875400543
1790266299766553300,10.31355322265625,-8.212167739868164,-9.219545364379883,0.3613162338733673
1790266299783805700,10.3308056640625,-15.25903034210205,-9.463613510131836,1.2801600694656372
1790266299801058000,10.34805810546875,-16.268800735473633,-13.883156776428223,6.7692952156066895
1790266299818310100,10.36531005859375,-9.346364974975586,-20.874984741210938,10.06421184539795
1790266299835562500,10.3825625,-7.29810905456543,-23.24627113342285,12.217752456665039
1790266299852814800,10.39981494140625,-3.78544545173645,-16.0701961517334,8.415556907653809
1790266299870067200,10.417067138671875,-3.9792640209198,-8.568697929382324,3.8572301864624023
1790266299887319300,10.4343193359375,-5.910272121429443,-5.278566837310791,2.4574289321899414
1790266299904571600,10.451571533203126,-4.096512317657471,-5.347958564758301,2.9790642261505127
1790266299921824000,10.468823974609375,-2.957528829574585,-6.283552169799805,2.9958138465881348
1790266299939076400,10.486076416015624,-2.5842485427856445,-6.247660160064697,1.8496519327163696
1790266299956328400,10.503328369140625,-2.5842485427856445,-5.615954875946045,0.7034898400306702
1790266299973580800,10.520580810546875,-4.1419758796691895,-5.000999450683594,-1.031306505203247
1790266299990833200,10.537833251953124,-7.3746795654296875,-5.898307800292969,-2.785245656967163
1790266300008085500,10.55508544921875,-8.700303077697754,-7.829315662384033,-0.9068797826766968
1790266300025337600,10.572337646484375,-8.102097511291504,-8.276773452758789,1.2610175609588623
1790266300042590000,10.58958984375,-7.858029365539551,-7.936992645263672,2.132004976272583
1790266300059842300,10.60684228515625,-13.682159423828125,-7.463213920593262,2.68953275680542
1790266300077094700,10.6240947265625,-10.535597801208496,-8.535198211669922,2.251646041870117
1790266300094347300,10.64134716796875,-0.914058268070221,-10.85145092010498,-0.1698904037475586
1790266300111599600,10.658599609375,-1.2442678213119507,-11.990434646606445,1.7204394340515137
1790266300128852200,10.675852294921874,-12.361321449279785,-12.122039794921875,7.824530124664307
1790266300146104600,10.6931044921875,-10.956734657287598,-13.39262866973877,9.822537422180176
1790266300163357200,10.710357177734375,-9.55214786529541,-11.751152038574219,8.709874153137207
1790266300180609500,10.727609619140624,-8.798408508300781,-9.075976371765137,5.539384365081787
1790266300197862000,10.74486181640625,-6.278766632080078,-7.683353424072266,2.675175666809082
1790266300215114200,10.7621142578125,-5.656632900238037,-6.254838466644287,2.510071039199829
1790266300232366300,10.779366455078126,-6.970292568206787,-5.063212871551514,1.557727575302124
1790266300249618700,10.79661865234375,-7.549355506896973,-4.18983268737793,0.48813581466674805
1790266300266871000,10.81387109375,-7.6498541831970215,-4.156332969665527,0.6963114142417908
1790266300284123400,10.831123291015626,-6.872186660766602,-3.8907296657562256,1.423729419708252
1790266300301375500,10.84837548828125,-7.085147857666016,-3.5054850578308105,1.5625132322311401
1790266300318627800,10.8656279296875,-8.475378036499023,-4.254438877105713,1.28255295753479
1790266300335880200,10.882880126953125,-9.695717811584473,-5.453242778778076,0.6795616149902344
1790266300353132500,10.900132568359375,-9.477970123291016,-6.39601469039917,1.0289137363433838
1790266300370384600,10.917384521484376,-7.69531774520874,-6.367300987243652,1.954936146736145
1790266300387637000,10.934636962890625,-8.0350980758667,-4.534399032592773,1.7587246894836426
1790266300404889300,10.951889404296875,-6.281159400939941,-2.2205393314361572,1.7778671979904175
1790266300422141700,10.9691416015625,-4.252045631408691,-0.24885354936122894,1.923829436302185
1790266300439393800,10.986393798828125,-5.20678186416626,1.794616937637329,0.9523434042930603
1790266300456646100,11.003646240234374,-5.802595138549805,2.555534601211548,0.2799602448940277
1790266300473898500,11.0208984375,-5.608776092529297,1.9070796966552734,-0.4259224236011505
1790266300491150800,11.03815087890625,-6.187839508056641,0.8614161610603333,-0.7154539823532104
1790266300508403200,11.0554033203125,-6.580262184143066,-0.15074782073497772,0.519242525100708
1790266300525655300,11.0726552734375,-6.515655994415283,-0.7968099117279053,0.7920243144035339
1790266300542907600,11.08990771484375,-5.934200286865234,-1.0791629552841187,0.6843472719192505
1790266300560160000,11.107159912109376,-5.06082010269165,-0.4378865361213684,0.5072783827781677
1790266300577412400,11.124412353515625,-2.8594231605529785,0.8159525394439697,0.16271193325519562
1790266300594664400,11.14166455078125,-1.9621145725250244,2.132004976272583,-0.21774685382843018
1790266300611916800,11.158916748046876,-7.350750923156738,3.8021950721740723,-1.9669002294540405
1790266300629169200,11.176169189453125,-10.169496536254883,2.6727828979492188,0.5431707501411438
1790266300646421500,11.19342138671875,-7.003791809082031,-0.275174617767334,2.3569302558898926
1790266300663673600,11.210673583984375,-3.9672999382019043,-2.495713949203491,4.201796531677246
1790266300680926000,11.227926025390625,-7.238288402557373,-3.6370904445648193,4.924428939819336
1790266300698178300,11.24517822265625,-12.143574714660645,-4.347758769989014,1.7563318014144897
1790266300715430700,11.2624306640625,-7.735995769500732,-5.996413707733154,0.6340979933738708
1790266300732682800,11.279682861328125,-2.8450660705566406,-6.03948450088501,1.8448662757873535
1790266300749935000,11.29693505859375,-6.223731517791748,-5.874379634857178,2.5459632873535156
1790266300767187500,11.3141875,-10.39202880859375,-5.6446685791015625,1.9022940397262573
1790266300784439800,11.331439697265624,-8.461020469665527,-5.07517671585083,0.5551348328590393
1790266300801692200,11.348692138671876,-5.8719868659973145,-4.515256404876709,0.9212366938591003
1790266300818944300,11.3659443359375,-7.520641803741455,-4.130012035369873,2.0578274726867676
1790266300836196600,11.383196533203124,-7.575676441192627,-5.86002254486084,2.761317253112793
1790266300853449000,11.400448974609375,-4.024727821350098,-7.520641803741455,1.8161523342132568
1790266300870701300,11.417701416015625,-4.386044025421143,-8.784051895141602,1.2299108505249023
1790266300887953400,11.434953369140626,-7.946564197540283,-10.03310489654541,1.5290136337280273
1790266300905205800,11.452205810546875,-9.133403778076172,-10.612168312072754,2.234896421432495
1790266300922458000,11.4694580078125,-7.245467185974121,-9.820143699645996,2.6871397495269775
1790266300939710500,11.48671044921875,-7.544569969177246,-8.987442016601562,2.988635540008545
1790266300956962600,11.503962646484375,-10.64806079864502,-9.762716293334961,4.247260093688965
1790266300974215000,11.52121484375,-9.760323524475098,-11.590832710266113,4.479363918304443
1790266300991467300,11.53846728515625,-8.11406135559082,-13.03370475769043,5.340780258178711
1790266301008719600,11.5557197265625,-6.6113691329956055,-12.701102256774902,5.8097734451293945
1790266301025971700,11.5729716796875,-7.460821151733398,-11.167303085327148,4.579862594604492
1790266301043224000,11.59022412109375,-8.334200859069824,-8.910871505737305,4.012763500213623
1790266301060476400,11.607476318359375,-7.2430739402771,-7.087540626525879,4.120440483093262
1790266301077728800,11.624728759765626,-5.484349727630615,-6.640082836151123,3.7160534858703613
1790266301094981000,11.641981201171875,-4.417150497436523,-6.417550563812256,2.4885356426239014
1790266301112233200,11.659233154296874,-5.247459888458252,-5.855237007141113,1.7132610082626343
1790266301129485600,11.676485595703125,-7.2095746994018555,-6.869793891906738,1.9836499691009521
1790266301146738000,11.693738037109375,-9.44447135925293,-10.112068176269531,3.34995174407959
1790266301163990300,11.710990234375,-7.817351341247559,-13.232309341430664,3.486342668533325
1790266301181242400,11.728242431640625,-6.309873104095459,-14.392827987670898,1.7156537771224976
1790266301198494700,11.74549462890625,-6.738188743591309,-12.282358169555664,0.46899324655532837
1790266301215747000,11.7627470703125,-7.659425258636475,-9.140582084655762,1.2203395366668701
1790266301232999400,11.77999951171875,-5.946164131164551,-7.5565338134765625,2.3401806354522705
1790266301250251500,11.79725146484375,-6.001199245452881,-6.369693756103516,2.6703901290893555
1790266301267503900,11.81450390625,-6.867401123046875,-6.022734642028809,2.9072794914245605
1790266301284756200,11.831756103515625,-6.853044033050537,-6.2500529289245605,3.28773832321167
1790266301302008600,11.849008544921874,-7.451249599456787,-6.656832695007324,3.4121651649475098
1790266301319260700,11.8662607421875,-9.45882797241211,-7.080362319946289,3.5270206928253174
1790266301336513000,11.883512939453125,-8.157132148742676,-8.037490844726562,4.785645484924316
1790266301353765400,11.900765380859376,-6.271588325500488,-8.128418922424316,4.467400074005127
1790266301371017700,11.918017822265625,-4.9986066818237305,-6.618547439575195,3.1800613403320312
1790266301388270000,11.93527001953125,-4.883750915527344,-4.924428939819336,2.3497519493103027
1790266301405522200,11.952522216796876,-10.250852584838867,-4.409972190856934,2.1200408935546875
1790266301422774500,11.9697744140625,-20.760129928588867,-6.096911907196045,3.4169507026672363
1790266301440027000,11.98702685546875,-11.002198219299316,-10.176674842834473,7.137789726257324
1790266301457279200,12.004279296875,-4.642076015472412,-9.504291534423828,5.544169902801514
1790266301474531300,12.02153125,-9.796216011047363,-8.140382766723633,5.197210788726807
1790266301491783700,12.03878369140625,-11.686545372009277,-7.752745151519775,3.421736478805542
1790266301509036000,12.0560361328125,-6.510870456695557,-7.618747234344482,1.4093725681304932
1790266301526288400,12.073288330078125,-5.223531723022461,-4.792823791503906,0.09571290761232376
1790266301543540500,12.09054052734375,-5.955735683441162,-2.3880369663238525,0.01196411345154047
1790266301560792800,12.107792724609375,-5.814558982849121,-1.7252250909805298,0.35413774847984314
1790266301578045200,12.125045166015624,-4.919643402099609,-1.1126625537872314,0.23449662327766418
1790266301595297500,12.142297607421876,-3.5772697925567627,-0.4307080805301666,0.1866401731967926
1790266301612549600,12.159549560546875,-6.350551128387451,-0.22971096634864807,-0.6005984544754028
1790266301629802000,12.176802001953124,-2.8977081775665283,-1.1629117727279663,-0.11724831163883209
1790266301647054300,12.194054443359375,1.1509476900100708,-1.672582983970642,0.07896314561367035
1790266301664306700,12.211306640625,-3.2590243816375732,-0.2584248483181,-2.0267207622528076
1790266301681559000,12.22855908203125,-8.499305725097656,3.335594654083252,-3.7806596755981445
1790266301698811100,12.24581103515625,-11.337193489074707,3.1250264644622803,-1.2538390159606934
1790266301716063500,12.2630634765625,-8.34138011932373,1.1772687435150146,6.948757171630859
1790266301733315800,12.28031591796875,-7.231110095977783,-0.16749759018421173,5.663811206817627
1790266301750568200,12.297568115234375,-6.809973239898682,0.04546362906694412,2.3617160320281982
1790266301767820300,12.3148203125,-11.234302520751953,0.39960137009620667,1.5122638940811157
1790266301785072600,12.33207275390625,-11.071590423583984,-0.12681959569454193,2.7972097396850586
1790266301802325000,12.349324951171875,-5.974878311157227,-1.5146567821502686,3.5772697925567627
1790266301819577300,12.366577392578124,-3.8979079723358154,-1.8664016723632812,2.3234307765960693
1790266301836829400,12.383829345703125,-3.9912281036376953,-1.7395820617675781,1.1030912399291992
1790266301854081800,12.401081787109375,-5.539384365081787,-1.5074782371520996,-0.48095735907554626
1790266301871334100,12.418334228515626,-5.986842155456543,-1.00259268283844,-0.7345965504646301
1790266301888586500,12.43558642578125,-5.367101192474365,-0.4307080805301666,0.05503492057323456
1790266301905838600,12.452838623046874,-5.446064472198486,-0.8398807644844055,1.521835207939148
1790266301923091000,12.470091064453126,-2.0099709033966064,-2.0650060176849365,1.9908283948898315
1790266301940343300,12.48734326171875,-1.490728497505188,-3.043670415878296,1.521835207939148
1790266301957595600,12.504595703125,-4.101297855377197,-3.81655216217041,1.1030912399291992
1790266301974847700,12.52184765625,-10.186245918273926,-5.441278457641602,0.8949156403541565
1790266301992100000,12.53910009765625,-11.32522964477539,-6.948757171630859,1.28255295753479
1790266302009352400,12.5563525390625,-8.707481384277344,-7.161718368530273,1.6630117893218994
1790266302026604800,12.573604736328125,-7.800601959228516,-7.2574310302734375,2.8905298709869385
1790266302043857200,12.590857177734375,-9.580862045288086,-8.949156761169434,4.1730828285217285
1790266302061109200,12.608109130859376,-10.583454132080078,-11.940184593200684,4.6061835289001465
1790266302078361600,12.625361572265625,-7.41535758972168,-13.753944396972656,3.122633457183838
1790266302095614000,12.642614013671874,-7.518248558044434,-13.88794231414795,2.115255117416382
1790266302112866300,12.6598662109375,-7.04925537109375,-13.39262866973877,2.414358139038086
1790266302130118400,12.677118408203125,-7.04925537109375,-11.751152038574219,2.610569477081299
1790266302147370800,12.694370849609374,-6.941578388214111,-9.597611427307129,4.067798614501953
1790266302164623000,12.711623046875,-6.546762943267822,-7.381857872009277,5.225924491882324
1790266302181875500,12.72887548828125,-7.860422611236572,-6.072983741760254,6.474977970123291
1790266302199127600,12.74612744140625,-6.766902446746826,-6.57547664642334,7.489534854888916
1790266302216380000,12.7633798828125,-6.154339790344238,-8.200202941894531,6.137589931488037
1790266302233632300,12.78063232421875,-7.10429048538208,-8.800801277160645,4.304687976837158
1790266302250884600,12.797884521484375,-7.082755088806152,-8.080561637878418,3.0867412090301514
1790266302268136700,12.81513671875,-6.508477687835693,-7.334001541137695,2.266003131866455
1790266302285389000,12.83238916015625,-6.350551128387451,-7.657032489776611,2.218146562576294
1790266302302641400,12.849641357421875,-6.245266914367676,-8.240880966186523,2.390429735183716
1790266302319893800,12.866893798828125,-6.9583282470703125,-8.858229637145996,2.256431818008423
1790266302337146000,12.88414599609375,-7.568498134613037,-9.903892517089844,2.0961127281188965
1790266302354398200,12.901398193359375,-8.219346046447754,-11.44247817993164,2.390429735183716
1790266302371650600,12.918650634765624,-7.817351341247559,-13.265809059143066,3.1106693744659424
1790266302388903000,12.93590283203125,-7.159325122833252,-13.780265808105469,3.345165967941284
1790266302406155300,12.9531552734375,-7.125825881958008,-11.722437858581543,3.845266103744507
1790266302423407400,12.970407470703124,-6.197410583496094,-9.09990406036377,3.6681971549987793
1790266302440659700,12.98765966796875,-5.32403039932251,-7.417750358581543,3.0173492431640625
1790266302457912000,13.004912109375,-5.737988471984863,-6.719046115875244,2.926422119140625
1790266302475164400,13.022164306640626,-7.489534854888916,-6.754938125610352,3.517449378967285
1790266302492416500,13.03941650390625,-9.111868858337402,-7.264609336853027,4.359723091125488
1790266302509668900,13.0566689453125,-8.21695327758789,-7.6737823486328125,4.417150497436523
1790266302526921200,13.073921142578126,-5.6590256690979,-6.967899322509766,3.460021495819092
1790266302544173600,13.091173583984375,-5.142175674438477,-5.477170944213867,2.778067111968994
1790266302561425700,13.10842578125,-7.195217609405518,-4.713860511779785,2.3234307765960693
1790266302578678000,13.125677978515625,-7.539783954620361,-5.175675392150879,2.5674986839294434
1790266302595930400,13.142930419921875,-7.0301127433776855,-5.816951751708984,2.6703901290893555
1790266302613182700,13.1601826171875,-8.221738815307617,-5.938985824584961,2.60339093208313
1790266302630435000,13.17743505859375,-12.488141059875488,-6.57547664642334,3.6323046684265137
1790266302647687200,13.194687255859375,-11.284551620483398,-8.839086532592773,6.1399827003479
1790266302664939500,13.211939453125,-9.846465110778809,-9.712467193603516,6.226124286651611
1790266302682192000,13.22919189453125,-10.638489723205566,-8.61176872253418,5.735595703125
1790266302699444200,13.2464443359375,-10.078569412231445,-7.6977105140686035,4.713860511779785
1790266302716696300,13.2636962890625,-7.884350776672363,-6.300302028656006,2.9934210777282715
1790266302733948700,13.28094873046875,-4.393222332000732,-4.206582069396973,1.7491533756256104
1790266302751201000,13.298200927734374,-4.328616142272949,-2.251646041870117,0.43549370765686035
1790266302768453400,13.315453369140625,-4.029513359069824,-1.0217353105545044,-0.8949156403541565
1790266302785705500,13.33270556640625,-2.4191436767578125,-0.4331009089946747,-1.0145567655563354
1790266302802957800,13.349957763671876,-0.8159525394439697,0.22492532432079315,0.038285162299871445
1790266302820210200,13.367210205078125,-7.278966426849365,1.062413215637207,-2.6368906497955322
1790266302837462500,13.384462646484375,-9.717252731323242,0.6149554252624512,-3.601198196411133
1790266302854714600,13.401714599609376,-3.098705291748047,-1.6510475873947144,3.730410575866699
1790266302871967000,13.418967041015625,-6.814758777618408,-0.5144568681716919,3.366701364517212
1790266302889219300,13.43621923828125,-10.284351348876953,0.6939185857772827,1.0241280794143677
1790266302906471700,13.4534716796875,-7.8819580078125,1.6701902151107788,0.6364908218383789
1790266302923724000,13.47072412109375,-6.211767673492432,2.744567632675171,2.4358935356140137
1790266302940976000,13.48797607421875,-6.3122663497924805,0.6652047038078308,2.342573404312134
1790266302958228500,13.505228515625,-7.527820110321045,-0.5551348328590393,0.7704889178276062
1790266302975480800,13.522480712890625,-5.9437713623046875,-0.8207381963729858,1.5912270545959473
1790266302992733200,13.539733154296876,-3.462414264678955,-0.6245267391204834,2.5914268493652344
1790266303009985300,13.5569853515625,-4.491328239440918,-0.4953143000602722,1.550549030303955
1790266303027237600,13.574237548828124,-6.628118515014648,-0.576670229434967,0.9475577473640442
1790266303044490000,13.591489990234376,-4.814359188079834,-1.00259268283844,1.2299108505249023
1790266303061742300,13.608742431640625,-2.431107759475708,-1.1748759746551514,1.1892328262329102
1790266303078994400,13.625994384765624,-5.1876397132873535,-0.8279166221618652,0.2225325107574463
1790266303096246800,13.643246826171875,-11.538190841674805,-0.5838487148284912,0.6699903607368469
1790266303113499100,13.6604990234375,-9.437292098999023,-0.882951557636261,1.6773686408996582
1790266303130751500,13.67775146484375,-7.051648139953613,-1.9597218036651611,2.864208698272705
1790266303148003600,13.695003662109375,-5.388636589050293,-3.735196113586426,3.713660717010498
1790266303165256000,13.712255859375,-6.348158359527588,-6.867401123046875,4.048655986785889
1790266303182508300,13.72950830078125,-6.850651264190674,-10.01156997680664,3.2757742404937744
1790266303199760600,13.7467607421875,-6.745367050170898,-11.820544242858887,2.548356056213379
1790266303217013000,13.764012939453124,-6.144768714904785,-10.959127426147461,2.7326035499572754
1790266303234265000,13.78126513671875,-7.436892986297607,-9.147761344909668,3.4504501819610596
1790266303251517400,13.798517333984375,-8.367700576782227,-7.5637125968933105,4.1970109939575195
1790266303268769800,13.815769775390624,-6.362515449523926,-6.955935478210449,3.838087558746338
1790266303286022100,13.833022216796875,-6.64486837387085,-7.676175117492676,3.493520975112915
1790266303303274200,13.850274169921875,-8.863015174865723,-9.370293617248535,3.8045880794525146
1790266303320526600,13.867526611328126,-7.2095746994018555,-11.12183952331543,3.572484254837036
1790266303337779000,13.884779052734375,-7.073183536529541,-11.978469848632812,4.323830604553223
1790266303355031300,13.90203125,-6.903293132781982,-11.49512004852295,4.350151538848877
1790266303372283400,13.919283447265625,-7.81974458694458,-9.485149383544922,3.4002010822296143
1790266303389535700,13.93653564453125,-8.496912956237793,-7.458428382873535,2.7589244842529297
1790266303406788000,13.9537880859375,-7.594819068908691,-6.97268533706665,3.6155550479888916
1790266303424040400,13.97104052734375,-6.020341873168945,-8.413164138793945,4.2831525802612305
1790266303441292500,13.98829248046875,-5.7547383308410645,-9.42772102355957,4.053441524505615
1790266303458545000,14.005544921875,-6.300302028656006,-9.963713645935059,2.9168508052825928
1790266303475797200,14.02279736328125,-7.719245910644531,-10.554740905761719,2.4119651317596436
1790266303493049600,14.040049560546874,-7.322037220001221,-11.399407386779785,3.342773199081421
1790266303510302000,14.057302001953126,-7.171289443969727,-10.755738258361816,2.8139593601226807
1790266303527554000,14.074553955078125,-6.065805435180664,-9.006584167480469,2.069791555404663
1790266303544806400,14.091806396484374,-5.759523868560791,-7.386643409729004,1.6821542978286743
1790266303562058800,14.109058837890625,-6.214160442352295,-7.247859954833984,2.069791555404663
1790266303579311000,14.12631103515625,-6.082555294036865,-8.72901725769043,2.723032236099243
1790266303596563200,14.143563232421876,-4.505684852600098,-9.985248565673828,3.0340991020202637
1790266303613815600,14.160815673828125,-3.8261234760284424,-10.00439167022705,3.074777126312256
1790266303631068000,14.17806787109375,-7.018148899078369,-9.10229778289795,2.2133610248565674
1790266303648320300,14.1953203125,-7.487142086029053,-7.999206066131592,2.825923442840576
1790266303665572400,14.212572265625,-6.508477687835693,-7.1473612785339355,4.694717884063721
1790266303682824700,14.22982470703125,-6.604190349578857,-6.467799663543701,4.709074974060059
1790266303700077000,14.2470771484375,-8.346165657043457,-6.4941205978393555,4.005585193634033
1790266303717329400,14.264329345703125,-8.513663291931152,-7.295716285705566,4.043870449066162
1790266303734581500,14.28158154296875,-8.382058143615723,-8.214560508728027,4.9124650955200195
1790266303751833900,14.298833740234375,-8.073383331298828,-9.128618240356445,5.891129493713379
1790266303769086200,14.316086181640625,-8.303094863891602,-9.253045082092285,5.522634506225586
1790266303786338600,14.333338623046876,-9.34875774383545,-8.733802795410156,4.567898273468018
1790266303803591000,14.3505908203125,-8.920442581176758,-8.207381248474121,3.871587038040161
1790266303820843000,14.367843017578124,-8.707481384277344,-7.472784996032715,3.431307554244995
1790266303838095400,14.385095458984376,-8.793622970581055,-6.814758777618408,3.4002010822296143
1790266303855347700,14.40234765625,-7.348358154296875,-6.049055576324463,3.184846878051758
1790266303872600000,14.41960009765625,-6.491727828979492,-4.95074987411499,2.510071039199829
1790266303889852200,14.43685205078125,-5.793023586273193,-3.91705060005188,2.045863389968872
1790266303907104500,14.4541044921875,-7.448856830596924,-3.1202406883239746,1.9142581224441528
1790266303924356900,14.47135693359375,-6.814758777618408,-3.2829527854919434,1.2083754539489746
1790266303941609200,14.488609130859375,-5.472385406494141,-3.5341989994049072,1.1868400573730469
1790266303958861300,14.505861328125,-6.91765022277832,-2.8450660705566406,1.3256237506866455
1790266303976113700,14.52311376953125,-8.949156761169434,-1.4715858697891235,0.5838487148284912
1790266303993365800,14.54036572265625,-8.204988479614258,-0.7848458290100098,0.763310432434082
1790266304010617900,14.557617919921874,-8.082955360412598,-0.6652047038078308,2.4047868251800537
1790266304027870000,14.574869873046875,-6.355337142944336,-0.9308080077171326,3.0173492431640625
1790266304045122000,14.5921220703125,-6.245266914367676,-0.380458801984787,1.428515076637268
1790266304062374000,14.609373779296876,-5.352744102478027,0.5000999569892883,-0.1052841991186142
1790266304079626200,14.626626220703125,-5.7164530754089355,1.3351950645446777,-0.6197410821914673
1790266304096878600,14.643878662109374,-7.2095746994018555,1.6414763927459717,-0.5886343717575073
1790266304114131000,14.661130859375,-4.78803825378418,1.0839486122131348,0.8111668825149536
1790266304131383000,14.678383056640625,-3.8835511207580566,0.49292147159576416,1.6175481081008911
1790266304148635400,14.695635498046874,-3.555734395980835,-0.11485548317432404,0.7848458290100098
1790266304165887700,14.7128876953125,-4.9292144775390625,-0.038285162299871445,-0.9451649188995361
1790266304183140000,14.73014013671875,-4.319045066833496,0.27756741642951965,-0.2799602448940277
1790266304200392200,14.74739208984375,-5.3216376304626465,1.1270195245742798,0.6963114142417908
1790266304217644500,14.76464453125,-6.589833736419678,1.1365907192230225,2.1272194385528564
1790266304234897000,14.78189697265625,-7.267002582550049,-0.0933200865983963,1.9956140518188477
1790266304252149200,14.799149169921876,-6.795616149902344,-1.3112667798995972,1.6893328428268433
1790266304269401300,14.8164013671875,-7.408178806304932,-2.194218397140503,1.8352949619293213
1790266304286653700,14.83365380859375,-7.144968509674072,-3.239881753921509,2.3952155113220215
1790266304303906000,14.850906005859375,-7.692924976348877,-4.386044025421143,2.713460922241211
1790266304321158400,14.868158447265625,-8.872586250305176,-5.702096462249756,3.232703447341919
1790266304338410800,14.88541064453125,-8.018348693847656,-6.3122663497924805,3.2039895057678223
1790266304355662800,14.902662841796875,-7.929814338684082,-6.7310099601745605,2.909672260284424
1790266304372915200,14.919915283203125,-9.509077072143555,-7.101897716522217,3.3930225372314453
1790266304390167600,14.93716748046875,-7.7455668449401855,-7.259823799133301,3.373879909515381
1790266304407420000,14.954419921875,-5.9437713623046875,-6.776473522186279,3.13220477104187
1790266304424672000,14.971672119140624,-6.128018856048584,-6.185446739196777,2.950350284576416
1790266304441924400,14.98892431640625,-6.259624004364014,-6.104090690612793,3.050848960876465
1790266304459176700,15.0061767578125,-5.687739372253418,-6.666403770446777,2.737389087677002
1790266304476429000,15.023428955078124,-6.465406894683838,-7.41535758972168,2.218146562576294
1790266304493681200,15.04068115234375,-8.240880966186523,-8.078168869018555,2.043470621109009
1790266304510933500,15.05793359375,-8.23130989074707,-8.640482902526855,2.5914268493652344
1790266304528185900,15.075185791015626,-8.724231719970703,-9.571290969848633,3.8045880794525146
1790266304545438200,15.092438232421875,-8.327022552490234,-10.928021430969238,4.780859470367432
1790266304562690300,15.109690185546874,-6.625725746154785,-12.160325050354004,5.13739013671875
1790266304579942700,15.126942626953126,-9.066405296325684,-12.076576232910156,4.756931304931641
1790266304597195000,15.144195068359375,-10.358529090881348,-10.875378608703613,4.816751956939697
1790266304614447400,15.161447265625,-9.470791816711426,-10.133604049682617,4.862215518951416
1790266304631699700,15.17869970703125,-7.7216386795043945,-11.076375961303711,4.862215518951416
1790266304648951800,15.195951904296875,-7.113861560821533,-11.789437294006348,4.962714195251465
1790266304666204200,15.2132041015625,-6.843472957611084,-9.856036186218262,3.649054527282715
1790266304683456500,15.23045654296875,-6.185446739196777,-7.623532772064209,2.9766714572906494
1790266304700708900,15.247708984375,-5.44845724105835,-6.221338748931885,3.0340991020202637
1790266304717961000,15.2649609375,-4.737788677215576,-5.745167255401611,3.3690943717956543
1790266304735213300,15.28221337890625,-5.087141036987305,-6.348158359527588,3.187239646911621
1790266304752465700,15.299465576171874,-5.934200286865234,-7.601997375488281,2.5220351219177246
1790266304769718000,15.316718017578125,-5.7858452796936035,-8.336593627929688,1.8089739084243774
1790266304786970000,15.33397021484375,-5.254638671875,-8.432307243347168,2.2085752487182617
1790266304804222500,15.351222412109376,-6.096911907196045,-8.384450912475586,2.8498518466949463
1790266304821474800,15.368474853515625,-8.154739379882812,-8.752944946289062,2.7732813358306885
1790266304838727200,15.38572705078125,-7.621140003204346,-9.198010444641113,3.1178479194641113
1790266304855979300,15.402979248046876,-7.125825881958008,-9.154939651489258,2.7326035499572754
1790266304873231600,15.420231689453125,-9.695717811584473,-8.903693199157715,2.8594231605529785
1790266304890484000,15.43748388671875,-8.874979019165039,-9.066405296325684,4.036691665649414
1790266304907736300,15.454736328125,-7.8388872146606445,-8.671588897705078,4.728217601776123
1790266304924988700,15.47198876953125,-7.503891944885254,-7.348358154296875,4.273581027984619
1790266304942240800,15.48924072265625,-6.486942291259766,-6.285944938659668,3.924229145050049
1790266304959493000,15.5064931640625,-7.566105365753174,-5.654240131378174,3.744767427444458
1790266304976745500,15.523745361328125,-9.422935485839844,-5.8337016105651855,4.163511276245117
1790266304993997600,15.54099755859375,-8.614161491394043,-6.51326322555542,4.668396949768066
1790266305011249700,15.558249755859375,-7.401000499725342,-7.113861560821533,4.302295207977295
1790266305028501500,15.57550146484375,-7.420143127441406,-7.1473612785339355,3.972085475921631
1790266305045753600,15.592753662109375,-7.733603000640869,-6.7070817947387695,4.232903480529785
1790266305063005700,15.610005615234375,-8.059026718139648,-6.135197162628174,3.950550079345703
1790266305080258000,15.627258056640626,-6.876972198486328,-4.910071849822998,3.34995174407959
1790266305097510100,15.64451025390625,-6.422336101531982,-3.5844483375549316,2.50289249420166
1790266305114762500,15.661762451171874,-6.812366008758545,-2.304288148880005,1.7324036359786987
1790266305132014800,15.679014892578126,-7.45364236831665,-1.7515461444854736,0.7465606927871704
1790266305149267200,15.69626708984375,-7.9728851318359375,-1.1030912399291992,0.7728816866874695
1790266305166519600,15.71351953125,-7.69531774520874,-1.7371892929077148,1.2993026971817017
1790266305183771600,15.730771728515625,-5.400600910186768,-2.306680917739868,1.3710874319076538
1790266305201024000,15.74802392578125,-4.989035129547119,-1.5696916580200195,0.6532405614852905
1790266305218276400,15.7652763671875,-4.431507587432861,-0.16271193325519562,-0.5575276613235474
1790266305235528700,15.78252880859375,-5.108676433563232,1.7467604875564575,-1.160519003868103
1790266305252780800,15.79978076171875,-8.274380683898926,3.081955671310425,-1.6941183805465698
1790266305270033200,15.817033203125,-8.248059272766113,2.321038007736206,0.550349235534668
1790266305287285500,15.834285400390625,-4.744967460632324,-0.23688943684101105,3.239881753921509
1790266305304537900,15.851537841796874,-4.553541660308838,-1.4883357286453247,2.9790642261505127
1790266305321790000,15.8687900390625,-5.903093338012695,-1.069591760635376,-0.07657032459974289
1790266305339042300,15.886042236328125,-5.44845724105835,0.10049854964017868,0.05503492057323456
1790266305356294700,15.903294677734374,-5.730810165405273,0.3517449200153351,0.7513462901115417
1790266305373547000,15.920547119140625,-5.5345988273620605,0.46899324655532837,1.1054840087890625
1790266305390799000,15.937799072265625,-6.695117950439453,0.5120640397071838,0.8709874153137207
1790266305408051500,15.955051513671876,-6.1710896492004395,0.3900300860404968,1.6342978477478027
1790266305425303800,15.9723037109375,-7.4847493171691895,0.10289137065410614,2.4047868251800537
1790266305442556200,15.98955615234375,-6.687939167022705,-1.1820544004440308,3.3092737197875977
1790266305459808500,16.00680859375,-5.501099109649658,-3.0101709365844727,2.885744094848633
1790266305477060600,16.024060546875,-3.9601213932037354,-4.453042984008789,2.4981069564819336
1790266305494313000,16.04131298828125,-6.068198204040527,-5.431707382202148,1.9669002294540405
1790266305511565300,16.0585654296875,-9.075976371765137,-5.800201892852783,1.8089739084243774
1790266305528817700,16.075817626953125,-9.872786521911621,-5.7786664962768555,2.0554347038269043
1790266305546069800,16.09306982421875,-8.15234661102295,-5.879165172576904,3.9361932277679443
1790266305563322000,16.110322021484375,-7.271788120269775,-6.135197162628174,4.910071849822998
1790266305580574500,16.127574462890625,-6.860222339630127,-7.412964344024658,4.59421968460083
1790266305597826800,16.144826904296874,-6.692724704742432,-8.8438720703125,3.486342668533325
1790266305615079000,16.162078857421875,-7.278966426849365,-10.076175689697266,2.8905298709869385
1790266305632331300,16.179331298828124,-7.465606689453125,-10.547562599182129,3.2925238609313965
1790266305649583600,16.19658349609375,-7.350750923156738,-9.652647018432617,3.6370904445648193
1790266305666836000,16.2138359375,-8.250452041625977,-8.834300994873047,4.4243292808532715
1790266305684088000,16.231088134765624,-8.291130065917969,-8.719446182250977,4.811966419219971
1790266305701340400,16.24834033203125,-7.487142086029053,-9.279366493225098,4.7234320640563965
1790266305718592800,16.2655927734375,-7.41535758972168,-9.430113792419434,4.823930263519287
1790266305735845000,16.28284521484375,-8.322237014770508,-9.119047164916992,4.821537494659424
1790266305753097500,16.300097412109373,-7.6977105140686035,-8.791230201721191,4.759324073791504
1790266305770349600,16.317349609375,-7.348358154296875,-8.563912391662598,4.161118507385254
1790266305787601700,16.3346015625,-7.3914289474487305,-9.10229778289795,3.6681971549987793
1790266305804853800,16.351853759765625,-7.606783390045166,-10.526026725769043,3.445664644241333
1790266305822105900,16.36910595703125,-7.04925537109375,-11.502298355102539,3.9361932277679443
1790266305839358000,16.38635791015625,-6.391229152679443,-10.621739387512207,3.3308091163635254
1790266305856610000,16.403610107421876,-5.9509501457214355,-8.980263710021973,2.8115665912628174
1790266305873862100,16.420862060546874,-6.403193473815918,-7.999206066131592,2.5938198566436768
1790266305891114500,16.438114501953127,-6.654439926147461,-8.169096946716309,2.227717876434326
1790266305908366800,16.455366943359376,-6.032305717468262,-8.630910873413086,2.1128623485565186
1790266305925619000,16.472618896484374,-4.596612453460693,-8.322237014770508,2.1583259105682373
1790266305942871300,16.489871337890627,-5.0943193435668945,-7.554141044616699,2.2301106452941895
1790266305960123600,16.50712353515625,-7.221538543701172,-7.264609336853027,2.2707886695861816
1790266305977376000,16.5243759765625,-7.843672752380371,-7.688138961791992,3.404986619949341
1790266305994628400,16.54162841796875,-6.752545356750488,-8.374878883361816,4.9292144775390625
1790266306011880400,16.55888037109375,-6.714260101318359,-8.678768157958984,4.802394866943359
1790266306029132800,16.5761328125,-7.226324558258057,-8.243273735046387,4.036691665649414
1790266306046385200,16.59338525390625,-7.534998416900635,-7.611568927764893,4.364508628845215
1790266306063637500,16.610637451171876,-10.191031455993652,-7.343572616577148,5.517848968505859
1790266306080889600,16.6278896484375,-10.767702102661133,-7.776673793792725,6.7621169090271
1790266306098142000,16.645141845703126,-6.943971157073975,-8.34855842590332,6.532405853271484
1790266306115394300,16.662394287109375,-6.058627128601074,-7.621140003204346,4.914857864379883
1790266306132646700,16.679646728515625,-7.846065521240234,-6.350551128387451,4.60139799118042
1790266306149898800,16.696898681640626,-8.496912956237793,-6.159125328063965,4.570291042327881
1790266306167151000,16.714151123046875,-8.214560508728027,-6.0466628074646,4.72582483291626
1790266306184403500,16.731403564453124,-8.654839515686035,-5.539384365081787,4.4721856117248535
1790266306201655800,16.74865576171875,-7.554141044616699,-5.697310924530029,3.761517286300659
1790266306218908000,16.765907958984375,-8.181060791015625,-5.8719868659973145,3.5820555686950684
1790266306236160300,16.78316015625,-9.238688468933105,-5.934200286865234,3.428914785385132
1790266306253412600,16.80041259765625,-8.69791030883789,-5.998806476593018,2.823530673980713
1790266306270665000,16.8176650390625,-6.522834300994873,-5.319244861602783,2.148754835128784
1790266306287917300,16.834917236328124,-4.704289436340332,-4.07258415222168,1.9980069398880005
1790266306305169400,16.85216943359375,-5.544169902801514,-2.8905298709869385,0.7082754969596863
1790266306322421800,16.869421875,-4.902893543243408,-1.911865234375,-1.246660590171814
1790266306339674000,16.886674072265624,-3.627519130706787,-0.2273181527853012,-0.4570291340351105
1790266306356926500,16.903926513671873,-5.553741455078125,2.012363910675049,-0.6843472719192505
1790266306374178600,16.921178466796874,-8.12123966217041,2.4765713214874268,-0.5479564070701599
1790266306391431000,16.938430908203124,-3.7950167655944824,0.8638089895248413,1.612762451171875
1790266306408682800,16.955682861328125,-5.00578498840332,0.45224347710609436,1.3519448041915894
1790266306425934800,16.972934814453126,-7.922635555267334,0.6652047038078308,-0.23688943684101105
1790266306443187000,16.99018701171875,-6.733402729034424,1.0648061037063599,-0.44027936458587646
1790266306460439000,17.00743896484375,-6.628118515014648,1.3088740110397339,0.698704183101654
1790266306477691100,17.024691162109374,-6.094519138336182,0.5479564070701599,1.3830515146255493
1790266306494943500,17.041943603515627,-6.752545356750488,0.5838487148284912,0.46420758962631226
1790266306512195800,17.05919580078125,-5.259424209594727,0.33499518036842346,2.3258235454559326
1790266306529448200,17.0764482421875,-6.51326322555542,-0.13160525262355804,2.007578134536743
1790266306546700300,17.0937001953125,-4.4410786628723145,-0.9308080077171326,2.7086751461029053
1790266306563952600,17.11095263671875,-3.5341989994049072,-1.4021940231323242,1.8305093050003052
1790266306581205000,17.128205078125,-4.445864677429199,-1.3639088869094849,0.8159525394439697
1790266306598457300,17.145457275390626,-7.113861560821533,-1.5314065217971802,1.301695466041565
1790266306615709400,17.16270947265625,-6.702296257019043,-1.9381862878799438,2.754138946533203
1790266306632961800,17.1799619140625,-6.965506553649902,-2.2683959007263184,3.88594388961792
1790266306650214100,17.197214111328126,-6.259624004364014,-2.7589244842529297,4.242474555969238
1790266306667466500,17.214466552734375,-6.733402729034424,-3.9792640209198,3.359523057937622
1790266306684718600,17.231718505859376,-5.836094379425049,-5.86002254486084,2.63449764251709
1790266306701971000,17.248970947265626,-6.372086524963379,-7.037291526794434,2.416750907897949
1790266306719223300,17.266223388671875,-9.987641334533691,-7.692924976348877,2.66560435295105
1790266306736475600,17.2834755859375,-9.291330337524414,-8.248059272766113,3.7782669067382812
1790266306753727700,17.300727783203126,-6.087340831756592,-8.267202377319336,3.7639100551605225
1790266306770980000,17.31797998046875,-5.127819061279297,-8.405985832214355,3.9529430866241455
1790266306788232400,17.335232421875,-6.434299945831299,-9.22433090209961,4.510470867156982
1790266306805484800,17.35248486328125,-8.243273735046387,-10.04267692565918,4.859822750091553
1790266306822737200,17.369737060546875,-7.3052873611450195,-9.650253295898438,4.146761417388916
1790266306839989200,17.3869892578125,-7.6737823486328125,-8.439485549926758,4.536791801452637
1790266306857241600,17.40424169921875,-8.221738815307617,-7.76470947265625,5.113461971282959
1790266306874494000,17.421493896484375,-7.989634990692139,-8.50169849395752,5.359922885894775
1790266306891746300,17.438746337890624,-7.891529083251953,-10.375279426574707,5.400600910186768
1790266306908998400,17.455998291015625,-7.45364236831665,-12.112467765808105,5.264209747314453
1790266306926250800,17.473250732421874,-7.977670669555664,-12.985848426818848,4.941178798675537
1790266306943503000,17.490503173828124,-6.8482584953308105,-12.320643424987793,4.3310089111328125
1790266306960755500,17.50775537109375,-5.910272121429443,-10.028319358825684,3.460021495819092
1790266306978007600,17.525007568359374,-5.625525951385498,-7.448856830596924,1.7084753513336182
1790266306995259600,17.542259765625,-6.3529438972473145,-5.900700569152832,1.2442678213119507
1790266307012511700,17.55951171875,-7.013363361358643,-6.0538411140441895,2.3258235454559326
1790266307029763800,17.576763916015626,-7.113861560821533,-7.436892986297607,3.799802303314209
1790266307047016000,17.594015869140627,-5.917450428009033,-8.453842163085938,3.060420274734497
1790266307064268000,17.61126806640625,-5.295316696166992,-8.930013656616211,2.124826431274414
1790266307081520000,17.62852001953125,-5.740381717681885,-9.140582084655762,2.2444677352905273
1790266307098772500,17.6457724609375,-8.185846328735352,-9.827322959899902,2.9958138465881348
1790266307116024800,17.66302490234375,-10.05703353881836,-11.035697937011719,4.051048755645752
1790266307133277200,17.680277099609373,-7.384250640869141,-11.868400573730469,4.742574691772461
1790266307150529300,17.697529296875,-5.565705299377441,-11.203195571899414,4.326223373413086
1790266307167781600,17.71478173828125,-7.140182971954346,-9.31047248840332,2.761317253112793
1790266307185034000,17.732033935546873,-7.424928665161133,-7.499105930328369,2.9144580364227295
1790266307202286300,17.749286376953126,-6.410371780395508,-6.546762943267822,3.9529430866241455
1790266307219538400,17.766538330078124,-7.106683254241943,-5.934200286865234,4.3070807456970215
1790266307236790800,17.783790771484377,-7.659425258636475,-5.927021503448486,4.4243292808532715
1790266307254043100,17.801043212890626,-8.886942863464355,-6.632904529571533,4.838287353515625
1790266307271295500,17.81829541015625,-9.41336441040039,-7.544569969177246,5.304887771606445
1790266307288547800,17.8355478515625,-9.343972206115723,-8.496912956237793,5.965306758880615
1790266307305800000,17.852800048828126,-8.102097511291504,-8.817551612854004,5.008177757263184
1790266307323052300,17.87005224609375,-6.661618232727051,-7.523034572601318,3.871587038040161
1790266307340304600,17.8873046875,-9.147761344909668,-5.201996326446533,3.6083765029907227
1790266307357557000,17.904556884765626,-11.298908233642578,-4.488935470581055,3.8189449310302734
1790266307374809000,17.92180908203125,-7.582854747772217,-5.520241737365723,5.221138954162598
1790266307392061400,17.9390615234375,-6.453442573547363,-5.4556355476379395,4.862215518951416
1790266307409313800,17.956313720703125,-9.030512809753418,-5.166104316711426,3.4337005615234375
1790266307426566100,17.973566162109375,-7.357929706573486,-6.252445697784424,1.9692929983139038
1790266307443818200,17.990818359375,-4.357329845428467,-5.26181697845459,2.4813570976257324
1790266307461070600,18.008070556640625,-6.206982135772705,-2.306680917739868,1.8472590446472168
1790266307478323000,18.025322998046875,-5.285745143890381,-0.06939185410737991,1.7443677186965942
1790266307495575000,18.042574951171876,-4.6995038986206055,1.2323036193847656,1.1892328262329102
1790266307512827100,18.0598271484375,-4.462614059448242,2.4047868251800537,0.9930213689804077
1790266307530079200,18.077079345703126,-4.867001056671143,3.0939197540283203,0.7728816866874695
1790266307547331300,18.094331298828124,-5.78345251083374,2.352144718170166,1.648654818534851
1790266307564583400,18.11158349609375,-4.453042984008789,0.34695929288864136,1.5696916580200195
1790266307581835500,18.12883544921875,-3.4672000408172607,-0.672383189201355,1.00259268283844
1790266307599087900,18.146087890625,-5.419743061065674,-0.2560320198535919,0.2679961323738098
1790266307616340000,18.163340087890624,-5.793023586273193,1.215553879737854,0.5096712112426758
1790266307633592300,18.18059228515625,-5.197210788726807,2.258824586868286,1.2610175609588623
1790266307650844700,18.1978447265625,-6.52044153213501,2.586641311645508,1.430907964706421
1790266307668097000,18.215096923828124,-7.759923934936523,2.1894326210021973,1.153340458869934
1790266307685349000,18.23234912109375,-6.305087566375732,0.6173482537269592,2.3186452388763428
1790266307702601500,18.2496015625,-5.793023586273193,-1.2035897970199585,3.22552490234375
1790266307719853800,18.266853759765624,-8.9850492477417,-2.5387847423553467,3.0245277881622314
1790266307737106200,18.284106201171873,-8.726624488830566,-3.6466617584228516,3.5533416271209717
1790266307754358300,18.301358154296874,-6.781259536743164,-3.9984066486358643,3.1728827953338623
1790266307771610600,18.318610595703124,-5.3455657958984375,-3.9936211109161377,2.9623143672943115
1790266307788863000,18.335863037109377,-3.840480327606201,-3.9792640209198,2.723032236099243
1790266307806115300,18.353115234375,-4.986642360687256,-4.1347975730896,2.6273193359375
1790266307823367700,18.37036767578125,-5.788238048553467,-4.18983268737793,2.093719720840454
1790266307840619800,18.387619873046877,-6.1399827003479,-3.85483717918396,1.9980069398880005
1790266307857872100,18.4048720703125,-6.745367050170898,-3.407379388809204,2.076970100402832
1790266307875124500,18.42212451171875,-8.482556343078613,-3.297309637069702,2.3186452388763428
1790266307892376600,18.43937646484375,-7.188039302825928,-4.110869407653809,2.8666014671325684
1790266307909628700,18.456628662109374,-5.855237007141113,-5.776273727416992,2.7014968395233154
1790266307926880800,18.473880859375,-7.810173034667969,-7.913064479827881,3.0963125228881836
1790266307944132900,18.4911328125,-8.401200294494629,-10.60977554321289,3.610769271850586
1790266307961385000,18.508385009765625,-7.613961696624756,-12.56710433959961,2.9862427711486816
1790266307978637000,18.525636962890626,-7.582854747772217,-13.435699462890625,3.3332018852233887
1790266307995889200,18.54288916015625,-8.350951194763184,-13.208380699157715,4.907679080963135
1790266308013141500,18.5601416015625,-10.480563163757324,-11.877971649169922,4.570291042327881
1790266308030393900,18.577393798828126,-7.932207107543945,-10.923234939575195,5.371886730194092
1790266308047646200,18.594646240234376,-7.984848976135254,-11.006983757019043,6.324230194091797
1790266308064898600,18.611898681640625,-6.391229152679443,-10.705488204956055,6.879364967346191
1790266308082150700,18.629150634765626,-6.034698486328125,-8.62612533569336,4.878965377807617
1790266308099403000,18.646403076171875,-5.697310924530029,-5.929414749145508,2.8498518466949463
1790266308116655400,18.6636552734375,-5.357530117034912,-3.7256247997283936,2.0793628692626953
1790266308133907700,18.68090771484375,-5.989234924316406,-2.950350284576416,2.6057839393615723
1790266308151159800,18.698159912109375,-7.628318786621094,-4.807180881500244,3.4002010822296143
1790266308168412200,18.715412109375,-8.791230201721191,-7.88913631439209,4.512863636016846
1790266308185664500,18.73266455078125,-8.102097511291504,-10.805987358093262,4.529613494873047
1790266308202916900,18.749916748046875,-7.929814338684082,-14.045868873596191,3.5509488582611084
1790266308220169000,18.7671689453125,-7.89631462097168,-15.474384307861328,2.9934210777282715
1790266308237421300,18.78442138671875,-7.393822193145752,-12.308679580688477,3.7232320308685303
1790266308254673700,18.801673583984375,-5.996413707733154,-8.793622970581055,4.773681163787842
1790266308271926000,18.818926025390624,-4.436293125152588,-6.369693756103516,4.711467742919922
1790266308289178000,18.83617822265625,-4.474578380584717,-5.173282623291016,3.314059257507324
1790266308306430500,18.853430419921875,-6.601797580718994,-5.498706340789795,2.9479575157165527
1790266308323682800,18.870682861328124,-8.453842163085938,-6.661618232727051,3.7782669067382812
1790266308340935200,18.88793505859375,-7.81974458694458,-7.6043901443481445,5.704489231109619
1790266308358187500,18.9051875,-5.685346603393555,-7.944170951843262,6.781259536743164
1790266308375439600,18.922439697265624,-6.774080753326416,-7.654639720916748,5.484349727630615
1790266308392691700,18.939691650390625,-8.740981101989746,-7.712067604064941,4.070191383361816
1790266308409943800,18.95694384765625,-8.700303077697754,-8.709874153137207,4.089334011077881
1790266308427196000,18.97419580078125,-8.188239097595215,-9.226723670959473,4.098905086517334
1790266308444448000,18.991447998046876,-9.336793899536133,-8.707481384277344,4.18983268737793
1790266308461700000,19.0087001953125,-8.73619556427002,-7.735995769500732,4.244867324829102
1790266308478952200,19.0259521484375,-7.080362319946289,-6.441478729248047,3.414557933807373
1790266308496204500,19.04320458984375,-7.977670669555664,-4.847858905792236,3.0412776470184326
1790266308513457000,19.060456787109374,-8.597412109375,-4.3549370765686035,2.9958138465881348
1790266308530709000,19.077708984375,-8.970691680908203,-4.759324073791504,3.1250264644622803
1790266308547961300,19.09496142578125,-7.6737823486328125,-5.307280540466309,2.967100143432617
1790266308565213700,19.112213623046873,-6.104090690612793,-5.340780258178711,2.837887763977051
1790266308582466000,19.129466064453126,-5.6207404136657715,-4.883750915527344,2.3617160320281982
1790266308599718400,19.146718505859376,-5.881557941436768,-3.814159393310547,1.6414763927459717
1790266308616970500,19.163970458984377,-6.0610198974609375,-2.5459632873535156,0.576670229434967
1790266308634222800,19.181222900390626,-6.805187702178955,-1.1772687435150146,0.1866401731967926
1790266308651475200,19.19847509765625,-6.798008918762207,0.7513462901115417,0.7106683254241943
1790266308668727600,19.2157275390625,-6.0466628074646,1.007378339767456,1.5649060010910034
1790266308685979600,19.232979736328126,-6.884150981903076,0.9308080077171326,1.5720844268798828
1790266308703232000,19.25023193359375,-6.955935478210449,0.3206382393836975,1.4787644147872925
1790266308720484400,19.267484375,-4.443471431732178,-0.12203395366668701,1.454836130142212
1790266308737736700,19.28473681640625,-6.620940208435059,0.02871387079358101,0.01196411345154047
1790266308754988800,19.30198876953125,-6.168696880340576,0.33020952343940735,-0.5742774605751038
1790266308772241200,19.3192412109375,-5.874379634857178,2.029113531112671,-0.672383189201355
1790266308789493200,19.3364931640625,-5.367101192474365,2.926422119140625,0.7441678643226624
1790266308806745300,19.353745361328127,-6.831508636474609,2.242074728012085,1.8759729862213135
1790266308823997400,19.37099755859375,-4.831109046936035,0.43549370765686035,2.8761727809906006
1790266308841249500,19.38824951171875,-4.610969066619873,-0.20578274130821228,1.9166508913040161
1790266308858501600,19.405501708984374,-3.862015724182129,-0.44745782017707825,1.397408366203308
1790266308875753700,19.422753662109375,-5.252245903015137,-0.4498506486415863,0.7417750358581543
1790266308893006000,19.440006103515625,-6.39601469039917,-0.4905286431312561,1.5744773149490356
1790266308910258400,19.457258544921874,-7.877171993255615,-0.916451096534729,2.933600664138794
1790266308927510500,19.474510498046875,-6.64486837387085,-1.7539390325546265,3.38105845451355
1790266308944763000,19.491762939453125,-6.649653911590576,-2.6560330390930176,3.531806230545044
1790266308962015200,19.50901513671875,-7.159325122833252,-3.91705060005188,3.94097900390625
1790266308979267600,19.526267578125,-7.470392227172852,-5.560919761657715,3.864408493041992
1790266308996519700,19.543519775390624,-7.999206066131592,-7.221538543701172,3.421736478805542
1790266309013772000,19.56077197265625,-8.63330364227295,-8.391629219055176,3.3571300506591797
1790266309031024400,19.5780244140625,-7.668996810913086,-9.030512809753418,4.082155227661133
1790266309048276700,19.59527685546875,-8.097311973571777,-8.920442581176758,4.613361835479736
1790266309065529000,19.612529052734374,-7.700103282928467,-8.851051330566406,4.807180881500244
1790266309082781200,19.62978125,-6.467799663543701,-8.640482902526855,4.460221290588379
1790266309100033300,19.647033203125,-5.630311489105225,-8.25523853302002,4.2281174659729
1790266309117285400,19.664285400390625,-6.695117950439453,-8.13081169128418,4.823930263519287
1790266309134537500,19.681537353515626,-7.161718368530273,-8.310273170471191,5.158925533294678
1790266309151789600,19.69878955078125,-6.0466628074646,-8.666803359985352,4.500899314880371
1790266309169041700,19.716041748046877,-7.29810905456543,-9.097511291503906,4.089334011077881
1790266309186293800,19.733293701171874,-8.102097511291504,-9.497113227844238,4.264009952545166
1790266309203546000,19.750546142578123,-7.929814338684082,-9.834501266479492,4.252045631408691
1790266309220798500,19.767798583984376,-7.1234331130981445,-9.647860527038574,4.280759811401367
1790266309238050600,19.785050537109374,-6.716653347015381,-9.657432556152344,4.0079779624938965
1790266309255303000,19.802302978515623,-7.848458290100098,-8.786444664001465,3.6299118995666504
1790266309272555300,19.81955517578125,-8.537590980529785,-7.630711555480957,3.555734395980835
1790266309289807600,19.8368076171875,-7.994420528411865,-6.953542709350586,4.689932346343994
1790266309307060000,19.85406005859375,-7.439285755157471,-7.867600917816162,5.886343479156494
1790266309324312000,19.87131201171875,-6.927221775054932,-9.499505996704102,5.706881999969482
1790266309341564400,19.888564453125,-5.548955917358398,-9.468399047851562,5.020142078399658
1790266309358816800,19.905816650390626,-5.5034918785095215,-7.8819580078125,4.070191383361816
1790266309376069000,19.923069091796876,-6.357729911804199,-7.001399040222168,3.7184464931488037
1790266309393321200,19.9403212890625,-8.059026718139648,-7.8556365966796875,4.058227062225342
1790266309410573600,19.957573486328126,-7.214360237121582,-10.356136322021484,4.957928657531738
1790266309427826000,19.974825927734376,-6.716653347015381,-12.401999473571777,4.78803825378418
1790266309445078300,19.992078369140625,-6.745367050170898,-12.787243843078613,3.586841106414795
1790266309462330400,20.009330322265626,-6.087340831756592,-9.930213928222656,3.3619158267974854
1790266309479582700,20.026582763671875,-5.577669620513916,-7.152146816253662,2.9766714572906494
1790266309496834800,20.043834716796876,-5.580062389373779,-5.4173502922058105,2.823530673980713
1790266309514087000,20.0610869140625,-5.309673309326172,-4.563112735748291,2.7254250049591064
1790266309531339000,20.078339111328123,-5.879165172576904,-4.280759811401367,2.682354211807251
1790266309548591000,20.095591064453124,-7.64028263092041,-4.460221290588379,3.3882367610931396
1790266309565843200,20.11284326171875,-9.757930755615234,-5.38624382019043,4.869394302368164
1790266309583095300,20.13009521484375,-10.068997383117676,-7.077969551086426,6.821937561035156
1790266309600347600,20.14734765625,-8.319844245910645,-8.391629219055176,7.582854747772217
1790266309617600000,20.16460009765625,-8.274380683898926,-8.511270523071289,7.738388538360596
1790266309634852000,20.18185205078125,-9.437292098999023,-7.9250288009643555,6.750152587890625
1790266309652104400,20.1991044921875,-9.4660062789917,-7.850851058959961,5.513063430786133
1790266309669356800,20.216356689453125,-8.7505521774292,-7.429714202880859,4.8574299812316895
1790266309686609200,20.233609130859374,-7.982456207275391,-6.070590972900391,4.110869407653809
1790266309703861200,20.250861328125,-7.57806921005249,-4.488935470581055,3.352344512939453
1790266309721113600,20.268113525390625,-5.426921844482422,-2.912065267562866,2.8594231605529785
1790266309738366000,20.285365966796874,-4.867001056671143,-1.5146567821502686,1.7252250909805298
1790266309755618300,20.302618408203124,-4.500899314880371,-0.9451649188995361,1.124626636505127
1790266309772870400,20.319870361328125,-5.230710506439209,-0.794417142868042,0.7322037220001221
1790266309790122800,20.337122802734374,-4.814359188079834,-0.8303094506263733,0.763310432434082
1790266309807375000,20.354375,-4.945964336395264,-0.9978070259094238,0.9523434042930603
1790266309824627500,20.37162744140625,-5.458028316497803,-1.3902299404144287,1.0815558433532715
1790266309841879800,20.3888798828125,-5.151747226715088,-1.6175481081008911,0.9308080077171326
1790266309859132000,20.4061318359375,-4.390829563140869,-0.15074782073497772,0.7776673436164856
1790266309876384300,20.42338427734375,-5.764309883117676,1.9262222051620483,0.519242525100708
1790266309893636400,20.44063623046875,-6.97986364364624,1.2705888748168945,-0.2153540402650833
1790266309910888400,20.457888427734375,-7.326822757720947,1.057627558708191,0.12921242415905
1790266309928140500,20.475140625,-4.962714195251465,1.5601203441619873,0.7226324677467346
1790266309945392600,20.492392578125,-6.427121639251709,1.435693621635437,0.4546363055706024
1790266309962644700,20.509644775390626,-7.23589563369751,0.5718846321105957,0.8542376756668091
1790266309979896800,20.526896728515624,-7.101897716522217,-0.14835500717163086,1.3758729696273804
1790266309997149200,20.544149169921877,-7.389036178588867,-0.7250252366065979,2.148754835128784
1790266310014401500,20.561401611328126,-6.7621169090271,-1.3184453248977661,2.4119651317596436
1790266310031653600,20.578653564453123,-6.719046115875244,-1.8544375896453857,2.4885356426239014
1790266310048906000,20.595906005859376,-7.29093074798584,-2.541177749633789,2.4047868251800537
1790266310066158300,20.613158447265626,-8.774480819702148,-3.3690943717956543,2.50289249420166
1790266310083410700,20.63041064453125,-5.879165172576904,-4.1659040451049805,2.1296122074127197
1790266310100662800,20.647662841796876,-5.051248550415039,-4.340580463409424,2.249253273010254
1790266310117915100,20.6649150390625,-5.563312530517578,-4.632504463195801,2.816352367401123
1790266310135167500,20.68216748046875,-5.424529075622559,-5.237888813018799,2.4191436767578125
1790266310152419800,20.699419921875,-5.927021503448486,-5.711667537689209,1.3950155973434448
1790266310169672000,20.716671875,-4.893322467803955,-5.599205017089844,1.332802176475525
1790266310186924300,20.73392431640625,-5.017749309539795,-5.170889854431152,2.825923442840576
1790266310204176400,20.75117626953125,-7.3675007820129395,-5.242674350738525,4.158725738525391
1790266310221428500,20.768428466796873,-7.759923934936523,-5.9198431968688965,4.603790760040283
1790266310238680600,20.7856806640625,-5.558526992797852,-6.778866767883301,4.7234320640563965
1790266310255932700,20.8029326171875,-5.637490272521973,-7.934599876403809,5.300102233886719
1790266310273184800,20.820184814453125,-9.516255378723145,-9.9469633102417,7.592426300048828
1790266310290436900,20.837436767578126,-10.506884574890137,-12.150753021240234,7.733603000640869
1790266310307689200,20.854689208984375,-9.865608215332031,-13.916656494140625,6.721438884735107
1790266310324941600,20.871941650390625,-8.776873588562012,-15.337993621826172,7.465606689453125
1790266310342193700,20.889193603515626,-8.616554260253906,-14.93121337890625,6.802794933319092
1790266310359446000,20.906446044921875,-7.601997375488281,-12.181859970092773,5.079962253570557
1790266310376698400,20.923698486328124,-6.836294174194336,-8.898907661437988,4.412364959716797
1790266310393950700,20.94095068359375,-6.228517532348633,-6.144768714904785,3.651447296142578
1790266310411202800,20.958202880859375,-5.726024627685547,-4.350151538848877,3.438486099243164
1790266310428455200,20.975455078125,-5.355136871337891,-3.864408493041992,4.012763500213623
1790266310445707500,20.99270751953125,-5.319244861602783,-5.3694939613342285,4.060619831085205
1790266310462959900,21.0099599609375,-6.0538411140441895,-7.822137355804443,4.201796531677246
1790266310480212000,21.0272119140625,-5.9437713623046875,-9.66221809387207,3.7950167655944824
1790266310497464000,21.044464111328125,-5.838487148284912,-10.65523910522461,3.6083765029907227
1790266310514716200,21.061716064453126,-5.7858452796936035,-10.437492370605469,3.2757742404937744
1790266310531968300,21.07896826171875,-6.0610198974609375,-9.164510726928711,2.9359934329986572
1790266310549220400,21.096220458984376,-5.955735683441162,-7.733603000640869,3.428914785385132
1790266310566472400,21.113472412109374,-6.419943332672119,-7.22871732711792,3.2590243816375732
1790266310583724500,21.130724609375,-7.652246952056885,-8.14516830444336,4.048655986785889
1790266310600977000,21.147976806640624,-6.891329288482666,-9.614361763000488,5.685346603393555
1790266310618229200,21.165229248046874,-6.015556335449219,-10.454241752624512,6.719046115875244
1790266310635481600,21.182481689453127,-6.252445697784424,-9.53061294555664,7.499105930328369
1790266310652733700,21.199733642578124,-5.807380676269531,-7.685746192932129,6.573083877563477
1790266310669986000,21.216986083984374,-4.847858905792236,-5.828916072845459,5.1804609298706055
1790266310687238400,21.23423828125,-6.288337707519531,-4.914857864379883,4.709074974060059
1790266310704490800,21.25149072265625,-7.118647575378418,-5.419743061065674,5.2977094650268555
1790266310721742800,21.268742919921873,-7.125825881958008,-6.3361945152282715,5.850451469421387
1790266310738995200,21.2859951171875,-7.9657063484191895,-6.963113784790039,5.630311489105225
1790266310756247600,21.30324755859375,-9.736394882202148,-7.731209754943848,6.656832695007324
1790266310773500000,21.3205,-8.657232284545898,-8.805587768554688,7.144968509674072
1790266310790752300,21.337752197265626,-8.49452018737793,-8.779266357421875,6.278766632080078
1790266310808004400,21.35500439453125,-7.546962738037109,-7.575676441192627,5.223531723022461
1790266310825256700,21.372256591796877,-7.424928665161133,-6.38883638381958,4.098905086517334
1790266310842509000,21.389509033203126,-7.843672752380371,-5.084748268127441,3.562912940979004
1790266310859761400,21.406761474609375,-7.853243827819824,-3.9936211109161377,3.177668571472168
1790266310877013500,21.424013427734376,-6.144768714904785,-3.5294134616851807,3.620340585708618
1790266310894265900,21.441265869140626,-5.556134223937988,-3.4337005615234375,3.9385859966278076
1790266310911517700,21.458517578125,-4.450650215148926,-3.4911282062530518,3.517449378967285
1790266310928769800,21.475769775390624,-4.328616142272949,-3.0963125228881836,2.6273193359375
1790266310946022000,21.49302197265625,-5.675775527954102,-2.249253273010254,1.6271194219589233
1790266310963274000,21.51027392578125,-7.489534854888916,-1.3399807214736938,1.5481562614440918
1790266310980526000,21.527526123046876,-7.130611419677734,-1.4165509939193726,2.9766714572906494
1790266310997778400,21.5447783203125,-5.460421085357666,-2.2636101245880127,3.5054850578308105
1790266311015030800,21.56203076171875,-4.680361270904541,-0.9068797826766968,2.493321180343628
1790266311032283100,21.579283203125,-5.2043890953063965,1.0241280794143677,1.1222338676452637
1790266311049535200,21.59653515625,-5.314459323883057,1.526620864868164,-0.04307080805301666
1790266311066787600,21.61378759765625,-3.9601213932037354,1.2562319040298462,-0.4713860750198364
1790266311084040000,21.6310400390625,-6.795616149902344,1.5050854682922363,0.05503492057323456
1790266311101292300,21.648292236328125,-8.810373306274414,0.916451096534729,0.8949156403541565
1790266311118544400,21.66554443359375,-6.515655994415283,0.5647061467170715,2.785245656967163
1790266311135796700,21.682796630859375,-3.5533416271209717,0.2871387302875519,2.5363919734954834
1790266311153049000,21.700049072265625,-1.246660590171814,0.064606212079525,1.9094724655151367
1790266311170301400,21.717301513671874,0.672383189201355,0.4259224236011505,1.074377417564392
1790266311187553500,21.734553466796875,-3.6634113788604736,1.6103696823120117,-1.2969099283218384
1790266311204805600,21.7518056640625,-18.233308792114258,3.5772697925567627,-3.950550079345703
1790266311222057700,21.7690576171875,-11.82293701171875,1.2658032178878784,0.4139583110809326
1790266311239309800,21.786309814453126,-2.0793628692626953,-2.746960401535034,6.305087566375732
1790266311256562000,21.80356201171875,-6.809973239898682,-5.414957523345947,7.774280548095703
1790266311273814000,21.82081396484375,-7.934599876403809,-9.401400566101074,6.56829833984375
1790266311291066000,21.838066162109374,-4.347758769989014,-11.212766647338867,1.789831280708313
1790266311308318500,21.855318359375,-5.601597785949707,-10.75813102722168,1.6917256116867065
1790266311325570800,21.87257080078125,-7.154539585113525,-9.087940216064453,4.108476638793945
1790266311342823200,21.8898232421875,-6.331408500671387,-6.556334018707275,5.3455657958984375
1790266311360075300,21.9070751953125,-10.344172477722168,-4.2592244148254395,4.706682205200195
1790266311377327600,21.92432763671875,-8.676374435424805,-2.4526431560516357,5.675775527954102
1790266311394580000,21.941580078125,-6.31944465637207,-2.6057839393615723,5.302495002746582
