time,seconds_elapsed,z,y,x
1790266289505566500,0.05256640625,9.474774360656738,1.0250130891799927,-2.312657356262207
1790266289515566600,0.062566650390625,9.45932674407959,0.753101646900177,-2.474745035171509
1790266289525566500,0.07256640625,9.475872993469238,0.6140279769897461,-2.4497318267822266
1790266289535566600,0.082566650390625,9.524767875671387,0.557314932346344,-2.266843795776367
1790266289545566500,0.09256640625,9.566790580749512,0.5797681212425232,-2.0762393474578857
1790266289555566600,0.102566650390625,9.602204322814941,0.6400159597396851,-1.8863844871520996
1790266289565566500,0.11256640625,9.631326675415039,0.7086290121078491,-1.704638123512268
1790266289575566600,0.122566650390625,9.64881420135498,0.7861543297767639,-1.5661174058914185
1790266289585566500,0.13256640625,9.649556159973145,0.8737806677818298,-1.5142487287521362
1790266289595566600,0.142566650390625,9.62972640991211,0.9841204285621643,-1.5717121362686157
1790266289605566500,0.15256640625,9.573979377746582,1.1130894422531128,-1.8084065914154053
1790266289615566600,0.162566650390625,9.478911399841309,1.21831476688385,-2.1991686820983887
1790266289625566500,0.17256640625,9.327588081359863,1.330871820449829,-2.7194244861602783
1790266289635566600,0.182566650390625,9.057321548461914,1.5869033336639404,-3.4083824157714844
1790266289645566500,0.19256640625,8.76436996459961,1.9164457321166992,-3.9602324962615967
1790266289655566600,0.202566650390625,8.599190711975098,2.148469924926758,-4.196235656738281
1790266289665566500,0.21256640625,8.551274299621582,2.236395835876465,-4.247896671295166
1790266289675566600,0.222566650390625,8.589439392089844,2.2321057319641113,-4.172484397888184
1790266289685566500,0.23256640625,8.707541465759277,2.188007354736328,-3.9448366165161133
1790266289695566600,0.242566650390625,8.866724014282227,2.1603639125823975,-3.589489459991455
1790266289705566500,0.25256640625,9.027569770812988,2.169887065887451,-3.1567327976226807
1790266289715566600,0.262566650390625,9.1698579788208,2.1977579593658447,-2.6933178901672363
1790266289725566500,0.27256640625,9.273421287536621,2.2286438941955566,-2.281928062438965
1790266289735566600,0.282566650390625,9.349817276000977,2.2578487396240234,-1.9113904237747192
1790266289745566500,0.29256640625,9.399563789367676,2.2976672649383545,-1.593519687652588
1790266289755566600,0.302566650390625,9.422494888305664,2.3168303966522217,-1.421006202697754
1790266289765566500,0.31256640625,9.442580223083496,2.298661231994629,-1.3130927085876465
1790266289775566600,0.322566650390625,9.461311340332031,2.2461934089660645,-1.2683025598526
1790266289785566500,0.33256640625,9.47909164428711,2.1687686443328857,-1.2702929973602295
1790266289795566600,0.342566650390625,9.503971099853516,2.0578396320343018,-1.26894211769104
1790266289805566500,0.35256640625,9.548742294311523,1.8925025463104248,-1.1875807046890259
1790266289815566600,0.362566650390625,9.61512279510498,1.6612217426300049,-0.9798697233200073
1790266289825566500,0.37256640625,9.684661865234375,1.416926383972168,-0.608296811580658
1790266289835566600,0.382566650390625,9.731963157653809,1.2029088735580444,-0.1108694076538086
1790266289845566500,0.39256640625,9.741137504577637,1.044751763343811,0.43488064408302307
1790266289855566600,0.402566650390625,9.712029457092285,0.9328993558883667,0.988217830657959
1790266289865566500,0.41256640625,9.650464057922363,0.8816681504249573,1.5038552284240723
1790266289875566600,0.422566650390625,9.577869415283203,0.9028360843658447,1.902545690536499
1790266289885566500,0.43256640625,9.510056495666504,1.0075668096542358,2.1711807250976562
1790266289895566600,0.442566650390625,9.447521209716797,1.1686509847640991,2.3556277751922607
1790266289905566500,0.45256640625,9.376086235046387,1.3578367233276367,2.532918930053711
1790266289915566600,0.462566650390625,9.285737991333008,1.553650975227356,2.744377613067627
1790266289925566500,0.47256640625,9.158016204833984,1.7375982999801636,3.0466184616088867
1790266289935566600,0.482566650390625,8.974732398986816,1.8576514720916748,3.4890828132629395
1790266289945566500,0.49256640625,8.745019912719727,1.8790030479431152,4.020491600036621
1790266289955566600,0.502566650390625,8.48607063293457,1.7905983924865723,4.577199935913086
1790266289965566500,0.51256640625,8.190505027770996,1.6094621419906616,5.1473917961120605
1790266289975566600,0.522566650390625,7.864975929260254,1.4084926843643188,5.685831546783447
1790266289985566500,0.53256640625,7.505643367767334,1.2144523859024048,6.193609714508057
1790266289995566600,0.542566650390625,7.080687999725342,1.0216630697250366,6.707491874694824
1790266290005566500,0.55256640625,6.554476261138916,0.8196402788162231,7.2482709884643555
1790266290015566600,0.562566650390625,5.905453681945801,0.5973727703094482,7.806352615356445
1790266290025566500,0.57256640625,5.135364532470703,0.340229868888855,8.347614288330078
1790266290035566600,0.582566650390625,4.278362274169922,-0.00533427344635129,8.824170112609863
1790266290045566500,0.59256640625,3.4107553958892822,-0.43764790892601013,9.183985710144043
1790266290055566600,0.602566650390625,2.5831756591796875,-0.9259321093559265,9.414894104003906
1790266290065566500,0.61256640625,1.8278378248214722,-1.4391862154006958,9.52670669555664
1790266290075566600,0.622566650390625,1.158301591873169,-1.9986399412155151,9.530695915222168
1790266290085566500,0.63256640625,0.5647508502006531,-2.5911288261413574,9.441265106201172
1790266290095566600,0.642566650390625,0.06078886240720749,-3.187872886657715,9.273842811584473
1790266290105566500,0.65256640625,-0.36254164576530457,-3.7911953926086426,9.03691291809082
1790266290115566600,0.662566650390625,-0.6936625838279724,-4.393533706665039,8.739912986755371
1790266290125566500,0.67256640625,-0.9226963520050049,-4.959667205810547,8.409562110900879
1790266290135566600,0.682566650390625,-1.044527530670166,-5.43480920791626,8.095813751220703
1790266290145566500,0.69256640625,-1.0540294647216797,-5.7963056564331055,7.839787006378174
1790266290155566600,0.702566650390625,-0.9658876061439514,-6.056192398071289,7.652448654174805
1790266290165566500,0.71256640625,-0.7866287231445312,-6.229170799255371,7.533195495605469
1790266290175566600,0.722566650390625,-0.5508525371551514,-6.330915451049805,7.469033241271973
1790266290185566500,0.73256640625,-0.31714528799057007,-6.373412132263184,7.446437358856201
1790266290195566600,0.742566650390625,-0.15895481407642365,-6.347702980041504,7.473404407501221
1790266290205566500,0.75256640625,-0.08928808569908142,-6.2550048828125,7.552306652069092
1790266290215566600,0.762566650390625,-0.08502688258886337,-6.101655006408691,7.676781177520752
1790266290225566500,0.77256640625,-0.12764272093772888,-5.905910968780518,7.827790260314941
1790266290235566600,0.782566650390625,-0.248329758644104,-5.692777633666992,7.981290817260742
1790266290245566500,0.79256640625,-0.36700135469436646,-5.481204986572266,8.123551368713379
1790266290255566600,0.802566650390625,-0.45370545983314514,-5.25128173828125,8.269739151000977
1790266290265566500,0.81256640625,-0.5861375331878662,-4.966235637664795,8.435836791992188
1790266290275566600,0.822566650390625,-0.7884474992752075,-4.622325897216797,8.612946510314941
1790266290285566500,0.83256640625,-1.0434120893478394,-4.285063743591309,8.758990287780762
1790266290295566600,0.842566650390625,-1.2844411134719849,-4.005720138549805,8.858600616455078
1790266290305566500,0.85256640625,-1.4596920013427734,-3.7931504249572754,8.924779891967773
1790266290315566600,0.862566650390625,-1.6125075817108154,-3.6202001571655273,8.970191955566406
1790266290325566500,0.87256640625,-1.7752940654754639,-3.4477198123931885,9.007328033447266
1790266290335566600,0.882566650390625,-1.96982741355896,-3.2410871982574463,9.043535232543945
1790266290345566500,0.89256640625,-2.19757342338562,-2.996439218521118,9.075373649597168
1790266290355566600,0.902566650390625,-2.4280006885528564,-2.7415900230407715,9.097190856933594
1790266290365566500,0.91256640625,-2.6448545455932617,-2.495772123336792,9.107483863830566
1790266290375566600,0.922566650390625,-2.8540499210357666,-2.269364356994629,9.103558540344238
1790266290385566500,0.93256640625,-3.0647644996643066,-2.0772924423217773,9.080883979797363
1790266290395566600,0.942566650390625,-3.317882537841797,-1.9261884689331055,9.025066375732422
1790266290405566500,0.95256640625,-3.570770740509033,-1.7577948570251465,8.962709426879883
1790266290415566600,0.962566650390625,-3.743844747543335,-1.5531604290008545,8.929821968078613
1790266290425566500,0.97256640625,-3.8119919300079346,-1.3361396789550781,8.93609619140625
1790266290435566600,0.982566650390625,-3.816275119781494,-1.0948834419250488,8.967032432556152
1790266290445566500,0.99256640625,-3.79008412361145,-0.8659223914146423,9.003101348876953
1790266290455566600,1.002566650390625,-3.788341999053955,-0.6942160725593567,9.018697738647461
1790266290465566500,1.01256640625,-3.831411123275757,-0.5687398910522461,9.009284019470215
1790266290475566600,1.022566650390625,-3.938300848007202,-0.4754410982131958,8.968507766723633
1790266290485566500,1.03256640625,-4.106768608093262,-0.4183462858200073,8.895495414733887
1790266290495566600,1.042566650390625,-4.327853679656982,-0.39960014820098877,8.790926933288574
1790266290505566500,1.05256640625,-4.572941303253174,-0.40949440002441406,8.66550064086914
1790266290515566600,1.062566650390625,-4.806153774261475,-0.443037748336792,8.5366849899292
1790266290525566500,1.07256640625,-5.0499796867370605,-0.46959495544433594,8.393305778503418
1790266290535566600,1.082566650390625,-5.331548690795898,-0.4531914293766022,8.218247413635254
1790266290545566500,1.09256640625,-5.571651935577393,-0.4258670210838318,8.058890342712402
1790266290555566600,1.102566650390625,-5.732335567474365,-0.42411622405052185,7.945491790771484
1790266290565566500,1.11256640625,-5.814986705780029,-0.48863330483436584,7.881469249725342
1790266290575566600,1.122566650390625,-5.828943729400635,-0.6843224167823792,7.856558322906494
1790266290585566500,1.13256640625,-5.791694164276123,-1.0538434982299805,7.843218803405762
1790266290595566600,1.142566650390625,-5.732882499694824,-1.5451576709747314,7.804929256439209
1790266290605566500,1.15256640625,-5.71327543258667,-2.077003002166748,7.695123195648193
1790266290615566600,1.162566650390625,-5.663267135620117,-2.5979902744293213,7.572862148284912
1790266290625566500,1.17256640625,-5.489131927490234,-3.0706944465637207,7.524005889892578
1790266290635566600,1.182566650390625,-5.252663612365723,-3.537572145462036,7.487690448760986
1790266290645566500,1.19256640625,-5.075610637664795,-3.9586079120635986,7.39851188659668
1790266290655566600,1.202566650390625,-4.96277379989624,-4.312260150909424,7.2763776779174805
1790266290665566500,1.21256640625,-4.8517069816589355,-4.6412882804870605,7.14771032333374
1790266290675566600,1.222566650390625,-4.777557849884033,-4.9699788093566895,6.974570274353027
1790266290685566500,1.23256640625,-4.715789318084717,-5.246953010559082,6.81184196472168
1790266290695566600,1.242566650390625,-4.666082859039307,-5.479884147644043,6.6610002517700195
1790266290705566500,1.25256640625,-4.6258440017700195,-5.673551559448242,6.525547504425049
1790266290715566600,1.262566650390625,-4.572878837585449,-5.871038436889648,6.386710166931152
1790266290725566500,1.27256640625,-4.492891788482666,-6.065865993499756,6.260157585144043
1790266290735566600,1.282566650390625,-4.365421295166016,-6.330613613128662,6.085787296295166
1790266290745566500,1.29256640625,-4.178212642669678,-6.712152481079102,5.801718711853027
1790266290755566600,1.302566650390625,-4.01629114151001,-7.065408706665039,5.488150596618652
1790266290765566500,1.31256640625,-3.913947343826294,-7.287829875946045,5.266777992248535
1790266290775566600,1.322566650390625,-3.858832836151123,-7.36843729019165,5.194798469543457
1790266290785566500,1.33256640625,-3.8284244537353516,-7.381728172302246,5.198426246643066
1790266290795566600,1.342566650390625,-3.8242135047912598,-7.4043097496032715,5.169329643249512
1790266290805566500,1.35256640625,-3.832235813140869,-7.44405460357666,5.105917930603027
1790266290815566600,1.362566650390625,-3.817467212677002,-7.483853340148926,5.058585166931152
1790266290825566500,1.37256640625,-3.7609338760375977,-7.5392279624938965,5.0185441970825195
1790266290835566600,1.382566650390625,-3.6938130855560303,-7.607752799987793,4.9646992683410645
1790266290845566500,1.39256640625,-3.6483967304229736,-7.660935878753662,4.916264533996582
1790266290855566600,1.402566650390625,-3.6323800086975098,-7.707396030426025,4.8551249504089355
1790266290865566500,1.41256640625,-3.652524709701538,-7.758983612060547,4.756850719451904
1790266290875566600,1.422566650390625,-3.7041587829589844,-7.8206377029418945,4.613808631896973
1790266290885566500,1.43256640625,-3.758420467376709,-7.896208763122559,4.437854766845703
1790266290895566600,1.442566650390625,-3.80277419090271,-7.9773736000061035,4.2509765625
1790266290905566500,1.45256640625,-3.8139615058898926,-8.06037712097168,4.0809807777404785
1790266290915566600,1.462566650390625,-3.779762029647827,-8.150254249572754,3.9315574169158936
1790266290925566500,1.47256640625,-3.6900813579559326,-8.265631675720215,3.772667169570923
1790266290935566600,1.482566650390625,-3.5423877239227295,-8.417522430419922,3.573120594024658
1790266290945566500,1.49256640625,-3.3614323139190674,-8.59207534790039,3.3237626552581787
1790266290955566600,1.502566650390625,-3.2073616981506348,-8.75113296508789,3.049736261367798
1790266290965566500,1.51256640625,-3.1162402629852295,-8.878824234008789,2.761504650115967
1790266290975566600,1.522566650390625,-3.0851428508758545,-8.977103233337402,2.462496519088745
1790266290985566500,1.53256640625,-3.0830841064453125,-9.050636291503906,2.179673671722412
1790266290995566600,1.542566650390625,-3.0819759368896484,-9.102481842041016,1.9536235332489014
1790266291005566500,1.55256640625,-3.074517250061035,-9.13192367553711,1.8236502408981323
1790266291015566600,1.562566650390625,-3.1028730869293213,-9.128791809082031,1.7910124063491821
1790266291025566500,1.57256640625,-3.0369436740875244,-9.150031089782715,1.7956316471099854
1790266291035566600,1.582566650390625,-2.799962282180786,-9.213485717773438,1.8553391695022583
1790266291045566500,1.59256640625,-2.4920356273651123,-9.28261661529541,1.9476021528244019
1790266291055566600,1.602566650390625,-2.2368481159210205,-9.327807426452637,2.0393378734588623
1790266291065566500,1.61256640625,-2.0678489208221436,-9.360553741455078,2.067469835281372
1790266291075566600,1.622566650390625,-1.9828635454177856,-9.396919250488281,1.984071135520935
1790266291085566500,1.63256640625,-1.9606202840805054,-9.42076587677002,1.8909069299697876
1790266291095566600,1.642566650390625,-1.9665883779525757,-9.429753303527832,1.8391988277435303
1790266291105566500,1.65256640625,-1.9590731859207153,-9.426228523254395,1.865109920501709
1790266291115566600,1.662566650390625,-1.8964215517044067,-9.421708106994629,1.9507427215576172
1790266291125566500,1.67256640625,-1.8027865886688232,-9.421914100646973,2.036635160446167
1790266291135566600,1.682566650390625,-1.7289570569992065,-9.423688888549805,2.091691255569458
1790266291145566500,1.69256640625,-1.7047287225723267,-9.417339324951172,2.1396265029907227
1790266291155566600,1.702566650390625,-1.720104694366455,-9.397905349731445,2.2115609645843506
1790266291165566500,1.71256640625,-1.7356901168823242,-9.372682571411133,2.3044705390930176
1790266291175566600,1.722566650390625,-1.7238668203353882,-9.352363586425781,2.394155740737915
1790266291185566500,1.73256640625,-1.6956921815872192,-9.341595649719238,2.4555258750915527
1790266291195566600,1.742566650390625,-1.6770814657211304,-9.341500282287598,2.4686367511749268
1790266291205566500,1.75256640625,-1.6777549982070923,-9.348021507263184,2.4433608055114746
1790266291215566600,1.762566650390625,-1.7001625299453735,-9.355703353881836,2.398052930831909
1790266291225566500,1.77256640625,-1.743842363357544,-9.358588218688965,2.35503888130188
1790266291235566600,1.782566650390625,-1.7813953161239624,-9.359145164489746,2.3245270252227783
1790266291245566500,1.79256640625,-1.7923521995544434,-9.363177299499512,2.299732208251953
1790266291255566600,1.802566650390625,-1.7801882028579712,-9.370723724365234,2.278346538543701
1790266291265566500,1.81256640625,-1.7565258741378784,-9.37950325012207,2.2605133056640625
1790266291275566600,1.822566650390625,-1.7455414533615112,-9.384495735168457,2.248267650604248
1790266291285566500,1.83256640625,-1.754016399383545,-9.384992599487305,2.239583969116211
1790266291295566600,1.842566650390625,-1.7621690034866333,-9.384058952331543,2.237090587615967
1790266291305566500,1.85256640625,-1.7644482851028442,-9.383453369140625,2.2378363609313965
1790266291315566600,1.862566650390625,-1.7715909481048584,-9.382828712463379,2.2348101139068604
1790266291325566500,1.87256640625,-1.7824281454086304,-9.382951736450195,2.225654125213623
1790266291335566600,1.882566650390625,-1.781571626663208,-9.385254859924316,2.2166123390197754
1790266291345566500,1.89256640625,-1.7614024877548218,-9.390287399291992,2.2114105224609375
1790266291355566600,1.902566650390625,-1.7476463317871094,-9.390368461608887,2.221956968307495
1790266291365566500,1.91256640625,-1.7750742435455322,-9.382136344909668,2.2349557876586914
1790266291375566600,1.922566650390625,-1.8132590055465698,-9.36938190460205,2.257690668106079
1790266291385566500,1.93256640625,-1.8167537450790405,-9.360047340393066,2.2933194637298584
1790266291395566600,1.942566650390625,-1.800188660621643,-9.354968070983887,2.326862096786499
1790266291405566500,1.95256640625,-1.7813308238983154,-9.35275936126709,2.350132465362549
1790266291415566600,1.962566650390625,-1.753997564315796,-9.353384017944336,2.3681411743164062
1790266291425566500,1.97256640625,-1.7143378257751465,-9.358390808105469,2.37738299369812
1790266291435566600,1.982566650390625,-1.66673743724823,-9.371832847595215,2.3582065105438232
1790266291445566500,1.99256640625,-1.6409600973129272,-9.389386177062988,2.305875539779663
1790266291455566600,2.002566650390625,-1.6537996530532837,-9.405136108398438,2.231311082839966
1790266291465566500,2.01256640625,-1.686691403388977,-9.416024208068848,2.159616708755493
1790266291475566600,2.022566650390625,-1.7084459066390991,-9.422615051269531,2.1132736206054688
1790266291485566500,2.03256640625,-1.7000811100006104,-9.428260803222656,2.0947563648223877
1790266291495566600,2.042566650390625,-1.6848891973495483,-9.431791305541992,2.0911340713500977
1790266291505566500,2.05256640625,-1.702731966972351,-9.427579879760742,2.095672369003296
1790266291515566600,2.062566650390625,-1.722782850265503,-9.422687530517578,2.1012754440307617
1790266291525566500,2.07256640625,-1.7238258123397827,-9.423727989196777,2.095749616622925
1790266291535566600,2.082566650390625,-1.7104541063308716,-9.429015159606934,2.0828857421875
1790266291545566500,2.09256640625,-1.683698296546936,-9.43680191040039,2.069378614425659
1790266291555566600,2.102566650390625,-1.6552449464797974,-9.445584297180176,2.052192449569702
1790266291565566500,2.11256640625,-1.6343094110488892,-9.453235626220703,2.03365421295166
1790266291575566600,2.122566650390625,-1.6093406677246094,-9.462320327758789,2.011195421218872
1790266291585566500,2.13256640625,-1.581672191619873,-9.474104881286621,1.9773757457733154
1790266291595566600,2.142566650390625,-1.581546425819397,-9.48431396484375,1.9279223680496216
1790266291605566500,2.15256640625,-1.6077007055282593,-9.491250038146973,1.871324062347412
1790266291615566600,2.162566650390625,-1.6207911968231201,-9.500014305114746,1.814705729484558
1790266291625566500,2.17256640625,-1.6096755266189575,-9.517560958862305,1.7307159900665283
1790266291635566600,2.182566650390625,-1.5969067811965942,-9.539352416992188,1.6189632415771484
1790266291645566500,2.19256640625,-1.5660382509231567,-9.562735557556152,1.5073128938674927
1790266291655566600,2.202566650390625,-1.5244503021240234,-9.584033966064453,1.4116450548171997
1790266291665566500,2.21256640625,-1.5099024772644043,-9.596240997314453,1.3426536321640015
1790266291675566600,2.222566650390625,-1.5099934339523315,-9.60366153717041,1.2884114980697632
1790266291685566500,2.23256640625,-1.5051666498184204,-9.612664222717285,1.225380539894104
1790266291695566600,2.242566650390625,-1.4674237966537476,-9.629205703735352,1.1381785869598389
1790266291705566500,2.25256640625,-1.367909550666809,-9.654991149902344,1.0394023656845093
1790266291715566600,2.262566650390625,-1.2098802328109741,-9.687763214111328,0.924032986164093
1790266291725566500,2.27256640625,-1.0058906078338623,-9.722118377685547,0.7993609309196472
1790266291735566600,2.282566650390625,-0.7860302329063416,-9.751791000366211,0.6746335029602051
1790266291745566500,2.29256640625,-0.5693693161010742,-9.7745361328125,0.5519554615020752
1790266291755566600,2.302566650390625,-0.3516800105571747,-9.790792465209961,0.4325515329837799
1790266291765566500,2.31256640625,-0.11844819039106369,-9.800273895263672,0.33314675092697144
1790266291775566600,2.322566650390625,0.11154529452323914,-9.802778244018555,0.2519892156124115
1790266291785566500,2.33256640625,0.35909315943717957,-9.798234939575195,0.18983741104602814
1790266291795566600,2.342566650390625,0.5695075988769531,-9.78861141204834,0.17073242366313934
1790266291805566500,2.35256640625,0.7333210110664368,-9.77794075012207,0.15654133260250092
1790266291815566600,2.362566650390625,0.8516095876693726,-9.768403053283691,0.15317495167255402
1790266291825566500,2.37256640625,0.9136613607406616,-9.762791633605957,0.1532917618751526
1790266291835566600,2.382566650390625,0.919731855392456,-9.762722969055176,0.11712362617254257
1790266291845566500,2.39256640625,0.903466522693634,-9.764559745788574,0.08658291399478912
1790266291855566600,2.402566650390625,0.8796874284744263,-9.76671028137207,0.08885545283555984
1790266291865566500,2.41256640625,0.8333234190940857,-9.770515441894531,0.11394576728343964
1790266291875566600,2.422566650390625,0.7566443681716919,-9.776324272155762,0.14618445932865143
1790266291885566500,2.43256640625,0.6459996104240417,-9.783605575561523,0.18477672338485718
1790266291895566600,2.442566650390625,0.5115020871162415,-9.790578842163086,0.23089702427387238
1790266291905566500,2.45256640625,0.34960031509399414,-9.796457290649414,0.27854278683662415
1790266291915566600,2.462566650390625,0.15862487256526947,-9.799049377441406,0.3519330322742462
1790266291925566500,2.47256640625,-0.07584929466247559,-9.795404434204102,0.46333685517311096
1790266291935566600,2.482566650390625,-0.35844993591308594,-9.781146049499512,0.6091703772544861
1790266291945566500,2.49256640625,-0.6696270108222961,-9.75342845916748,0.7698218822479248
1790266291955566600,2.502566650390625,-0.9573200345039368,-9.715683937072754,0.9270461797714233
1790266291965566500,2.51256640625,-1.1734392642974854,-9.676841735839844,1.0733836889266968
1790266291975566600,2.522566650390625,-1.3023276329040527,-9.642114639282227,1.2263604402542114
1790266291985566500,2.53256640625,-1.378546118736267,-9.612407684326172,1.3680716753005981
1790266291995566600,2.542566650390625,-1.4510234594345093,-9.58716869354248,1.466670036315918
1790266292005566500,2.55256640625,-1.5494776964187622,-9.562700271606445,1.5245565176010132
1790266292015566600,2.562566650390625,-1.6538840532302856,-9.537775993347168,1.5703133344650269
1790266292025566500,2.57256640625,-1.7283533811569214,-9.51147747039795,1.6477128267288208
1790266292035566600,2.582566650390625,-1.7746117115020752,-9.481026649475098,1.769537329673767
1790266292045566500,2.59256640625,-1.8086243867874146,-9.446619987487793,1.9132786989212036
1790266292055566600,2.602566650390625,-1.8428925275802612,-9.409870147705078,2.0563251972198486
1790266292065566500,2.61256640625,-1.8895329236984253,-9.369464874267578,2.193899393081665
1790266292075566600,2.622566650390625,-1.9414031505584717,-9.33504581451416,2.2930924892425537
1790266292085566500,2.63256640625,-1.989875316619873,-9.321983337402344,2.304649829864502
1790266292095566600,2.642566650390625,-2.021596908569336,-9.324601173400879,2.266132354736328
1790266292105566500,2.65256640625,-2.109754800796509,-9.302428245544434,2.2768735885620117
1790266292115566600,2.662566650390625,-2.2483882904052734,-9.263077735900879,2.3044581413269043
1790266292125566500,2.67256640625,-2.411240339279175,-9.216286659240723,2.3273067474365234
1790266292135566600,2.682566650390625,-2.5884926319122314,-9.16464900970459,2.3407909870147705
1790266292145566500,2.69256640625,-2.7648885250091553,-9.115776062011719,2.3298940658569336
1790266292155566600,2.702566650390625,-2.9365620613098145,-9.070900917053223,2.294724941253662
1790266292165566500,2.71256640625,-3.129965305328369,-9.013306617736816,2.2658345699310303
1790266292175566600,2.722566650390625,-3.3537673950195312,-8.93075180053711,2.2725088596343994
1790266292185566500,2.73256640625,-3.5871400833129883,-8.83113956451416,2.3051652908325195
1790266292195566600,2.742566650390625,-3.815406084060669,-8.722526550292969,2.3517210483551025
1790266292205566500,2.75256640625,-4.037083625793457,-8.61109447479248,2.3919425010681152
1790266292215566600,2.762566650390625,-4.250352382659912,-8.511569023132324,2.378671407699585
1790266292225566500,2.77256640625,-4.465981960296631,-8.421713829040527,2.3022031784057617
1790266292235566600,2.782566650390625,-4.680419921875,-8.337722778320312,2.178633213043213
1790266292245566500,2.79256640625,-4.868910312652588,-8.263861656188965,2.042717456817627
1790266292255566600,2.802566650390625,-5.007473468780518,-8.207109451293945,1.9336376190185547
1790266292265566500,2.81256640625,-5.090917587280273,-8.168843269348145,1.8769478797912598
1790266292275566600,2.822566650390625,-5.132133960723877,-8.1420316696167,1.881196141242981
1790266292285566500,2.83256640625,-5.1538987159729,-8.117782592773438,1.925959587097168
1790266292295566600,2.842566650390625,-5.187366485595703,-8.091386795043945,1.9470654726028442
1790266292305566500,2.85256640625,-5.2709736824035645,-8.05041790008545,1.8915611505508423
1790266292315566600,2.862566650390625,-5.408936023712158,-7.981064319610596,1.7934333086013794
1790266292325566500,2.87256640625,-5.564564228057861,-7.898573875427246,1.6788511276245117
1790266292335566600,2.882566650390625,-5.723654747009277,-7.79402494430542,1.6319750547409058
1790266292345566500,2.89256640625,-5.867182731628418,-7.68198823928833,1.6533660888671875
1790266292355566600,2.902566650390625,-5.981099605560303,-7.578135967254639,1.7229888439178467
1790266292365566500,2.91256640625,-6.0743207931518555,-7.478212833404541,1.8301218748092651
1790266292375566600,2.922566650390625,-6.155569076538086,-7.382908344268799,1.9421671628952026
1790266292385566500,2.93256640625,-6.23405122756958,-7.29432487487793,2.0248019695281982
1790266292395566600,2.942566650390625,-6.320364475250244,-7.209377765655518,2.0611279010772705
1790266292405566500,2.95256640625,-6.414840221405029,-7.128342628479004,2.0510833263397217
1790266292415566600,2.962566650390625,-6.513486385345459,-7.049400329589844,2.012666702270508
1790266292425566500,2.97256640625,-6.621449947357178,-6.961286544799805,1.9665403366088867
1790266292435566600,2.982566650390625,-6.746304035186768,-6.852420330047607,1.9240896701812744
1790266292445566500,2.99256640625,-6.885015964508057,-6.723057746887207,1.888766884803772
1790266292455566600,3.002566650390625,-7.0297040939331055,-6.580283164978027,1.858364224433899
1790266292465566500,3.01256640625,-7.178093433380127,-6.427079677581787,1.8270245790481567
1790266292475566600,3.022566650390625,-7.327677249908447,-6.2660746574401855,1.7921576499938965
1790266292485566500,3.03256640625,-7.471371173858643,-6.104460716247559,1.7562910318374634
1790266292495566600,3.042566650390625,-7.603027820587158,-5.9488844871521,1.7248519659042358
1790266292505566500,3.05256640625,-7.721080780029297,-5.802955627441406,1.6973485946655273
1790266292515566600,3.062566650390625,-7.826908111572266,-5.6678924560546875,1.668800711631775
1790266292525566500,3.07256640625,-7.926069736480713,-5.538661003112793,1.6343313455581665
1790266292535566600,3.082566650390625,-8.024458885192871,-5.408811092376709,1.588461995124817
1790266292545566500,3.09256640625,-8.126140594482422,-5.272553443908691,1.5285290479660034
1790266292555566600,3.102566650390625,-8.233122825622559,-5.122563362121582,1.4647221565246582
1790266292565566500,3.11256640625,-8.342947006225586,-4.9583234786987305,1.407359004020691
1790266292575566600,3.122566650390625,-8.450628280639648,-4.789102554321289,1.3497244119644165
1790266292585566500,3.13256640625,-8.553576469421387,-4.620853900909424,1.2862483263015747
1790266292595566600,3.142566650390625,-8.652962684631348,-4.450551986694336,1.2203363180160522
1790266292605566500,3.15256640625,-8.750027656555176,-4.274655342102051,1.1552965641021729
1790266292615566600,3.162566650390625,-8.843985557556152,-4.092338562011719,1.0986683368682861
1790266292625566500,3.17256640625,-8.932100296020508,-3.910064935684204,1.048500895500183
1790266292635566600,3.182566650390625,-9.01183795928955,-3.7382383346557617,0.9913403391838074
1790266292645566500,3.19256640625,-9.081827163696289,-3.5824077129364014,0.9258360862731934
1790266292655566600,3.202566650390625,-9.145194053649902,-3.4339699745178223,0.862361490726471
1790266292665566500,3.21256640625,-9.206141471862793,-3.2835824489593506,0.7971349358558655
1790266292675566600,3.222566650390625,-9.265767097473145,-3.1284635066986084,0.727095901966095
1790266292685566500,3.23256640625,-9.322564125061035,-2.971616744995117,0.6554902195930481
1790266292695566600,3.242566650390625,-9.375652313232422,-2.8141565322875977,0.5899527072906494
1790266292705566500,3.25256640625,-9.425634384155273,-2.6549811363220215,0.5280857682228088
1790266292715566600,3.262566650390625,-9.472783088684082,-2.495267391204834,0.45870301127433777
1790266292725566500,3.27256640625,-9.515828132629395,-2.3404228687286377,0.3765784502029419
1790266292735566600,3.282566650390625,-9.554011344909668,-2.193023204803467,0.28616344928741455
1790266292745566500,3.29256640625,-9.588360786437988,-2.048168897628784,0.19679735600948334
1790266292755566600,3.302566650390625,-9.620373725891113,-1.8989132642745972,0.11366122215986252
1790266292765566500,3.31256640625,-9.649954795837402,-1.7455600500106812,0.04227288439869881
1790266292775566600,3.322566650390625,-9.676491737365723,-1.5924227237701416,-0.009689745493233204
1790266292785566500,3.33256640625,-9.70004653930664,-1.4415725469589233,-0.03690922632813454
1790266292795566600,3.342566650390625,-9.720184326171875,-1.2986297607421875,-0.044498510658741
1790266292805566500,3.35256640625,-9.736374855041504,-1.1713716983795166,-0.03565619885921478
1790266292815566600,3.362566650390625,-9.749388694763184,-1.05817449092865,-0.008296208456158638
1790266292825566500,3.37256640625,-9.759661674499512,-0.9581358432769775,0.03686981648206711
1790266292835566600,3.382566650390625,-9.76705265045166,-0.8754741549491882,0.09282568097114563
1790266292845566500,3.39256640625,-9.771806716918945,-0.8130733370780945,0.14522087574005127
1790266292855566600,3.402566650390625,-9.774288177490234,-0.7745662927627563,0.18368493020534515
1790266292865566500,3.41256640625,-9.775049209594727,-0.757659912109375,0.21156084537506104
1790266292875566600,3.422566650390625,-9.775006294250488,-0.7540703415870667,0.22588245570659637
1790266292885566500,3.43256640625,-9.77474594116211,-0.7576372027397156,0.225167378783226
1790266292895566600,3.442566650390625,-9.774142265319824,-0.7645257115364075,0.22809819877147675
1790266292905566500,3.45256640625,-9.773809432983398,-0.766594409942627,0.23525910079479218
1790266292915566600,3.462566650390625,-9.773887634277344,-0.7659037709236145,0.23432475328445435
1790266292925566500,3.47256640625,-9.77361011505127,-0.7697917222976685,0.23315782845020294
1790266292935566600,3.482566650390625,-9.772597312927246,-0.7796189785003662,0.2427249550819397
1790266292945566500,3.49256640625,-9.77078628540039,-0.7986953854560852,0.2534201145172119
1790266292955566600,3.502566650390625,-9.767769813537598,-0.8325755596160889,0.2605688273906708
1790266292965566500,3.51256640625,-9.763319969177246,-0.8793747425079346,0.27325010299682617
1790266292975566600,3.522566650390625,-9.757355690002441,-0.9343843460083008,0.3021753430366516
1790266292985566500,3.53256640625,-9.7500638961792,-0.9951598048210144,0.3410240709781647
1790266292995566600,3.542566650390625,-9.741451263427734,-1.063483715057373,0.3788272440433502
1790266293005566500,3.55256640625,-9.730955123901367,-1.1424784660339355,0.41671139001846313
1790266293015566600,3.562566650390625,-9.71774959564209,-1.2318578958511353,0.46718475222587585
1790266293025566500,3.57256640625,-9.70134449005127,-1.3297382593154907,0.5348883867263794
1790266293035566600,3.582566650390625,-9.681604385375977,-1.433606743812561,0.6178163886070251
1790266293045566500,3.59256640625,-9.658339500427246,-1.5435080528259277,0.7102505564689636
1790266293055566600,3.602566650390625,-9.63088607788086,-1.6630685329437256,0.8066151142120361
1790266293065566500,3.61256640625,-9.597804069519043,-1.7934883832931519,0.9142940640449524
1790266293075566600,3.622566650390625,-9.557223320007324,-1.9361076354980469,1.0398763418197632
1790266293085566500,3.63256640625,-9.508018493652344,-2.09437894821167,1.1753956079483032
1790266293095566600,3.642566650390625,-9.451228141784668,-2.2653586864471436,1.308758020401001
1790266293105566500,3.65256640625,-9.387564659118652,-2.444728136062622,1.437819004058838
1790266293115566600,3.662566650390625,-9.317047119140625,-2.6293118000030518,1.565163254737854
1790266293125566500,3.67256640625,-9.241796493530273,-2.812138080596924,1.6886261701583862
1790266293135566600,3.682566650390625,-9.164314270019531,-2.9903602600097656,1.8009651899337769
1790266293145566500,3.69256640625,-9.08438491821289,-3.1713037490844727,1.8939807415008545
1790266293155566600,3.702566650390625,-9.00051498413086,-3.362070322036743,1.9640787839889526
1790266293165566500,3.71256640625,-8.911294937133789,-3.5619888305664062,2.0177805423736572
1790266293175566600,3.722566650390625,-8.814353942871094,-3.767242193222046,2.070132255554199
1790266293185566500,3.73256640625,-8.709831237792969,-3.9690282344818115,2.1344892978668213
1790266293195566600,3.742566650390625,-8.600677490234375,-4.1560516357421875,2.219451427459717
1790266293205566500,3.75256640625,-8.485489845275879,-4.32998514175415,2.327674388885498
1790266293215566600,3.762566650390625,-8.360618591308594,-4.4984846115112305,2.456435441970825
1790266293225566500,3.77256640625,-8.225214004516602,-4.667396545410156,2.5945425033569336
1790266293235566600,3.782566650390625,-8.07983112335205,-4.844532012939453,2.723457098007202
1790266293245566500,3.79256640625,-7.926560401916504,-5.033487796783447,2.829137086868286
1790266293255566600,3.802566650390625,-7.770777702331543,-5.2277750968933105,2.9078798294067383
1790266293265566500,3.81256640625,-7.61635160446167,-5.41991662979126,2.964132070541382
1790266293275566600,3.822566650390625,-7.463835716247559,-5.6063947677612305,3.004977226257324
1790266293285566500,3.83256640625,-7.310824394226074,-5.788597583770752,3.0355193614959717
1790266293295566600,3.842566650390625,-7.151832103729248,-5.970846176147461,3.061156988143921
1790266293305566500,3.85256640625,-6.98482608795166,-6.153952598571777,3.0840656757354736
1790266293315566600,3.862566650390625,-6.813045024871826,-6.333616256713867,3.104530096054077
1790266293325566500,3.87256640625,-6.638754367828369,-6.505231857299805,3.127185821533203
1790266293335566600,3.882566650390625,-6.460934638977051,-6.668130874633789,3.1563796997070312
1790266293345566500,3.89256640625,-6.280142784118652,-6.822802543640137,3.1905436515808105
1790266293355566600,3.902566650390625,-6.097891330718994,-6.97054386138916,3.224534749984741
1790266293365566500,3.91256640625,-5.918037414550781,-7.111838340759277,3.250998020172119
1790266293375566600,3.922566650390625,-5.746281623840332,-7.2461323738098145,3.2625465393066406
1790266293385566500,3.93256640625,-5.590021133422852,-7.371761798858643,3.252563953399658
1790266293395566600,3.942566650390625,-5.449011325836182,-7.49100399017334,3.2192397117614746
1790266293405566500,3.95256640625,-5.309127330780029,-7.611870288848877,3.169065237045288
1790266293415566600,3.962566650390625,-5.165012359619141,-7.735945701599121,3.1061530113220215
1790266293425566500,3.97256640625,-5.022788047790527,-7.859954833984375,3.02705979347229
1790266293435566600,3.982566650390625,-4.890572547912598,-7.978974342346191,2.9306435585021973
1790266293445566500,3.99256640625,-4.777828693389893,-8.085856437683105,2.8216397762298584
1790266293455566600,4.002566650390625,-4.681886196136475,-8.180583953857422,2.707099199295044
1790266293465566500,4.01256640625,-4.588766098022461,-8.268187522888184,2.598210573196411
1790266293475566600,4.022566650390625,-4.499870777130127,-8.346972465515137,2.4999172687530518
1790266293485566500,4.03256640625,-4.426190376281738,-8.411758422851562,2.4127838611602783
1790266293495566600,4.042566650390625,-4.370850563049316,-8.461430549621582,2.3388569355010986
1790266293505566500,4.05256640625,-4.326225280761719,-8.499436378479004,2.2833621501922607
1790266293515566600,4.062566650390625,-4.285189628601074,-8.529573440551758,2.2480931282043457
1790266293525566500,4.07256640625,-4.246481895446777,-8.553495407104492,2.2305781841278076
1790266293535566600,4.082566650390625,-4.211956977844238,-8.57199478149414,2.225022077560425
1790266293545566500,4.09256640625,-4.186443328857422,-8.584495544433594,2.2249755859375
1790266293555566600,4.102566650390625,-4.170866966247559,-8.592209815979004,2.224452018737793
1790266293565566500,4.11256640625,-4.1653547286987305,-8.596948623657227,2.216458797454834
1790266293575566600,4.122566650390625,-4.179232120513916,-8.596429824829102,2.192214012145996
1790266293585566500,4.13256640625,-4.221161842346191,-8.587082862854004,2.1480624675750732
1790266293595566600,4.142566650390625,-4.2870073318481445,-8.568048477172852,2.0929677486419678
1790266293605566500,4.15256640625,-4.36486291885376,-8.540624618530273,2.043545722961426
1790266293615566600,4.162566650390625,-4.446621894836426,-8.506011962890625,2.0113887786865234
1790266293625566500,4.17256640625,-4.524253845214844,-8.46880054473877,1.9952274560928345
1790266293635566600,4.182566650390625,-4.5915093421936035,-8.43498420715332,1.984810471534729
1790266293645566500,4.19256640625,-4.651792526245117,-8.404572486877441,1.9734165668487549
1790266293655566600,4.202566650390625,-4.708789348602295,-8.374456405639648,1.9662609100341797
1790266293665566500,4.21256640625,-4.765029430389404,-8.3416166305542,1.9703577756881714
1790266293675566600,4.222566650390625,-4.8212480545043945,-8.3042573928833,1.9912978410720825
1790266293685566500,4.23256640625,-4.874152660369873,-8.2632474899292,2.0326714515686035
1790266293695566600,4.242566650390625,-4.921786308288574,-8.220661163330078,2.0897674560546875
1790266293705566500,4.25256640625,-4.970033168792725,-8.177573204040527,2.1439387798309326
1790266293715566600,4.262566650390625,-5.025269508361816,-8.134809494018555,2.1775975227355957
1790266293725566500,4.27256640625,-5.090464115142822,-8.091023445129395,2.189269542694092
1790266293735566600,4.282566650390625,-5.165557861328125,-8.043146133422852,2.1897923946380615
1790266293745566500,4.29256640625,-5.245497703552246,-7.992370128631592,2.185671806335449
1790266293755566600,4.302566650390625,-5.324249267578125,-7.944922924041748,2.16816782951355
1790266293765566500,4.31256640625,-5.399406433105469,-7.9047040939331055,2.1289570331573486
1790266293775566600,4.322566650390625,-5.473662853240967,-7.869537353515625,2.0687642097473145
1790266293785566500,4.33256640625,-5.553841590881348,-7.832078456878662,1.9959386587142944
1790266293795566600,4.342566650390625,-5.643560886383057,-7.786656856536865,1.920567512512207
1790266293805566500,4.35256640625,-5.741428375244141,-7.731704235076904,1.8512489795684814
1790266293815566600,4.362566650390625,-5.844884872436523,-7.667359828948975,1.7942402362823486
1790266293825566500,4.37256640625,-5.953695774078369,-7.592906951904297,1.7526171207427979
1790266293835566600,4.382566650390625,-6.072704315185547,-7.504120826721191,1.726505160331726
1790266293845566500,4.39256640625,-6.210175514221191,-7.3936920166015625,1.7138910293579102
1790266293855566600,4.402566650390625,-6.372092247009277,-7.254968643188477,1.7123860120773315
1790266293865566500,4.41256640625,-6.555768966674805,-7.087349891662598,1.7209738492965698
1790266293875566600,4.422566650390625,-6.7501444816589355,-6.897029876708984,1.7426749467849731
1790266293885566500,4.43256640625,-6.944733142852783,-6.690844535827637,1.7814801931381226
1790266293895566600,4.442566650390625,-7.130988121032715,-6.476260662078857,1.8377820253372192
1790266293905566500,4.45256640625,-7.301087856292725,-6.2641496658325195,1.9039241075515747
1790266293915566600,4.462566650390625,-7.451823711395264,-6.065829277038574,1.9612305164337158
1790266293925566500,4.47256640625,-7.581897735595703,-5.89420223236084,1.9858460426330566
1790266293935566600,4.482566650390625,-7.693717956542969,-5.753747463226318,1.9676066637039185
1790266293945566500,4.49256640625,-7.793821811676025,-5.632667064666748,1.9234821796417236
1790266293955566600,4.502566650390625,-7.892563343048096,-5.512753486633301,1.8674535751342773
1790266293965566500,4.51256640625,-7.996939659118652,-5.381992816925049,1.8037465810775757
1790266293975566600,4.522566650390625,-8.103262901306152,-5.244304656982422,1.7334295511245728
1790266293985566500,4.53256640625,-8.205839157104492,-5.10850715637207,1.6546167135238647
1790266293995566600,4.542566650390625,-8.303715705871582,-4.975583076477051,1.569158673286438
1790266294005566500,4.55256640625,-8.398629188537598,-4.8402276039123535,1.485127329826355
1790266294015566600,4.562566650390625,-8.492548942565918,-4.696570873260498,1.4103984832763672
1790266294025566500,4.57256640625,-8.586880683898926,-4.540557861328125,1.34877347946167
1790266294035566600,4.582566650390625,-8.681550025939941,-4.37310791015625,1.2949861288070679
1790266294045566500,4.59256640625,-8.774065017700195,-4.203354835510254,1.2320647239685059
1790266294055566600,4.602566650390625,-8.863090515136719,-4.037834167480469,1.145385980606079
1790266294065566500,4.61256640625,-8.948018074035645,-3.8768088817596436,1.0362002849578857
1790266294075566600,4.622566650390625,-9.028947830200195,-3.717493772506714,0.910341739654541
1790266294085566500,4.63256640625,-9.106697082519531,-3.5545296669006348,0.7770189046859741
1790266294095566600,4.642566650390625,-9.182387351989746,-3.3820571899414062,0.6448661088943481
1790266294105566500,4.65256640625,-9.257603645324707,-3.193077564239502,0.520980179309845
1790266294115566600,4.662566650390625,-9.331024169921875,-2.9884235858917236,0.4143696427345276
1790266294125566500,4.67256640625,-9.399603843688965,-2.7763049602508545,0.33161628246307373
1790266294135566600,4.682566650390625,-9.460296630859375,-2.5687594413757324,0.27320995926856995
1790266294145566500,4.69256640625,-9.510283470153809,-2.3816795349121094,0.22911208868026733
1790266294155566600,4.702566650390625,-9.549458503723145,-2.223249912261963,0.188149094581604
1790266294165566500,4.71256640625,-9.58172607421875,-2.082564115524292,0.15438610315322876
1790266294175566600,4.722566650390625,-9.61184024810791,-1.939613938331604,0.14428789913654327
1790266294185566500,4.73256640625,-9.639863967895508,-1.793323278427124,0.1655391901731491
1790266294195566600,4.742566650390625,-9.66353702545166,-1.6550348997116089,0.2174871563911438
1790266294205566500,4.75256640625,-9.6824312210083,-1.5308730602264404,0.2780835032463074
1790266294215566600,4.762566650390625,-9.69776439666748,-1.422445297241211,0.31684818863868713
1790266294225566500,4.77256640625,-9.710986137390137,-1.3244907855987549,0.33592677116394043
1790266294235566600,4.782566650390625,-9.722757339477539,-1.2310402393341064,0.35059690475463867
1790266294245566500,4.79256640625,-9.732654571533203,-1.1477364301681519,0.35849738121032715
1790266294255566600,4.802566650390625,-9.740570068359375,-1.078526496887207,0.3584366738796234
1790266294265566500,4.81256640625,-9.747294425964355,-1.0167268514633179,0.3562237322330475
1790266294275566600,4.822566650390625,-9.753641128540039,-0.9543611407279968,0.3550446033477783
1790266294285566500,4.83256640625,-9.75989818572998,-0.884416401386261,0.36410143971443176
1790266294295566600,4.842566650390625,-9.76467514038086,-0.8203806281089783,0.38532784581184387
1790266294305566500,4.85256640625,-9.767218589782715,-0.7823897004127502,0.3996035158634186
1790266294315566600,4.862566650390625,-9.768352508544922,-0.7657424211502075,0.40413999557495117
1790266294325566500,4.87256640625,-9.768555641174316,-0.7573824524879456,0.41481679677963257
1790266294335566600,4.882566650390625,-9.76827621459961,-0.7522101998329163,0.43052390217781067
1790266294345566500,4.89256640625,-9.768073081970215,-0.7546646595001221,0.4308147728443146
1790266294355566600,4.902566650390625,-9.76756477355957,-0.7716783285140991,0.4117692708969116
1790266294365566500,4.91256640625,-9.766358375549316,-0.8011044859886169,0.38321244716644287
1790266294375566600,4.922566650390625,-9.763762474060059,-0.8424659967422485,0.3599691689014435
1790266294385566500,4.93256640625,-9.7592134475708,-0.8956720232963562,0.3548336327075958
1790266294395566600,4.942566650390625,-9.752972602844238,-0.957133412361145,0.36581510305404663
1790266294405566500,4.95256640625,-9.745072364807129,-1.025844693183899,0.3893476724624634
1790266294415566600,4.962566650390625,-9.734747886657715,-1.1052495241165161,0.428371787071228
1790266294425566500,4.97256640625,-9.72097396850586,-1.2045104503631592,0.4714016318321228
1790266294435566600,4.982566650390625,-9.702555656433105,-1.3313183784484863,0.5083153247833252
1790266294445566500,4.99256640625,-9.677922248840332,-1.4831675291061401,0.5553659796714783
1790266294455566600,5.002566650390625,-9.646081924438477,-1.6514995098114014,0.6293136477470398
1790266294465566500,5.01256640625,-9.606975555419922,-1.8319519758224487,0.7213597297668457
1790266294475566600,5.022566650390625,-9.561192512512207,-2.022489309310913,0.8145743012428284
1790266294485566500,5.03256640625,-9.509478569030762,-2.221775531768799,0.8966159820556641
1790266294495566600,5.042566650390625,-9.452432632446289,-2.430640697479248,0.9559777975082397
1790266294505566500,5.05256640625,-9.389694213867188,-2.6508007049560547,0.9885746240615845
1790266294515566600,5.062566650390625,-9.321619987487793,-2.8765931129455566,1.0014945268630981
1790266294525566500,5.07256640625,-9.249542236328125,-3.097762107849121,1.0100572109222412
1790266294535566600,5.082566650390625,-9.174169540405273,-3.3082261085510254,1.0298711061477661
1790266294545566500,5.09256640625,-9.09422492980957,-3.5114517211914062,1.0654401779174805
1790266294555566600,5.102566650390625,-9.006181716918945,-3.718907117843628,1.1085195541381836
1790266294565566500,5.11256640625,-8.907161712646484,-3.9401156902313232,1.1438289880752563
1790266294575566600,5.122566650390625,-8.799211502075195,-4.170589923858643,1.1620854139328003
1790266294585566500,5.13256640625,-8.689114570617676,-4.39150857925415,1.1765773296356201
1790266294595566600,5.142566650390625,-8.585627555847168,-4.575847148895264,1.232484221458435
1790266294605566500,5.15256640625,-8.481210708618164,-4.725320816040039,1.3823198080062866
1790266294615566600,5.162566650390625,-8.350966453552246,-4.8783392906188965,1.6228251457214355
1790266294625566500,5.17256640625,-8.184399604797363,-5.062679767608643,1.8855441808700562
1790266294635566600,5.182566650390625,-7.996701717376709,-5.271340847015381,2.1062076091766357
1790266294645566500,5.19256640625,-7.809200286865234,-5.485960960388184,2.25632905960083
1790266294655566600,5.202566650390625,-7.634348392486572,-5.692938327789307,2.3404195308685303
1790266294665566500,5.21256640625,-7.472195625305176,-5.888385772705078,2.3798298835754395
1790266294675566600,5.222566650390625,-7.311540126800537,-6.080229759216309,2.396366834640503
1790266294685566500,5.23256640625,-7.141963481903076,-6.277634143829346,2.39876389503479
1790266294695566600,5.242566650390625,-6.965759754180908,-6.479404926300049,2.380314826965332
1790266294705566500,5.25256640625,-6.7884602546691895,-6.679910659790039,2.3379461765289307
1790266294715566600,5.262566650390625,-6.616809368133545,-6.867954730987549,2.284605026245117
1790266294725566500,5.27256640625,-6.457799911499023,-7.032170295715332,2.239595413208008
1790266294735566600,5.282566650390625,-6.305910110473633,-7.176078796386719,2.215801239013672
1790266294745566500,5.29256640625,-6.156761169433594,-7.307549953460693,2.2055351734161377
1790266294755566600,5.302566650390625,-6.017764091491699,-7.427739143371582,2.1876022815704346
1790266294765566500,5.31256640625,-5.894144535064697,-7.536569595336914,2.1516427993774414
1790266294775566600,5.322566650390625,-5.777525901794434,-7.6394548416137695,2.1045942306518555
1790266294785566500,5.33256640625,-5.656789302825928,-7.742437839508057,2.055666923522949
1790266294795566600,5.342566650390625,-5.528936386108398,-7.84667444229126,2.007723093032837
1790266294805566500,5.35256640625,-5.396650791168213,-7.949594020843506,1.96226966381073
1790266294815566600,5.362566650390625,-5.264005661010742,-8.048426628112793,1.9192335605621338
1790266294825566500,5.37256640625,-5.135927200317383,-8.140708923339844,1.8765701055526733
1790266294835566600,5.382566650390625,-5.0145111083984375,-8.22550106048584,1.8347197771072388
1790266294845566500,5.39256640625,-4.903449058532715,-8.301151275634766,1.7937320470809937
1790266294855566600,5.402566650390625,-4.805854797363281,-8.366724967956543,1.7527328729629517
1790266294865566500,5.41256640625,-4.723641872406006,-8.42125129699707,1.7146776914596558
1790266294875566600,5.422566650390625,-4.657248020172119,-8.464231491088867,1.6844017505645752
1790266294885566500,5.43256640625,-4.607676982879639,-8.495494842529297,1.6632095575332642
1790266294895566600,5.442566650390625,-4.577186584472656,-8.51417064666748,1.6518603563308716
1790266294905566500,5.45256640625,-4.568760871887207,-8.518099784851074,1.6549261808395386
1790266294915566600,5.462566650390625,-4.575284004211426,-8.511319160461426,1.671704888343811
1790266294925566500,5.47256640625,-4.589339256286621,-8.500164985656738,1.689835786819458
1790266294935566600,5.482566650390625,-4.607642650604248,-8.487855911254883,1.701856255531311
1790266294945566500,5.49256640625,-4.630869388580322,-8.4732084274292,1.7117784023284912
1790266294955566600,5.502566650390625,-4.664273738861084,-8.45257568359375,1.7230509519577026
1790266294965566500,5.51256640625,-4.708348751068115,-8.425332069396973,1.7365515232086182
1790266294975566600,5.522566650390625,-4.755579471588135,-8.395674705505371,1.7514299154281616
1790266294985566500,5.53256640625,-4.801996231079102,-8.367032051086426,1.7618178129196167
1790266294995566600,5.542566650390625,-4.846812725067139,-8.340866088867188,1.7631644010543823
1790266295005566500,5.55256640625,-4.888330936431885,-8.317627906799316,1.7583173513412476
1790266295015566600,5.562566650390625,-4.927433013916016,-8.294958114624023,1.7562603950500488
1790266295025566500,5.57256640625,-4.96470832824707,-8.270722389221191,1.7655614614486694
1790266295035566600,5.582566650390625,-5.000992298126221,-8.244094848632812,1.7875558137893677
1790266295045566500,5.59256640625,-5.039802074432373,-8.214268684387207,1.8156447410583496
1790266295055566600,5.602566650390625,-5.0829362869262695,-8.181844711303711,1.841625690460205
1790266295065566500,5.61256640625,-5.130875587463379,-8.14745807647705,1.8610305786132812
1790266295075566600,5.622566650390625,-5.185325622558594,-8.109792709350586,1.8745805025100708
1790266295085566500,5.63256640625,-5.248056411743164,-8.066852569580078,1.885256290435791
1790266295095566600,5.642566650390625,-5.317568778991699,-8.018552780151367,1.8964886665344238
1790266295105566500,5.65256640625,-5.390267372131348,-7.966383934020996,1.9110554456710815
1790266295115566600,5.662566650390625,-5.4652180671691895,-7.9104719161987305,1.930336594581604
1790266295125566500,5.67256640625,-5.542925834655762,-7.849673271179199,1.956777572631836
1790266295135566600,5.682566650390625,-5.6252055168151855,-7.78212833404541,1.9914668798446655
1790266295145566500,5.69256640625,-5.714726448059082,-7.7065749168396,2.030019760131836
1790266295155566600,5.702566650390625,-5.812161922454834,-7.62282133102417,2.069241523742676
1790266295165566500,5.71256640625,-5.922053337097168,-7.527202606201172,2.1073427200317383
1790266295175566600,5.722566650390625,-6.046753406524658,-7.4164018630981445,2.1457290649414062
1790266295185566500,5.73256640625,-6.187096118927002,-7.287198543548584,2.187915086746216
1790266295195566600,5.742566650390625,-6.341682434082031,-7.1393842697143555,2.2321836948394775
1790266295205566500,5.75256640625,-6.494447231292725,-6.987863540649414,2.272071599960327
1790266295215566600,5.762566650390625,-6.622543811798096,-6.856544017791748,2.3021957874298096
1790266295225566500,5.77256640625,-6.718607425689697,-6.754664421081543,2.3249096870422363
1790266295235566600,5.782566650390625,-6.793639183044434,-6.672009468078613,2.345449924468994
1790266295245566500,5.79256640625,-6.8643035888671875,-6.593960762023926,2.3603804111480713
1790266295255566600,5.802566650390625,-6.946869373321533,-6.506252288818359,2.3622164726257324
1790266295265566500,5.81256640625,-7.049155235290527,-6.401476860046387,2.3454010486602783
1790266295275566600,5.822566650390625,-7.16979455947876,-6.279750823974609,2.308501720428467
1790266295285566500,5.83256640625,-7.304687976837158,-6.141350746154785,2.2573745250701904
1790266295295566600,5.842566650390625,-7.449618339538574,-5.985703468322754,2.2011187076568604
1790266295305566500,5.85256640625,-7.599862098693848,-5.813736438751221,2.147778034210205
1790266295315566600,5.862566650390625,-7.750776290893555,-5.6288347244262695,2.1004934310913086
1790266295325566500,5.87256640625,-7.895853042602539,-5.440323829650879,2.056398391723633
1790266295335566600,5.882566650390625,-8.029939651489258,-5.258144855499268,2.0105650424957275
1790266295345566500,5.89256640625,-8.152632713317871,-5.080867290496826,1.9722492694854736
1790266295355566600,5.902566650390625,-8.271342277526855,-4.892632961273193,1.9538254737854004
1790266295365566500,5.91256640625,-8.395164489746094,-4.681382179260254,1.9432640075683594
1790266295375566600,5.922566650390625,-8.5184965133667,-4.465771198272705,1.9137641191482544
1790266295385566500,5.93256640625,-8.638747215270996,-4.252119064331055,1.8606199026107788
1790266295395566600,5.942566650390625,-8.753554344177246,-4.0409159660339355,1.793507695198059
1790266295405566500,5.95256640625,-8.85863208770752,-3.8349385261535645,1.7286616563796997
1790266295415566600,5.962566650390625,-8.952082633972168,-3.6344642639160156,1.6796656847000122
1790266295425566500,5.97256640625,-9.035796165466309,-3.4385106563568115,1.64359450340271
1790266295435566600,5.982566650390625,-9.113567352294922,-3.2483253479003906,1.6005185842514038
1790266295445566500,5.99256640625,-9.187176704406738,-3.0655524730682373,1.539015531539917
1790266295455566600,6.002566650390625,-9.256684303283691,-2.8853976726531982,1.4692431688308716
1790266295465566500,6.01256640625,-9.322449684143066,-2.6978650093078613,1.408486008644104
1790266295475566600,6.022566650390625,-9.383233070373535,-2.499582290649414,1.370186448097229
1790266295485566500,6.03256640625,-9.4371337890625,-2.29624342918396,1.3557835817337036
1790266295495566600,6.042566650390625,-9.48446273803711,-2.096475601196289,1.349132776260376
1790266295505566500,6.05256640625,-9.52640438079834,-1.9073561429977417,1.3341678380966187
1790266295515566600,6.062566650390625,-9.563019752502441,-1.7288023233413696,1.3154054880142212
1790266295525566500,6.07256640625,-9.593198776245117,-1.5575451850891113,1.3095706701278687
1790266295535566600,6.082566650390625,-9.616874694824219,-1.3955597877502441,1.3185317516326904
1790266295545566500,6.09256640625,-9.63598346710205,-1.250841736793518,1.3242321014404297
1790266295555566600,6.102566650390625,-9.652230262756348,-1.1268752813339233,1.317184329032898
1790266295565566500,6.11256640625,-9.666288375854492,-1.0192910432815552,1.3016488552093506
1790266295575566600,6.122566650390625,-9.67875862121582,-0.9222090244293213,1.281229853630066
1790266295585566500,6.13256640625,-9.68879222869873,-0.8334505558013916,1.2661162614822388
1790266295595566600,6.142566650390625,-9.695045471191406,-0.7530605792999268,1.268612265586853
1790266295605566500,6.15256640625,-9.698177337646484,-0.6851294636726379,1.283094882965088
1790266295615566600,6.162566650390625,-9.699599266052246,-0.6343057155609131,1.2983876466751099
1790266295625566500,6.17256640625,-9.699700355529785,-0.5966842770576477,1.3153585195541382
1790266295635566600,6.182566650390625,-9.698080062866211,-0.5724043846130371,1.3379004001617432
1790266295645566500,6.19256640625,-9.694321632385254,-0.5695280432701111,1.3660732507705688
1790266295655566600,6.202566650390625,-9.689021110534668,-0.589414119720459,1.3949379920959473
1790266295665566500,6.21256640625,-9.682384490966797,-0.626844048500061,1.424393892288208
1790266295675566600,6.222566650390625,-9.672985076904297,-0.6769976019859314,1.4647225141525269
1790266295685566500,6.23256640625,-9.65994644165039,-0.7390367388725281,1.5197504758834839
1790266295695566600,6.242566650390625,-9.643298149108887,-0.8158782124519348,1.5847762823104858
1790266295705566500,6.25256640625,-9.623528480529785,-0.9084187746047974,1.6531378030776978
1790266295715566600,6.262566650390625,-9.600868225097656,-1.0200916528701782,1.718467116355896
1790266295725566500,6.27256640625,-9.573789596557617,-1.1523756980895996,1.7846481800079346
1790266295735566600,6.282566650390625,-9.541540145874023,-1.300816535949707,1.8539880514144897
1790266295745566500,6.29256640625,-9.505008697509766,-1.456164002418518,1.9247797727584839
1790266295755566600,6.302566650390625,-9.46564769744873,-1.6125462055206299,1.9928838014602661
1790266295765566500,6.31256640625,-9.42349624633789,-1.768884539604187,2.0589237213134766
1790266295775566600,6.322566650390625,-9.376736640930176,-1.9311193227767944,2.125549554824829
1790266295785566500,6.33256640625,-9.323630332946777,-2.1036219596862793,2.194326877593994
1790266295795566600,6.342566650390625,-9.26367473602295,-2.2874653339385986,2.263235092163086
1790266295805566500,6.35256640625,-9.197492599487305,-2.4786903858184814,2.330798625946045
1790266295815566600,6.362566650390625,-9.125582695007324,-2.6717886924743652,2.399096727371216
1790266295825566500,6.37256640625,-9.046445846557617,-2.8710148334503174,2.467688798904419
1790266295835566600,6.382566650390625,-8.960212707519531,-3.0753097534179688,2.5352401733398438
1790266295845566500,6.39256640625,-8.868937492370605,-3.2822353839874268,2.596008777618408
1790266295855566600,6.402566650390625,-8.772747993469238,-3.4905407428741455,2.6505465507507324
1790266295865566500,6.41256640625,-8.6712007522583,-3.6957664489746094,2.7059147357940674
1790266295875566600,6.422566650390625,-8.563881874084473,-3.891740083694458,2.772124767303467
1790266295885566500,6.43256640625,-8.44810676574707,-4.081617832183838,2.8531150817871094
1790266295895566600,6.442566650390625,-8.322978019714355,-4.273500919342041,2.9386403560638428
1790266295905566500,6.45256640625,-8.189865112304688,-4.473780155181885,3.013601779937744
1790266295915566600,6.462566650390625,-8.051891326904297,-4.681771278381348,3.068948745727539
1790266295925566500,6.47256640625,-7.915246963500977,-4.888284683227539,3.1022443771362305
1790266295935566600,6.482566650390625,-7.784929275512695,-5.084194660186768,3.1170876026153564
1790266295945566500,6.49256640625,-7.654296398162842,-5.273210048675537,3.1265602111816406
1790266295955566600,6.502566650390625,-7.515600681304932,-5.4635725021362305,3.136162757873535
1790266295965566500,6.51256640625,-7.368662357330322,-5.657514572143555,3.140974760055542
1790266295975566600,6.522566650390625,-7.2180023193359375,-5.852878570556641,3.13283109664917
1790266295985566500,6.53256640625,-7.0673723220825195,-6.047201156616211,3.1070873737335205
1790266295995566600,6.542566650390625,-6.916625022888184,-6.240074634552002,3.0646612644195557
1790266296005566500,6.55256640625,-6.7680439949035645,-6.426393985748291,3.0108847618103027
1790266296015566600,6.562566650390625,-6.623907089233398,-6.601559638977051,2.9518914222717285
1790266296025566500,6.57256640625,-6.483444690704346,-6.765934944152832,2.89092755317688
1790266296035566600,6.582566650390625,-6.351616859436035,-6.918551921844482,2.8215219974517822
1790266296045566500,6.59256640625,-6.231627941131592,-7.059058666229248,2.7398719787597656
1790266296055566600,6.602566650390625,-6.117018699645996,-7.190206527709961,2.6558241844177246
1790266296065566500,6.61256640625,-5.999032974243164,-7.317575931549072,2.575860023498535
1790266296075566600,6.622566650390625,-5.875344753265381,-7.443652153015137,2.498549222946167
1790266296085566500,6.63256640625,-5.7505364418029785,-7.565120220184326,2.4229495525360107
1790266296095566600,6.642566650390625,-5.630122184753418,-7.677104473114014,2.352482318878174
1790266296105566500,6.65256640625,-5.516326904296875,-7.777926445007324,2.2900638580322266
1790266296115566600,6.662566650390625,-5.413232803344727,-7.866627216339111,2.2323713302612305
1790266296125566500,6.67256640625,-5.326839447021484,-7.941746711730957,2.173433780670166
1790266296135566600,6.682566650390625,-5.256248474121094,-8.003579139709473,2.1177728176116943
1790266296145566500,6.69256640625,-5.196142196655273,-8.054072380065918,2.0742275714874268
1790266296155566600,6.702566650390625,-5.143086910247803,-8.094674110412598,2.04824161529541
1790266296165566500,6.71256640625,-5.094175815582275,-8.127690315246582,2.0397098064422607
1790266296175566600,6.722566650390625,-5.051657199859619,-8.153107643127441,2.0440123081207275
1790266296185566500,6.73256640625,-5.018603801727295,-8.171134948730469,2.05342698097229
1790266296195566600,6.742566650390625,-5.002597332000732,-8.181264877319336,2.052150011062622
1790266296205566500,6.75256640625,-5.011485576629639,-8.18432331085205,2.017979860305786
1790266296215566600,6.762566650390625,-5.029186248779297,-8.185736656188965,1.9675819873809814
1790266296225566500,6.77256640625,-5.040572643280029,-8.188474655151367,1.9266258478164673
1790266296235566600,6.782566650390625,-5.046210765838623,-8.191290855407715,1.8997151851654053
1790266296245566500,6.79256640625,-5.051043510437012,-8.192632675170898,1.880986213684082
1790266296255566600,6.802566650390625,-5.060244560241699,-8.189906120300293,1.8680860996246338
1790266296265566500,6.81256640625,-5.080666542053223,-8.180022239685059,1.8559244871139526
1790266296275566600,6.822566650390625,-5.118349552154541,-8.159662246704102,1.841955304145813
1790266296285566500,6.83256640625,-5.17465353012085,-8.125641822814941,1.8350166082382202
1790266296295566600,6.842566650390625,-5.242993354797363,-8.079235076904297,1.8459070920944214
1790266296305566500,6.85256640625,-5.315854072570801,-8.025012969970703,1.873831033706665
1790266296315566600,6.862566650390625,-5.390309810638428,-7.967690467834473,1.9054819345474243
1790266296325566500,6.87256640625,-5.46648645401001,-7.9101104736328125,1.9282294511795044
1790266296335566600,6.882566650390625,-5.5462727546691895,-7.851717948913574,1.9390122890472412
1790266296345566500,6.89256640625,-5.633387565612793,-7.788519382476807,1.9427571296691895
1790266296355566600,6.902566650390625,-5.727262496948242,-7.71820592880249,1.9488829374313354
1790266296365566500,6.91256640625,-5.821203231811523,-7.644172668457031,1.9622914791107178
1790266296375566600,6.922566650390625,-5.912128925323486,-7.56874418258667,1.9827326536178589
1790266296385566500,6.93256640625,-6.000885486602783,-7.492602825164795,2.005155324935913
1790266296395566600,6.942566650390625,-6.090236186981201,-7.41464376449585,2.0254552364349365
1790266296405566500,6.95256640625,-6.1849894523620605,-7.331014156341553,2.0426759719848633
1790266296415566600,6.962566650390625,-6.290984153747559,-7.236010551452637,2.0576839447021484
1790266296425566500,6.97256640625,-6.405519962310791,-7.131345272064209,2.069690465927124
1790266296435566600,6.982566650390625,-6.519814491271973,-7.026665210723877,2.0708367824554443
1790266296445566500,6.99256640625,-6.627691268920898,-6.929581642150879,2.0554754734039307
1790266296455566600,7.002566650390625,-6.726014614105225,-6.842142581939697,2.028839349746704
1790266296465566500,7.01256640625,-6.813436985015869,-6.762919902801514,2.002591371536255
1790266296475566600,7.022566650390625,-6.894864559173584,-6.684650421142578,1.9866235256195068
1790266296485566500,7.03256640625,-6.979318618774414,-6.598437786102295,1.97992742061615
1790266296495566600,7.042566650390625,-7.075284004211426,-6.495091915130615,1.9810463190078735
1790266296505566500,7.05256640625,-7.190589904785156,-6.36518669128418,1.9875085353851318
1790266296515566600,7.062566650390625,-7.3239665031433105,-6.210034370422363,1.9913250207901
1790266296525566500,7.07256640625,-7.462850570678711,-6.044675827026367,1.9844763278961182
1790266296535566600,7.082566650390625,-7.595530986785889,-5.88507604598999,1.960654854774475
1790266296545566500,7.09256640625,-7.719274520874023,-5.735886573791504,1.9190608263015747
1790266296555566600,7.102566650390625,-7.8353590965271,-5.593580722808838,1.8679907321929932
1790266296565566500,7.11256640625,-7.944645404815674,-5.45347785949707,1.8200483322143555
1790266296575566600,7.122566650390625,-8.051953315734863,-5.30859375,1.776304006576538
1790266296585566500,7.13256640625,-8.162168502807617,-5.154889106750488,1.7252578735351562
1790266296595566600,7.142566650390625,-8.275416374206543,-4.994175434112549,1.657128930091858
1790266296605566500,7.15256640625,-8.390562057495117,-4.826297760009766,1.5734355449676514
1790266296615566600,7.162566650390625,-8.509603500366211,-4.6428656578063965,1.4835190773010254
1790266296625566500,7.17256640625,-8.632489204406738,-4.439069747924805,1.3946980237960815
1790266296635566600,7.182566650390625,-8.751116752624512,-4.227093696594238,1.3114937543869019
1790266296645566500,7.19256640625,-8.857093811035156,-4.022546768188477,1.2415300607681274
1790266296655566600,7.202566650390625,-8.948506355285645,-3.8316519260406494,1.1887257099151611
1790266296665566500,7.21256640625,-9.028655052185059,-3.6515276432037354,1.1489704847335815
1790266296675566600,7.222566650390625,-9.10366439819336,-3.4710543155670166,1.1160023212432861
1790266296685566500,7.23256640625,-9.17885971069336,-3.2775402069091797,1.084734320640564
1790266296695566600,7.242566650390625,-9.253242492675781,-3.073040723800659,1.0508639812469482
1790266296705566500,7.25256640625,-9.322587013244629,-2.870018482208252,1.011311650276184
1790266296715566600,7.262566650390625,-9.384897232055664,-2.6760849952697754,0.9657436609268188
1790266296725566500,7.27256640625,-9.442163467407227,-2.4836878776550293,0.9204586148262024
1790266296735566600,7.282566650390625,-9.496216773986816,-2.2836785316467285,0.8815191388130188
1790266296745566500,7.29256640625,-9.545637130737305,-2.080963134765625,0.8489914536476135
1790266296755566600,7.302566650390625,-9.588751792907715,-1.8818930387496948,0.8274610042572021
1790266296765566500,7.31256640625,-9.625641822814941,-1.6857064962387085,0.8220665454864502
1790266296775566600,7.322566650390625,-9.65670108795166,-1.491234540939331,0.8335126638412476
1790266296785566500,7.33256640625,-9.681888580322266,-1.3042614459991455,0.8545910120010376
1790266296795566600,7.342566650390625,-9.70193862915039,-1.1411465406417847,0.8605552911758423
1790266296805566500,7.35256640625,-9.71793270111084,-1.0057495832443237,0.84889817237854
1790266296815566600,7.362566650390625,-9.730644226074219,-0.8902453780174255,0.8321153521537781
1790266296825566500,7.37256640625,-9.739827156066895,-0.7937855124473572,0.8222382068634033
1790266296835566600,7.382566650390625,-9.744817733764648,-0.7174856662750244,0.8331521153450012
1790266296845566500,7.39256640625,-9.746760368347168,-0.6550365090370178,0.86137855052948
1790266296855566600,7.402566650390625,-9.74720573425293,-0.6080131530761719,0.8903300166130066
1790266296865566500,7.41256640625,-9.747902870178223,-0.5759807229042053,0.9038910865783691
1790266296875566600,7.422566650390625,-9.748091697692871,-0.5549958944320679,0.9149139523506165
1790266296885566500,7.43256640625,-9.746092796325684,-0.5478838086128235,0.9401627779006958
1790266296895566600,7.442566650390625,-9.742359161376953,-0.5525786280632019,0.9754430651664734
1790266296905566500,7.45256640625,-9.737980842590332,-0.5684851408004761,1.0094188451766968
1790266296915566600,7.462566650390625,-9.733177185058594,-0.603507936000824,1.0350921154022217
1790266296925566500,7.47256640625,-9.727322578430176,-0.654821515083313,1.058669924736023
1790266296935566600,7.482566650390625,-9.719149589538574,-0.7159823775291443,1.0935643911361694
1790266296945566500,7.49256640625,-9.70778751373291,-0.7818055152893066,1.148055076599121
1790266296955566600,7.502566650390625,-9.69472885131836,-0.8603813648223877,1.2009871006011963
1790266296965566500,7.51256640625,-9.681469917297363,-0.9592602849006653,1.2326140403747559
1790266296975566600,7.522566650390625,-9.665861129760742,-1.077250361442566,1.2573975324630737
1790266296985566500,7.53256640625,-9.646116256713867,-1.2142163515090942,1.2839399576187134
1790266296995566600,7.542566650390625,-9.622011184692383,-1.3650627136230469,1.3129732608795166
1790266297005566500,7.55256640625,-9.592193603515625,-1.5260708332061768,1.3532648086547852
1790266297015566600,7.562566650390625,-9.556533813476562,-1.6983710527420044,1.3994988203048706
1790266297025566500,7.57256640625,-9.515486717224121,-1.8849812746047974,1.4396976232528687
1790266297035566600,7.582566650390625,-9.465923309326172,-2.09091854095459,1.4814714193344116
1790266297045566500,7.59256640625,-9.405980110168457,-2.3122174739837646,1.533484935760498
1790266297055566600,7.602566650390625,-9.337515830993652,-2.538944959640503,1.5921473503112793
1790266297065566500,7.61256640625,-9.261367797851562,-2.767254590988159,1.6552218198776245
1790266297075566600,7.622566650390625,-9.177653312683105,-2.9972147941589355,1.7198182344436646
1790266297085566500,7.63256640625,-9.08623218536377,-3.2292258739471436,1.7840625047683716
1790266297095566600,7.642566650390625,-8.986692428588867,-3.4644315242767334,1.845932126045227
1790266297105566500,7.65256640625,-8.878739356994629,-3.705308437347412,1.8997524976730347
1790266297115566600,7.662566650390625,-8.76203441619873,-3.9495961666107178,1.948805809020996
1790266297125566500,7.67256640625,-8.635954856872559,-4.190495014190674,2.0075929164886475
1790266297135566600,7.682566650390625,-8.49909496307373,-4.426522731781006,2.0836665630340576
1790266297145566500,7.69256640625,-8.351877212524414,-4.661451816558838,2.165041923522949
1790266297155566600,7.702566650390625,-8.197493553161621,-4.894229888916016,2.2400918006896973
1790266297165566500,7.71256640625,-8.038082122802734,-5.120754241943359,2.310302257537842
1790266297175566600,7.722566650390625,-7.871222496032715,-5.340518951416016,2.386023759841919
1790266297185566500,7.73256640625,-7.694228172302246,-5.556535243988037,2.4686338901519775
1790266297195566600,7.742566650390625,-7.504918575286865,-5.775074481964111,2.5485501289367676
1790266297205566500,7.75256640625,-7.3052778244018555,-5.997245788574219,2.614640474319458
1790266297215566600,7.762566650390625,-7.104753494262695,-6.213543891906738,2.6617183685302734
1790266297225566500,7.77256640625,-6.9095659255981445,-6.417132377624512,2.69234299659729
1790266297235566600,7.782566650390625,-6.720269680023193,-6.609028339385986,2.707233190536499
1790266297245566500,7.79256640625,-6.533764839172363,-6.793890953063965,2.7061686515808105
1790266297255566600,7.802566650390625,-6.355447769165039,-6.967782974243164,2.68861985206604
1790266297265566500,7.81256640625,-6.1890645027160645,-7.128517150878906,2.655207395553589
1790266297275566600,7.822566650390625,-6.027446269989014,-7.283524990081787,2.605865240097046
1790266297285566500,7.83256640625,-5.867011070251465,-7.436882019042969,2.5379812717437744
1790266297295566600,7.842566650390625,-5.710169315338135,-7.586523532867432,2.4513278007507324
1790266297305566500,7.85256640625,-5.5608720779418945,-7.725666046142578,2.3582146167755127
1790266297315566600,7.862566650390625,-5.421228885650635,-7.851786136627197,2.2649781703948975
1790266297325566500,7.87256640625,-5.2870073318481445,-7.967712879180908,2.175657272338867
1790266297335566600,7.882566650390625,-5.164923191070557,-8.068437576293945,2.0962533950805664
1790266297345566500,7.89256640625,-5.057229042053223,-8.152498245239258,2.0326316356658936
1790266297355566600,7.902566650390625,-4.956400394439697,-8.225458145141602,1.9865344762802124
1790266297365566500,7.91256640625,-4.86313009262085,-8.289438247680664,1.9507884979248047
1790266297375566600,7.922566650390625,-4.782505035400391,-8.342772483825684,1.922541618347168
1790266297385566500,7.93256640625,-4.717529296875,-8.384596824645996,1.901012659072876
1790266297395566600,7.942566650390625,-4.666512489318848,-8.416206359863281,1.8871996402740479
1790266297405566500,7.95256640625,-4.620239734649658,-8.442322731018066,1.884395718574524
1790266297415566600,7.962566650390625,-4.572993278503418,-8.465718269348145,1.8946584463119507
1790266297425566500,7.97256640625,-4.528135776519775,-8.485566139221191,1.913514256477356
1790266297435566600,7.982566650390625,-4.490969657897949,-8.500856399536133,1.933138132095337
1790266297445566500,7.99256640625,-4.46540641784668,-8.511126518249512,1.9471150636672974
1790266297455566600,8.002566650390625,-4.454049587249756,-8.51573371887207,1.9529709815979004
1790266297465566500,8.01256640625,-4.456234931945801,-8.515185356140137,1.950374722480774
1790266297475566600,8.022566650390624,-4.471343517303467,-8.509195327758789,1.9419208765029907
1790266297485566500,8.03256640625,-4.500721454620361,-8.495889663696289,1.932289719581604
1790266297495566600,8.042566650390626,-4.545346736907959,-8.47332763671875,1.926897406578064
1790266297505566500,8.05256640625,-4.605600833892822,-8.439743995666504,1.9312052726745605
1790266297515566600,8.062566650390625,-4.681375026702881,-8.39399528503418,1.948322057723999
1790266297525566500,8.07256640625,-4.769845008850098,-8.33674144744873,1.9793174266815186
1790266297535566600,8.082566650390625,-4.869398593902588,-8.269679069519043,2.0178563594818115
1790266297545566500,8.09256640625,-4.973934650421143,-8.19714641571045,2.0584373474121094
1790266297555566600,8.102566650390624,-5.075571537017822,-8.123688697814941,2.1011056900024414
1790266297565566500,8.11256640625,-5.168367385864258,-8.053924560546875,2.143049716949463
1790266297575566600,8.122566650390626,-5.2467756271362305,-7.992806911468506,2.181004285812378
1790266297585566500,8.13256640625,-5.312806129455566,-7.939749717712402,2.214688539505005
1790266297595566600,8.142566650390625,-5.375866889953613,-7.888842582702637,2.2442374229431152
1790266297605566500,8.15256640625,-5.448121070861816,-7.831920146942139,2.269226551055908
1790266297615566600,8.162566650390625,-5.541753768920898,-7.761405944824219,2.2847180366516113
1790266297625566500,8.17256640625,-5.655350208282471,-7.677020072937012,2.291452646255493
1790266297635566600,8.182566650390624,-5.778230667114258,-7.5828399658203125,2.2984747886657715
1790266297645566500,8.19256640625,-5.904631614685059,-7.481901168823242,2.3080005645751953
1790266297655566600,8.202566650390626,-6.031409740447998,-7.378057479858398,2.3144659996032715
1790266297665566500,8.21256640625,-6.15957498550415,-7.271760940551758,2.3133370876312256
1790266297675566600,8.222566650390625,-6.290903568267822,-7.161269664764404,2.3045923709869385
1790266297685566500,8.23256640625,-6.422032356262207,-7.047707557678223,2.2929677963256836
1790266297695566600,8.242566650390625,-6.5492682456970215,-6.9328389167785645,2.2832462787628174
1790266297705566500,8.25256640625,-6.671664714813232,-6.817616939544678,2.2758259773254395
1790266297715566600,8.262566650390625,-6.791196346282959,-6.701037406921387,2.2685091495513916
1790266297725566500,8.27256640625,-6.911341667175293,-6.579930305480957,2.260145425796509
1790266297735566600,8.282566650390624,-7.033148765563965,-6.452286243438721,2.252376079559326
1790266297745566500,8.29256640625,-7.157982349395752,-6.315433502197266,2.246994972229004
1790266297755566600,8.302566650390625,-7.286290645599365,-6.1684722900390625,2.2428367137908936
1790266297765566500,8.31256640625,-7.415071487426758,-6.015749931335449,2.2355892658233643
1790266297775566600,8.322566650390625,-7.545320987701416,-5.85762357711792,2.2196314334869385
1790266297785566500,8.33256640625,-7.6801042556762695,-5.691132545471191,2.190295696258545
1790266297795566600,8.342566650390625,-7.821260929107666,-5.513194561004639,2.1454477310180664
1790266297805566500,8.35256640625,-7.967339515686035,-5.3220744132995605,2.0898354053497314
1790266297815566600,8.362566650390624,-8.112587928771973,-5.122016429901123,2.030087947845459
1790266297825566500,8.37256640625,-8.251887321472168,-4.916946887969971,1.9749377965927124
1790266297835566600,8.382566650390626,-8.38336181640625,-4.7069830894470215,1.9323419332504272
1790266297845566500,8.39256640625,-8.50478458404541,-4.4959917068481445,1.9039666652679443
1790266297855566600,8.402566650390625,-8.615559577941895,-4.288260459899902,1.8850277662277222
1790266297865566500,8.41256640625,-8.718878746032715,-4.083580017089844,1.864380121231079
1790266297875566600,8.422566650390625,-8.817229270935059,-3.881239175796509,1.833803653717041
1790266297885566500,8.43256640625,-8.90999984741211,-3.6844353675842285,1.790876030921936
1790266297895566600,8.442566650390624,-8.998289108276367,-3.490556478500366,1.7370049953460693
1790266297905566500,8.45256640625,-9.085408210754395,-3.2861783504486084,1.6812986135482788
1790266297915566600,8.462566650390626,-9.170767784118652,-3.0661370754241943,1.6328574419021606
1790266297925566500,8.47256640625,-9.249473571777344,-2.8422751426696777,1.5934571027755737
1790266297935566600,8.482566650390625,-9.319169044494629,-2.627838134765625,1.5549696683883667
1790266297945566500,8.49256640625,-9.381006240844727,-2.4317727088928223,1.5011930465698242
1790266297955566600,8.502566650390625,-9.436973571777344,-2.254136800765991,1.4257571697235107
1790266297965566500,8.51256640625,-9.48834228515625,-2.0829312801361084,1.3428137302398682
1790266297975566600,8.522566650390624,-9.534561157226562,-1.905377745628357,1.2775219678878784
1790266297985566500,8.53256640625,-9.573586463928223,-1.7210971117019653,1.246855616569519
1790266297995566600,8.542566650390626,-9.604992866516113,-1.5443757772445679,1.2366889715194702
1790266298005566500,8.55256640625,-9.630646705627441,-1.3914803266525269,1.2185314893722534
1790266298015566600,8.562566650390625,-9.652701377868652,-1.2665799856185913,1.17962646484375
1790266298025566500,8.57256640625,-9.670681953430176,-1.1578748226165771,1.143510341644287
1790266298035566600,8.582566650390625,-9.682404518127441,-1.05828857421875,1.1408089399337769
1790266298045566500,8.59256640625,-9.687548637390137,-0.9722645282745361,1.1732314825057983
1790266298055566600,8.602566650390624,-9.688024520874023,-0.9035810828208923,1.2231532335281372
1790266298065566500,8.61256640625,-9.6862154006958,-0.8517360687255859,1.2736430168151855
1790266298075566600,8.622566650390626,-9.68400764465332,-0.8138750791549683,1.3145326375961304
1790266298085566500,8.63256640625,-9.681748390197754,-0.785834014415741,1.3478121757507324
1790266298095566600,8.642566650390625,-9.678343772888184,-0.7658072113990784,1.3833229541778564
1790266298105566500,8.65256640625,-9.674988746643066,-0.7556541562080383,1.4120742082595825
1790266298115566600,8.662566650390625,-9.672805786132812,-0.7569785118103027,1.4262549877166748
1790266298125566500,8.67256640625,-9.672115325927734,-0.7694035172462463,1.4242883920669556
1790266298135566600,8.682566650390624,-9.67155647277832,-0.7979873418807983,1.4123021364212036
1790266298145566500,8.69256640625,-9.668396949768066,-0.8444905877113342,1.4068846702575684
1790266298155566600,8.702566650390626,-9.662254333496094,-0.9120305776596069,1.4069199562072754
1790266298165566500,8.71256640625,-9.653292655944824,-1.002935767173767,1.4065743684768677
1790266298175566600,8.722566650390625,-9.640350341796875,-1.1158702373504639,1.4102680683135986
1790266298185566500,8.73256640625,-9.621562004089355,-1.2476426362991333,1.4280444383621216
1790266298195566600,8.742566650390625,-9.59622573852539,-1.389278769493103,1.4672181606292725
1790266298205566500,8.75256640625,-9.565374374389648,-1.5321789979934692,1.5252691507339478
1790266298215566600,8.762566650390625,-9.530245780944824,-1.684298038482666,1.583649754524231
1790266298225566500,8.77256640625,-9.490196228027344,-1.8570679426193237,1.6302947998046875
1790266298235566600,8.782566650390624,-9.443431854248047,-2.050246238708496,1.6698756217956543
1790266298245566500,8.79256640625,-9.38769817352295,-2.2592971324920654,1.7137941122055054
1790266298255566600,8.802566650390625,-9.32349681854248,-2.4748423099517822,1.7657698392868042
1790266298265566500,8.81256640625,-9.253763198852539,-2.687681198120117,1.8206093311309814
1790266298275566600,8.822566650390625,-9.180619239807129,-2.8944880962371826,1.8731130361557007
1790266298285566500,8.83256640625,-9.105709075927734,-3.0924429893493652,1.9217846393585205
1790266298295566600,8.842566650390625,-9.028959274291992,-3.2842600345611572,1.9651793241500854
1790266298305566500,8.85256640625,-8.946592330932617,-3.4802091121673584,2.004246950149536
1790266298315566600,8.862566650390624,-8.854557991027832,-3.686678647994995,2.043426752090454
1790266298325566500,8.87256640625,-8.750040054321289,-3.9040493965148926,2.0894031524658203
1790266298335566600,8.882566650390626,-8.632034301757812,-4.127607345581055,2.1497042179107666
1790266298345566500,8.89256640625,-8.501348495483398,-4.349478721618652,2.2314789295196533
1790266298355566600,8.902566650390625,-8.359240531921387,-4.565112113952637,2.3352136611938477
1790266298365566500,8.91256640625,-8.207413673400879,-4.774430751800537,2.4522581100463867
1790266298375566600,8.922566650390625,-8.044489860534668,-4.98504638671875,2.570192337036133
1790266298385566500,8.93256640625,-7.866551399230957,-5.212124347686768,2.6686172485351562
1790266298395566600,8.942566650390624,-7.672393798828125,-5.463929176330566,2.729515790939331
1790266298405566500,8.95256640625,-7.460751056671143,-5.7377190589904785,2.7542967796325684
1790266298415566600,8.962566650390626,-7.23453426361084,-6.020386219024658,2.754423141479492
1790266298425566500,8.97256640625,-7.000545024871826,-6.295422554016113,2.7441625595092773
1790266298435566600,8.982566650390625,-6.7666778564453125,-6.552271366119385,2.7295031547546387
1790266298445566500,8.99256640625,-6.541779518127441,-6.786161422729492,2.706199884414673
1790266298455566600,9.002566650390625,-6.330486297607422,-6.997560977935791,2.67010760307312
1790266298465566500,9.01256640625,-6.13291072845459,-7.1896281242370605,2.6205027103424072
1790266298475566600,9.022566650390624,-5.9417595863342285,-7.370072841644287,2.5588879585266113
1790266298485566500,9.03256640625,-5.755727291107178,-7.540390491485596,2.486865758895874
1790266298495566600,9.042566650390626,-5.583218574523926,-7.692950248718262,2.411756992340088
1790266298505566500,9.05256640625,-5.43082332611084,-7.8224029541015625,2.3423397541046143
1790266298515566600,9.062566650390625,-5.290191173553467,-7.935134410858154,2.2842705249786377
1790266298525566500,9.07256640625,-5.1569037437438965,-8.037649154663086,2.230004072189331
1790266298535566600,9.082566650390625,-5.040159225463867,-8.129751205444336,2.162019968032837
1790266298545566500,9.09256640625,-4.9405012130737305,-8.212359428405762,2.0782177448272705
1790266298555566600,9.102566650390624,-4.852741241455078,-8.285212516784668,1.9941312074661255
1790266298565566500,9.11256640625,-4.7743048667907715,-8.346573829650879,1.9264235496520996
1790266298575566600,9.122566650390626,-4.716836929321289,-8.389604568481445,1.8805211782455444
1790266298585566500,9.13256640625,-4.685213088989258,-8.413785934448242,1.8513133525848389
1790266298595566600,9.142566650390625,-4.6609039306640625,-8.429832458496094,1.8396402597427368
1790266298605566500,9.15256640625,-4.632724761962891,-8.444317817687988,1.8443841934204102
1790266298615566600,9.162566650390625,-4.604423999786377,-8.456449508666992,1.8596069812774658
1790266298625566500,9.17256640625,-4.584997653961182,-8.462541580200195,1.8797781467437744
1790266298635566600,9.182566650390624,-4.581056118011475,-8.459446907043457,1.9031730890274048
1790266298645566500,9.19256640625,-4.591604709625244,-8.4473237991333,1.931395173072815
1790266298655566600,9.202566650390626,-4.611963748931885,-8.42922306060791,1.9617313146591187
1790266298665566500,9.21256640625,-4.640299320220947,-8.407892227172852,1.9862918853759766
1790266298675566600,9.222566650390625,-4.673900604248047,-8.385581970214844,2.001760959625244
1790266298685566500,9.23256640625,-4.709835529327393,-8.363292694091797,2.0107624530792236
1790266298695566600,9.242566650390625,-4.74602746963501,-8.34081745147705,2.019002676010132
1790266298705566500,9.25256640625,-4.785569190979004,-8.315363883972168,2.0306241512298584
1790266298715566600,9.262566650390625,-4.838952541351318,-8.282835006713867,2.0370516777038574
1790266298725566500,9.27256640625,-4.916093826293945,-8.23958683013916,2.0277113914489746
1790266298735566600,9.282566650390624,-5.021629810333252,-8.18181324005127,2.0028860569000244
1790266298745566500,9.29256640625,-5.1539225578308105,-8.105792045593262,1.9757546186447144
1790266298755566600,9.302566650390625,-5.299281120300293,-8.013582229614258,1.9673588275909424
1790266298765566500,9.31256640625,-5.435339450836182,-7.915587425231934,1.9927232265472412
1790266298775566600,9.322566650390625,-5.544497489929199,-7.825954437255859,2.0453293323516846
1790266298785566500,9.33256640625,-5.621413707733154,-7.755770683288574,2.1019301414489746
1790266298795566600,9.342566650390625,-5.676019668579102,-7.706988334655762,2.134366273880005
1790266298805566500,9.35256640625,-5.727121353149414,-7.670372486114502,2.1297554969787598
1790266298815566600,9.362566650390624,-5.79022741317749,-7.630810260772705,2.1010472774505615
1790266298825566500,9.37256640625,-5.878570556640625,-7.572059631347656,2.0680196285247803
1790266298835566600,9.382566650390626,-5.988718032836914,-7.4900898933410645,2.05041241645813
1790266298845566500,9.39256640625,-6.108494281768799,-7.39040994644165,2.0587682723999023
1790266298855566600,9.402566650390625,-6.230985641479492,-7.2802228927612305,2.084120750427246
1790266298865566500,9.41256640625,-6.353503704071045,-7.166108131408691,2.1095685958862305
1790266298875566600,9.422566650390625,-6.477768898010254,-7.049529075622559,2.1243903636932373
1790266298885566500,9.43256640625,-6.6053786277771,-6.929872512817383,2.1251444816589355
1790266298895566600,9.442566650390624,-6.7364606857299805,-6.8055853843688965,2.1152992248535156
1790266298905566500,9.45256640625,-6.869452476501465,-6.675721645355225,2.1013708114624023
1790266298915566600,9.462566650390626,-7.0005784034729,-6.542597770690918,2.087273597717285
1790266298925566500,9.47256640625,-7.130342960357666,-6.406150817871094,2.071187973022461
1790266298935566600,9.482566650390625,-7.2657060623168945,-6.259877681732178,2.047886610031128
1790266298945566500,9.49256640625,-7.411890029907227,-6.09733247756958,2.014152765274048
1790266298955566600,9.502566650390625,-7.566132545471191,-5.918678283691406,1.9731382131576538
1790266298965566500,9.51256640625,-7.717429161071777,-5.734742641448975,1.9298731088638306
1790266298975566600,9.522566650390624,-7.857235431671143,-5.555530071258545,1.8895306587219238
1790266298985566500,9.53256640625,-7.986252784729004,-5.380845069885254,1.8538252115249634
1790266298995566600,9.542566650390626,-8.10976791381836,-5.205000877380371,1.819346308708191
1790266299005566500,9.55256640625,-8.232339859008789,-5.021048545837402,1.7855048179626465
1790266299015566600,9.562566650390625,-8.355671882629395,-4.825582504272461,1.75125253200531
1790266299025566500,9.57256640625,-8.479740142822266,-4.618619441986084,1.7125318050384521
1790266299035566600,9.582566650390625,-8.605813980102539,-4.39718770980835,1.665864109992981
1790266299045566500,9.59256640625,-8.731793403625488,-4.164383411407471,1.6075057983398438
1790266299055566600,9.602566650390624,-8.85120677947998,-3.9289650917053223,1.5458831787109375
1790266299065566500,9.61256640625,-8.95746898651123,-3.6991872787475586,1.5000534057617188
1790266299075566600,9.622566650390626,-9.047404289245605,-3.487061023712158,1.4680861234664917
1790266299085566500,9.63256640625,-9.123579978942871,-3.3026254177093506,1.4224421977996826
1790266299095566600,9.642566650390625,-9.193984985351562,-3.1366055011749268,1.3426623344421387
1790266299105566500,9.65256640625,-9.263704299926758,-2.9698495864868164,1.2386168241500854
1790266299115566600,9.662566650390625,-9.332443237304688,-2.7896599769592285,1.1373984813690186
1790266299125566500,9.67256640625,-9.39929485321045,-2.5895864963531494,1.0572060346603394
1790266299135566600,9.682566650390624,-9.461867332458496,-2.3684868812561035,1.0167248249053955
1790266299145566500,9.69256640625,-9.516365051269531,-2.1346564292907715,1.0258749723434448
1790266299155566600,9.702566650390626,-9.560280799865723,-1.907984972000122,1.063494086265564
1790266299165566500,9.71256640625,-9.595036506652832,-1.7035536766052246,1.0970743894577026
1790266299175566600,9.722566650390625,-9.624168395996094,-1.5228935480117798,1.1075021028518677
1790266299185566500,9.73256640625,-9.649277687072754,-1.3659965991973877,1.093562364578247
1790266299195566600,9.742566650390625,-9.66858196258545,-1.2317553758621216,1.0824377536773682
1790266299205566500,9.75256640625,-9.682271003723145,-1.117708683013916,1.083853006362915
1790266299215566600,9.762566650390625,-9.693058013916016,-1.0196563005447388,1.0841230154037476
1790266299225566500,9.77256640625,-9.70362377166748,-0.9305911660194397,1.0696077346801758
1790266299235566600,9.782566650390624,-9.714337348937988,-0.8462480306625366,1.042069673538208
1790266299245566500,9.79256640625,-9.72408676147461,-0.7672711610794067,1.011839509010315
1790266299255566600,9.802566650390625,-9.732264518737793,-0.6940962076187134,0.9857256412506104
1790266299265566500,9.81256640625,-9.73847484588623,-0.6257887482643127,0.9699921011924744
1790266299275566600,9.822566650390625,-9.742694854736328,-0.5605391263961792,0.9675055742263794
1790266299285566500,9.83256640625,-9.744755744934082,-0.5009217858314514,0.9793882369995117
1790266299295566600,9.842566650390625,-9.744096755981445,-0.45325517654418945,1.008720874786377
1790266299305566500,9.85256640625,-9.740570068359375,-0.41668954491615295,1.057373285293579
1790266299315566600,9.862566650390624,-9.733461380004883,-0.3869149088859558,1.131544589996338
1790266299325566500,9.87256640625,-9.723274230957031,-0.36208218336105347,1.2236063480377197
1790266299335566600,9.882566650390626,-9.713236808776855,-0.34934747219085693,1.3043646812438965
1790266299345566500,9.89256640625,-9.707110404968262,-0.3588809370994568,1.3466989994049072
1790266299355566600,9.902566650390625,-9.70589542388916,-0.39288952946662903,1.3459651470184326
1790266299365566500,9.91256640625,-9.706689834594727,-0.44508278369903564,1.3237978219985962
1790266299375566600,9.922566650390625,-9.706719398498535,-0.5076586604118347,1.3008719682693481
1790266299385566500,9.93256640625,-9.703619003295898,-0.5737167000770569,1.2965407371520996
1790266299395566600,9.942566650390624,-9.697651863098145,-0.636264979839325,1.3119090795516968
1790266299405566500,9.95256640625,-9.690509796142578,-0.6984120607376099,1.332901954650879
1790266299415566600,9.962566650390626,-9.682558059692383,-0.7746518850326538,1.3484634160995483
1790266299425566500,9.97256640625,-9.671303749084473,-0.8756529688835144,1.3672975301742554
1790266299435566600,9.982566650390625,-9.654330253601074,-1.0051400661468506,1.3978538513183594
1790266299445566500,9.99256640625,-9.629756927490234,-1.1686152219772339,1.4396215677261353
1790266299455566600,10.002566650390625,-9.594274520874023,-1.3661085367202759,1.501344084739685
1790266299465566500,10.01256640625,-9.546995162963867,-1.5888104438781738,1.5814355611801147
1790266299475566600,10.022566650390624,-9.489810943603516,-1.8336560726165771,1.658788800239563
1790266299485566500,10.03256640625,-9.424698829650879,-2.09555721282959,1.7187467813491821
1790266299495566600,10.042566650390626,-9.352032661437988,-2.367832660675049,1.7616019248962402
1790266299505566500,10.05256640625,-9.271364212036133,-2.6420164108276367,1.7977596521377563
1790266299515566600,10.062566650390625,-9.183721542358398,-2.898299217224121,1.8518908023834229
1790266299525566500,10.07256640625,-9.090896606445312,-3.132990837097168,1.9262330532073975
1790266299535566600,10.082566650390625,-8.988611221313477,-3.374279737472534,1.9973738193511963
1790266299545566500,10.09256640625,-8.872356414794922,-3.645665168762207,2.0398058891296387
1790266299555566600,10.102566650390624,-8.743207931518555,-3.9383389949798584,2.0533366203308105
1790266299565566500,10.11256640625,-8.601837158203125,-4.235538005828857,2.0588862895965576
1790266299575566600,10.122566650390626,-8.452081680297852,-4.5162739753723145,2.082296371459961
1790266299585566500,10.13256640625,-8.298084259033203,-4.7644195556640625,2.147671937942505
1790266299595566600,10.142566650390625,-8.138053894042969,-4.987583637237549,2.250884771347046
1790266299605566500,10.15256640625,-7.967803478240967,-5.204275608062744,2.3664350509643555
1790266299615566600,10.162566650390625,-7.7909464836120605,-5.416639804840088,2.476198673248291
1790266299625566500,10.17256640625,-7.614351272583008,-5.618139266967773,2.5745980739593506
1790266299635566600,10.182566650390624,-7.440753936767578,-5.806891918182373,2.6618752479553223
1790266299645566500,10.19256640625,-7.263967514038086,-5.992960453033447,2.736710786819458
1790266299655566600,10.202566650390626,-7.079855442047119,-6.183533668518066,2.794628858566284
1790266299665566500,10.21256640625,-6.892394065856934,-6.375183582305908,2.8323709964752197
1790266299675566600,10.222566650390625,-6.702409744262695,-6.565446376800537,2.8535962104797363
1790266299685566500,10.23256640625,-6.514029502868652,-6.749373435974121,2.860729932785034
1790266299695566600,10.242566650390625,-6.3362956047058105,-6.92106819152832,2.8496599197387695
1790266299705566500,10.25256640625,-6.172603130340576,-7.080352783203125,2.817438840866089
1790266299715566600,10.262566650390625,-6.016427040100098,-7.233526706695557,2.7656986713409424
1790266299725566500,10.27256640625,-5.856095790863037,-7.388970375061035,2.6980814933776855
1790266299735566600,10.282566650390624,-5.6896653175354,-7.547235488891602,2.614827871322632
1790266299745566500,10.29256640625,-5.528393268585205,-7.70025634765625,2.5126264095306396
1790266299755566600,10.302566650390625,-5.385203838348389,-7.8389787673950195,2.391733169555664
1790266299765566500,10.31256640625,-5.261618614196777,-7.960859298706055,2.260634183883667
1790266299775566600,10.322566650390625,-5.1592936515808105,-8.063761711120605,2.127868890762329
1790266299785566500,10.33256640625,-5.087305545806885,-8.141373634338379,2.0019373893737793
1790266299795566600,10.342566650390625,-5.037994861602783,-8.194173812866211,1.9090651273727417
1790266299805566500,10.35256640625,-4.977813243865967,-8.238985061645508,1.8737382888793945
1790266299815566600,10.362566650390624,-4.886087417602539,-8.2955904006958,1.8653978109359741
1790266299825566500,10.37256640625,-4.783670425415039,-8.35610580444336,1.8607507944107056
1790266299835566600,10.382566650390626,-4.7118306159973145,-8.398436546325684,1.853456974029541
1790266299845566500,10.39256640625,-4.681843280792236,-8.417577743530273,1.84258234500885
1790266299855566600,10.402566650390625,-4.676653861999512,-8.420531272888184,1.842273235321045
1790266299865566500,10.41256640625,-4.674492835998535,-8.415557861328125,1.870265245437622
1790266299875566600,10.422566650390625,-4.667991638183594,-8.40646743774414,1.9265336990356445
1790266299885566500,10.43256640625,-4.666934490203857,-8.391008377075195,1.995262861251831
1790266299895566600,10.442566650390624,-4.676975727081299,-8.370331764221191,2.057628631591797
1790266299905566500,10.45256640625,-4.690042495727539,-8.350940704345703,2.106107473373413
1790266299915566600,10.462566650390626,-4.69962215423584,-8.337047576904297,2.139531373977661
1790266299925566500,10.47256640625,-4.70505952835083,-8.329009056091309,2.158801555633545
1790266299935566600,10.482566650390625,-4.706518650054932,-8.325091361999512,2.1707019805908203
1790266299945566500,10.49256640625,-4.7046966552734375,-8.323003768920898,2.1826224327087402
1790266299955566600,10.502566650390625,-4.702432155609131,-8.320335388183594,2.1976208686828613
1790266299965566500,10.51256640625,-4.702365398406982,-8.31667423248291,2.211576223373413
1790266299975566600,10.522566650390624,-4.712485313415527,-8.310504913330078,2.2132253646850586
1790266299985566500,10.53256640625,-4.74576997756958,-8.297255516052246,2.1917150020599365
1790266299995566600,10.542566650390626,-4.815304756164551,-8.269266128540039,2.1453325748443604
1790266300005566500,10.55256640625,-4.92311954498291,-8.21994400024414,2.0894482135772705
1790266300015566600,10.562566650390625,-5.061280250549316,-8.146608352661133,2.0461180210113525
1790266300025566500,10.57256640625,-5.216620922088623,-8.051640510559082,2.031832456588745
1790266300035566600,10.582566650390625,-5.376739978790283,-7.940675258636475,2.051032304763794
1790266300045566500,10.59256640625,-5.5409722328186035,-7.814964771270752,2.0962700843811035
1790266300055566600,10.602566650390624,-5.722668647766113,-7.666104793548584,2.156916379928589
1790266300065566500,10.61256640625,-5.932643890380859,-7.482654571533203,2.2324883937835693
1790266300075566600,10.622566650390626,-6.137392044067383,-7.283740043640137,2.3345110416412354
1790266300085566500,10.63256640625,-6.284234046936035,-7.120335102081299,2.445326089859009
1790266300095566600,10.642566650390625,-6.3558878898620605,-7.025681495666504,2.5323681831359863
1790266300105566500,10.65256640625,-6.378426551818848,-6.995516777038574,2.5590648651123047
1790266300115566600,10.662566650390625,-6.403418064117432,-6.988731861114502,2.51480770111084
1790266300125566500,10.67256640625,-6.472810745239258,-6.946589469909668,2.4531612396240234
1790266300135566600,10.682566650390624,-6.593209266662598,-6.836678981781006,2.4412689208984375
1790266300145566500,10.69256640625,-6.726213455200195,-6.677582740783691,2.517606019973755
1790266300155566600,10.702566650390626,-6.832808494567871,-6.508762836456299,2.668165922164917
1790266300165566500,10.71256640625,-6.917239665985107,-6.342976093292236,2.844085216522217
1790266300175566600,10.722566650390625,-7.0054216384887695,-6.180148124694824,2.9833245277404785
1790266300185566500,10.73256640625,-7.120785236358643,-6.020379066467285,3.036419630050659
1790266300195566600,10.742566650390625,-7.264207363128662,-5.86715030670166,2.9963672161102295
1790266300205566500,10.75256640625,-7.417120933532715,-5.722599983215332,2.8997504711151123
1790266300215566600,10.762566650390625,-7.565971851348877,-5.578925132751465,2.79321551322937
1790266300225566500,10.77256640625,-7.712958812713623,-5.423774719238281,2.6950554847717285
1790266300235566600,10.782566650390624,-7.860442161560059,-5.248630046844482,2.61452054977417
1790266300245566500,10.79256640625,-8.007902145385742,-5.051530838012695,2.5545897483825684
1790266300255566600,10.802566650390625,-8.153730392456055,-4.836627960205078,2.5088050365448
1790266300265566500,10.81256640625,-8.29762077331543,-4.6090922355651855,2.4649815559387207
1790266300275566600,10.822566650390625,-8.43724536895752,-4.378673076629639,2.410496950149536
1790266300285566500,10.83256640625,-8.569153785705566,-4.154938697814941,2.3401849269866943
1790266300295566600,10.842566650390625,-8.691105842590332,-3.941721200942993,2.257852554321289
1790266300305566500,10.85256640625,-8.80122184753418,-3.740902900695801,2.1712987422943115
1790266300315566600,10.862566650390624,-8.899849891662598,-3.548227071762085,2.0912022590637207
1790266300325566500,10.87256640625,-8.988570213317871,-3.3553388118743896,2.029207706451416
1790266300335566600,10.882566650390626,-9.069304466247559,-3.1563568115234375,1.988850474357605
1790266300345566500,10.89256640625,-9.14345932006836,-2.9495301246643066,1.9666770696640015
1790266300355566600,10.902566650390625,-9.211308479309082,-2.7386672496795654,1.9549652338027954
1790266300365566500,10.91256640625,-9.272807121276855,-2.530851125717163,1.9442787170410156
1790266300375566600,10.922566650390625,-9.328340530395508,-2.331561803817749,1.9277596473693848
1790266300385566500,10.93256640625,-9.378483772277832,-2.1353259086608887,1.9117562770843506
1790266300395566600,10.942566650390624,-9.423408508300781,-1.9351170063018799,1.9039669036865234
1790266300405566500,10.95256640625,-9.46273422241211,-1.736403226852417,1.9005120992660522
1790266300415566600,10.962566650390626,-9.497560501098633,-1.5523974895477295,1.88594651222229
1790266300425566500,10.97256640625,-9.529158592224121,-1.3902593851089478,1.8527545928955078
1790266300435566600,10.982566650390625,-9.5567045211792,-1.2479207515716553,1.8117576837539673
1790266300445566500,10.99256640625,-9.578460693359375,-1.122041940689087,1.7789069414138794
1790266300455566600,11.002566650390625,-9.59433650970459,-1.0109119415283203,1.7598779201507568
1790266300465566500,11.01256640625,-9.606280326843262,-0.9155058264732361,1.7468881607055664
1790266300475566600,11.022566650390624,-9.615854263305664,-0.8373967409133911,1.733349323272705
1790266300485566500,11.03256640625,-9.624486923217773,-0.7797959446907043,1.7121814489364624
1790266300495566600,11.042566650390626,-9.631532669067383,-0.7418668866157532,1.6892595291137695
1790266300505566500,11.05256640625,-9.63638687133789,-0.7165256142616272,1.6724311113357544
1790266300515566600,11.062566650390625,-9.638824462890625,-0.7006375789642334,1.6651030778884888
1790266300525566500,11.07256640625,-9.63904857635498,-0.6944581866264343,1.6663904190063477
1790266300535566600,11.082566650390625,-9.638401985168457,-0.6999167799949646,1.6678500175476074
1790266300545566500,11.09256640625,-9.637251853942871,-0.7197666168212891,1.666037917137146
1790266300555566600,11.102566650390624,-9.635897636413574,-0.7547917366027832,1.658359408378601
1790266300565566500,11.11256640625,-9.633111000061035,-0.8046185374259949,1.6511023044586182
1790266300575566600,11.122566650390626,-9.627439498901367,-0.8712156414985657,1.6503840684890747
1790266300585566500,11.13256640625,-9.617852210998535,-0.9588813185691833,1.6576687097549438
1790266300595566600,11.142566650390625,-9.6027250289917,-1.0704951286315918,1.6769294738769531
1790266300605566500,11.15256640625,-9.580049514770508,-1.2028107643127441,1.7164757251739502
1790266300615566600,11.162566650390625,-9.5501070022583,-1.3407474756240845,1.7799558639526367
1790266300625566500,11.17256640625,-9.5157470703125,-1.4746583700180054,1.8564331531524658
1790266300635566600,11.182566650390624,-9.477947235107422,-1.615896463394165,1.9307425022125244
1790266300645566500,11.19256640625,-9.43620491027832,-1.7833137512207031,1.9870139360427856
1790266300655566600,11.202566650390626,-9.389947891235352,-1.987657070159912,2.0120859146118164
1790266300665566500,11.21256640625,-9.336398124694824,-2.22438907623291,2.0134942531585693
1790266300675566600,11.222566650390625,-9.272099494934082,-2.4759089946746826,2.01703143119812
1790266300685566500,11.23256640625,-9.196971893310547,-2.7127537727355957,2.0559823513031006
1790266300695566600,11.242566650390625,-9.115118980407715,-2.915349006652832,2.1414318084716797
1790266300705566500,11.25256640625,-9.0291748046875,-3.096095085144043,2.249130964279175
1790266300715566600,11.262566650390625,-8.941060066223145,-3.289262294769287,2.3256330490112305
1790266300725566500,11.27256640625,-8.847384452819824,-3.5140836238861084,2.354863405227661
1790266300735566600,11.282566650390624,-8.741959571838379,-3.767220973968506,2.3572373390197754
1790266300745566500,11.29256640625,-8.624717712402344,-4.024199485778809,2.364412307739258
1790266300755566600,11.302566650390625,-8.50260066986084,-4.258185863494873,2.396670341491699
1790266300765566500,11.31256640625,-8.3823823928833,-4.456936836242676,2.4579997062683105
1790266300775566600,11.322566650390625,-8.263279914855957,-4.62883186340332,2.542147397994995
1790266300785566500,11.33256640625,-8.13764476776123,-4.80072546005249,2.627200126647949
1790266300795566600,11.342566650390625,-8.000946998596191,-4.988436698913574,2.6964333057403564
1790266300805566500,11.35256640625,-7.854432106018066,-5.189009666442871,2.7481751441955566
1790266300815566600,11.362566650390624,-7.703924179077148,-5.39141321182251,2.7843501567840576
1790266300825566500,11.37256640625,-7.555527210235596,-5.583775043487549,2.811737060546875
1790266300835566600,11.382566650390626,-7.41142463684082,-5.761875152587891,2.835833787918091
1790266300845566500,11.39256640625,-7.260067462921143,-5.944115161895752,2.8511929512023926
1790266300855566600,11.402566650390625,-7.093835353851318,-6.140885353088379,2.8526177406311035
1790266300865566500,11.41256640625,-6.9157257080078125,-6.34698486328125,2.8388240337371826
1790266300875566600,11.422566650390625,-6.73570442199707,-6.551063060760498,2.807889938354492
1790266300885566500,11.43256640625,-6.5667948722839355,-6.739040374755859,2.7627763748168945
1790266300895566600,11.442566650390624,-6.41089391708374,-6.906728267669678,2.7143919467926025
1790266300905566500,11.45256640625,-6.2634358406066895,-7.059726715087891,2.66458797454834
1790266300915566600,11.462566650390626,-6.116759777069092,-7.206305027008057,2.612431526184082
1790266300925566500,11.47256640625,-5.9690985679626465,-7.34892463684082,2.556084156036377
1790266300935566600,11.482566650390625,-5.824978828430176,-7.484114170074463,2.4956071376800537
1790266300945566500,11.49256640625,-5.693835258483887,-7.604115962982178,2.4347589015960693
1790266300955566600,11.502566650390625,-5.583486557006836,-7.703125,2.3784310817718506
1790266300965566500,11.51256640625,-5.486353397369385,-7.787785530090332,2.3282418251037598
1790266300975566600,11.522566650390624,-5.388029098510742,-7.870392799377441,2.279573440551758
1790266300985566500,11.53256640625,-5.286829471588135,-7.954292297363281,2.2246484756469727
1790266300995566600,11.542566650390626,-5.183780193328857,-8.038956642150879,2.1619369983673096
1790266301005566500,11.55256640625,-5.083227157592773,-8.119429588317871,2.099057912826538
1790266301015566600,11.562566650390625,-4.996553897857666,-8.187915802001953,2.0403077602386475
1790266301025566500,11.57256640625,-4.931023597717285,-8.239790916442871,1.9902876615524292
1790266301035566600,11.582566650390625,-4.886385440826416,-8.274346351623535,1.956735372543335
1790266301045566500,11.59256640625,-4.862659931182861,-8.291600227355957,1.9427508115768433
1790266301055566600,11.602566650390624,-4.853761196136475,-8.296141624450684,1.9456127882003784
1790266301065566500,11.61256640625,-4.85558557510376,-8.291701316833496,1.9599418640136719
1790266301075566600,11.622566650390626,-4.866476535797119,-8.28106689453125,1.977805495262146
1790266301085566500,11.63256640625,-4.882462978363037,-8.267900466918945,1.993425726890564
1790266301095566600,11.642566650390625,-4.900469779968262,-8.254243850708008,2.0058019161224365
1790266301105566500,11.65256640625,-4.920334339141846,-8.239537239074707,2.017604112625122
1790266301115566600,11.662566650390625,-4.946274280548096,-8.221589088439941,2.027371644973755
1790266301125566500,11.67256640625,-4.983969211578369,-8.19841480255127,2.028898239135742
1790266301135566600,11.682566650390624,-5.037167072296143,-8.167476654052734,2.0222883224487305
1790266301145566500,11.69256640625,-5.109206199645996,-8.12467098236084,2.01397967338562
1790266301155566600,11.702566650390626,-5.193552494049072,-8.070380210876465,2.0165226459503174
1790266301165566500,11.71256640625,-5.274681091308594,-8.011780738830566,2.0394880771636963
1790266301175566600,11.722566650390625,-5.343078136444092,-7.95614767074585,2.078850030899048
1790266301185566500,11.73256640625,-5.399905681610107,-7.905974388122559,2.1229641437530518
1790266301195566600,11.742566650390625,-5.454438209533691,-7.8580803871154785,2.1610350608825684
1790266301205566500,11.75256640625,-5.518157005310059,-7.8043999671936035,2.1935534477233887
1790266301215566600,11.762566650390625,-5.598771572113037,-7.736995697021484,2.227787971496582
1790266301225566500,11.77256640625,-5.696026802062988,-7.654212474822998,2.2668709754943848
1790266301235566600,11.782566650390624,-5.804818630218506,-7.560018062591553,2.3066399097442627
1790266301245566500,11.79256640625,-5.921964645385742,-7.458858489990234,2.3379790782928467
1790266301255566600,11.802566650390625,-6.04911994934082,-7.350127696990967,2.3567235469818115
1790266301265566500,11.81256640625,-6.184149742126465,-7.232853412628174,2.3690755367279053
1790266301275566600,11.822566650390625,-6.31707239151001,-7.110781192779541,2.3878402709960938
1790266301285566500,11.83256640625,-6.441234111785889,-6.986611843109131,2.4224255084991455
1790266301295566600,11.842566650390625,-6.555678367614746,-6.862064361572266,2.470940351486206
1790266301305566500,11.85256640625,-6.663137912750244,-6.737934589385986,2.5245206356048584
1790266301315566600,11.862566650390624,-6.770870208740234,-6.611465930938721,2.5718116760253906
1790266301325566500,11.87256640625,-6.886516094207764,-6.477483749389648,2.6054739952087402
1790266301335566600,11.882566650390626,-7.008763790130615,-6.338356971740723,2.621610164642334
1790266301345566500,11.89256640625,-7.127447605133057,-6.20441198348999,2.6220521926879883
1790266301355566600,11.902566650390625,-7.236601829528809,-6.078406810760498,2.618196725845337
1790266301365566500,11.91256640625,-7.339498043060303,-5.955820560455322,2.613496780395508
1790266301375566600,11.922566650390625,-7.441197395324707,-5.834970951080322,2.5984745025634766
1790266301385566500,11.93256640625,-7.543688774108887,-5.714178562164307,2.5712478160858154
1790266301395566600,11.942566650390624,-7.651551723480225,-5.585803508758545,2.5343549251556396
1790266301405566500,11.95256640625,-7.775180816650391,-5.433130264282227,2.489588499069214
1790266301415566600,11.962566650390626,-7.9297919273376465,-5.225688934326172,2.445599317550659
1790266301425566500,11.97256640625,-8.113299369812012,-4.946971416473389,2.4232699871063232
1790266301435566600,11.982566650390625,-8.286338806152344,-4.642731189727783,2.4396767616271973
1790266301445566500,11.99256640625,-8.41484260559082,-4.388082504272461,2.4709396362304688
1790266301455566600,12.002566650390625,-8.501359939575195,-4.21882963180542,2.469562530517578
1790266301465566500,12.01256640625,-8.56950855255127,-4.115965843200684,2.406808853149414
1790266301475566600,12.022566650390624,-8.647930145263672,-4.010974884033203,2.3012545108795166
1790266301485566500,12.03256640625,-8.75031852722168,-3.849165201187134,2.187748432159424
1790266301495566600,12.042566650390626,-8.864814758300781,-3.631617784500122,2.0968539714813232
1790266301505566500,12.05256640625,-8.969715118408203,-3.400689125061035,2.037132978439331
1790266301515566600,12.062566650390625,-9.059165000915527,-3.187837600708008,1.9848459959030151
1790266301525566500,12.07256640625,-9.14063835144043,-2.9974265098571777,1.906451940536499
1790266301535566600,12.082566650390625,-9.219603538513184,-2.8186044692993164,1.7957655191421509
1790266301545566500,12.09256640625,-9.293678283691406,-2.6400837898254395,1.6816368103027344
1790266301555566600,12.102566650390624,-9.359058380126953,-2.4547836780548096,1.5976369380950928
1790266301565566500,12.11256640625,-9.414134979248047,-2.26515531539917,1.553551435470581
1790266301575566600,12.122566650390626,-9.460113525390625,-2.0779032707214355,1.5358835458755493
1790266301585566500,12.13256640625,-9.498567581176758,-1.903183937072754,1.5249533653259277
1790266301595566600,12.142566650390625,-9.531295776367188,-1.748353362083435,1.5060023069381714
1790266301605566500,12.15256640625,-9.56132698059082,-1.605583906173706,1.4742827415466309
1790266301615566600,12.162566650390625,-9.587708473205566,-1.4617329835891724,1.4524306058883667
1790266301625566500,12.17256640625,-9.607569694519043,-1.3194650411605835,1.4573965072631836
1790266301635566600,12.182566650390624,-9.621111869812012,-1.197715163230896,1.4731147289276123
1790266301645566500,12.19256640625,-9.633722305297852,-1.1016124486923218,1.4656870365142822
1790266301655566600,12.202566650390626,-9.649249076843262,-1.0186824798583984,1.4229098558425903
1790266301665566500,12.21256640625,-9.660762786865234,-0.9336410164833069,1.4029862880706787
1790266301675566600,12.222566650390625,-9.65915584564209,-0.8367972373962402,1.4733879566192627
1790266301685566500,12.23256640625,-9.645648956298828,-0.7306085228919983,1.6118500232696533
1790266301695566600,12.242566650390625,-9.627824783325195,-0.6302496194839478,1.7544729709625244
1790266301705566500,12.25256640625,-9.608269691467285,-0.5616299510002136,1.8804537057876587
1790266301715566600,12.262566650390625,-9.590924263000488,-0.5343932509422302,1.974586009979248
1790266301725566500,12.27256640625,-9.579656600952148,-0.5331968069076538,2.028860330581665
1790266301735566600,12.282566650390624,-9.569873809814453,-0.5538809895515442,2.069082021713257
1790266301745566500,12.29256640625,-9.559877395629883,-0.6031805872917175,2.101261615753174
1790266301755566600,12.302566650390625,-9.555152893066406,-0.6655263304710388,2.1039273738861084
1790266301765566500,12.31256640625,-9.552412986755371,-0.7301008105278015,2.0949339866638184
1790266301775566600,12.322566650390625,-9.546513557434082,-0.8085388541221619,2.093021869659424
1790266301785566500,12.33256640625,-9.536611557006836,-0.9173935055732727,2.0932796001434326
1790266301795566600,12.342566650390625,-9.521403312683105,-1.0590670108795166,2.0956225395202637
1790266301805566500,12.35256640625,-9.499424934387207,-1.2341485023498535,2.099567413330078
1790266301815566600,12.362566650390624,-9.46852970123291,-1.4345725774765015,2.1117148399353027
1790266301825566500,12.37256640625,-9.428689002990723,-1.649113655090332,2.13322377204895
1790266301835566600,12.382566650390626,-9.38261604309082,-1.867048740386963,2.1566243171691895
1790266301845566500,12.39256640625,-9.332962036132812,-2.075956106185913,2.1809680461883545
1790266301855566600,12.402566650390625,-9.278120994567871,-2.273049831390381,2.2181296348571777
1790266301865566500,12.41256640625,-9.214414596557617,-2.4647092819213867,2.278193950653076
1790266301875566600,12.422566650390625,-9.138521194458008,-2.6593337059020996,2.3634233474731445
1790266301885566500,12.43256640625,-9.049118041992188,-2.8638908863067627,2.4661662578582764
1790266301895566600,12.442566650390624,-8.947300910949707,-3.0786004066467285,2.5765113830566406
1790266301905566500,12.45256640625,-8.832978248596191,-3.300886869430542,2.693143129348755
1790266301915566600,12.462566650390626,-8.704394340515137,-3.5364129543304443,2.810279130935669
1790266301925566500,12.47256640625,-8.563669204711914,-3.7874720096588135,2.913590431213379
1790266301935566600,12.482566650390625,-8.416061401367188,-4.045763969421387,2.9953436851501465
1790266301945566500,12.49256640625,-8.265128135681152,-4.300710678100586,3.0597267150878906
1790266301955566600,12.502566650390625,-8.11188793182373,-4.543818950653076,3.1179115772247314
1790266301965566500,12.51256640625,-7.95477294921875,-4.767429351806641,3.1880390644073486
1790266301975566600,12.522566650390624,-7.793107986450195,-4.964081287384033,3.285689353942871
1790266301985566500,12.53256640625,-7.625999927520752,-5.136551856994629,3.4103310108184814
1790266301995566600,12.542566650390626,-7.449437618255615,-5.304865837097168,3.540433406829834
1790266302005566500,12.55256640625,-7.262260437011719,-5.490813255310059,3.6443004608154297
1790266302015566600,12.562566650390625,-7.076157093048096,-5.6919426918029785,3.7013747692108154
1790266302025566500,12.57256640625,-6.898458480834961,-5.898653984069824,3.7131569385528564
1790266302035566600,12.582566650390625,-6.728014945983887,-6.105615139007568,3.6912953853607178
1790266302045566500,12.59256640625,-6.567490100860596,-6.3048200607299805,3.6452319622039795
1790266302055566600,12.602566650390624,-6.418082237243652,-6.493549346923828,3.579444169998169
1790266302065566500,12.61256640625,-6.2736592292785645,-6.676915645599365,3.497197151184082
1790266302075566600,12.622566650390626,-6.1261186599731445,-6.859692573547363,3.4037742614746094
1790266302085566500,12.63256640625,-5.970828533172607,-7.043153762817383,3.303572177886963
1790266302095566600,12.642566650390625,-5.81795597076416,-7.216940879821777,3.1996161937713623
1790266302105566500,12.65256640625,-5.683220386505127,-7.369272232055664,3.092768907546997
1790266302115566600,12.662566650390625,-5.565465927124023,-7.500759601593018,2.9890778064727783
1790266302125566500,12.67256640625,-5.455425262451172,-7.617644786834717,2.894860029220581
1790266302135566600,12.682566650390624,-5.347110271453857,-7.725122928619385,2.8109219074249268
1790266302145566500,12.69256640625,-5.234324932098389,-7.826445579528809,2.7420742511749268
1790266302155566600,12.702566650390626,-5.116749286651611,-7.921568870544434,2.69035267829895
1790266302165566500,12.71256640625,-4.999241828918457,-8.01071548461914,2.6469602584838867
1790266302175566600,12.722566650390625,-4.889835834503174,-8.091902732849121,2.604034900665283
1790266302185566500,12.73256640625,-4.796011924743652,-8.16138744354248,2.5613303184509277
1790266302195566600,12.742566650390625,-4.715339183807373,-8.220112800598145,2.523036241531372
1790266302205566500,12.75256640625,-4.640196323394775,-8.271849632263184,2.493082284927368
1790266302215566600,12.762566650390625,-4.573043346405029,-8.316754341125488,2.4676434993743896
1790266302225566500,12.77256640625,-4.5187859535217285,-8.353203773498535,2.4443697929382324
1790266302235566600,12.782566650390624,-4.484785556793213,-8.376724243164062,2.4264326095581055
1790266302245566500,12.79256640625,-4.476665496826172,-8.38375473022461,2.417126178741455
1790266302255566600,12.802566650390625,-4.490629196166992,-8.375874519348145,2.4185452461242676
1790266302265566500,12.81256640625,-4.5222978591918945,-8.35623550415039,2.4274559020996094
1790266302275566600,12.822566650390625,-4.570338726043701,-8.326558113098145,2.439429998397827
1790266302285566500,12.83256640625,-4.6319260597229,-8.288695335388184,2.452176570892334
1790266302295566600,12.842566650390625,-4.70351505279541,-8.244427680969238,2.465106964111328
1790266302305566500,12.85256640625,-4.779155254364014,-8.196600914001465,2.479074478149414
1790266302315566600,12.862566650390624,-4.85402774810791,-8.147658348083496,2.494889497756958
1790266302325566500,12.87256640625,-4.927457809448242,-8.098128318786621,2.5121421813964844
1790266302335566600,12.882566650390626,-4.997579097747803,-8.048782348632812,2.5321314334869385
1790266302345566500,12.89256640625,-5.062709331512451,-7.999948501586914,2.5573794841766357
1790266302355566600,12.902566650390625,-5.123229503631592,-7.951138973236084,2.5888795852661133
1790266302365566500,12.91256640625,-5.1781721115112305,-7.903365612030029,2.625593423843384
1790266302375566600,12.922566650390625,-5.227889537811279,-7.858076095581055,2.66274356842041
1790266302385566500,12.93256640625,-5.273972988128662,-7.815810203552246,2.6960537433624268
