time,seconds_elapsed,z,y,x
1790107335147901000,0.06190087890625,-0.3601099077105522,1.2662258042305707,0.12079948567971587
1790107335157846300,0.07184619140625,1.0399363379448652,1.3079729421138762,0.2690560834098607
1790107335167790000,0.0817900390625,2.2767513387739657,2.220472402191162,0.04260521601736545
1790107335177735200,0.091735107421875,3.281780029466748,4.301707598605752,-0.8177341409727931
1790107335187680300,0.10168017578125,2.369894317373633,4.054102957090735,-0.30261794207617637
1790107335197625000,0.111625,1.5787983002185821,3.195542007949948,-0.17536621151715517
1790107335207569200,0.121569091796875,1.8129028241693972,3.734534318605065,-1.0910200439721345
1790107335217514200,0.13151416015625,1.9515145915240049,3.8083582642287013,-1.911139764907211
1790107335227459000,0.141458984375,1.2231143922567367,3.697005090677738,-2.015666745699942
1790107335237403100,0.151403076171875,1.3200707916647194,4.4423289522171014,-2.1307560370393097
1790107335247348000,0.161347900390625,1.5588719489991665,5.0346892804443835,-2.370897210805863
1790107335257293300,0.171293212890625,2.1587328621149062,5.787270565766096,-1.5801657891795038
1790107335267237000,0.181237060546875,3.352390858262777,6.393717287012934,-0.6008890871196985
1790107335277182200,0.19118212890625,4.604778691276907,7.061046639245748,0.1133332414522767
1790107335287127300,0.201127197265625,5.483180066919326,8.041319658866524,1.0416112854197621
1790107335297071000,0.211071044921875,6.59057549163103,9.464503619003295,1.6807418403893708
1790107335307016200,0.22101611328125,6.468932394734025,10.439458073949814,2.998791939881444
1790107335316961000,0.2309609375,5.233325016129016,10.642066220396757,7.156990062218904
1790107335326905300,0.2409052734375,4.28300465170145,13.000928856146334,8.415172845247387
1790107335336850200,0.25085009765625,3.330741921034455,15.384741224235295,6.64052171806097
1790107335346795000,0.260794921875,2.5796713325366376,14.140387644594908,3.6796763547360896
1790107335356740400,0.270740234375,3.6490439005851742,12.641183690094946,-0.9023954146921634
1790107335366684200,0.28068408203125,3.7392458572968836,11.487103671097755,-3.580459609180689
1790107335376629000,0.29062890625,2.4526141016364096,10.766050327461958,-4.368201055210829
1790107335386574300,0.30057421875,1.6886190035052597,9.598208909615874,-4.845387190294265
1790107335396518100,0.31051806640625,0.7574784097135067,8.731046136346459,-4.979019415670633
1790107335406463200,0.320463134765625,-0.82888784154132,8.125524128729104,-4.459053292524814
1790107335416408000,0.330407958984375,-2.69967104614079,7.5388313247442245,-3.734061440396309
1790107335426352400,0.340352294921875,-4.28843193744719,6.675931469616294,-4.212988281667232
1790107335436297200,0.350297119140625,-5.045581261336803,4.041791757050157,-7.17443628706038
1790107335446242000,0.360241943359375,-4.7938960725098845,0.7615225705377757,-12.248709974396228
1790107335456186000,0.37018603515625,-5.161256389740109,-1.10621425210312,-14.390360768806934
1790107335466131200,0.380131103515625,-6.377203959107399,-3.417586384011805,-13.8658727843225
1790107335476076000,0.390075927734375,-3.906765446966886,-5.9021121659547084,-14.301660741090775
1790107335486021400,0.400021484375,-1.755738921445608,-6.717966192269325,-13.816418725323675
1790107335495965200,0.409965087890625,-0.4603396297007799,-8.138556044259667,-12.905081294763088
1790107335505910300,0.41991015625,-2.6804619032800194,-7.551311451610922,-9.81496657744646
1790107335515855000,0.429855224609375,-3.5130309175521135,-6.765200821653008,-7.073029922506213
1790107335525799200,0.439799072265625,-4.364793292593956,-6.278778071668744,-4.879437928456068
1790107335535744300,0.449744140625,-4.373303931307793,-5.576292065858841,-2.818945660340786
1790107335545689000,0.459689208984375,-3.569670504140854,-5.4884512853205205,-1.64754625775218
1790107335555633200,0.469633056640625,-2.3720851054161787,-5.853669329825044,-1.265413903325796
1790107335565578200,0.479578125,-1.4012848475396633,-6.5228212213099,-2.1932290059566495
1790107335575523000,0.489523193359375,-1.972290253049135,-6.914095498090982,-2.814053796645999
1790107335585467100,0.499467041015625,-4.44859911852777,-6.508161412316561,-2.990557195499539
1790107335595412200,0.509412109375,-4.035644924858212,-7.266765611189603,-4.031429937511683
1790107335605357000,0.519357177734375,-0.054553427964448925,-8.09890091021955,-4.97229156872034
1790107335615302100,0.52930224609375,4.472362855952978,-9.538955341136456,-5.631653303074836
1790107335625246000,0.539245849609375,4.353609635278582,-9.282288272243738,-5.486563864138722
1790107335635191300,0.54919140625,3.4453760159522293,-9.569768997073172,-7.156421322420239
1790107335645136100,0.55913623046875,3.950183148410916,-10.18172132999897,-8.811082380613684
1790107335655080200,0.569080078125,6.888819602537155,-11.02477725149393,-10.655830541855096
1790107335665025300,0.579025390625,9.76537574032545,-11.4009311160326,-11.89070200740099
1790107335674970000,0.58897021484375,9.61938204602599,-9.974579631775617,-9.826483996760844
1790107335684914200,0.5989140625,9.347311656296252,-8.395576748895644,-7.747320930445194
1790107335694859300,0.608859375,8.012244371029734,-6.269341550281643,-4.836398997196555
1790107335704804000,0.61880419921875,7.539590034157038,-5.078313902637362,-2.5492665496617555
1790107335714748200,0.628748046875,6.901328955498338,-2.934113423743844,-1.0260065967917442
1790107335724693000,0.63869287109375,6.4608642390906805,-2.6429326753526925,0.4617033192694187
1790107335734638300,0.648638427734375,3.8896892244815824,-2.702500424347818,-0.1609545320659876
1790107335744582100,0.65858203125,0.6573907265424728,-3.7939299259036776,-2.0529075120747087
1790107335754527000,0.66852685546875,-1.6247440588355064,-2.206201592515409,-0.003800561326742172
1790107335764472300,0.678472412109375,-1.9561412284113466,-0.878458951048553,5.52895806775391
1790107335774416100,0.688416015625,-2.1832430339932443,-0.8028073516063392,7.205349896240234
1790107335784361200,0.698361328125,-5.948950489497184,-8.807894398227333,-0.7192775661349297
1790107335794306300,0.708306396484375,-3.6232317061975596,0.5771479999177157,0.8114765418827533
1790107335804251100,0.718251220703125,-2.6963819414675236,-2.4303208751551804,5.721228944581747
1790107335814195200,0.7281953125,-3.069626056039333,-1.8943365141443906,3.6987399516463277
1790107335824140000,0.73814013671875,-1.7546856130003927,0.5569051300950348,3.734903736439347
1790107335834085000,0.748085205078125,-0.05346738629341125,1.6823256024494766,4.451062878292799
1790107335844029200,0.758029296875,3.824491652905941,6.146074067053198,4.724743625828624
1790107335853974000,0.76797412109375,-4.529641324967145,6.144494104385376,3.8301784663707017
1790107335863919400,0.77791943359375,-2.1785142519056797,12.845523190379142,5.278229741260409
1790107335873863200,0.78786328125,0.585488688892126,15.913933440887927,1.5884131007820368
1790107335883808300,0.797808349609375,-1.0213048488415777,14.066955328637361,6.528047431525588
1790107335893753000,0.807753173828125,1.7332327828660605,16.607639343392847,-1.7524083157181738
1790107335903697200,0.817697265625,2.1536185878410934,13.779835838335751,-3.8180654192507264
1790107335913642200,0.827642333984375,3.757677293783426,10.789857904028892,-7.914030080515146
1790107335923587000,0.837587158203125,2.4814824687242507,4.6224739224433895,-12.657618107545375
1790107335933532200,0.8475322265625,1.9161863807722925,2.4477035332411528,-9.004745588582754
1790107335943476200,0.857476318359375,1.2426980675183237,3.4948148773819208,-1.3712199641436338
1790107335953421000,0.867421142578125,-2.5171920800089835,1.5303044645540416,0.20946108108162878
1790107335963366100,0.8773662109375,-0.6896794234678149,2.410614304166287,0.05418517917394638
1790107335973310200,0.887310302734375,1.4609185013778507,3.0459710396856066,-2.048964327406883
1790107335983255000,0.897255126953125,2.00950193945989,2.2773731239341197,-0.2509136199325323
1790107335993200000,0.9072001953125,1.7429218177095054,1.3053851175777613,-0.04781155248880386
1790107336003144200,0.917144287109375,2.179211294259131,0.29099662399590015,-0.21409575514495371
1790107336013089300,0.92708935546875,2.397048135628551,-0.2156646118968725,0.3896107274830341
1790107336023034000,0.9370341796875,0.9211012842059135,-1.0466887348145246,0.6612497400581836
1790107336032978200,0.946978271484375,-1.1578221281349659,-1.6695964692577718,0.8213988009601831
1790107336042923300,0.95692333984375,-1.264542965710163,-1.7739204748243091,0.3834469441562891
1790107336052868000,0.9668681640625,-1.3186616555191575,-2.322422956624627,0.10964636963307857
1790107336062813200,0.976813232421875,-0.2586674489296973,-2.1554922727584835,0.31322073076367374
1790107336072757200,0.98675732421875,0.8602149999581277,-0.9801493932411074,1.3544313264280556
1790107336082702000,0.9967021484375,0.5552338358819484,-0.7949781192854046,2.416771803882718
1790107336092647200,1.006647216796875,0.8683692264497279,-0.8113304114103317,3.2306027999371287
1790107336102591200,1.01659130859375,1.8824600522592663,-1.1915607316076755,3.5784114444792268
1790107336112536000,1.0265361328125,2.133846550400555,-0.815186794577539,3.6933787168741223
1790107336122481200,1.036481201171875,1.9831544691517948,-0.141412211728096,3.822792447772622
1790107336132425000,1.046425048828125,1.8030745269857347,0.028878596220910546,4.10360962305963
1790107336142370300,1.056370361328125,1.6756772504761814,-0.6007616613477468,3.5262738454848526
1790107336152314400,1.066314453125,2.143677770193666,-1.1491057377159595,2.8203800770580765
1790107336162258400,1.076258544921875,2.0852198821365833,-1.2377052276670932,2.5799697309613228
1790107336172203500,1.08620361328125,1.4821930523358284,-0.9465326625823974,1.2630255468845366
1790107336182148400,1.0961484375,1.169540769109875,0.022590017470717427,-2.0705992361098526
1790107336192092400,1.106092529296875,0.41737800146117804,0.4056657902270555,-5.854297690856456
1790107336202037500,1.11603759765625,-1.3993724380470811,-1.4494541274249553,-10.15350295125246
1790107336211982600,1.125982666015625,-2.4763819307148456,-1.40048872872591,-12.653572047024964
1790107336221927400,1.135927490234375,0.6210897252358496,1.9593202968388794,-6.954860054677725
1790107336231871500,1.14587158203125,2.887133645904064,3.6015859838396307,-0.48988195052742955
1790107336241816600,1.155816650390625,1.4721708400152622,0.13759645283222197,0.2554226217895746
1790107336251761400,1.165761474609375,-0.3097206136882305,-3.158296273139119,-0.7960831579178571
1790107336261705500,1.17570556640625,0.39691155201569195,-2.7128175279617306,-0.6856091052889823
1790107336271650600,1.185650634765625,1.708099218392372,-1.7257973721683024,-0.14207739763855934
1790107336281595400,1.195595458984375,2.581931386423111,-1.4364233809381723,-0.28002573264837266
1790107336291539500,1.20553955078125,3.1138240942060946,-2.1324773078739643,-0.44251697276234625
1790107336301484300,1.215484375,2.430430326879024,-2.3539941529303787,-1.607829164391756
1790107336311429400,1.225429443359375,2.687233004850149,-1.0559797102510928,-2.212635132694244
1790107336321373400,1.23537353515625,1.8388263699769973,-0.40979952903091904,-1.0463818608224391
1790107336331318300,1.245318359375,0.8717325654029846,1.2627654346436261,0.11385960341393947
1790107336341263600,1.255263671875,0.20834113714098929,2.7813609028339386,0.05254384170770645
1790107336351208400,1.26520849609375,-1.1698923590265213,3.9395933653354644,0.27734628430604935
1790107336361152500,1.275152587890625,-1.380874512195587,5.999103052154183,1.9764181466341018
1790107336371097600,1.28509765625,0.21107202340960501,9.177308140856027,3.7170208737462755
1790107336381042400,1.29504248046875,0.08265037228837609,8.226045527142286,3.9524353112518784
1790107336390986500,1.304986572265625,0.28164602732658384,3.142154116633534,3.131529262244701
1790107336400931300,1.314931396484375,0.3329951062917709,1.1999936289101838,2.0437726039826867
1790107336410876400,1.32487646484375,0.7767755231186747,1.5810285434886813,0.04626958374381065
1790107336420820500,1.334820556640625,1.174901857751608,2.4249060104995963,-1.4908189879924059
1790107336430765300,1.344765380859375,0.14485270757079124,3.026069530646503,-2.6526176185429096
1790107336440710700,1.354710693359375,0.002140519160032272,2.4830256065130234,-2.4016420392900706
1790107336450654500,1.364654541015625,1.1239008615717292,1.0583177978098393,0.383758494323492
1790107336460599300,1.374599365234375,1.0447811476275324,-0.29734365493506193,1.8313526730954646
1790107336470544600,1.384544677734375,-0.019637012884020803,-1.534174437855184,2.363915827485919
1790107336480488400,1.394488525390625,-0.0825417973473668,-2.1161156633988023,2.1597359016776085
1790107336490433500,1.40443359375,0.8947638969004154,-2.295518875347078,1.0792962884306907
1790107336500378400,1.41437841796875,1.2792813928976654,-2.171901555767655,0.23322423398494718
1790107336510323500,1.424323486328125,0.9388751335665583,-1.4894094134554265,0.7941057203650475
1790107336520267500,1.434267578125,0.5149377735897899,-1.4525629070952535,1.5482769052267074
1790107336530212400,1.44421240234375,0.06781038442254066,-2.0547595696821808,2.1162439659535885
1790107336540157400,1.454157470703125,-0.059926060913503165,-1.9093582883179188,2.5263012691378592
1790107336550101500,1.4641015625,0.03122778969556093,-0.7652575192824006,2.8053368217051027
1790107336560046300,1.47404638671875,0.6488090684190392,-0.41909225803315636,2.5932331171602008
1790107336569991400,1.483991455078125,0.4391229464098811,-0.4803828852981329,2.619033913370967
1790107336579935500,1.493935546875,0.46107057432383297,-0.8539251060336828,2.0396464639633893
1790107336589880600,1.503880615234375,1.1237409948348998,-0.6706736942246556,2.2163795799195767
1790107336599825400,1.513825439453125,0.8142953986957668,-1.560211673170328,2.571118900507688
1790107336609769500,1.52376953125,0.5040063374698162,-5.097517200279236,4.066680699113011
1790107336619714600,1.533714599609375,0.2781087931111455,-5.998255495414138,5.116961905461549
1790107336629659400,1.543659423828125,0.14354220949411392,-5.567165341073275,5.020714531105757
1790107336639603500,1.553603515625,0.2593468094959855,-6.277272927802801,4.084133938217163
1790107336649548500,1.563548583984375,-0.126797995442152,-7.05798432906568,2.569403913283348
1790107336659493400,1.573493408203125,-0.07676379846781492,-5.570708712768554,1.6407430074781177
1790107336669438500,1.5834384765625,-0.4436719880163669,-2.519292851680517,0.479065957480669
1790107336679382500,1.593382568359375,-1.2870916282571851,1.1462380733251571,-1.3872031306952237
1790107336689327400,1.603327392578125,-1.5550879004158078,1.4115566507071255,-2.327521741068363
1790107336699272400,1.6132724609375,-1.7479896224930882,0.9854761412218213,-2.8671564412802457
1790107336709216300,1.62321630859375,-0.6846200942516326,0.9814055307820438,-2.9321552754133937
1790107336719161600,1.63316162109375,0.016408552356809377,1.3606705130785703,-2.212883554497361
1790107336729106400,1.6431064453125,-0.32036826443076133,1.4000184808656573,-2.3530624250382184
1790107336739050500,1.653050537109375,-0.8494764560617506,0.2926537435531616,-3.7993671485215423
1790107336748995600,1.66299560546875,-1.5508943942487239,-1.4457967739611863,-4.242591977292299
1790107336758940400,1.6729404296875,-2.0019863031327723,-0.7172077741235494,-2.3805583347290753
1790107336768884500,1.682884521484375,-0.23351547201648354,1.7413272419944406,-1.1292957063525915
1790107336778829600,1.69282958984375,2.2959141582749782,2.2500284592822193,0.634954438328743
1790107336788774400,1.7027744140625,1.6311562639653683,4.608043538291752,2.901218285357952
1790107336798719500,1.712719482421875,0.08203647817373275,9.339096785658597,3.674895550200343
1790107336808663300,1.722663330078125,0.018669483026117085,6.513193561264872,2.6164818908005953
1790107336818608600,1.732608642578125,0.6849778216481208,1.26191904694736,0.7042816570550203
1790107336828553500,1.742553466796875,0.9160881322190165,1.3198451662153006,-0.2585691031217575
1790107336838497300,1.752497314453125,-0.025592852548509834,1.213281565028429,-0.520662873238325
1790107336848442600,1.762442626953125,0.5715583632171154,1.854084729385376,-0.394185780313611
1790107336858387500,1.772387451171875,1.1839961415722966,0.6348883873552084,-0.1886941873848438
1790107336868331500,1.78233154296875,0.5510343383654952,-1.3165554770201444,-0.1458914029687643
1790107336878276400,1.7922763671875,-2.6106477778196333,-0.7041530622392892,-2.368934532430768
1790107336888221400,1.802221435546875,-1.3213006257206201,1.5474153199613094,-5.497039080923796
1790107336898165500,1.81216552734375,3.3577579382538794,2.7239392259567974,1.5196166279315948
1790107336908110300,1.8221103515625,1.832670477695763,2.8477777870714664,2.144822410184145
1790107336918055400,1.832055419921875,3.5094776089847084,2.4674837539881467,3.829047416514158
1790107336928000500,1.84200048828125,2.835411641973257,4.571097370949388,1.6494406931966543
1790107336937944300,1.8519443359375,1.951054426666349,3.677701839792728,-1.0722340949594973
1790107336947889700,1.8618896484375,1.2693056500673294,3.3625393273115156,-2.0346306816279887
1790107336957834500,1.87183447265625,0.7897019324481487,3.9711300748497247,-2.9241806432723996
1790107336967778600,1.881778564453125,0.2428396190702915,3.7159541212975977,-3.1346435948729514
1790107336977723400,1.891723388671875,1.037433707474172,2.02627318764925,-1.707453906226158
1790107336987668500,1.90166845703125,1.1265826480016112,-0.06506137797534466,-0.300853416621685
1790107336997612500,1.911612548828125,1.1941735444545745,-0.9458055173516273,3.245172008037567
1790107337007557400,1.921557373046875,2.740902635717392,-0.8922177195489406,6.444512823748588
1790107337017502500,1.93150244140625,3.3942133994698525,-7.745590745651722,2.4006273092895745
1790107337027446500,1.941446533203125,2.227570836019516,-5.837464629477262,-3.517048336499929
1790107337037391400,1.951391357421875,0.8211737600326537,0.6246580852419138,-2.6619670461684466
1790107337047336400,1.96133642578125,-1.0268468470081686,1.1086632526904343,-4.6969361659705635
1790107337057281500,1.971281494140625,-0.9077610333785414,-1.3511527431488037,-0.7020090359479189
1790107337067225300,1.981225341796875,0.5836541669413448,-3.0645868928283453,2.5287328801989553
1790107337077170400,1.99117041015625,0.3958303326502442,-5.964363162684441,3.7709739977300165
1790107337087115500,2.001115478515625,-0.16729454874247313,-5.193835301783681,4.313510849124193
1790107337097059600,2.0110595703125,-0.311774915869534,-4.401240570503473,5.134014747071266
1790107337107004400,2.02100439453125,-1.5884426191374659,-4.629627885851264,4.05774978916049
1790107337116949500,2.030949462890625,-0.4538486602462828,-9.403333403247593,5.4104579450577495
1790107337126893600,2.0408935546875,-2.492841774867475,-8.189544473218918,5.146715238690376
1790107337136838400,2.05083837890625,-1.6677859127044676,-3.590681143465638,4.2266883057177065
1790107337146783200,2.060783203125,0.12308613531216979,-5.5393374229490755,5.344952330446243
1790107337156728000,2.07072802734375,-1.63188472437039,-8.748286609482765,3.6974633558392522
1790107337166673000,2.0806728515625,-3.2606285203665495,-11.52513967950344,2.283746312227845
1790107337176618000,2.090617919921875,-1.6190967005982995,-6.767008747857808,-0.12451017676591872
1790107337186561800,2.100561767578125,0.20054712226390836,-2.31906078671515,-3.0203409238666294
1790107337196507000,2.1105068359375,2.1098227007344366,-5.695186156308651,-3.4934067641496656
1790107337206452000,2.120451904296875,3.7604631251096725,-6.881397928103804,-1.3375403973817825
1790107337216395800,2.130395751953125,0.07880991734266281,1.4747078111469745,-3.5766625549852846
1790107337226341000,2.140341064453125,0.7036100414037704,10.71378822530508,-8.713561917582155
1790107337236286000,2.150285888671875,-0.41500718067660924,10.374613553595543,-12.485721910226344
1790107337246230800,2.160230712890625,0.46513913893699643,6.219020645320415,-9.90517700972557
1790107337256174800,2.1701748046875,1.336469699410349,3.260355548644066,-8.388761223661898
1790107337266120000,2.180119873046875,-0.46846872175112364,11.76229423867464,-11.520428433072567
1790107337276064800,2.190064697265625,-0.5957376957058906,12.051104166281222,-8.245853804939985
1790107337286008800,2.2000087890625,-1.0309059131406246,10.419639274758099,-4.269138623434305
1790107337295954000,2.209953857421875,-1.1084545783758162,8.66261732776463,1.3112825050532817
1790107337305899000,2.21989892578125,-0.4943655256822705,6.1354977279812095,6.279556070303917
1790107337315842800,2.2298427734375,-0.685363606095314,6.169689335918426,7.120132449942827
1790107337325788000,2.239787841796875,-0.16167875468730925,6.560819820314645,6.64861500814557
1790107337335733000,2.24973291015625,1.3950595432840287,4.049713782221079,6.78644059355855
1790107337345676800,2.2596767578125,1.8076225456789135,5.4985752044498915,7.55053228393197
1790107337355622000,2.269621826171875,2.443865708643943,6.953579367217421,7.569642642593383
1790107337365567000,2.27956689453125,2.0197242043972015,11.134354063022135,7.425768424665927
1790107337375511800,2.28951171875,1.2691159727141261,11.553043585473299,6.066373338350654
1790107337385455900,2.299455810546875,1.0274655634284018,4.0949575300484895,1.5675475690163672
1790107337395401000,2.30940087890625,1.2317539180472492,-5.757018635365367,-3.14258169439584
1790107337405345800,2.319345703125,-1.186897415971756,-12.02285422335267,-7.636879026520252
1790107337415289900,2.329289794921875,-5.000501764160394,-13.344672150945662,-10.414675514870881
1790107337425235000,2.33923486328125,-7.03414927996993,-13.448414264971017,-9.510315522107481
1790107337435180000,2.349179931640625,-6.620251667970418,-11.053055251473188,-3.8403985393509266
1790107337445123800,2.359123779296875,-4.388367060405016,-9.369147640529274,-0.20829897849969564
1790107337455069000,2.36906884765625,-1.4501286656856536,-8.707207580119372,0.8078827551744878
1790107337465014000,2.379013916015625,-0.10835282269120215,-7.49672704398632,0.5923540446169674
1790107337474957800,2.388957763671875,-0.22937807995080947,-9.720069448655844,-1.0387475665517152
1790107337484903000,2.39890283203125,-1.6918413265526293,-5.224288307714462,-0.10089987633675336
1790107337494848000,2.408847900390625,0.21895342430919407,-0.448280358594656,1.061801840533316
1790107337504792800,2.418792724609375,2.476565178327262,6.963458956196904,3.1124516368091104
1790107337514737000,2.42873681640625,2.2167358460113404,16.501884135979413,4.966433490341902
1790107337524681700,2.438681640625,1.1854606611669063,18.170335234594344,2.706176190251112
1790107337534627000,2.448626953125,1.7222561924301087,2.459157824191451,-6.7663359631627795
1790107337544571000,2.45857080078125,0.8383562193714081,-5.318183565986156,-9.574191489690541
1790107337554515700,2.468515625,0.16156418839693068,5.27265106434524,-5.8072419251710174
1790107337564461000,2.4784609375,2.1080922236800195,9.342302303701638,-4.275990681286156
1790107337574404900,2.48840478515625,3.1487691508591173,4.305862964719534,-4.332607763782144
1790107337584350000,2.498349853515625,1.781638209594786,2.869867453804612,-2.9313521423369644
1790107337594295000,2.508294921875,1.8140008485391734,0.7247323244094849,-1.7324352027475833
1790107337604239000,2.518239013671875,-2.156504664671421,5.031240016773343,-0.03958966758847236
1790107337614184000,2.528183837890625,-2.9761197970852256,5.80026156476438,3.156222097213566
1790107337624128800,2.538128662109375,-2.1229653831630944,5.8353428150177,3.6372742600753902
1790107337634073900,2.548073974609375,-4.392741329966485,2.8391999283403155,-3.896544204942882
1790107337644018000,2.558017822265625,-3.653457040852308,-7.960468006563186,-26.641394802236555
1790107337653962800,2.567962646484375,5.67198531346321,-4.723233805787563,-9.265020326578616
1790107337663908000,2.577908203125,8.821127389287948,-0.3458995960503816,2.533659522946179
1790107337673852000,2.587851806640625,6.228233879345655,0.9762930100739001,6.41509851321578
1790107337683797000,2.597796875,2.927026095831394,0.4118447711229324,10.945311500591039
1790107337693741800,2.607741943359375,0.8963796615339815,-0.5709580592364073,9.806316822522879
1790107337703686000,2.617685791015625,0.6825801128566265,-0.5881722288876772,6.708692752489447
1790107337713631000,2.627630859375,1.1389233663976193,0.4494546630710363,3.3912586413174868
1790107337723575800,2.637575927734375,1.5665759475052357,1.5900807417333125,0.10848784724771976
1790107337733520100,2.64752001953125,1.2964753965437412,2.5339064834445715,0.09177578189969063
1790107337743465000,2.65746484375,0.6260442789033055,2.26764214964509,2.081372559058666
1790107337753409800,2.667409912109375,0.40619390575438735,-12.474468694806099,0.4491700009107589
1790107337763353900,2.677353759765625,0.016118775629997254,-10.658861872375011,-3.919084830313921
1790107337773299000,2.687298828125,-3.2350220776841043,5.652840468010306,-0.172324651864171
1790107337783243800,2.697243896484375,-3.2010733385920522,10.712926640039681,1.0429676684647797
1790107337793188900,2.70718896484375,-1.0201039486192167,8.020530553337931,-3.4698055238097902
1790107337803133000,2.7171328125,-0.015689590432494877,2.6093179905205965,-3.9601825643777846
1790107337813078000,2.727078125,1.0891678402341902,4.97695488435626,1.0841396368086338
1790107337823022800,2.73702294921875,1.0948445706963539,3.5128193206280467,0.8934960689216852
1790107337832967000,2.746966796875,0.5671111745499074,1.7722458196103572,-0.8613783446490764
1790107337842912000,2.756912109375,0.8034205150686204,2.3342279607087373,0.4274567662745714
1790107337852856800,2.76685693359375,-0.3323923180930316,3.0313989089757203,3.4239597184360027
1790107337862801000,2.77680078125,-1.304319680303335,2.17364576908648,1.5744377669215202
1790107337872746000,2.78674609375,-1.5431591238215565,2.63984113907814,0.83930855166018
1790107337882690800,2.79669091796875,-0.48230187066197394,3.1284517544955013,-1.0963134742051361
1790107337892635000,2.806634765625,0.3400833109870553,2.539718384593725,1.9606705424040556
1790107337902580000,2.816580078125,0.137342770332098,0.8122732452183962,1.075006482282281
1790107337912525000,2.826525146484375,-0.7129717439889908,0.9803297182440757,2.586375506350398
1790107337922468900,2.83646875,-0.7014848659433424,0.03582476209700108,3.7769548257052894
1790107337932413700,2.84641357421875,-0.8969181523248553,-0.7686994764298201,4.242114422908425
1790107337942359000,2.856359130859375,-0.7310927993521094,-1.4594494517385959,2.7730706288725138
1790107337952303900,2.866303955078125,-0.486994120131433,-0.9125146576464176,2.890593430969119
1790107337962248000,2.876248046875,-0.648378568047285,-1.5585416941314936,4.6937271407961845
1790107337972193000,2.886193115234375,-1.1490148445621131,-3.0188895560145377,3.4361557676643133
1790107337982137900,2.896137939453125,-1.0599076973497867,-3.328936917439103,3.6190339622467755
1790107337992082000,2.90608203125,-0.49179918232560155,-4.612794824472069,4.013202206903696
1790107338002027000,2.916027099609375,-0.5018666950926184,-6.539802751249074,5.035644389212131
1790107338011971800,2.925971923828125,-1.1788923886924982,-8.016650497034192,6.44587183714211
1790107338021916000,2.935916015625,-1.269417878270149,-9.029274465161562,7.9330059991419315
1790107338031860700,2.94586083984375,-0.8720315483495592,-11.604300309979916,9.356123908305168
1790107338041806000,2.95580615234375,-0.5225333432853222,-13.150180675458907,12.55408291426897
1790107338051750000,2.96575,0.04288169487118721,-12.585532530021666,15.49603769916296
1790107338061695000,2.975695068359375,-0.8860358160436153,-10.459562119823694,13.91182438815832
1790107338071640000,2.98564013671875,-4.409560655081272,-6.582810702848434,5.104213483047485
1790107338081583900,2.995583984375,-4.53044475030452,0.8053104204684496,1.0710825868368148
1790107338091529000,3.005529052734375,-4.645702822339534,9.72160381861627,-3.2416964408814906
1790107338101473800,3.015473876953125,-1.9515582845352588,13.156979834079742,-8.837921287700533
1790107338111419000,3.0254189453125,2.9552409674465654,15.17682328094244,-7.490508900123834
1790107338121363000,3.035363037109375,3.8915561873972413,12.320606166827679,-3.5189795968234536
1790107338131307800,3.045307861328125,1.863172875726223,8.44234200720191,-2.209105205002427
1790107338141253000,3.055253173828125,2.4300702613949774,5.71911531342864,-0.13892682465314865
1790107338151197000,3.065197021484375,4.081213666856288,4.1691053007990115,2.979889086490869
1790107338161142000,3.07514208984375,3.36717458589673,3.0062469320625067,4.504141557529568
1790107338171087400,3.08508740234375,-0.529020403749682,3.0609570118933913,2.4049101011753082
1790107338181031200,3.09503125,-0.8090987068355083,3.8582904621332883,0.5259796843469142
1790107338190976300,3.104976318359375,1.845203503793478,5.73500554099977,1.1087561916708946
1790107338200921000,3.114921142578125,1.1363058773756027,4.3089872342199085,0.6938403425395488
1790107338210865200,3.124865234375,0.6100994350681082,3.3866222136884927,1.1655512610822916
1790107338220810200,3.134810302734375,1.3405787421643733,5.463248455002904,1.567102601727843
1790107338230755000,3.144755126953125,1.5137573805093765,5.499141606160998,0.38484015208035705
1790107338240700200,3.1547001953125,2.3364766164183615,5.86650601504445,-0.5497635877773165
1790107338250644200,3.164644287109375,2.3938930325984953,5.075340439784527,-0.4982569801628589
1790107338260589000,3.174589111328125,1.65508074491024,2.8460125309646127,-1.1028551509335636
1790107338270534400,3.184534423828125,1.8141747438013553,0.9752011231839657,-0.9280363441660999
1790107338280478200,3.194478271484375,2.8743980829715725,-1.8780080412864684,-1.0709650979369878
1790107338290423000,3.204423095703125,3.4604128415644166,-4.052625870275497,-1.12699532045573
1790107338300368100,3.2143681640625,3.126688251954317,-6.108537824863195,-1.890496935981512
1790107338310312200,3.224312255859375,1.8899157750926912,-7.247971478870511,-2.664087983845174
1790107338320257300,3.23425732421875,1.2365782694637775,-9.927013578480482,-3.1988921951606866
1790107338330202000,3.2442021484375,0.7851989219404757,-10.006086530673503,-3.8817926260128615
1790107338340146200,3.254146240234375,0.5966228079773486,-6.574788139912486,-3.246480752548575
1790107338350091300,3.26409130859375,0.4255814739219844,-2.3350088819533585,-2.5799054335534573
1790107338360036000,3.2740361328125,-1.0351778913713992,0.7821469870239496,-2.9818270688161252
1790107338369981000,3.28398095703125,-3.017050357888639,2.992685439699888,-2.5661890428900715
1790107338379925200,3.29392529296875,-3.8585456059381364,4.219640140771865,-1.758915213394165
1790107338389870000,3.3038701171875,-3.2471462307199834,4.245319940951466,-1.270332362766564
1790107338399815200,3.313815185546875,-0.5687547039732337,3.608361177062988,-0.7772676905497908
1790107338409759200,3.32375927734375,0.8226587378934025,3.3497324527084826,-0.6959092577680945
1790107338419704300,3.333704345703125,0.8052174814879893,3.254109347730875,-0.2873062450453639
1790107338429649200,3.343649169921875,2.2620587965548036,2.4535171879559754,-1.117474043394625
1790107338439593000,3.353593017578125,2.033694277560711,2.2519991748332977,-1.2812103151336312
1790107338449538300,3.363538330078125,-0.7118170209959149,1.5126444508314132,-0.26305881575644013
1790107338459483100,3.373483154296875,-2.226704574579,0.015295768809318542,0.7825716421768069
1790107338469427200,3.38342724609375,-2.072454216326773,-0.8151093454271554,1.6131762245081365
1790107338479372300,3.393372314453125,0.17169512178897856,-0.9149509448826313,1.933212626636028
1790107338489317000,3.403317138671875,1.7652084683194755,-0.9615443537533283,1.051852108927071
1790107338499262200,3.41326220703125,0.418802042914927,-0.7829390141844749,0.15549056757166982
1790107338509206000,3.4232060546875,-0.9163177031911909,-0.6126841543316841,-1.3864188484497368
1790107338519151000,3.433151123046875,-0.5665522254928946,-0.2414502105385065,-2.432262510742247
1790107338529096200,3.44309619140625,0.25679361788183447,0.33446342527866363,-2.04793527662009
1790107338539040000,3.4530400390625,0.04261193801909685,0.16979776373505592,-1.6049496634326874
1790107338548985300,3.4629853515625,-0.4642141330465674,-0.14100363092720508,-0.718873953770101
1790107338558930200,3.47293017578125,-0.34398061068654057,0.2449748775333166,0.7301989192523062
1790107338568874200,3.482874267578125,-0.133047703486681,0.7353601014077663,2.0941563450470566
1790107338578819300,3.4928193359375,1.099175731768459,0.604936901205778,2.766187299099564
1790107338588764200,3.50276416015625,2.8456138870358467,0.05481061759591102,0.5069399067036807
1790107338598708200,3.512708251953125,0.9141464966319501,0.4654536117136478,-0.9116346599414944
1790107338608653000,3.522653076171875,-1.7780103744864462,0.885734202748537,0.2955588173449039
1790107338618598100,3.53259814453125,-1.5428396826088429,0.9598217677444218,1.7768892615020273
1790107338628542200,3.542542236328125,0.79480948472023,0.808875419473648,1.191470422975719
1790107338638487000,3.552487060546875,2.7786303088262674,0.3169786219924688,-2.2786577569171786
1790107338648432000,3.56243212890625,1.752046935059875,-0.15698095225989817,-2.9637755715578793
1790107338658377200,3.572377197265625,0.7298746557340026,-0.34331893190741536,-1.5450000755131243
1790107338668321000,3.582321044921875,-1.5610850950039923,0.13280921855568886,-0.16851576110050082
1790107338678266000,3.59226611328125,-0.9090205319203436,0.613924509781599,-0.550290534260869
1790107338688211200,3.602211181640625,0.8814780066087842,0.7392477564960718,-2.072609845279902
1790107338698155300,3.6121552734375,-0.11156535499691962,0.7605828054696321,-1.2010028059527278
1790107338708100000,3.62210009765625,1.3915271313741802,0.36447336361706256,0.047799569790065284
1790107338718045200,3.632045166015625,0.9338146353065967,0.2747983533889055,1.1607708949379623
1790107338727989200,3.6419892578125,0.30032383978962895,0.31798809129595756,1.1133744991213084
1790107338737934000,3.65193408203125,-0.27619258422628046,0.2529319740176201,0.9987086938910186
1790107338747879200,3.661879150390625,-0.8338570082560182,0.4014157315671444,0.739075907060504
1790107338757823200,3.6718232421875,0.22822627956718206,0.6105892278790473,-0.46393151671290395
1790107338767768000,3.68176806640625,0.25500541929081083,0.5760317092388868,-0.9538836098670959
1790107338777713200,3.691713134765625,-0.9944625807538628,0.5131891763567924,0.31804537444114683
1790107338787658200,3.701658203125,-1.1469520668134092,0.542759554234147,1.4430536127328872
1790107338797602300,3.711602294921875,-0.019318448454141615,0.9671727150291204,1.8414707470059393
1790107338807547100,3.721547119140625,0.7451786078497767,0.9405185168594121,1.5010317544490097
1790107338817492200,3.7314921875,1.2437246340870856,0.20490122582018375,0.8264630986124276
1790107338827436300,3.741436279296875,1.191422638311237,-0.527018964266777,0.44088411086350676
1790107338837381000,3.751381103515625,0.5569977768145501,-0.9328799848049879,0.18392507328689098
1790107338847326200,3.761326171875,-0.6705354547977447,-0.893930953207612,-0.18737521374076604
1790107338857270300,3.771270263671875,-1.8026012103855609,-0.5871054764389991,-0.7011366370275616
1790107338867215000,3.781215087890625,-1.693093080179393,-0.40906361597180363,-1.4836284919664262
1790107338877160200,3.79116015625,0.07556582085490227,-0.4165431580722332,-2.231487132680416
1790107338887104300,3.801104248046875,1.1782570133984087,-0.09385434173941612,-1.6537874902293086
1790107338897049000,3.811049072265625,1.0288972036667168,0.557521070036292,-0.42036008601188657
1790107338906994200,3.820994140625,0.0839898041985929,1.5439315694987772,0.605102905422449
1790107338916938000,3.83093798828125,0.45239773078560824,2.0154607017338275,-0.4493877353146672
1790107338926883300,3.84088330078125,1.9983515998922288,1.9028595739483831,-1.0580907110556959
1790107338936828200,3.850828125,1.8240987564444542,1.4179747010558843,-0.2471595280960202
1790107338946773000,3.86077294921875,1.104311194960773,0.6237906547576189,-0.18592735302001237
1790107338956717300,3.87071728515625,0.12110095284432172,0.2042009685963392,-0.4166100858286023
1790107338966662100,3.880662109375,-0.8699839681699871,-0.16575871747732163,-1.102207500679791
1790107338976607000,3.89060693359375,-0.8836731785655021,-0.6200847859770059,-1.9055168104588984
1790107338986551300,3.90055126953125,-0.6692588589906692,-0.40075814444124697,-1.682571101643145
1790107338996496100,3.91049609375,-0.8025929782032966,-0.12868015592694282,-1.516770298589766
1790107339006441200,3.920441162109375,-0.8040379163146019,0.18701134886443613,-2.005627582244575
1790107339016385000,3.930385009765625,-0.34489918683618304,0.8401239596962928,-2.3144848571017382
1790107339026330000,3.940330078125,0.5639651316091417,1.4048580298513174,-2.5405603883758188
1790107339036275200,3.950275146484375,1.1642463159635663,1.7386936786204576,-2.2086475243628025
1790107339046219000,3.960218994140625,0.62371408239007,1.9023978016555307,-1.203725508914888
1790107339056164400,3.970164306640625,0.08802899658679962,1.6357248870551586,-1.0175345365226267
1790107339066109200,3.980109130859375,0.15829203485846519,1.1469061818450688,-0.9351806629627942
1790107339076054000,3.990053955078125,-0.053479076731204986,0.6464432160705328,0.2285208785995841
1790107339085998000,3.999998046875,-0.7412275321364402,-0.19531915848255157,1.4222639226824045
1790107339095943200,4.009943115234375,-1.2863406637594104,-1.2450497452110052,1.7992209202975034
1790107339105888300,4.01988818359375,-0.9048083210527896,-2.063631150662899,1.6962682030841707
1790107339115832000,4.02983203125,0.11374211451411247,-2.3204455190718174,1.321778180104494
1790107339125777200,4.039777099609375,-0.0323489026799798,-2.020059135439992,1.2742431064695119
1790107339135722200,4.04972216796875,-0.937176512955129,-1.6323440124452113,1.4303355854570865
1790107339145666000,4.059666015625,-1.4869532524749636,-1.0380161835372448,1.5845526259616016
1790107339155611400,4.069611328125,-1.607170700483024,-0.01725567070543766,1.4676716288998721
1790107339165556200,4.07955615234375,-1.6253201051577926,0.902472571581602,1.049175875455141
1790107339175500300,4.089500244140625,-0.781021490125358,1.6216612903892993,0.8417465924620627
1790107339185445400,4.0994453125,1.0210510202109813,2.0012802006900308,0.17318156095445156
1790107339195390200,4.10939013671875,2.2778727440193296,2.5214643505007026,-1.3566525096088646
1790107339205335300,4.119335205078125,1.8848107070386408,3.50699455999732,-1.910452513295412
1790107339215279400,4.129279296875,0.4869993808284402,3.727266957950592,-1.1361685147315264
1790107339225224200,4.13922412109375,-0.9013298312872647,3.0395354536801573,0.376578227430582
1790107339235169500,4.14916943359375,-1.3786071517854928,1.741594660758972,1.3616694609880446
1790107339245113300,4.15911328125,-0.8886243712320924,0.2584288178682327,0.9162211109489202
1790107339255058200,4.16905810546875,0.11907120058238506,-0.31713761194646356,0.48320437245965003
1790107339265003300,4.179003173828125,0.5158902520090342,0.3907815248280763,0.6384300054848194
1790107339274947300,4.188947265625,-0.398499551859498,1.0192068536490202,1.333314888641238
1790107339284892400,4.198892333984375,-1.4514187054961918,0.6744827311187982,3.089561175087094
1790107339294837200,4.208837158203125,-1.7331933276385068,-0.21358020683825016,3.3253742565214632
1790107339304781300,4.21878125,-0.22804010934531688,-1.149744620141387,2.0261223810017106
1790107339314726400,4.228726318359375,1.0641080716490745,-1.8593045098602772,1.888572105398774
1790107339324671200,4.238671142578125,0.08191314405500888,-2.4230805486381053,2.492166944345832
1790107339334615300,4.248615234375,-2.1714222478181124,-2.3486767572999,3.464140337654948
1790107339344560400,4.258560302734375,-2.526652274532616,-2.0196990699559447,4.073132651731371
1790107339354505200,4.268505126953125,-1.0667331594556568,-2.14070971416831,3.4866163733571764
1790107339364450300,4.2784501953125,0.7621542925700545,-2.23951787892282,2.0321470481187105
1790107339374394000,4.28839404296875,0.8842138613134622,-1.6076567304342984,1.522782983008027
1790107339384339500,4.29833935546875,-0.6454457294657826,-0.6242068343430757,1.5740350313395262
1790107339394284300,4.3082841796875,-0.5920026008307934,-0.34474048914313316,1.5469617309749126
1790107339404228000,4.31822802734375,-1.1592565448522567,-0.5145259779185056,3.455313472598791
1790107339414173400,4.32817333984375,-0.5646972452759742,-0.9775602535307407,3.4232185446798797
1790107339424118300,4.3381181640625,-0.006341477981209755,-1.0782926643460988,2.13337980967164
1790107339434062300,4.348062255859375,0.12331745985001324,-1.0982675308823584,1.421742529156804
1790107339444007400,4.35800732421875,-0.23533728061616419,-0.7200783611238002,1.1281278316169976
1790107339453952300,4.3679521484375,-0.7308937696486711,-0.8545464528024196,1.272107848006487
1790107339463896300,4.377896240234375,-0.3263736423254013,-1.6674539042711256,2.2500614847689864
1790107339473841200,4.387841064453125,0.2205617362886667,-2.413594927412271,2.304634786477685
1790107339483786200,4.3977861328125,-0.16506839712560176,-2.3803151736229657,1.4077595965117216
1790107339493731300,4.4077314453125,-0.8119725087061523,-1.7417378686219454,0.3706026601523161
1790107339503675100,4.417675048828125,-1.0097171407699583,-1.133703585922718,-0.166151516187191
1790107339513620500,4.427620361328125,-0.49765170774608847,-0.6533259613215923,-0.7744090862482785
1790107339523565300,4.4375654296875,-0.6300517609789967,0.008230652728676796,-0.9381886126071214
1790107339533509400,4.44750927734375,-0.7951184045389295,0.3217500741779804,0.4160732024729252
1790107339543454500,4.457454345703125,-0.11016045663505791,-0.05518529612720012,1.9506483300834894
1790107339553399300,4.4673994140625,0.747600866560638,-0.5150228215247392,2.6823271126300097
1790107339563343400,4.47734326171875,0.6982111049696803,-0.8191478071630001,2.129253085130453
1790107339573288200,4.4872880859375,0.25807225951552387,-0.8819804031729698,1.0118079755693674
1790107339583233300,4.4972333984375,-0.26753245403915643,-0.9183107767045497,0.2594277657777071
1790107339593177300,4.50717724609375,-0.35180268261432646,-1.0205378099918365,-0.26397008538246153
1790107339603122200,4.5171220703125,-0.30016689566224813,-1.053148286217451,-0.40368864493519063
1790107339613067300,4.5270673828125,-0.07067103455066681,-0.940552419129014,0.21666385206729172
1790107339623012400,4.537012451171875,0.17420476652234793,-0.8049772429913282,0.929779972963035
1790107339632956200,4.5469560546875,0.4963254275783896,-0.4993710788846016,1.2675351332634686
1790107339642901200,4.5569013671875,0.6315259251847862,0.4223661651372909,1.6499170785367487
1790107339652846300,4.566846435546875,0.3224281195700168,0.803884771579504,0.7017004083901643
1790107339662790400,4.576790283203125,-0.08572948747277259,0.991539679044485,-0.07598755339831113
1790107339672735200,4.5867353515625,0.03947890069037675,1.7549667680293322,-0.026963702510297297
1790107339682680300,4.596680419921875,1.1968845569789408,2.6714614352226254,0.16639847668558358
1790107339692624400,4.606624267578125,2.135435280896723,3.1753841860622165,-0.07020896999686956
1790107339702569200,4.6165693359375,1.636324606513977,2.654137959977984,-0.7254308280676602
1790107339712514300,4.626514404296875,1.1554499921761452,1.5739800862818956,-1.6486679552584886
1790107339722458400,4.636458251953125,1.554042336885631,0.7732809590011834,-2.3755095269069075
1790107339732403200,4.6464033203125,1.99070736874938,-0.06193477038741112,-2.7791151697337626
1790107339742348300,4.656348388671875,2.036203191641718,-0.8826526033461093,-2.9728859297305346
1790107339752293400,4.66629345703125,2.2195361442543566,-1.065401618590951,-3.21556889693439
1790107339762237200,4.6762373046875,2.6620260828793048,-0.9118114778131245,-3.6591049836114045
1790107339772182300,4.686182373046875,2.3919782850183546,-0.4891179804176092,-4.383939599351585
1790107339782127400,4.69612744140625,1.2014086102746426,0.2743067704796791,-4.454825737957656
1790107339792071400,4.706071533203125,0.5844233977481722,1.2006342649012802,-3.7604876750290392
1790107339802016300,4.716016357421875,0.690783293056488,1.814697306370735,-2.6386566054686904
1790107339811961000,4.725961181640625,0.8160828666344284,2.0819103191971777,-1.2128228614754974
1790107339821905400,4.735905517578125,0.8932942627392709,1.781690524303913,-0.12614610740467905
1790107339831850200,4.745850341796875,1.0102404339917004,1.4076409385681152,0.5540681531034409
1790107339841795300,4.75579541015625,0.8763815602526068,1.2232342192441223,1.3740709696605802
1790107339851739400,4.765739501953125,0.45235330712199207,0.5322328995227813,1.756354422995448
1790107339861684200,4.775684326171875,-0.23042349735051393,-0.18170447462797165,1.908529728539288
1790107339871629300,4.78562939453125,-1.348474609980732,-0.622529841041565,2.2395384833194316
1790107339881573000,4.795572998046875,-2.0060814634919164,-1.0458125365018844,2.550074943435192
1790107339891518500,4.8055185546875,-1.0921252287350594,-1.2880875074267386,2.3265774459555746
1790107339901463300,4.81546337890625,0.2734602366529405,-1.361748955965042,1.4881301872998476
1790107339911408000,4.825408203125,-0.06781023829206824,-1.5558371113479137,1.1804704516641795
1790107339921352400,4.8353525390625,-1.5330756828330456,-1.3658347639739512,1.289834058833122
1790107339931297300,4.84529736328125,-1.6252759737551212,-1.0393635064929723,1.3185662323206662
1790107339941242000,4.8552421875,-0.7958582631208002,-0.3270096021413803,0.9292036343798041
1790107339951186200,4.865186279296875,0.6791698660217225,0.4264385291427374,-0.690899028390646
1790107339961131300,4.87513134765625,2.7172341753602027,1.0890560504227875,-1.9825066727675495
1790107339971076400,4.885076416015625,2.8907506673574446,2.318047810280323,-2.962445784258842
1790107339981020200,4.895020263671875,-3.646736208164692,4.147968404746055,-2.0223501689866183
1790107339990965200,4.90496533203125,5.473840576165914,4.142383882611989,-1.8235288476020097
1790107340000910300,4.914910400390625,1.9620035445734858,3.926255744856596,0.5826295000687242
1790107340010855200,4.924855224609375,0.14327669042572377,1.751412290418148,-0.6150378778509795
1790107340020799500,4.934799560546875,-0.13816358519569039,-0.054849780562520024,-1.2974785822369157
1790107340030744300,4.944744384765625,0.31885683695450423,-0.3785416364580393,-3.0184549639895555
1790107340040689200,4.954689208984375,0.0799041423201561,-1.9360545720636844,-2.9652409679353235
1790107340050633200,4.96463330078125,-0.3486380811035633,-2.3040531871974466,-2.460459554439783
1790107340060578300,4.974578369140625,0.04254398734942078,-1.7316484362840652,-2.3358942864857615
1790107340070523100,4.984523193359375,0.5852643786169588,-0.44274142916798587,-1.6354131907574831
1790107340080467200,4.99446728515625,1.19061965136528,0.9621201078146695,-0.8242262794710695
1790107340090412300,5.004412353515625,1.5171733264327047,1.7396411886036396,0.12020897244065999
1790107340100357400,5.014357421875,1.4325729891203343,2.516318804305792,1.3377112239040434
1790107340110301200,5.02430126953125,0.8737062035635114,2.502573187547922,2.1515467500030994
1790107340120246500,5.03424658203125,-0.0021310206793248654,1.7187813559263945,2.1551237317070364
1790107340130191400,5.04419140625,-0.6968496073581278,0.8205079896003007,1.930072575044632
1790107340140135200,5.05413525390625,-1.0777543196856976,0.7038643084257841,2.079671892620623
1790107340150080300,5.064080322265625,-1.1218274162985384,1.5367419502556323,2.8707667407318946
1790107340160025300,5.074025390625,-0.7846271134018897,1.6906494864195585,4.4316129124134775
1790107340169970400,5.083970458984375,0.4697475095152855,1.1838473807513714,5.278893173605203
1790107340179914500,5.09391455078125,1.2912662835933266,1.0214648617088795,4.946466807112097
1790107340189859300,5.103859375,0.7399639419414102,1.0000643462836742,2.821412634976208
1790107340199804400,5.113804443359375,-0.5545942228041589,0.7063847668141127,0.07238631403595208
1790107340209748500,5.12374853515625,-0.6362018080413341,0.20115560955107212,-2.0488421623319386
1790107340219693300,5.133693359375,-1.1499918729007244,0.10512918446958064,-3.3348163308665155
1790107340229638400,5.143638427734375,-1.855378860849142,0.7236234863847494,-4.648429616954922
1790107340239582200,5.153582275390625,0.4157105066403746,0.1626747799873352,-4.002524161022901
1790107340249527600,5.163527587890625,0.8295197097040712,0.2726104879558086,-2.1810060687214134
1790107340259472400,5.173472412109375,1.8445932629406452,0.1458428876519203,-1.1441872782751916
1790107340269416400,5.18341650390625,3.217901723796129,-0.8684300167262554,-1.944268565918505
1790107340279361500,5.193361572265625,4.14771706033349,-1.083971294504404,-4.248212739783526
1790107340289306400,5.203306396484375,3.762317228543758,-0.2556073307067156,-7.402517312937975
1790107340299251200,5.213251220703125,3.162561529368162,0.5092629428237676,-9.436472871783375
1790107340309195500,5.223195556640625,2.6899592149436473,1.941348002296686,-8.99468012164235
1790107340319140400,5.233140380859375,2.7445266714334484,3.414702645269036,-7.121037289828061
1790107340329085400,5.24308544921875,2.440484249512106,4.951096220478415,-4.598046168151497
1790107340339029200,5.253029296875,1.6277987702310084,5.465815090620517,-2.754223889583349
1790107340348974600,5.262974609375,1.0974047765731811,7.160792961633205,-3.9942005693137643
1790107340358919400,5.27291943359375,1.6251541009411214,7.7878101772218935,-10.568681835234164
1790107340368863200,5.28286328125,-2.47543120586127,11.552675336682796,-10.151819528210163
1790107340378808600,5.29280859375,-7.925650960204004,11.007877554619311,2.8076123654216527
1790107340388753400,5.30275341796875,-10.440129105079173,2.860830745390057,18.294988034701348
1790107340398697500,5.312697509765625,-5.715884660944342,-6.924856546080112,21.443246313428876
1790107340408642600,5.322642578125,-0.3512164071589708,-5.0035921313911675,15.911221259319781
1790107340418587400,5.33258740234375,-0.564293048389256,-2.844336706706881,6.570365062773227
1790107340428532500,5.342532470703125,-2.246974624669552,-3.7677182108044622,2.340292959836125
1790107340438476300,5.352476318359375,-4.150861788100004,-4.059625519904494,0.9229816911250353
1790107340448421400,5.36242138671875,-3.368476900666952,-2.8411306041419504,0.007150456276535987
1790107340458366500,5.372366455078125,-2.548834003463387,-1.5069056149184703,0.35727906819880006
1790107340468310300,5.382310302734375,-1.1465744656726717,-0.2901268554240465,1.1241875695586203
1790107340478255600,5.392255615234375,0.35621699192523953,-0.7577505046531557,1.8257710735708474
1790107340488200400,5.402200439453125,1.9004221176683902,-1.2014391515433787,4.079466530928015
1790107340498144500,5.41214453125,2.4783117297336457,-0.7116086389422416,6.476421873706578
1790107340508089300,5.42208935546875,3.149704385882616,0.3730956460118294,5.773882091882824
1790107340518034400,5.432034423828125,2.2808923841014503,2.6530729610949755,4.9825768158912656
1790107340527978500,5.441978515625,0.9902385333180427,4.58767207365334,2.820845356482267
1790107340537923300,5.45192333984375,0.553093608982861,5.289899720788002,-0.9567816693961619
1790107340547868400,5.461868408203125,-1.3896622142851351,4.499866948950291,-3.6143326526880264
1790107340557812500,5.4718125,-1.3324164784967898,2.9187352373480797,-4.377838067606091
1790107340567757300,5.48175732421875,-0.41487259451150893,2.312968899580836,-5.406768442890048
1790107340577702400,5.491702392578125,0.9585355273261665,3.259670488989353,-9.300705387943983
1790107340587647500,5.5016474609375,1.7262296261057257,3.349912485450506,-10.794363398754596
1790107340597591300,5.51159130859375,-0.6644602265372872,1.096065636923909,-3.454183007264137
1790107340607536400,5.521536376953125,-3.9874081326946613,-1.9696487986296414,3.727206752195954
1790107340617481500,5.5314814453125,-4.71476262230128,-1.989286396035552,5.868902554792165
1790107340627425500,5.541425537109375,-2.938482432608306,-2.1415859124809504,6.662403295001387
1790107340637370400,5.551370361328125,-0.6871098652407527,-2.974794393700361,5.584043410637975
1790107340647315500,5.5613154296875,-0.3994344946220517,-3.1243899118840694,5.144256739622354
1790107340657259500,5.571259521484375,-1.8826529444828628,-1.629019251936674,4.159119328835606
1790107340667204400,5.581204345703125,-3.8709097052097317,0.04713233805298805,2.518992991951108
1790107340677149400,5.5911494140625,-4.5944788310587406,-0.8802969801306724,1.8646335959285496
1790107340687093500,5.601093505859375,-3.450304120004177,-2.354267709174752,3.005710925489664
1790107340697038300,5.611038330078125,-1.126116491794586,-1.9354086753755806,5.429906741893292
1790107340706983400,5.6209833984375,0.5085355053320527,-1.5627677873939274,5.576112617638707
1790107340716928500,5.630928466796875,1.1487477180585264,-1.1276268963575362,2.4939888990759846
1790107340726872300,5.640872314453125,0.16676234156191347,-0.5812339540570974,-0.13730828354060648
1790107340736817400,5.6508173828125,-1.4967320114284752,-1.6133926437377928,-0.40796120768785477
1790107340746762500,5.660762451171875,-1.0539514192938804,-1.4983260026216505,2.02153622225523
1790107340756706600,5.67070654296875,0.4404577021449804,-0.6506921056866646,2.7140327489703893
1790107340766651400,5.6806513671875,0.8904971793666482,-0.1780816079556942,1.6095979276299475
1790107340776596200,5.69059619140625,1.1480804863214493,0.10790683248937129,1.0572148050040007
1790107340786540500,5.70054052734375,1.9422794379279016,0.6919488297045231,0.1176058042049408
1790107340796485400,5.7104853515625,1.9470114348858594,1.2948387352526187,-1.9862211632460354
1790107340806430500,5.720430419921875,1.6675684705615044,0.8084031257867813,-2.325110003751516
1790107340816374300,5.730374267578125,0.971725848288834,1.733991200017929,-1.473753871423006
1790107340826319400,5.7403193359375,-0.38324294601678843,3.3157278917759654,-0.8667050926297902
1790107340836264400,5.750264404296875,-1.563712667028606,4.9398482657551765,-0.7559282576620578
1790107340846208300,5.760208251953125,3.726240245251357,3.6199925781458613,-1.3363263454169034
1790107340856153600,5.770153564453125,4.233417321711778,3.0343355469495057,-0.7697492777436972
1790107340866098400,5.780098388671875,0.3225917856991291,0.6796084035694598,-0.16217559829354286
1790107340876043300,5.790043212890625,-0.8578416949555278,-2.014136759653687,0.476492307600379
1790107340885987600,5.799987548828125,0.18961773197054863,-3.1003584634333845,1.1572907977372406
1790107340895932400,5.809932373046875,0.705472035883367,-3.467869002789259,1.0413251619547605
1790107340905877200,5.819877197265625,0.4155468405112624,-3.933916488742828,0.5995856033056974
1790107340915821300,5.8298212890625,-0.01984700237289071,-4.534409270021319,0.37930502204596994
1790107340925766400,5.839766357421875,0.32712767556309696,-5.240586531564593,0.30400691221654413
1790107340935711500,5.84971142578125,0.7769695843860507,-4.355722681909799,2.0905109742820263
1790107340945655300,5.8596552734375,1.3067876778520644,-3.4173335782945156,2.9037603710561988
1790107340955600400,5.869600341796875,2.065679169233888,-1.471598154693842,1.122420559886098
1790107340965545500,5.87954541015625,1.7168156088113784,-0.8483703945159912,-2.3942794015675783
1790107340975489300,5.8894892578125,-0.6194330440700054,-0.06897533654868603,-5.6135296173632145
1790107340985434600,5.8994345703125,-0.2225951418124139,-0.02643149532973766,-6.6418433220535515
1790107340995379500,5.90937939453125,-2.185160265791416,1.7235101380139588,-5.805379638430476
1790107341005324300,5.91932421875,-6.61198769749403,2.7103946847289797,-3.468605500370264
1790107341015268400,5.929268310546875,-4.041648549187183,1.7353981442064046,-1.9461995339810847
1790107341025213400,5.93921337890625,3.955670055389404,-0.015414426752924919,-1.7592706027030944
1790107341035158300,5.949158203125,1.02748777526021,0.677235829219222,3.788607269576192
1790107341045102300,5.959102294921875,1.0456126300156117,-1.7966934476464986,11.746781027722358
1790107341055047400,5.96904736328125,1.7130185546159744,-4.245736705058813,17.147922278380392
1790107341064992500,5.978992431640625,2.059877351087332,-5.804349126338958,12.987650856900215
1790107341074936300,5.988936279296875,2.389201659911871,-3.6608880676358937,6.74768503870666
1790107341084881400,5.99888134765625,2.0168296519994735,-0.6944833166182041,4.579023780034483
1790107341094826500,6.008826416015625,0.9107796505473553,2.260489939802885,2.6852257566809654
1790107341104770300,6.018770263671875,-0.7131367252923548,3.8811435144543647,1.1498124246805905
1790107341114715400,6.02871533203125,-0.20953242928478866,10.097516275614499,-2.496987496370077
1790107341124660500,6.038660400390625,1.9374609317302702,7.697101147770881,-2.4494363483831285
1790107341134605300,6.048605224609375,1.825098288875818,5.633415052050352,-0.43957507409155366
1790107341144549400,6.05854931640625,0.7421346370439976,7.953572986352444,-3.8333103346556423
1790107341154493700,6.06849365234375,0.13124620702266693,6.954082056042552,-7.306006903731823
1790107341164439000,6.07843896484375,-0.045708296599239105,4.087730501404405,-8.516669810694456
1790107341174382800,6.0883828125,0.599988192757219,3.2066888403862714,-8.126040846079588
1790107341184328000,6.098327880859375,1.0275896281994878,4.3746068305999035,-4.616009694865346
1790107341194273000,6.10827294921875,0.8555870478965342,4.307763245382905,-1.036130223660171
1790107341204216800,6.118216796875,0.7030874788343906,2.511429863220453,-1.2102242232844234
1790107341214162000,6.128161865234375,0.5625441588953137,2.963789600083232,-2.1655150696009398
1790107341224107000,6.13810693359375,-1.3913114427968858,0.9112304630547762,-0.3276929082304239
1790107341234051000,6.148051025390625,-2.3857670092880725,-3.1536025623649357,0.8296447973884642
1790107341243996000,6.157995849609375,-1.612776849927008,-4.378321467208862,0.28332316675856706
1790107341253940700,6.167940673828125,-1.103529396933317,-5.270704021930694,0.42674584152624007
1790107341263886000,6.177885986328125,-1.518126097112894,-6.28935850239396,0.03665142217949033
1790107341273830000,6.187829833984375,-2.8853631291002033,-6.789045223098993,1.2276742475181817
1790107341283775000,6.19777490234375,-3.37022432885617,-7.077072475895285,3.566804008793831
1790107341293720000,6.207719970703125,-1.4775766445815561,-4.803219196650385,2.07126164554134
1790107341303663900,6.217663818359375,-0.5401493717357516,-2.4989187566936013,-0.11633680718243121
1790107341313609000,6.22760888671875,-0.07721914101988077,-1.7683324455589056,-1.2426475063748657
1790107341323553800,6.2375537109375,0.6818903770267963,-1.1199106228917837,-3.0612089408278464
1790107341333498000,6.247498046875,0.32764410065263505,-5.397619506272673,-1.9143673486515878
1790107341343443000,6.25744287109375,1.3064224978014827,-6.482359447062015,-4.902903851978481
1790107341353387800,6.2673876953125,0.6277391001224517,2.682735108909011,-6.126013860321045
1790107341363332000,6.27733203125,0.10907675305157899,7.927454210233688,-2.800245051524043
1790107341373277000,6.28727685546875,0.29076719915419813,9.417231580218672,-0.5420683570995927
1790107341383221800,6.2972216796875,1.251430093897879,9.200492617088555,0.5357680879116058
1790107341393165800,6.307165771484375,2.183149802751839,3.878469326809048,-0.9474991695269942
1790107341403111000,6.31711083984375,2.122338191175461,1.3025175993174314,0.758281542789936
1790107341413056000,6.327055908203125,1.3347431678786874,3.7630753534346817,4.736037465520202
1790107341423000800,6.337000732421875,0.8696863003976643,5.770566099202632,5.137024450281262
1790107341432945000,6.34694482421875,0.9884761998206376,5.130616921326518,1.8050977033764122
1790107341442890000,6.356889892578125,0.8273007184803486,3.0146167010009286,-0.03661678925752639
1790107341452834800,6.366834716796875,0.34514468602985143,1.5789678115665913,0.8051333103358745
1790107341462779000,6.37677880859375,0.10478490107655525,0.8973778787910938,0.4685159218937158
1790107341472724000,6.386723876953125,-0.19986995365470647,1.4042816912680864,-0.2885501076266169
1790107341482668800,6.396668701171875,-0.7551336001530289,1.6184002427667379,-1.1277107752487063
1790107341492612900,6.40661279296875,-1.1676602160602807,1.7123878554970025,-1.7172256509169934
1790107341502558000,6.416557861328125,-1.0759110299065708,1.4630015912622212,-1.984063985212147
1790107341512502800,6.426502685546875,-1.444337222802639,1.019772086316347,-1.0036860439121722
1790107341522446800,6.43644677734375,-1.3967933813393114,0.5635363848030567,0.24458295560628174
1790107341532392000,6.446391845703125,-0.2031120043158531,0.06472118623554707,0.4145660127803683
1790107341542337000,6.4563369140625,0.8913459051504731,-0.29898528466224666,-0.45168724442869423
1790107341552280800,6.46628076171875,1.4060679901629685,-0.6733668788313866,-1.4786398898988962
1790107341562226000,6.476225830078125,0.8639140006065368,-0.7816600802898407,-2.1739950209155676
1790107341572171000,6.4861708984375,0.3326534532472491,-2.0095874257862567,-1.4172224213838576
1790107341582115800,6.49611572265625,-0.050824178308248515,-4.103043221348524,-0.34694647475481033
1790107341592060000,6.506059814453125,-0.846602800321579,-5.123440161564946,0.5565668380513787
1790107341602005000,6.5160048828125,-1.362679807074368,-4.350627989119291,1.3376628547176719
1790107341611949800,6.52594970703125,-1.1074418942019342,-2.9388696783602235,1.9403899709194898
1790107341621894000,6.535893798828125,-0.6267983121410012,-1.158230124413967,2.1618431030899283
1790107341631838700,6.545838623046875,0.057924950224161144,0.5003104055613279,1.7184975705489516
1790107341641784000,6.5557841796875,0.5020338683530688,1.534795492362976,0.7075427046775817
1790107341651728000,6.565727783203125,0.7541323141559958,2.4240356574058533,-0.36034517777115105
1790107341661672700,6.575672607421875,1.0600330772951245,3.2278765898436306,-1.5773969089880584
1790107341671618000,6.5856181640625,1.0838318860337137,3.9336709895491597,-2.624365337526798
1790107341681561900,6.595561767578125,0.5815899278879165,4.077711211693287,-3.113998573990166
1790107341691507000,6.6055068359375,-0.05654197143316268,3.9207641617029902,-3.025535862161219
1790107341701452000,6.6154521484375,-0.37391719152778385,3.328871450987458,-2.832529656796157
1790107341711396900,6.62539697265625,-0.39422845041155813,2.111162717166543,-3.0726322521179914
1790107341721341000,6.6353408203125,0.23251199406236409,1.0770230828016996,-2.4764237240299583
1790107341731285800,6.64528564453125,0.4534308732256293,0.8362292903453111,-0.7653010661631822
1790107341741230800,6.65523095703125,-0.09676672205477953,0.7273281861215829,0.5534641958609223
1790107341751175000,6.6651748046875,-0.6799091400817037,0.47307343906760213,1.3198229543834923
1790107341761119700,6.67511962890625,-0.6007537703022361,0.16961013220846652,1.4735276614516972
1790107341771065000,6.685065185546875,0.6906462226733565,0.21165537625551223,1.076078495427966
1790107341781009000,6.6950087890625,1.2426719101637602,0.5643529618829488,0.6570727466344833
1790107341790954000,6.7049541015625,0.6513581683799624,1.2024433601498603,0.4088771534889936
1790107341800899000,6.714899169921875,-0.18669687608778476,1.3515198228955267,1.2074801852732897
1790107341810843000,6.7248427734375,-0.7372545368522405,1.2786655990868807,2.5205314535647627
1790107341820788000,6.7347880859375,-1.3961512840434909,0.8182885599851608,2.672946705344319
1790107341830732800,6.74473291015625,-1.4803569229498506,0.36838849123418327,1.9784370852410793
1790107341840678000,6.754677978515625,-0.8976490969479084,0.30956279277801513,1.3448212020397186
1790107341850622000,6.7646220703125,-0.3516623973608017,0.6187257725834846,1.4209241985112429
1790107341860566800,6.77456689453125,-0.3102472679108381,0.9619067573249339,1.9571090505301951
1790107341870512000,6.78451220703125,-0.6973772844940423,0.9122066146105527,2.243344743734598
1790107341880456000,6.7944560546875,-1.3061071482419966,0.5128747035801411,2.521521049124002
1790107341890400800,6.80440087890625,-1.5761419404909014,-0.053662616604566574,2.5959721867352723
1790107341900345900,6.814345947265625,-1.581181980484724,-0.19227672204673288,2.2546628410845995
1790107341910290000,6.8242900390625,-2.4181769945055245,0.033738018950819966,1.744666323289275
1790107341920235000,6.834235107421875,-2.954525512653589,-0.13195172494351864,0.8051110985040664
1790107341930179800,6.844179931640625,-1.8720131847858428,-0.9897790991127491,0.29430384884774685
1790107341940124200,6.854124267578125,-1.1781330947577953,-1.255085986056924,1.5029489862471819
1790107341950069000,6.864069091796875,-0.8884633354514837,-1.0930740538924932,1.6662708319664001
1790107341960013800,6.874013916015625,-1.7150573669672011,-1.2900170141845941,2.4654712451219556
1790107341969958000,6.8839580078125,-1.9916504948183893,-2.14861712629199,3.300516294118762
1790107341979903000,6.893903076171875,-1.0615542955130337,-2.581214762586355,2.457632222059369
1790107341989847800,6.903847900390625,-0.23522914406657217,-1.7066601254999636,1.0085434208154678
1790107341999793000,6.91379296875,-0.9031357116654515,-0.839883136677742,1.194597907346487
1790107342009737000,6.923737060546875,-1.352974113357067,-1.1420552346825599,2.199789095124602
1790107342019682000,6.93368212890625,-0.2865893289476633,-1.7223066074430942,2.5833944447129964
1790107342029627000,6.943626953125,0.010948094993829727,-1.8732266522288321,2.5389234348237513
1790107342039570700,6.95357080078125,-0.4942831080958247,-1.8452029192715882,2.5557716937720776
1790107342049516000,6.96351611328125,-1.060502156111598,-1.8664526280492544,2.268975444075465
1790107342059460900,6.9734609375,-1.311540863728523,-1.9802789137154817,2.042836199915409
1790107342069405000,6.983405029296875,-1.2359949166178703,-1.8977391621947288,1.9364421100765465
1790107342079350000,6.99335009765625,-1.516464301380515,-1.656045206028223,1.6322089878886936
1790107342089294800,7.003294921875,-1.6240315266519785,-1.6612497889339923,1.464979028815031
1790107342099240000,7.013239990234375,-1.0180088760361075,-1.8434440929055214,1.5790689338535069
1790107342109184000,7.02318408203125,-0.492781179100275,-1.7812807744592427,1.5994073730051517
1790107342119128800,7.03312890625,-0.2597732182145119,-1.3350053259462118,1.2492466123789547
1790107342129074000,7.043073974609375,-0.1380745917379856,-0.6197738203316927,0.4298328477561474
1790107342139017700,7.053017822265625,-0.0025759879678487778,0.023383213675022125,-0.4438298089265823
1790107342148963000,7.062963134765625,0.16231179189383982,0.6814467249125242,-0.8623930746495723
1790107342158907600,7.07290771484375,-0.05273731845319271,1.292730949318409,-0.7800807021439075
1790107342168851700,7.082851806640625,-0.1865054451689124,1.484399184077978,-0.1318874275356531
1790107342178796500,7.092796630859375,0.3741489544570446,1.3785218115895985,0.694940412735939
1790107342188741400,7.102741455078125,1.0385574508070945,1.2166133397996426,0.8950772006332873
1790107342198685700,7.112685791015625,0.7895747989371419,0.9301958602875471,0.501188649700582
1790107342208630500,7.122630615234375,-0.020499474932253358,0.4174444908261299,-0.0930251974388957
1790107342218575400,7.132575439453125,-0.02282441074848175,0.09184534000456332,-0.49570057367831466
1790107342228519400,7.14251953125,0.5111167539969086,-0.018202596166729926,-0.6945829776003957
1790107342238464500,7.152464599609375,0.956473918621242,-0.10458733267784118,-0.8464917411625384
1790107342248409600,7.16240966796875,1.1255991899222135,-0.19593758264183997,-0.9228305922165513
1790107342258354400,7.1723544921875,1.1623042419850826,-0.22375322580635545,-0.8237102927729487
1790107342268298800,7.182298828125,1.835671120816469,-0.09349310721158981,-0.8932710279941558
1790107342278243600,7.19224365234375,2.5160920098125934,0.30695524062812324,-1.175039512656629
1790107342288188400,7.2021884765625,2.263691950714588,0.9128963504403829,-1.4043953807756304
1790107342298132700,7.2121328125,2.0359552082300185,1.6502695452362297,-1.554251303461194
1790107342308077600,7.22207763671875,2.1840485051572323,2.1205103912264107,-1.3872528150558472
1790107342318022400,7.2320224609375,1.485182735671103,1.9333663558930156,-0.7599079749479889
1790107342327966500,7.241966552734375,1.1007096633374691,1.3046253852516412,-0.4564923066228628
1790107342337911600,7.25191162109375,1.5221426392778754,0.47830140284895895,-0.3678451781377196
1790107342347856600,7.261856689453125,0.8049182062804698,-0.3789718445688486,-0.2640846516728401
1790107342357800400,7.271800537109375,-0.36119448807686566,-0.9473784657567739,-0.2698397080682218
1790107342367745500,7.28174560546875,-0.6489765339404344,-1.3802268619418143,-0.2799504754550755
1790107342377690600,7.291690673828125,-0.6696385059580207,-1.8987772730708121,-0.3254331466048956
1790107342387634400,7.301634521484375,-0.9078393593117594,-1.770851150381565,0.08801935197561979
1790107342397579500,7.31157958984375,-1.079361170360446,-1.297361531728506,0.5455097297251225
1790107342407524600,7.321524658203125,-0.9568111877515911,-0.7904056968033313,0.500401590976119
1790107342417469400,7.331469482421875,-0.6321627617835999,-0.3126601742714643,0.439380428302288
1790107342427413500,7.34141357421875,-0.5913824231058359,0.09643383683860302,0.030228841786086556
1790107342437358600,7.351358642578125,-0.988261095765233,0.10986147368848323,-0.668768737386167
1790107342447303400,7.361303466796875,-1.8916496131479739,0.1469581554174423,-1.321093997232616
1790107342457247500,7.37124755859375,-2.765022346973419,0.5997773264855146,-0.6317435134582221
1790107342467192600,7.381192626953125,-1.4186477780118585,1.2383774278402329,-0.5278318880848586
1790107342477137700,7.3911376953125,0.8765683149963617,2.151636766374111,0.3414239119410515
1790107342487081500,7.40108154296875,2.5058026709884405,2.6861183216065165,0.46368353330120443
1790107342497026600,7.411026611328125,2.6396564301609993,2.9397219112753867,-1.1142635569155215
1790107342506971600,7.4209716796875,1.5102385587334632,3.386517584270239,-2.0880787786990402
1790107342516915500,7.43091552734375,1.669401385077089,3.4086516746670004,-0.5641081933416426
1790107342526860500,7.440860595703125,3.5949347092568873,3.331657866835594,0.1898350279830396
1790107342536805600,7.4508056640625,3.486754028262198,3.1747073097139595,0.48328182161003347
1790107342546750500,7.46075048828125,3.1627582209840415,2.7911738563179966,0.0013734803102910518
1790107342556694500,7.470694580078125,2.7509555354371664,2.342887652504444,-0.9686932025946676
1790107342566639400,7.480639404296875,2.609894913625717,1.895638390523195,-2.588145730893314
1790107342576584700,7.490584716796875,2.103558964164555,1.4154653485834598,-3.7746418725877997
1790107342586528500,7.500528564453125,-0.4409446088790893,1.255641281852126,-2.9953847617864606
1790107342596473300,7.510473388671875,-1.1859455220744013,1.290892043453455,-2.347501137649268
1790107342606418700,7.520418701171875,0.4851370940878987,0.9132879801064729,-2.0799302512958646
1790107342616362500,7.530362548828125,0.5530860101982951,0.41592239582538604,-1.3928792766354978
1790107342626307600,7.5403076171875,-0.9831076585248112,-0.13029460538625717,-0.044697512121498584
1790107342636252700,7.550252685546875,-1.274793141567707,-0.8818360262662172,0.9489074288897216
1790107342646196500,7.560196533203125,-1.2611045156940817,-1.4210732515931128,1.6290769734732806
1790107342656141600,7.5701416015625,-1.8628680475607513,-1.5616694707632064,2.238051459632069
1790107342666086400,7.58008642578125,-1.8411384463116525,-1.5864251418352127,2.229442475110292
1790107342676031500,7.590031494140625,-1.1961223404347896,-1.6749001286238432,2.2927846280775963
1790107342685975600,7.5999755859375,-0.9593500585794448,-1.6822294485986231,2.6389427289336918
1790107342695920400,7.60992041015625,-0.9109370330661535,-1.563934493085742,2.709232070690393
1790107342705865700,7.61986572265625,-0.8043538503959774,-1.4209224449455737,2.4336305842250585
1790107342715809500,7.6298095703125,-1.0267895638629794,-1.1139286258727312,2.1321242566525935
1790107342725754600,7.639754638671875,-0.8341714810326695,-0.7335352240681647,1.288534666672349
1790107342735699700,7.64969970703125,-0.34223405928015704,-0.44751931109428406,0.44772272471189495
1790107342745643500,7.6596435546875,-0.005100830270349979,-0.38938276394605636,-0.0605892009973526
1790107342755588600,7.669588623046875,-0.11066197641640901,-0.40939854701459405,-0.1448559224411845
1790107342765533400,7.679533447265625,-0.73742346367836,-0.3949041577160358,0.14712123702466487
1790107342775477800,7.689477783203125,-0.7865659725099802,-0.3214408620983362,-0.23289456363916397
1790107342785422600,7.699422607421875,-0.5679267287164926,-0.05642974323034286,-0.9428454985022544
1790107342795367400,7.709367431640625,-0.3988987803101539,0.26013445274233815,-1.5644745913118123
1790107342805312500,7.7193125,0.007762742955982685,0.5293038603335619,-2.236708958981931
1790107342815256600,7.729256591796875,0.06048778644949197,0.8861533049434422,-2.4715493959918615
1790107342825201400,7.739201416015625,0.06185819801986217,1.2995020508885382,-2.484718089644611
1790107342835146500,7.749146484375,0.4412494370445609,1.6795973465293645,-2.628077928309142
1790107342845090600,7.759090576171875,0.7711436547115444,1.9630577298015355,-2.6387910455033183
1790107342855035600,7.76903564453125,0.9000994127094745,2.0523802733302117,-2.5647388440817593
1790107342864980500,7.77898046875,0.9122425627067685,1.861796326676011,-2.633729670460522
1790107342874924500,7.788924560546875,1.0736170737504958,1.495783332401514,-2.497425595526397
1790107342884869600,7.79886962890625,1.1482456137552857,0.9609452188163995,-1.962176563052833
1790107342894814500,7.808814453125,1.0409688958629966,0.7206938626736402,-1.3550123411864041
1790107342904758500,7.818758544921875,0.712421124368906,0.8625771990448236,-1.046671199157834
1790107342914703600,7.82870361328125,0.28939094236493107,1.2006196518540382,-0.9621493339091539
1790107342924648400,7.8386484375,0.19504764806479213,1.4576070387423037,-1.1245587409585713
1790107342934593500,7.848593505859375,0.2029343096613884,1.7009586989879608,-1.0848305416822432
1790107342944537600,7.85853759765625,-0.2913818239212036,2.009206317514181,-0.8351157761454582
1790107342954482400,7.868482421875,-0.8194464978486299,1.9256272860735655,-0.9586571078792214
1790107342964427500,7.878427490234375,-0.7450245863318443,1.7686422421604393,-0.8539493636921047
1790107342974371300,7.888371337890625,-0.7897641840294003,1.6508458838194608,-0.25995003608614203
1790107342984316700,7.898316650390625,-0.5376856119707226,1.2542962969839573,-0.45784021410048004
1790107342994261500,7.908261474609375,0.36187574833929537,0.8268588199317455,-0.6205728617548942
1790107343004205600,7.91820556640625,0.18413842377662656,0.6519254468739032,0.021655659230053425
1790107343014150700,7.928150634765625,-0.1883329528570175,0.5775713398963213,0.6245449802562594
1790107343024095500,7.938095458984375,-0.5669996769994496,0.45522155603468417,1.0659624673441053
1790107343034039600,7.94803955078125,-0.965586322620511,0.3564326805025339,1.399041452527046
1790107343043984600,7.957984619140625,-0.9380117947354912,0.058140638801455494,1.3540794442504644
1790107343053929500,7.967929443359375,-0.5339765283197164,-0.07573299411535263,1.289133217087388
1790107343063874600,7.97787451171875,-0.003834463596343994,0.2965986817866564,1.1473720457911492
1790107343073818400,7.987818359375,0.20849895805120466,1.0426064339369534,1.0993068108022213
1790107343083763700,7.997763671875,-0.5949427459359169,1.6423650557219982,1.2043132456749677
1790107343093708500,8.00770849609375,-1.1596461286917328,1.205310440018773,1.1106640711188316
1790107343103652400,8.01765234375,-1.09645551302433,0.13908347651958464,1.3014695515692234
1790107343113597700,8.02759765625,-0.46807577691078184,-0.38038931015133853,1.8363544269055128
1790107343123542500,8.03754248046875,-0.43693946489095686,-0.25868776106536384,2.2239941465765236
1790107343133486600,8.047486572265624,-1.7515718648940324,0.1835585780620575,2.0896932281583545
1790107343143431400,8.057431396484375,-3.2759336415261027,0.5541869571775198,1.799156038367748
1790107343153376500,8.06737646484375,-3.5873996375769375,0.0636655397027731,1.1499819360285997
1790107343163321300,8.0773212890625,-2.006145760899782,-1.1502841338455676,1.1431979749768972
1790107343173266200,8.08726611328125,-0.5715314752101898,-1.8254951792389154,2.161480699518323
1790107343183211000,8.0972109375,-1.3532581909954546,-1.4337106148481369,3.260138106501102
1790107343193155000,8.107155029296875,-2.4334809466212985,-1.4353624737083912,3.2359277943521736
1790107343203100200,8.11710009765625,-2.0103291840642687,-2.1054887631833554,1.434419055378437
1790107343213045200,8.127045166015625,-1.5494979714542627,-2.0884254001796245,1.0369371561288834
1790107343222990300,8.136990234375,-2.665273101976514,-1.6890508190512656,2.9675439841806885
1790107343232934100,8.14693408203125,-2.806634460300207,-1.6147043108582495,4.725654895454645
1790107343242879200,8.156879150390624,0.047615153133869166,-1.7880699962079525,2.7577292673557996
1790107343252824000,8.166823974609375,1.0098463201075791,-1.4259370582371949,1.123076977968216
1790107343262768400,8.176768310546874,-0.4606874202251434,-0.7562754636645317,1.57115567651093
1790107343272713200,8.186713134765625,-2.1429133616924285,-0.09796469966769218,2.0324130055785177
1790107343282658000,8.196657958984375,-2.8346348123818634,-0.3456991050422191,1.5515543194621801
1790107343292602000,8.20660205078125,-1.3009008117705583,-1.555224532407522,2.1961931164592503
1790107343302547200,8.216547119140625,0.9564935001045465,-2.203265246802568,2.168501976457238
1790107343312492000,8.226491943359376,0.9437874555274843,-1.6312877813905478,0.9580898293852805
1790107343322436000,8.23643603515625,-0.44247780979573725,-0.6421475647032261,0.6779822636723518
1790107343332381200,8.246381103515626,-0.9375760336667299,-0.697857176965475,1.2153542796492576
1790107343342326300,8.256326171875,-0.35450142017900943,-1.4325976851701736,1.3866887514322996
1790107343352270000,8.26627001953125,0.20292671087682246,-1.4020879806160926,1.0787065058439969
1790107343362215200,8.276215087890625,0.1173567978799343,-0.8507441379100084,0.8811357690423727
1790107343372160300,8.28616015625,-0.06418576418459415,-0.38876667787432667,1.517385507878661
1790107343382105000,8.29610498046875,0.2575625564277172,-0.5373761076301335,2.4905279449671505
1790107343392049200,8.306049072265624,0.7560235347300768,-0.8213608070373535,2.6757103248387573
1790107343401994200,8.315994140625,0.5858031616687774,-0.9710948569089174,2.136803938901424
1790107343411939000,8.32593896484375,0.4952496150404215,-0.8672446063339709,1.867997519403696
1790107343421883100,8.335883056640625,0.688245006750524,-0.5917132624953985,2.038312877272069
1790107343431828200,8.345828125,0.9994356929913163,-0.45927287725210186,2.2379598358258606
1790107343441773000,8.35577294921875,1.1438125997439026,-0.43783612146973605,1.8256138371825217
1790107343451717000,8.365717041015625,0.9338283715710043,-0.464451741194725,1.2810425573512911
1790107343461662000,8.375661865234376,0.5641647458344697,-0.24225275909304617,0.9072469463765621
1790107343471607300,8.385607177734375,0.3877718216180801,0.17099778717458247,0.5082563961297273
1790107343481551000,8.395551025390626,0.9956219799220561,0.3985381303042173,-0.11610796686261891
1790107343491496200,8.40549609375,1.8364634402379392,0.6477391010999679,-0.7205433482870459
1790107343501441300,8.415441162109374,2.132945802168548,0.8870254116028546,-0.8541936938419937
1790107343511386000,8.42538623046875,1.7078534269377588,1.0410299784004688,-1.0984265208363533
1790107343521330200,8.435330078125,0.7843395286321639,1.3072884669810532,-1.6231433456405997
1790107343531275300,8.445275146484375,0.5420151656076312,1.6985761877655983,-1.893210286593437
1790107343541220000,8.45522021484375,1.825833325152099,2.130491102492809,-2.3894272853612897
1790107343551164200,8.4651640625,1.945225428251922,2.385405774760246,-2.606991593399644
1790107343561109000,8.47510888671875,0.8205974214494228,2.358589079505205,-2.2399854964345693
1790107343571054300,8.485054443359376,-0.3674468264698982,2.2318647338211535,-1.626081737180054
1790107343580998100,8.494998046875,-2.1062495184227825,2.339433712658286,-1.256137833197415
1790107343590943000,8.50494287109375,-2.7403827034965156,2.2802818509876728,-1.1625739988371728
1790107343600888300,8.514888427734375,-0.2983645224153995,1.9386358207285403,-1.112272967620194
1790107343610832100,8.52483203125,2.1323709248900413,0.6335878261506557,-0.062303603699803346
1790107343620777200,8.534777099609375,2.134810426996648,-0.01687397791147232,0.8425652153685689
1790107343630722300,8.544722412109374,1.1886205865025519,0.12786767050027847,0.398637499025464
1790107343640666400,8.554666259765625,1.3720058538243174,0.34320319657325743,-0.40208325556516644
1790107343650611200,8.564611083984374,2.0712837112426756,0.683399612545967,-1.5358613680288196
1790107343660556000,8.57455615234375,1.118009173184633,1.1579594907790423,-2.089191854507476
1790107343670501000,8.584501220703125,-1.0581494555056095,1.3160352525383234,-1.2701295336708425
1790107343680445200,8.594445068359375,-0.8166346552982926,1.2803139508157968,-0.3602978314980864
1790107343690390000,8.60439013671875,0.6977694986820221,1.3435025206565856,0.15734817813709379
1790107343700335400,8.61433544921875,1.4087904008641838,1.5117413645118474,-0.15458090538084507
1790107343710279200,8.624279052734375,2.557555946840346,1.7150111897379159,-0.798499425279349
1790107343720224300,8.634224365234376,3.3535821138739585,2.1493869416207074,-0.9730663031123578
1790107343730169000,8.644169189453125,1.858912880194187,2.771410586705804,-1.2875091230168938
1790107343740113200,8.654113037109376,0.7625336472764611,2.234857485896349,-0.7748447011865675
1790107343750058200,8.664058349609375,1.742888792222738,1.1315917083352804,-1.0335681180872023
1790107343760003000,8.674003173828124,0.9836989024162291,0.3136369103491306,-1.1765437797397373
1790107343769947100,8.683947021484375,1.1212848338544368,-0.22223639150261879,-1.7039296776227653
1790107343779892200,8.693892333984374,0.8451967329159379,-0.6849971108704805,-1.8446081682488322
1790107343789837000,8.703837158203125,0.30477585076242686,-0.5039408710181713,-1.9251872872211038
1790107343799782400,8.713782470703125,-0.37249358846545216,-0.14019465263187886,-1.5591872985586523
1790107343809726200,8.723726318359375,-1.1035516087651251,0.13403554548025132,0.21732553084641693
1790107343819671000,8.733671142578125,-0.25334347742795943,0.34520576856732366,2.0519978498838842
1790107343829616000,8.7436162109375,2.865439992751181,0.19053543133735656,1.5615326926410198
1790107343839560200,8.753560302734375,1.7627593216016888,0.8065823401004075,1.142140574878454
1790107343849505300,8.76350537109375,1.792714607143402,1.5645827278614044,0.22610037345439193
1790107343859450000,8.7734501953125,2.0066130861505864,1.941655460810661,-0.40080139906108375
1790107343869394200,8.783394287109376,1.1853238830447197,2.1273720936894414,-0.545474950672686
1790107343879339300,8.79333935546875,-0.23949966099262235,2.0600047768592833,0.09878010770380496
1790107343889284000,8.8032841796875,-0.9717805010855197,1.562559697601199,1.202531622955203
1790107343899228200,8.813228271484375,0.5547884302020073,0.4295680593401193,0.9931953372970223
1790107343909173200,8.82317333984375,2.14209035487175,-0.595992547249794,0.6875140621274709
1790107343919118000,8.8331181640625,0.8683712722763418,-0.48097851310372347,2.0745833373099565
1790107343929063200,8.843063232421875,-2.201877884097397,0.49359892522394655,3.0562700231209394
1790107343939007200,8.85300732421875,-3.2080840941369533,1.2962474330067635,2.463066522067785
1790107343948952300,8.862952392578125,0.47495910668373104,1.0254951401382684,-0.013242635671794414
1790107343958897200,8.872897216796876,3.1332521405145526,0.3738268828958273,-1.0616942885056138
1790107343968841000,8.882841064453125,1.8795158155009148,0.13040449550151825,-0.024319325481355188
1790107343978786300,8.892786376953126,-0.873350521993637,0.37328093945086,1.389735279521346
1790107343988731100,8.902731201171875,-0.576825782226026,0.35524843915402887,-0.14926204844564198
1790107343998675200,8.91267529296875,0.6445338753178715,0.3423410267859697,-1.636789009155333
1790107344008620300,8.922620361328125,0.4603776236236095,0.8098667685985564,-2.0552838858172295
1790107344018565000,8.932565185546874,0.3464709661975503,1.2602309477299452,-2.0520064715817568
1790107344028509200,8.94250927734375,-0.1028302598774433,1.214245441624522,-1.889486297634244
1790107344038454000,8.9524541015625,-0.3264128052920103,0.7900596598446369,-1.890608871923387
1790107344048399000,8.962399169921875,0.11219371602833271,0.6676297964841127,-1.7503268332689998
1790107344058343200,8.97234326171875,0.007376666247844696,0.8151058382958173,-1.2721212920099496
1790107344068288000,8.9822880859375,-0.1871387746363878,0.52089609747231,-1.4636775908276438
1790107344078233300,8.9922333984375,0.34344840350598094,0.13543956705927848,-1.4137591291874647
1790107344088178200,9.00217822265625,1.1157128789409994,-0.1162462062895298,-1.2826371330663562
1790107344098122200,9.012122314453125,1.2220952783420682,0.10198328765928745,-0.9876388722136616
1790107344108067300,9.0220673828125,0.751985365255177,0.5426631081223487,-0.8450406655713916
1790107344118012200,9.03201220703125,0.8064671892881393,1.1181313382595777,-0.6964020097211003
1790107344127956200,9.041956298828126,0.6766799489021301,1.8581880730509757,-0.030246961964666842
1790107344137901000,9.051901123046875,-0.22612346206903455,2.209706093505025,0.3590519230902195
1790107344147846100,9.06184619140625,-0.8609554430618882,2.2245237234085797,0.6124450848788022
1790107344157789700,9.071789794921875,-0.7616010426014661,1.932785925656557,0.7511375162541866
1790107344167734500,9.081734619140626,0.20043606310486792,0.9112491677552461,0.646957595333457
1790107344177680000,9.091679931640625,1.0794424189031124,-0.26945991497039795,0.872168034210801
1790107344187623700,9.101623779296874,1.3216130526706575,-0.8054045284926891,1.3057698791116474
1790107344197568800,9.11156884765625,0.9068798666298389,-0.3579880932509899,1.7442402068316936
1790107344207513900,9.121513916015624,-0.03518880228102207,0.3687584935903549,1.930072575044632
1790107344217458700,9.131458740234375,-0.9463754261940717,0.8301485091269015,0.8955658609330653
1790107344227402800,9.14140283203125,-1.4874351907730101,0.9412328026086092,-0.5739356137424707
1790107344237347600,9.15134765625,-1.2161191265419125,1.1309311985999344,-1.4084037396341562
1790107344247292700,9.161292724609375,0.028162849166989325,1.840824265795946,-0.19142098200023172
1790107344257236700,9.17123681640625,0.5561731625586748,2.224493328270316,1.4375918401956558
1790107344267181600,9.181181640625,-0.30130817465186116,1.9347984345227478,2.374045591834187
1790107344277127000,9.191126953125,-1.2788722275748847,0.7785761427998542,2.2315987763613463
1790107344287070700,9.20107080078125,-1.178860824510455,-0.2489531335145235,2.0826719512194396
1790107344297015600,9.211015625,-0.38733109211325645,-0.374073551133275,1.9050766654759643
1790107344306961000,9.2209609375,0.11982523382008076,-0.25705109977424145,1.7420798139274118
1790107344316904700,9.23090478515625,-0.661446723935008,0.006869885769486427,1.8210791163623332
1790107344326849800,9.240849853515625,-2.3513445152044294,-0.23544892429709433,1.6143004062324762
1790107344336794600,9.250794677734374,-3.441179733306169,-0.39743864462971684,2.2544588429450987
1790107344346738700,9.26073876953125,-3.4086329699665305,-0.8086731748998165,4.023808941113948
1790107344356683800,9.270683837890624,-2.528441203776002,-1.8384475997924803,4.25530883552432
1790107344366628600,9.280628662109375,-0.39382337674200535,-2.75196588152349,2.0630273395508527
1790107344376573700,9.29057373046875,1.1759542894139885,-2.585946467283368,1.161430966281891
1790107344386517800,9.300517822265626,-0.936061537450552,-0.380804320693016,2.3016250832676888
1790107344396462600,9.310462646484375,-2.8401377937123176,0.7060813999533653,1.349109839144349
1790107344406407700,9.32040771484375,-2.900443793854117,-0.3935930751174688,2.5980437323123216
1790107344416351700,9.330351806640625,-1.8621584379866718,-1.3852549192368984,4.795623919215798
1790107344426296800,9.340296875,0.618130144777894,-2.113624138844013,2.8945617500782013
1790107344436241700,9.35024169921875,1.1143769541621207,-2.3978935004115103,1.8577087651014328
1790107344446185700,9.360185791015626,-0.30397534803450105,-2.1364497186362743,2.5075924770146605
1790107344456130800,9.370130859375,-1.240109366199374,-2.1980238390177487,3.2482202896922825
1790107344466075600,9.38007568359375,-1.3436767081797123,-2.169930547955632,2.2407541427195072
1790107344476019700,9.390019775390625,-1.0136763997897504,-1.619813616696,0.5577607240110636
1790107344485964800,9.39996484375,-1.2115788527637719,-1.2851988002479076,0.7321048990041017
1790107344495909600,9.40990966796875,-0.8950807077646254,-1.2939134371012448,1.6176859570175408
1790107344505854700,9.419854736328125,-0.5248620784938335,-1.4730670582026242,2.4116852943986653
1790107344515798800,9.429798828125,-0.28300913237333297,-1.6341858409196137,2.640874573779106
1790107344525743600,9.43974365234375,0.06284633227437735,-1.7122423095464705,2.473600191041827
1790107344535688700,9.449688720703126,0.28769582888484,-1.7101573199659585,2.224528984105587
1790107344545632500,9.459632568359375,0.044882513299584384,-1.6329665282577275,1.643847987756133
1790107344555577900,9.469577880859376,-0.48418198532015083,-1.5092460405647754,1.0729226617455483
1790107344565522700,9.479522705078125,-0.6234887492015957,-1.4831190811395645,1.2616238633930683
1790107344575466800,9.489466796875,0.10885171212404966,-1.3882476713120937,1.4760416900992392
1790107344585411800,9.499411865234375,0.8380676116883754,-1.091804472348094,1.19017249211967
1790107344595356700,9.509356689453124,0.5412579174995422,-0.8558072665184736,0.7383475927859544
1790107344605300700,9.51930078125,0.014224632446467876,-0.7544739672005176,0.6769084969609975
1790107344615245800,9.529245849609374,-0.06881897694319486,-0.44812370672821994,0.6636158846676349
1790107344625190700,9.539190673828125,0.33733225871324535,0.08258242161870002,0.682314447657764
1790107344635134700,9.549134765625,0.979021850515902,0.5551473266422748,0.5982002864271402
1790107344645079600,9.55907958984375,1.4320660625115036,0.9311293417453765,0.17022329567074776
1790107344655024600,9.569024658203125,1.381467509652674,1.3787790012210606,-0.22140637041926384
1790107344664969700,9.5789697265625,1.0185001666843891,1.5379226844727991,-0.9161290487512945
1790107344674913500,9.58891357421875,1.1224138378843664,1.753790125465393,-1.6712959666520357
1790107344684859000,9.59885888671875,0.7368412798762322,2.0825901181548834,-2.058157103165984
1790107344694803700,9.6088037109375,0.5693097075074911,2.4035347211688753,-2.1425342992469667
1790107344704747800,9.618747802734376,0.7191656301930547,2.469514383032918,-1.963782244683802
1790107344714692600,9.628692626953125,0.9514479071527719,2.0421230832099915,-1.6710288401484488
1790107344724637700,9.6386376953125,1.1054559810817242,1.275119304782152,-1.4375430326178669
1790107344734581800,9.648581787109375,0.5601461578428745,0.3896241714864969,-0.7993424519747495
1790107344744526600,9.658526611328124,0.20861206303685903,-0.13176876959204673,-0.6346794207796455
1790107344754471700,9.6684716796875,-0.1497165142148733,-0.35250001722872254,-0.9211398626506329
1790107344764415700,9.678415771484374,-1.157817744220793,-0.2218734034091234,-0.9510743976652621
1790107344774360600,9.688360595703125,-1.5222177503407002,0.08783961149454117,-1.5267992329120634
1790107344784306000,9.698305908203125,-0.5398296382620931,0.8645219033718109,-2.0801915325805544
1790107344794249700,9.708249755859375,-0.002567220139503479,1.1884925762087106,-1.5750418702945113
1790107344804194800,9.71819482421875,0.2616556709602475,0.8905524166852236,-0.24442805730551478
1790107344814139600,9.7281396484375,0.8299903959557413,0.673175740173459,1.121653959427774
1790107344824084700,9.738084716796875,1.1113418242499231,0.8459633333742618,1.8003636605918407
1790107344834028800,9.74802880859375,0.5416527620360255,0.7186094576150178,1.1759230174928903
1790107344843973600,9.7579736328125,0.38684476990103717,0.9208183756113052,0.8358218785881996
1790107344853918700,9.767918701171874,0.880323868137598,1.3413649241060017,0.3536135314285755
1790107344863862800,9.77786279296875,0.9194973561406135,1.7913257831335068,-0.6441036672070622
1790107344873807600,9.7878076171875,0.40739875149950383,2.256802775722742,-1.0356192053981124
1790107344883752700,9.797752685546875,1.3538001889176665,2.044934048977494,-0.9224975608699023
1790107344893696800,9.80769677734375,2.445091158785671,1.9276462246805428,-0.7819077714405953
1790107344903641600,9.8176416015625,1.9675638090491294,1.774551173943281,-1.2661398795127867
1790107344913586700,9.827586669921875,0.8786021589115262,1.5531576630055903,-1.26180740326643
1790107344923530800,9.83753076171875,1.370814890474081,1.478660348165035,-1.8934891035348176
1790107344933475800,9.847475830078125,1.0812471302375197,1.282111355626583,-2.48302239164263
1790107344943420700,9.857420654296876,0.5291232430696488,1.1645534822165966,-1.971475429534912
1790107344953365800,9.86736572265625,0.6284723828330636,0.9955915847837924,-1.7091772228874265
1790107344963309800,9.877309814453126,0.43799774177223444,1.201606909325719,-1.5578310616441071
1790107344973254700,9.887254638671875,1.6058979040682315,1.244818859064579,-2.3315016044847665
1790107344983199500,9.897199462890624,0.9021151364460587,1.0020289243549108,-2.1477027879260477
1790107344993143800,9.907143798828125,0.19950579651743172,0.5190542689979076,-1.179197362988442
1790107345003088600,9.917088623046874,0.3780781105995178,-0.23713410090506076,-0.4634098309263587
1790107345013033700,9.92703369140625,-0.20397914253920316,-0.7546271119356155,0.3197545164465904
1790107345022977500,9.9369775390625,-1.4677861951902509,-0.7429851894587278,1.3569567532524465
1790107345032922600,9.946922607421875,-1.2725395174220204,-0.43347208104133605,1.669001133713126
1790107345042867700,9.95686767578125,-0.09566519055366515,-0.19800795917510985,1.2253475581362843
1790107345052811500,9.9668115234375,0.06792845784425736,0.06108487555980682,1.032230293612182
1790107345062756900,9.9767568359375,-0.5190414095163345,0.3962906436383724,1.1925097028955816
1790107345072701700,9.98670166015625,-1.1317562512472272,0.5883557687610388,1.4242106728360056
1790107345082645800,9.996645751953125,-1.0629971877977251,0.8436229077279567,1.5560682897552847
1790107345092590800,10.0065908203125,0.39586686526834963,0.8996335487633943,1.0038479564756155
1790107345102535700,10.01653564453125,0.6835793530270456,0.9134346951007842,1.2826570068106053
1790107345112480800,10.026480712890624,0.3140270787104964,0.8196341293752193,1.7361466244861483
1790107345122424600,10.036424560546875,-0.24766893892288205,0.7477864522606134,1.819763065327704
1790107345132369700,10.04636962890625,0.2976704026713967,0.6716033762902021,0.7337526662111282
1790107345142314800,10.056314697265625,0.3156020729422569,1.0164964256465434,-0.10720803657025098
1790107345152258600,10.066258544921874,0.14633710090965033,1.370598617374897,-0.923554522576928
1790107345162204000,10.076203857421875,-0.14316928452849387,1.7147265275776384,-1.5911252823501825
1790107345172149200,10.086149169921875,-0.5550064568668603,1.9810592504382132,-1.93630533195436
1790107345182093000,10.096093017578125,-0.36757659032940865,1.9337112238079308,-2.400471534205973
1790107345192038100,10.1060380859375,0.22554946157336234,1.8235306011676786,-2.688095759159326
1790107345201983000,10.11598291015625,0.2716787600636482,1.7281974190473555,-2.255994966471195
1790107345211927300,10.12592724609375,-0.10507044001966714,1.601006624895334,-1.593097459205985
1790107345221872000,10.1358720703125,0.15906214244812725,1.116260283690691,-1.5681252227738498
1790107345231817000,10.14581689453125,0.7067445400372148,0.7470195595413446,-1.5559291735455394
1790107345241762000,10.155761962890624,1.018561833743751,0.38881636223495003,-1.2970590416505932
1790107345251706000,10.1657060546875,1.1691416867896913,-0.19189444473087786,-0.999113621430099
1790107345261651000,10.17565087890625,1.182152559532225,-0.7105746197193861,-0.747016929192841
1790107345271596300,10.18559619140625,1.1990756372824312,-0.7740536969393491,-0.8075742737472057
1790107345281540000,10.1955400390625,1.0099477346554397,-0.24318682507276534,-0.5134571796432137
1790107345291485200,10.205485107421875,-0.036384734067320824,0.36814533012807366,-0.2572898769661784
1790107345301430000,10.215429931640625,-0.9641855159118771,0.6081365740299225,-0.6676935093700885
1790107345311374000,10.2253740234375,-1.0545166519612073,0.5780524014115334,-0.8744187357470393
1790107345321319200,10.235319091796875,-1.1332423981517552,0.696964027518034,-0.7586217345297336
1790107345331264000,10.245263916015626,-1.041178739221394,0.9142349055677652,-0.7038616780772805
1790107345341208000,10.2552080078125,-0.9735656309366225,1.2999421958714723,-0.22369126648604867
1790107345351153200,10.265153076171876,-0.8078577668637037,1.6933628370314835,0.6544339225634932
1790107345361098000,10.275097900390625,-0.39228725321590896,1.7155086178660393,0.9458756599783897
1790107345371043000,10.28504296875,0.33154666104912756,1.408945006904006,0.8729594768494368
1790107345380987100,10.294987060546875,0.6311667364835739,1.274490943750739,0.6320289062708616
1790107345390932000,10.304931884765624,0.3414817796081304,1.5966718105614184,0.9477817858606576
1790107345400877000,10.314876953125,0.3208662770807743,2.0861720682948826,1.8695558547616005
1790107345410821000,10.324821044921874,-0.41018005278110503,2.1664427058398723,1.8960165761858223
1790107345420766200,10.33476611328125,-1.2553975362241268,1.48655899246037,0.974637059560418
1790107345430711000,10.3447109375,-1.4667369783982633,0.6529734946221113,0.8527659991264342
1790107345440655000,10.354655029296875,-1.056964045113325,0.2102624605923891,1.4703040232300757
1790107345450600200,10.36460009765625,-1.0734539921432733,0.394420758113265,1.8363795613467693
1790107345460545000,10.374544921875,-1.1651017637491226,0.4292816436141729,1.7667875542044638
1790107345470489000,10.384489013671875,-1.479242531967163,0.33573359134495256,1.9825836835265158
1790107345480434200,10.39443408203125,-1.3289590315192936,0.07920037796497345,2.30408358233571
1790107345490379000,10.40437890625,-1.5116186149150133,-0.15658698450624942,2.269775070020556
1790107345500323000,10.414322998046876,-2.3248890544772145,-0.32070728712677954,2.559961546677351
1790107345510268000,10.424267822265625,-3.82449282194972,-0.37299043207168575,3.092579061603546
1790107345520213200,10.434213134765624,-4.25316422471106,-1.202979366722703,2.6094056688040492
1790107345530158000,10.444157958984375,-2.2325983087927104,-2.8801965401172636,1.579223832154274
1790107345540102000,10.454101806640624,-0.7135831538856029,-3.648561670026183,2.56803788562715
1790107345550047200,10.464047119140625,-1.8625491908699272,-3.0384149252176282,4.209664690202474
1790107345559992000,10.473991943359374,-3.7720968642801043,-2.1747171977102755,4.527381563341617
1790107345569936100,10.48393603515625,-2.62316765217483,-1.9918997934043405,2.960896216729283
1790107345579881200,10.493881103515625,-0.5346083964824676,-1.9004273783653973,1.1986585809141397
1790107345589826000,10.503825927734376,-0.5227180522024631,-1.2493687774538993,1.1998434067845345
1790107345599770000,10.51377001953125,-1.339365274721384,-0.941648982194066,2.2613059323608873
1790107345609715000,10.52371484375,-1.5983464657753705,-1.1824708317011594,2.414348960649967
1790107345619660000,10.533659912109375,-1.6231950758278368,-1.2482622775167227,2.160427975594997
1790107345629604000,10.54360400390625,-1.055496310648322,-1.2748311354905366,2.058610107630491
1790107345639549000,10.553548828125,-0.2270937684059143,-0.9003267917245626,1.0044020832270384
1790107345649494300,10.563494384765624,-0.7181509001925587,-0.6261456934511661,0.23698154069185257
1790107345659438000,10.57343798828125,-1.1727537398070096,-0.9845610722035169,0.9423504084616899
1790107345669383200,10.583383056640624,-0.7127069555729627,-1.5173358235180376,1.4975608634680508
1790107345679328000,10.593327880859375,-0.6066171093776822,-1.6203168900430203,1.5311626888185739
1790107345689273000,10.603273193359374,-0.5641781898379326,-1.5151619866102932,1.4367320084959267
1790107345699217200,10.613217041015625,-0.2366334579065442,-1.4386445641189813,1.2585434330344198
1790107345709162000,10.623161865234374,-0.1328939742296934,-1.3886176736682652,0.9689075759977102
1790107345719107000,10.633107177734376,-0.010614332994818686,-1.0499299086928366,1.057324110597372
1790107345729051100,10.643051025390625,0.2642749135479331,-0.6064578271627425,1.322002051988244
1790107345738996000,10.652995849609376,0.6586494944319129,-0.2594230896025896,1.483485576364398
1790107345748941000,10.662941162109375,1.2315493353858589,-0.0036351416319608688,1.8450819232404232
1790107345758885000,10.672885009765626,1.5799869254812597,0.10788578970134258,1.7216519429266453
1790107345768830000,10.682829833984375,1.502840557436645,0.40765550273954865,1.6678291673243044
1790107345778775000,10.692775146484376,1.1666200593575835,0.6575345189273357,1.1386109394475816
1790107345788719000,10.702718994140625,0.7512704949840903,0.6517360617816448,0.46462563645690674
1790107345798664200,10.712664306640624,0.5454334496185184,0.8255781324714422,0.12731471279263495
1790107345808609000,10.722609130859375,0.3473994792193174,1.1885656414449215,0.3672662092059851
1790107345818553000,10.732552978515624,0.5650687089368701,1.3148913432002067,0.3109498632222414
1790107345828498200,10.742498291015625,1.3616656615957616,1.357093823635578,0.14681874694675207
1790107345838443000,10.752443115234374,2.1469980006575584,1.4886784688323735,-0.08278554297536611
1790107345848388000,10.76238818359375,2.420522680848837,1.7771569725275038,-0.7498182503491639
1790107345858332200,10.772332275390625,1.725995817349851,1.9747645342081783,-1.8250252236396074
1790107345868277000,10.782277099609376,0.9084826256513595,2.1494284426748753,-2.6561428700596093
1790107345878222000,10.79222216796875,0.6746341222882271,2.349892562830448,-2.896397148811817
1790107345888166100,10.802166259765626,-0.027575112406909463,2.372106732726097,-2.473905895990133
1790107345898111200,10.812111328125,-1.2475573441177605,1.9305448687314986,-2.2479747416228055
1790107345908056000,10.82205615234375,-2.2666917170524594,1.2473515924125909,-2.36885620649755
1790107345917999900,10.831999755859375,-2.306818267996609,0.5798907227545976,-2.0568585877880454
1790107345927945200,10.8419453125,-1.653426547962427,0.07636720036566257,-1.9956033240973947
1790107345937890000,10.85189013671875,-1.3327832659825682,0.05947510227560997,-1.555409241324663
1790107345947834000,10.861834228515624,0.29186083960980175,0.137411743915081,-0.7988666511565446
1790107345957779200,10.871779296875,2.497064360998571,0.173341135430336,-0.5241238273471593
1790107345967724000,10.88172412109375,2.2592928389728066,0.37060032206475735,-0.37056671205610037
1790107345977669000,10.891669189453125,0.32049481341987845,0.7742360677689314,0.5066124283149838
1790107345987613200,10.90161328125,-0.8614940799832344,0.8693488851368427,0.656611704993993
1790107345997558000,10.91155810546875,-0.8840940343260765,0.7606120315641164,0.09332593395113944
1790107346007503000,10.921503173828125,-0.05031257552430033,1.2028922729611395,0.5489977179713547
1790107346017447000,10.931447021484376,0.720925625602901,1.9379665431648492,1.0761610591448842
1790107346027392300,10.941392333984375,1.521535028773546,1.989049664670229,0.8419237025946378
1790107346037337000,10.951337158203126,1.9569884928904473,1.6439333279520272,0.4634646298535168
1790107346047281200,10.96128125,1.64209602952227,1.5168407334774732,-0.30362916494533415
1790107346057226200,10.971226318359374,0.9034171589553356,1.5320546692222357,-1.0624774017073213
1790107346067171000,10.981171142578125,0.9860039644882083,1.3213731064349412,-1.1634570652820169
1790107346077115100,10.991115234375,0.9682149175584316,1.273224869337678,-1.1881536996431648
1790107346087060000,11.00106005859375,0.7789255407594143,1.4649159004509449,-1.4040072582408785
1790107346097005000,11.011005126953124,1.4422785367071627,1.365456578311324,-2.104835706102103
1790107346106950100,11.0209501953125,1.1689715909197926,1.0323603497326372,-1.7366842384941874
1790107346116894000,11.03089404296875,1.68460377651453,0.6459095475852489,-1.8516499034538865
1790107346126839000,11.040839111328125,0.08506693191081285,0.39964287667572496,-0.958241074424237
1790107346136784100,11.0507841796875,-0.7848118223190307,0.3974450743705034,0.19126038461104033
1790107346146728000,11.06072802734375,1.2117936645582317,-0.009663900402188301,-0.39749052094742654
1790107346156673300,11.07067333984375,0.7293737204745412,0.14017887054085731,-0.8843715360932052
1790107346166617900,11.080617919921876,0.1412880008265376,0.6059393562465906,-0.7749022765927016
1790107346176562000,11.09056201171875,-1.0679971880421042,1.0505284591078758,0.45097310480996966
1790107346186506800,11.1005068359375,0.4049146795988083,1.0084241783499717,0.3595538812629878
1790107346196451800,11.110451904296875,1.3525757616892455,0.6842161896258592,0.021253508169949052
1790107346206396000,11.12039599609375,0.7226534723088145,0.6691039606899023,0.3155053345695138
1790107346216340700,11.1303408203125,-0.8936363541752099,0.7189204232603311,1.3689604947790504
1790107346226285800,11.140285888671874,-0.9700161217615008,0.24067221190333365,1.4600386498034
1790107346236230000,11.15022998046875,-0.520655566714704,-0.3633779695957899,1.258817281539738
1790107346246174700,11.1601748046875,-0.5634554285213351,-0.5234802687466145,1.2314254167452454
1790107346256119800,11.170119873046875,-0.24265520241409538,-0.3614180676996708,1.006196857689321
1790107346266065000,11.18006494140625,-0.4200979279443621,-0.06650397799909115,1.2343138316631317
1790107346276009000,11.190009033203125,-0.5449357292294502,0.15112755005657671,1.1875026883885265
1790107346285953800,11.199953857421875,0.4316889970168471,0.26062369756400583,0.49966275530755516
1790107346295899000,11.20989892578125,0.011290917082130909,0.5926695403069258,0.6798419200643897
1790107346305843000,11.219843017578125,-0.010062544330954552,0.7368909642368555,0.21287819604873656
1790107346315787800,11.229787841796876,0.07309826169759034,0.9815092834174632,-0.49275195300579067
1790107346325732900,11.23973291015625,-0.28039836535304785,1.2754413763433694,-0.8816168305575847
1790107346335677000,11.249677001953126,-0.3694154961943626,1.2763228353530167,-1.4720961673438548
1790107346345621800,11.259621826171875,0.1686278431728482,1.263164663094282,-2.7499855213612316
1790107346355566800,11.26956689453125,0.23090485112667083,1.510634280052781,-3.2808369033977387
1790107346365511000,11.279510986328125,0.2075087779700756,1.7422908263295889,-3.3594340547725556
1790107346375455700,11.289455810546874,0.1975473559260368,1.6752578560203313,-3.1524189055383203
1790107346385400800,11.29940087890625,0.279562499050796,1.5054285281032322,-2.594374396149814
1790107346395346000,11.309345947265625,0.33717326875925063,1.3793681992858648,-1.885183339743316
1790107346405290000,11.3192900390625,0.10463029503673314,1.134337792173028,-1.2982991048395633
1790107346415234800,11.32923486328125,-0.2577934425741434,0.7654565489858388,-0.8953001957342028
1790107346425179600,11.3391796875,-0.39505408758074045,0.4003483945965767,-0.7066726438447832
1790107346435124000,11.3491240234375,-0.21685499072521924,-0.000730067840218544,-0.6445145860955118
1790107346445068800,11.35906884765625,0.05198737686872482,-0.20883038196265696,-0.7539823842912912
1790107346455013600,11.369013671875,0.11303338172286748,-0.015129764592647551,-0.520123944056034
1790107346464958000,11.3789580078125,-0.15129530783891676,0.3413052539974451,-0.5134741307780146
1790107346474902800,11.38890283203125,-0.46758244043588637,0.6919833164960145,-0.5819488243281841
1790107346484847900,11.398847900390624,-0.18927929379642008,0.913321297854185,-0.6654866469755768
1790107346494791700,11.408791748046875,0.2507207277089357,1.18509942663908,-0.14805822561383247
1790107346504737000,11.418737060546874,-0.2681096694052219,1.6486515886455773,1.0950070677816868
1790107346514681900,11.428681884765625,-1.0242758274763821,1.8066671446502207,1.372038294789195
1790107346524626700,11.438626708984375,-0.7083955221146345,1.3700409834921359,0.66397945728302
1790107346534571000,11.448571044921875,-0.11893939089626074,1.1091782164752482,0.5268664040535688
1790107346544515800,11.458515869140625,-0.47159226059913634,1.6168851620286702,1.0074468577504156
1790107346554460700,11.468460693359376,-0.4955559045106172,1.7439374244928358,0.9782359608352184
1790107346564404700,11.47840478515625,-0.4946005034819245,1.494199862602353,0.8739052332669496
1790107346574349800,11.488349853515626,-1.1052478912889956,1.3410200561910868,0.716413993397355
1790107346584295000,11.498294921875,-1.1194827528685332,1.2016349663764239,0.8189531613737344
1790107346594238700,11.50823876953125,-0.7321048990041017,0.8777461266040801,0.7739432223021984
1790107346604183800,11.518183837890625,-0.7246271104693413,0.7987544229537248,1.073512444332242
1790107346614129000,11.52812890625,-1.0205997693121434,1.0190928718805312,1.632038892018795
1790107346624072700,11.53807275390625,-1.774187601327896,0.9225240104854107,2.0457406891852616
1790107346634018000,11.54801806640625,-2.4232389540702104,0.48972705222666263,2.4638585492283105
1790107346643963000,11.557962890625,-2.471432783874869,-0.11962941898703575,2.788264106351137
1790107346653907000,11.567906982421874,-2.4601187781780958,-0.48524201576709747,3.3244518809795376
1790107346663851800,11.577851806640625,-2.9698306338131424,-1.0883470253705978,3.39278132084012
1790107346673796900,11.587796875,-3.1187007603317496,-2.089467018187046,2.816714540287852
1790107346683741700,11.59774169921875,-3.235345026028156,-2.820761185330152,3.2044261561512943
1790107346693685800,11.607685791015625,-3.0195594181001186,-3.05469327532351,4.256235887241363
1790107346703630800,11.617630859375,-1.4958710106849669,-3.2564544495522973,3.893418474137783
1790107346713576000,11.627575927734375,-0.23975568158030508,-3.0772961522758004,2.6400007135540244
1790107346723519700,11.637519775390626,-0.8320283315241336,-2.436570729330182,2.2502853566527365
1790107346733464800,11.64746484375,-3.1801305038064718,-1.4941992780804634,3.5650212170302864
1790107346743410000,11.657409912109374,-3.680460198590159,-1.5545786357194185,3.4392847133398052
1790107346753353700,11.667353759765625,-1.790180120229721,-2.1838521058022975,3.106176794323325
1790107346763298800,11.677298828125,-0.050475803261995314,-2.55205530359745,2.587477330112457
1790107346773244000,11.687243896484375,0.5762760393887758,-1.8673440239310264,1.0963204884678124
1790107346783188000,11.69718798828125,-0.2954857521086931,-0.6859376065909862,0.3536901037961244
1790107346793132800,11.7071328125,-1.6090464312270283,-0.24808336494266986,0.8736451210260391
1790107346803078000,11.717077880859375,-2.0193062712460756,-0.6545546263337135,1.857348115095496
1790107346813022000,11.72702197265625,-1.2467948353126643,-1.0257225191533565,2.1707430333822963
1790107346822966800,11.736966796875,-0.30903087785840033,-0.8630980080485343,1.2287351547479628
1790107346832911600,11.74691162109375,-0.23943945523798466,-0.7452724236130714,0.6042378130257129
1790107346842857000,11.75685693359375,-0.24890812532901763,-0.7945733378767966,1.0155980155020952
1790107346852800800,11.76680078125,0.41358372374475,-0.6124667121887206,1.8738351395159958
1790107346862745900,11.776745849609375,0.9936468804568052,-0.3175970461517572,1.5631091481775043
1790107346872691000,11.78669091796875,0.8995335955202579,-0.1542792920857668,0.5673299318671227
1790107346882634800,11.796634765625,0.2519292267158627,0.04830781157314777,-0.19653204140365121
1790107346892579800,11.806579833984374,-0.4577405531182885,0.44605040758550163,0.21906594477295874
1790107346902525000,11.81652490234375,-0.5363593318030238,0.3172428258866071,1.0326379976302384
1790107346912469000,11.826468994140624,0.11158639778494835,-0.09675415483415126,1.9411270530223845
1790107346922413800,11.836413818359375,1.2949755133748053,-0.2378729365736246,2.7047689538016915
1790107346932358700,11.846358642578124,1.9862255471602082,-0.32156010456383227,2.576485103715956
1790107346942303000,11.856302978515625,1.7261363948643207,-0.21866846988797187,1.6702987723082303
1790107346952247800,11.866247802734375,0.7609329340815544,-0.2254156060606241,0.3807990599960088
1790107346962193000,11.87619287109375,0.20813421639204024,-0.10967208859622478,-0.2314244910866022
1790107346972138000,11.886137939453125,0.42128538416326045,0.21876666956543922,-0.380485464002192
1790107346982081800,11.896081787109376,2.016028564749658,1.2035896075755357,-0.5590946029633284
1790107346992027000,11.90602685546875,2.709607333743572,2.4477877043932676,-0.9870064195290207
1790107347001971700,11.9159716796875,1.0417162070989607,3.3199832111328837,-1.896800712300837
1790107347011916000,11.925916015625,-0.1602335243150592,3.7186592886030674,-2.1402780447527765
1790107347021860900,11.93586083984375,-0.36106881587058304,3.2429104928463697,-1.7221663221895693
1790107347031805700,11.9458056640625,-0.11617518687993288,1.8955460360646246,-1.2407052862659096
1790107347041749800,11.955749755859374,0.4950587686434388,0.7239905661314725,-0.7440425895571708
1790107347051694800,11.96569482421875,1.1450482790187,-0.12710077778100967,-0.6196013863742351
1790107347061639700,11.9756396484375,0.8825430054917931,-0.4102034336566925,-0.4635419328734278
1790107347071583700,11.985583740234375,-0.12759265295118094,-0.2977484363436699,-0.6456178711622953
1790107347081528800,11.99552880859375,-0.7359741416528821,0.10309504829347133,-1.3360475284755229
1790107347091474000,12.005473876953126,-1.0465858589619397,0.4905278472155332,-2.3346230975061655
1790107347101417700,12.015417724609375,-2.564022804766893,0.49381461380124086,-1.289204236496985
1790107347111362800,12.02536279296875,-3.4517487658545374,0.6118827748209238,1.4247417109727858
1790107347121308000,12.035307861328125,-0.9152679018773138,0.7249661331653594,2.7344895538046954
1790107347131252700,12.045252685546876,4.392182527039945,1.4782079282224176,3.1433222836300727
1790107347141196800,12.05519677734375,5.84228108984828,2.547450440150499,1.0254209058582782
1790107347151142000,12.065141845703126,2.7374294066488742,3.7834132080644367,-0.30728213449493047
1790107347161087200,12.075087158203125,0.6194146316304803,3.7176872287005183,-0.5658757875360548
1790107347171031300,12.08503125,0.912335647817701,3.328375191903114,-1.607263931724429
1790107347180976400,12.094976318359375,0.9080161771833896,3.152843268430233,-1.6816837974146008
1790107347190921200,12.104921142578124,1.781554622964561,2.0685721141964195,-1.2997332292959094
1790107347200865300,12.114865234375,2.9114965182662007,0.9986433735698461,-2.1355825804129243
1790107347210810000,12.12481005859375,1.3000607076846062,0.4118962090492248,-3.912383579109609
1790107347220755500,12.13475537109375,-2.6425802086532113,0.08030804694592952,-2.4825933525756
1790107347230699300,12.14469921875,-1.4306268234886228,-0.09916939928233623,-1.2019871408149598
1790107347240644000,12.15464404296875,1.3436150411203502,-0.18468787435293196,-1.7884714166156948
1790107347250589400,12.16458935546875,2.1674911919794977,-0.2871855412751436,-3.4075121492430567
1790107347260533200,12.174533203125,1.0713815697833895,-0.04309387631714344,-2.89402282089591
1790107347270478300,12.184478271484375,0.6331820218287408,-0.129409054723382,-1.8251299991883336
1790107347280423400,12.19442333984375,-1.7550072461701929,-0.21818448576331137,0.5973712882570922
1790107347290368300,12.2043681640625,-0.5358262478396296,-0.37540392295420166,1.1819960537962615
1790107347300312300,12.214312255859374,1.2838804111257194,-0.9797755914926528,0.7468374809727072
1790107347310257200,12.224257080078125,0.6181985338389873,-0.9415174647688865,0.6752920016750693
1790107347320202200,12.2342021484375,-0.746655110143125,-0.3426110758990049,1.5535793955489992
1790107347330146300,12.244146240234375,0.19449878201037643,-0.5340753125190735,1.0881327980980275
1790107347340091100,12.254091064453124,-0.0231892985381186,-0.642184974104166,1.1311237985625862
1790107347350036500,12.264036376953126,-1.040447502337396,-0.006405775389075279,1.651460800847411
1790107347359980300,12.273980224609375,-1.1094729616381227,0.8371621872812509,1.9790365124389528
1790107347369925400,12.28392529296875,1.5100852678678929,1.2455717232584953,0.8702578166753053
1790107347379870200,12.2938701171875,1.9246517190396784,1.6941817521989344,0.43416736982911824
1790107347389814300,12.303814208984376,2.2904921332262456,1.7529449068129062,-0.282052270039916
1790107347399759400,12.31375927734375,1.7015777076691387,1.614039709469676,-0.20469079793989658
1790107347409704200,12.3237041015625,0.6700690063297748,1.5006319414764642,0.5068430222004652
1790107347419649300,12.333649169921875,-0.7439467279672622,1.4352929156035183,1.6043015747874974
1790107347429593300,12.34359326171875,-0.6023218964017927,1.071565401917696,1.6494290027588605
1790107347439538200,12.3535380859375,1.3163665303193033,0.3471878822952509,0.5225286671102046
1790107347449483500,12.3634833984375,1.8913360171541571,-0.009928688818216323,0.6016232466131448
1790107347459427300,12.37342724609375,-0.21861352483034133,0.03439969772994518,2.052272721302509
1790107347469372200,12.3833720703125,-0.9248284880355,-0.22536299909055232,1.421219966587424
1790107347479317200,12.393317138671875,1.3315624920159577,-0.47323827424049375,-1.1558160490095615
1790107347489261300,12.40326123046875,2.1028931937322017,0.24832886413633823,-2.0820281003579497
1790107347499206400,12.413206298828126,1.2590256635934114,1.2728221337556838,-1.933138684616983
1790107347509151200,12.423151123046875,-0.06796499046236276,1.9597884988725185,-2.3592998581230638
1790107347519095300,12.43309521484375,-1.0737526828289032,1.900454266372323,-2.6445637836858626
1790107347529040400,12.443040283203125,-0.6293219853997231,0.9640110361278057,-3.033532706134021
1790107347538985200,12.452985107421876,1.0660928157255052,0.8929688301771879,-2.698976926396787
1790107347548929300,12.46292919921875,1.4927540477082133,1.5942641648977993,-1.4785460741356014
1790107347558874400,12.472874267578124,0.6581552811741829,1.6968337280124426,-0.8323518643900751
1790107347568819200,12.482819091796875,0.1278679627612233,1.241047523832321,-1.0667521564170717
1790107347578764300,12.492764404296874,0.4227756227210164,0.5441542234629392,-1.6416159909203647
1790107347588708400,12.502708251953125,0.9743655491426586,-0.08464461484551429,-2.018461929376423
1790107347598653400,12.5126533203125,0.909625073684752,-0.18622633596658705,-1.337783558487892
1790107347608598300,12.522598388671875,0.09760083479136228,-0.09649170450568198,-0.46469577908366916
1790107347618542000,12.5325419921875,-0.0720914227426052,-0.08312427341043949,-0.43821109226197
1790107347628487400,12.5424873046875,0.18055559685379266,0.14841478396654129,-0.2283297399416566
1790107347638432300,12.552432373046875,-0.5238944025054574,0.5823544825196266,0.42245588924735783
1790107347648376300,12.562376220703126,-1.2654592037722467,1.3619102840065955,0.9036614891052246
1790107347658321400,12.5723212890625,-1.2658867815345525,1.8293050929158925,0.7736860326707362
1790107347668266200,12.582266357421876,-0.4955447985947132,1.658908194243908,0.7239648471683263
1790107347678210300,12.592210205078125,-0.7278133392900228,1.5364719011425971,1.29315765029788
1790107347688155100,12.602155029296876,-1.1158911581173538,1.0542010101407766,1.0047896212399006
