time,seconds_elapsed,z,y,x
1790107335147901000,0.06190087890625,-8.111024478733539,-5.398468232056498,-1.1127472340684383
1790107335157846300,0.07184619140625,-8.063626183220745,-5.462062460088729,-1.1463812811881302
1790107335167790000,0.0817900390625,-8.024182061582803,-5.509207657623291,-1.196460705543682
1790107335177735200,0.091735107421875,-7.999553816282749,-5.527388626480103,-1.274947747607529
1790107335187680300,0.10168017578125,-7.986242499288916,-5.524591689237952,-1.3671882244095206
1790107335197625000,0.111625,-7.970119632005691,-5.522257108810543,-1.4670561273500322
1790107335207569200,0.121569091796875,-7.939215959697961,-5.534225779023767,-1.5847997325904666
1790107335217514200,0.13151416015625,-7.883747754976153,-5.568246122047305,-1.7353790011145174
1790107335227459000,0.141458984375,-7.801183453536034,-5.624337427103519,-1.918006728067249
1790107335237403100,0.151403076171875,-7.691789597359299,-5.692551131629943,-2.145138490395993
1790107335247348000,0.161347900390625,-7.552605583074689,-5.767613679137826,-2.421396541073918
1790107335257293300,0.171293212890625,-7.383030522179603,-5.84802343289256,-2.7316417631581422
1790107335267237000,0.181237060546875,-7.180420037645101,-5.927745788905024,-3.0779514013141394
1790107335277182200,0.19118212890625,-6.94660660559535,-5.992184651067853,-3.4653646187528966
1790107335287127300,0.201127197265625,-6.683872199487686,-6.031835693454742,-3.8875688713267444
1790107335297071000,0.211071044921875,-6.369411113274097,-6.04573328590393,-4.364641901424527
1790107335307016200,0.22101611328125,-5.9736319262892,-6.034127019262313,-4.906671387818456
1790107335316961000,0.2309609375,-5.495190238186717,-5.975467909544706,-5.501549251824617
1790107335326905300,0.2409052734375,-4.972983642637729,-5.836729885461926,-6.113297586610913
1790107335336850200,0.25085009765625,-4.440005477705598,-5.611011497062444,-6.706212626111507
1790107335346795000,0.260794921875,-3.9050115890368815,-5.311169887831807,-7.260353990581631
1790107335356740400,0.270740234375,-3.372812884044647,-4.962230193433165,-7.756983077281713
1790107335366684200,0.28068408203125,-2.8731434067353603,-4.57594071932733,-8.183897991764544
1790107335376629000,0.29062890625,-2.4572528673529623,-4.159700343593955,-8.534002638289332
1790107335386574300,0.30057421875,-2.135287104597688,-3.723436586007476,-8.817422689551114
1790107335396518100,0.31051806640625,-1.8630011724211275,-3.2773540297180412,-9.053097239297628
1790107335406463200,0.320463134765625,-1.577285119176656,-2.823714482177794,-9.25792773796916
1790107335416408000,0.330407958984375,-1.251210313667357,-2.3552346545107663,-9.437040442538262
1790107335426352400,0.340352294921875,-0.909978271036595,-1.8592466421931981,-9.585693711435795
1790107335436297200,0.350297119140625,-0.5987491524815559,-1.342478876697272,-9.695855629375576
1790107335446242000,0.360241943359375,-0.34166670772098,-0.8435240504633634,-9.764327692577242
1790107335456186000,0.37018603515625,-0.15252433817721903,-0.37968704363349826,-9.798110719713568
1790107335466131200,0.380131103515625,-0.03207388969745952,0.04445554289205465,-9.806496855264902
1790107335476076000,0.390075927734375,0.0030192950201264465,0.43435434376858173,-9.79702584708631
1790107335486021400,0.400021484375,-0.0541277955640573,0.7779520926173776,-9.775594936522841
1790107335495965200,0.409965087890625,-0.14554290919150226,1.0791028116852044,-9.746010530120135
1790107335505910300,0.41991015625,-0.25378190537784245,1.3494316184446216,-9.710047236335276
1790107335515855000,0.429855224609375,-0.3404364352736622,1.595970238163322,-9.669922731217742
1790107335525799200,0.439799072265625,-0.4011641679588705,1.8287052273266016,-9.626281742411852
1790107335535744300,0.449744140625,-0.4495161474673077,2.0605565655231475,-9.577183072721958
1790107335545689000,0.459689208984375,-0.48670580470934505,2.2914434426017105,-9.522750640788674
1790107335555633200,0.469633056640625,-0.5103843480691314,2.5137580139070748,-9.465248299890757
1790107335565578200,0.479578125,-0.5158722414283081,2.7154420312464236,-9.409072239160537
1790107335575523000,0.489523193359375,-0.5039128139674663,2.8961759072765707,-9.35567324192822
1790107335585467100,0.499467041015625,-0.49063868717886505,3.0599124712765216,-9.304116657692193
1790107335595412200,0.509412109375,-0.47338491616956885,3.2009625716939567,-9.257436739581824
1790107335605357000,0.519357177734375,-0.4257832070391625,3.315136355623603,-9.21948840945959
1790107335615302100,0.52930224609375,-0.36002241209018976,3.408602282567322,-9.188155698084831
1790107335625246000,0.539245849609375,-0.3117485027866438,3.4871234460964797,-9.160413704678415
1790107335635191300,0.54919140625,-0.28458069253899154,3.5417671826928854,-9.140309658804535
1790107335645136100,0.55913623046875,-0.27628051823806016,3.5684877240970727,-9.130167034974694
1790107335655080200,0.569080078125,-0.2781295984371565,3.557261981205642,-9.134490743392705
1790107335665025300,0.579025390625,-0.27850131782637905,3.501561721293628,-9.155975429970026
1790107335674970000,0.58897021484375,-0.2731666240012273,3.4107258505925535,-9.190359930130839
1790107335684914200,0.5989140625,-0.2503925186678767,3.2912884470462798,-9.234452169835567
1790107335694859300,0.608859375,-0.19831797497235237,3.1586753355845807,-9.28191008658111
1790107335704804000,0.61880419921875,-0.11472213852740823,3.0230411227360365,-9.328367301851511
1790107335714748200,0.628748046875,-0.016353065018128835,2.889071920490265,-9.371411493808031
1790107335724693000,0.63869287109375,0.10897509190854617,2.755011240568757,-9.41107948732972
1790107335734638300,0.648638427734375,0.2636519045450724,2.5971555513009426,-9.452812596687673
1790107335744582100,0.65858203125,0.4168579596424475,2.390029927429557,-9.501808975046872
1790107335754527000,0.66852685546875,0.5370280248448253,2.1620580610148608,-9.550259994482994
1790107335764472300,0.678472412109375,0.6881119549553841,1.9664735295943914,-9.582788637644052
1790107335774416100,0.688416015625,0.8745124784450977,1.784729599738866,-9.603144027930497
1790107335784361200,0.698361328125,1.047720269819349,1.5759091546483337,-9.62232803635001
1790107335794306300,0.708306396484375,1.2088284580770878,1.4028563346400855,-9.63021732829511
1790107335804251100,0.718251220703125,1.3168728724062442,1.2785602390162647,-9.63335445727706
1790107335814195200,0.7281953125,1.4013161194607615,1.1889447769556194,-9.632918403947352
1790107335824140000,0.73814013671875,1.463042361664027,1.141930512324348,-9.629428223744034
1790107335834085000,0.748085205078125,1.4983675036758184,1.131459898649156,-9.625231941097974
1790107335844029200,0.758029296875,1.5296920317441225,1.1417258565977215,-9.619089200559259
1790107335853974000,0.76797412109375,1.5769924198403953,1.1717374754365533,-9.607835400617121
1790107335863919400,0.77791943359375,1.66286263095811,1.2603645109817385,-9.582106500598787
1790107335873863200,0.78786328125,1.760530247375369,1.3936011611692607,-9.546140868726372
1790107335883808300,0.797808349609375,1.8284494989998639,1.5902249725095927,-9.502542550018429
1790107335893753000,0.807753173828125,1.8870994024977086,1.7977863574497401,-9.453952998894453
1790107335903697200,0.817697265625,1.9320866913460193,1.9747600041635334,-9.409451009345053
1790107335913642200,0.827642333984375,1.9605739501617847,2.086308115764707,-9.379438148397206
1790107335923587000,0.837587158203125,1.988791159864515,2.1022398443900046,-9.369934406992792
1790107335933532200,0.8475322265625,2.020928027229011,2.0499536307051778,-9.374641561770439
1790107335943476200,0.857476318359375,2.071924347233772,1.9889542414717376,-9.376649978983401
1790107335953421000,0.867421142578125,2.2158219460368156,1.9800442281767725,-9.345584978634118
1790107335963366100,0.8773662109375,2.316240468597412,2.0476887545131146,-9.306578663891553
1790107335973310200,0.887310302734375,2.322069028620422,2.158274596953392,-9.280096899679302
1790107335983255000,0.897255126953125,2.2786622869618234,2.29225987355113,-9.258705152082443
1790107335993200000,0.9072001953125,2.23594192013219,2.4307670114874838,-9.233761264961958
1790107336003144200,0.917144287109375,2.224474331308901,2.5621438591524957,-9.200953804859518
1790107336013089300,0.92708935546875,2.2348345434121786,2.6855826072946187,-9.163162126603723
1790107336023034000,0.9370341796875,2.2289202048018573,2.8151062283083794,-9.125650434333085
1790107336032978200,0.946978271484375,2.1873285497412085,2.9540856599316,-9.09171952315867
1790107336042923300,0.95692333984375,2.119123466912657,3.079658205232024,-9.066168902316688
1790107336052868000,0.9668681640625,2.0499397483102975,3.210671188020706,-9.036576312607526
1790107336062813200,0.976813232421875,1.9998500217564403,3.344362742368877,-8.999234131684899
1790107336072757200,0.98675732421875,1.9570117276355623,3.455005429562926,-8.966794920372962
1790107336082702000,0.9967021484375,1.9212685063421726,3.559383211143315,-8.93363908522427
1790107336092647200,1.006647216796875,1.9072581011682748,3.6724013952970505,-8.890794799754023
1790107336102591200,1.01659130859375,1.9434744929313659,3.7897193224713206,-8.833535619962214
1790107336112536000,1.0265361328125,2.029969411818683,3.915828166605532,-8.758762410789728
1790107336122481200,1.036481201171875,2.142503904108703,4.0714948213964695,-8.660427708765864
1790107336132425000,1.046425048828125,2.234446859268844,4.268114541083574,-8.54171072844863
1790107336142370300,1.056370361328125,2.2520111575320363,4.5039097946003075,-8.415085166963934
1790107336152314400,1.066314453125,2.184590064688027,4.778715162251889,-8.280206740918755
1790107336162258400,1.076258544921875,2.0580963128894565,5.097607216650247,-8.120900560581683
1790107336172203500,1.08620361328125,1.8913871628195047,5.457507281002402,-7.925190356954932
1790107336182148400,1.0961484375,1.7189141885258257,5.838416231113672,-7.689514638164639
1790107336192092400,1.106092529296875,1.578338719882816,6.207867967665195,-7.425741536659002
1790107336202037500,1.11603759765625,1.4629685657754539,6.505857811549306,-7.190542787730694
1790107336211982600,1.125982666015625,1.287809713398665,6.628976241695881,-7.111161207979917
1790107336221927400,1.135927490234375,1.1019872820578516,6.605487814080715,-7.1640469949930905
1790107336231871500,1.14587158203125,1.0353172998420894,6.557910070347786,-7.217502690848708
1790107336241816600,1.155816650390625,1.1182054994743316,6.491797722014784,-7.264746672582626
1790107336251761400,1.165761474609375,1.2551315787643194,6.390618151953816,-7.331782565501332
1790107336261705500,1.17570556640625,1.3620790647022425,6.270152866664528,-7.4162208441197865
1790107336271650600,1.185650634765625,1.4248635837867856,6.1435483479678625,-7.509791108220815
1790107336281595400,1.195595458984375,1.461426304769516,6.02146919774115,-7.601087582170963
1790107336291539500,1.20553955078125,1.5044412706315518,5.9008016678780315,-7.68684629573822
1790107336301484300,1.215484375,1.5717771694101392,5.763935867407918,-7.7766931554019445
1790107336311429400,1.225429443359375,1.6525567793905733,5.606908153396844,-7.874136461544037
1790107336321373400,1.23537353515625,1.7135700510188936,5.447648734810948,-7.972276517778635
1790107336331318300,1.245318359375,1.7469252081319688,5.299890953448415,-8.064105491170286
1790107336341263600,1.255263671875,1.7546050951100884,5.165592957639694,-8.149135305941105
1790107336351208400,1.26520849609375,1.7069417189203202,5.038214531961083,-8.238516886180639
1790107336361152500,1.275152587890625,1.6147586713939903,4.930577748584747,-8.321800734066963
1790107336371097600,1.28509765625,1.5589914837256074,4.8305675145640965,-8.390801789578795
1790107336381042400,1.29504248046875,1.601819987104833,4.717907350067794,-8.446652271616458
1790107336390986500,1.304986572265625,1.7152675025865434,4.59336180972755,-8.492894967353344
1790107336400931300,1.314931396484375,1.8568023177810011,4.47306720483005,-8.527270699685811
1790107336410876400,1.32487646484375,2.022644621888548,4.358535985764861,-8.548826697933674
1790107336420820500,1.334820556640625,2.1971821274966,4.254018795713782,-8.558392983180283
1790107336430765300,1.344765380859375,2.343770718949288,4.153841972954571,-8.568706287401914
1790107336440710700,1.354710693359375,2.4311162633165715,4.036984356768429,-8.600163501939177
1790107336450654500,1.364654541015625,2.45213800855726,3.906956877885759,-8.654078632000088
1790107336460599300,1.374599365234375,2.4736481218367814,3.7847973558992147,-8.702112302806974
1790107336470544600,1.384544677734375,2.5308544023975728,3.6970354858160017,-8.72336259610653
1790107336480488400,1.394488525390625,2.5976500568196177,3.639126902204752,-8.72807793419063
1790107336490433500,1.40443359375,2.6652643341481683,3.600208850267529,-8.723832551705836
1790107336500378400,1.41437841796875,2.7208307385474444,3.5723604738771915,-8.718126449018717
1790107336510323500,1.424323486328125,2.7594185356169936,3.556502979531884,-8.712477629476785
1790107336520267500,1.434267578125,2.774544793078303,3.556467323696613,-8.707686888068913
1790107336530212400,1.44421240234375,2.7494167815625667,3.5738805230513213,-8.708528599590062
1790107336540157400,1.454157470703125,2.6853186956614254,3.593978723706305,-8.720251770609616
1790107336550101500,1.4641015625,2.609875624403357,3.6023867788285013,-8.739666080653667
1790107336560046300,1.47404638671875,2.55987036126256,3.601734452399611,-8.75471225861609
1790107336569991400,1.483991455078125,2.5207091482192276,3.604815467280149,-8.76479935286641
1790107336579935500,1.493935546875,2.478859719005227,3.6065085349336266,-8.776031525498627
1790107336589880600,1.503880615234375,2.4419736112870276,3.6043189159348605,-8.787266036218405
1790107336599825400,1.513825439453125,2.404259820573032,3.6035134447708725,-8.797989674806594
1790107336609769500,1.52376953125,2.3835510868042706,3.6101194189071655,-8.800915206864476
1790107336619714600,1.533714599609375,2.3980102586589753,3.6224592605203387,-8.791913569763302
1790107336629659400,1.543659423828125,2.4252868265107272,3.6395337294399734,-8.777366573494673
1790107336639603500,1.553603515625,2.4466994707651435,3.6619071815505624,-8.762105875998735
1790107336649548500,1.563548583984375,2.4135592715770007,3.683357089075446,-8.762305782485008
1790107336659493400,1.573493408203125,2.3422772655211386,3.7181960550054907,-8.766935780373215
1790107336669438500,1.5834384765625,2.255783223416656,3.7849277042806144,-8.761058412772417
1790107336679382500,1.593382568359375,2.1693546477638184,3.8788913516134023,-8.741765683281422
1790107336689327400,1.603327392578125,2.077173061542213,3.981532226398587,-8.717977395936845
1790107336699272400,1.6132724609375,1.9767850802503526,4.062996749903261,-8.703719738003612
1790107336709216300,1.62321630859375,1.898180768482387,4.111211330235005,-8.698577114418148
1790107336719161600,1.63316162109375,1.8533134527519344,4.1392593208506705,-8.694948987048864
1790107336729106400,1.6431064453125,1.832456250423193,4.160365237243473,-8.689295491331816
1790107336739050500,1.653050537109375,1.8228692146494982,4.177470101301372,-8.683101897388696
1790107336748995600,1.66299560546875,1.7983951369978486,4.183716302214562,-8.685199746450781
1790107336758940400,1.6729404296875,1.7163282636858521,4.193738222274184,-8.696963249480724
1790107336768884500,1.682884521484375,1.6140721504345534,4.208861557126045,-8.70922593420446
1790107336778829600,1.69282958984375,1.5548600830093025,4.237509559461474,-8.706106925401091
1790107336788774400,1.7027744140625,1.5413110117368398,4.30332467841357,-8.676182327258587
1790107336798719500,1.712719482421875,1.5825329567022621,4.436690654069185,-8.601264156657457
1790107336808663300,1.722663330078125,1.6978228851802646,4.622686688411235,-8.48047913789451
1790107336818608600,1.732608642578125,1.8733762898325919,4.835513738794624,-8.323379527691007
1790107336828553500,1.742553466796875,2.055714824580401,5.0680339161634445,-8.139989876455068
1790107336838497300,1.752497314453125,2.2138928776703772,5.30582969584763,-7.944635646659135
1790107336848442600,1.762442626953125,2.373758591586351,5.5399576006740325,-7.735924507161974
1790107336858387500,1.772387451171875,2.5430279475331306,5.7640650467455385,-7.515249373626709
1790107336868331500,1.78233154296875,2.7029844084724783,5.978214577904343,-7.2887027177095405
1790107336878276400,1.7922763671875,2.6883096941709517,6.159641404634714,-7.141582649728655
1790107336888221400,1.802221435546875,2.5822955435603854,6.2968853907674545,-7.060547457551956
1790107336898165500,1.81216552734375,2.5095322129055857,6.375822733882069,-7.015805814027786
1790107336908110300,1.8221103515625,2.4469654282249507,6.421823437556624,-6.995924470993876
1790107336918055400,1.832055419921875,2.3832515193358064,6.477852198770642,-6.966199779337644
1790107336928000500,1.84200048828125,2.314516275153309,6.541289774936438,-6.930001507753134
1790107336937944300,1.8519443359375,2.240594275982678,6.5956666772902,-6.902701412895321
1790107336947889700,1.8618896484375,2.175651409820467,6.643577598500252,-6.8774857230961315
1790107336957834500,1.87183447265625,2.140950537186861,6.70072455008924,-6.8327896722793575
1790107336967778600,1.881778564453125,2.1278687911652026,6.777083567148447,-6.761190416967868
1790107336977723400,1.891723388671875,2.1476022501610217,6.895718714401125,-6.633794455632567
1790107336987668500,1.90166845703125,2.248193645070493,7.061815870052576,-6.4223635357826945
1790107336997612500,1.911612548828125,2.3559781663544475,7.249588850939273,-6.169539698314666
1790107337007557400,1.921557373046875,2.4151598386414346,7.411479202550649,-5.950409456133842
1790107337017502500,1.93150244140625,2.435966918218136,7.500633988296985,-5.828974449029564
1790107337027446500,1.941446533203125,2.4743422415807843,7.563534388846159,-5.7307052134573455
1790107337037391400,1.951391357421875,2.570063253974914,7.613939464959501,-5.6207735971421
1790107337047336400,1.96133642578125,2.6568492647632955,7.6508239652425045,-5.529597534701228
1790107337057281500,1.971281494140625,2.6815660651296374,7.669302455741167,-5.491940881001949
1790107337067225300,1.981225341796875,2.655850609114766,7.688238626879453,-5.477939828178286
1790107337077170400,1.99117041015625,2.6064994259685275,7.701207998567819,-5.483427319678664
1790107337087115500,2.001115478515625,2.548926650182903,7.716127919802069,-5.489512777072191
1790107337097059600,2.0110595703125,2.4888524129703637,7.728132245850563,-5.500177378949522
1790107337107004400,2.02100439453125,2.432698564071953,7.73401136701703,-5.517016285547614
1790107337116949500,2.030949462890625,2.4120060507856307,7.7594141038209195,-5.490363840943575
1790107337126893600,2.0408935546875,2.385701835097372,7.802582798939943,-5.440454439392686
1790107337136838400,2.05083837890625,2.346093755069375,7.845476768770814,-5.395806903892756
1790107337146783200,2.060783203125,2.300594132784754,7.891789607134461,-5.347645222792029
1790107337156728000,2.07072802734375,2.257518815037608,7.926177029904722,-5.3150452679604285
1790107337166673000,2.0806728515625,2.209872536113113,7.951642895072698,-5.296997570094466
1790107337176618000,2.090617919921875,2.1416306284055113,7.957225079119205,-5.316611786624789
1790107337186561800,2.100561767578125,2.037432879567146,7.935259331026673,-5.389890957847237
1790107337196507000,2.1105068359375,1.9600209924541412,7.8598449013412,-5.527347125425934
1790107337206452000,2.120451904296875,1.8982324986696242,7.7668036295503375,-5.678368292498588
1790107337216395800,2.130395751953125,1.7936060030251741,7.714387798136472,-5.782870284980535
1790107337226341000,2.140341064453125,1.6445029445335269,7.738473607122898,-5.795000867757201
1790107337236286000,2.150285888671875,1.484317058752477,7.803361382097005,-5.751061772787571
1790107337246230800,2.160230712890625,1.3694174447663128,7.8771409040570255,-5.67853254314959
1790107337256174800,2.1701748046875,1.3218427697733044,7.949896343666315,-5.587690827229618
1790107337266120000,2.180119873046875,1.3257421152994036,8.044187907779216,-5.4501212624043225
1790107337276064800,2.190064697265625,1.3695140370085834,8.171221465542912,-5.246520013266801
1790107337286008800,2.2000087890625,1.457672943585366,8.310800032103062,-4.99761890220046
1790107337295954000,2.209953857421875,1.5198079127199946,8.450986501428485,-4.737235443133115
1790107337305899000,2.21989892578125,1.546916430528462,8.607545428884029,-4.437067378427088
1790107337315842800,2.2298427734375,1.5962071156591175,8.757260189533232,-4.114960453635454
1790107337325788000,2.239787841796875,1.7047411401361225,8.893602258390187,-3.7640509204685686
1790107337335733000,2.24973291015625,1.8552182634599506,9.015444092729687,-3.3838305371433495
1790107337345676800,2.2596767578125,2.0136732337951657,9.121468764734267,-2.98568754363656
1790107337355622000,2.269621826171875,2.177841321080178,9.209674286931753,-2.5708488513946532
1790107337365567000,2.27956689453125,2.3652558439180256,9.27905761975944,-2.1154288501784206
1790107337375511800,2.28951171875,2.5904870333224532,9.317211701586842,-1.6276730980247258
1790107337385455900,2.299455810546875,2.869844949711859,9.302396409770846,-1.183128491892293
1790107337395401000,2.30940087890625,3.1870445209786293,9.2345977157861,-0.8575308754406868
1790107337405345800,2.319345703125,3.4622859419599172,9.14996186876893,-0.6790813840206712
1790107337415289900,2.329289794921875,3.6232372591555118,9.091820645445585,-0.6175068252477794
1790107337425235000,2.33923486328125,3.6429122659623623,9.081092330682278,-0.6583079875178635
1790107337435180000,2.349179931640625,3.5333775400102136,9.115247698262333,-0.7732282059006392
1790107337445123800,2.359123779296875,3.334318902738392,9.171775641170143,-0.9650093995153903
1790107337455069000,2.36906884765625,3.102875999212265,9.219566735392808,-1.241831806077808
1790107337465014000,2.379013916015625,2.888319640818238,9.236413825297355,-1.5863966463930903
1790107337474957800,2.388957763671875,2.753615402296185,9.19858239955306,-1.9935088360361755
1790107337484903000,2.39890283203125,2.6665798006609083,9.124742671838403,-2.408073679772764
1790107337494848000,2.408847900390625,2.6376284314647314,9.024608811438084,-2.787422394829988
1790107337504792800,2.418792724609375,2.6365508653610945,8.933590569907427,-3.067560063420236
1790107337514737000,2.42873681640625,2.5960572346702215,8.887576422229408,-3.2313851824864743
1790107337524681700,2.438681640625,2.5078946748316286,8.879504174932837,-3.321934929722547
1790107337534627000,2.448626953125,2.399361819398403,8.858532114052773,-3.455408457405865
1790107337544571000,2.45857080078125,2.2835329617381093,8.829429353687166,-3.6051398769289253
1790107337554515700,2.468515625,2.1913373469911512,8.807499261429905,-3.7143484396666286
1790107337564461000,2.4784609375,2.1695976627394558,8.785994116586446,-3.7775051530644297
1790107337574404900,2.48840478515625,2.2155893063247203,8.758397669130563,-3.814710848125815
1790107337584350000,2.498349853515625,2.2961359843321145,8.725401992979645,-3.842593126785755
1790107337594295000,2.508294921875,2.388571399184316,8.685528832274676,-3.876431683501601
1790107337604239000,2.518239013671875,2.431389088908583,8.649228269359469,-3.930595235365629
1790107337614184000,2.528183837890625,2.403607201883197,8.62734844598472,-3.9952407260164615
1790107337624128800,2.538128662109375,2.293551520796865,8.630870190370082,-4.051919183310866
1790107337634073900,2.548073974609375,2.0503150113634763,8.640399650737642,-4.1605435164198274
1790107337644018000,2.558017822265625,1.7201390541456638,8.613637316018343,-4.360822927658259
1790107337653962800,2.567962646484375,1.488772869117558,8.572510355859995,-4.523934637758136
1790107337663908000,2.577908203125,1.430844119501114,8.527037475451827,-4.627389167013764
1790107337673852000,2.587851806640625,1.4790012705571949,8.467934713619947,-4.719854100221395
1790107337683797000,2.597796875,1.5568642624385653,8.395526480013132,-4.823039457146823
1790107337693741800,2.607741943359375,1.6191785336628555,8.322037465432286,-4.9287300748914475
1790107337703686000,2.617685791015625,1.6773539515167473,8.252759931066631,-5.024820797380805
1790107337713631000,2.627630859375,1.7438456545561551,8.180894133773446,-5.11882477672398
1790107337723575800,2.637575927734375,1.819424188762158,8.099552652126551,-5.220856579700112
1790107337733520100,2.64752001953125,1.8961923711441455,8.015245306411385,-5.322657496529818
1790107337743465000,2.65746484375,1.9556541755467651,7.936596132588386,-5.418142069819569
1790107337753409800,2.667409912109375,2.0067131855241955,7.851267042610049,-5.522783178511261
1790107337763353900,2.677353759765625,2.006383515178412,7.73539259224236,-5.684058028572798
1790107337773299000,2.687298828125,1.9179127661734818,7.6264505714863535,-5.859118827402591
1790107337783243800,2.697243896484375,1.8021116733029483,7.536725876897573,-6.01003828766644
1790107337793188900,2.70718896484375,1.7106816361010073,7.42177204850614,-6.177480428186058
1790107337803133000,2.7171328125,1.6416520851470529,7.263771690070628,-6.380674265566467
1790107337813078000,2.727078125,1.614035617816448,7.107479304596781,-6.5611757941454645
1790107337823022800,2.73702294921875,1.6125491786509751,6.957623089650273,-6.720234721723198
1790107337832967000,2.746966796875,1.6262766752302646,6.786425980511307,-6.889848945584893
1790107337842912000,2.756912109375,1.6638047341138122,6.616344723659753,-7.0445806576132775
1790107337852856800,2.76685693359375,1.7196816657669842,6.46280602080822,-7.172529576656222
1790107337862801000,2.77680078125,1.784507481420785,6.321879546770453,-7.281466336715221
1790107337872746000,2.78674609375,1.8612880848929285,6.188477623018622,-7.376226102861762
1790107337882690800,2.79669091796875,1.9393238029927014,6.058997841146588,-7.4631070984572165
1790107337892635000,2.806634765625,2.031971837682277,5.9525154885023825,-7.523898544028401
1790107337902580000,2.816580078125,2.1527114098683,5.848395773336291,-7.571822909241915
1790107337912525000,2.826525146484375,2.277283107563108,5.7464791211724275,-7.613301167055964
1790107337922468900,2.83646875,2.391791238013655,5.64531591772437,-7.653765279391408
1790107337932413700,2.84641357421875,2.491157475042343,5.5514171523213385,-7.690663808199763
1790107337942359000,2.856359130859375,2.5822601799860596,5.4598617351740595,-7.726076482364535
1790107337952303900,2.866303955078125,2.654794962581992,5.381143003246188,-7.756659836676716
1790107337962248000,2.876248046875,2.7102354025140403,5.319233951821923,-7.78015235594511
1790107337972193000,2.886193115234375,2.7550752457156777,5.272132008907199,-7.7964453190982335
1790107337982137900,2.896137939453125,2.786576299394667,5.238163103809953,-7.808138679501414
1790107337992082000,2.90608203125,2.809835009907186,5.2180789316803216,-7.813249154382944
1790107338002027000,2.916027099609375,2.8288810711607337,5.221496631169319,-7.8040908654153345
1790107338011971800,2.925971923828125,2.828796900008619,5.260626280030608,-7.777797901773452
1790107338021916000,2.935916015625,2.7937764400318263,5.346094486218691,-7.732042697292566
1790107338031860700,2.94586083984375,2.7160163240030406,5.489060941651463,-7.659234650713205
1790107338041806000,2.95580615234375,2.5920208187609908,5.711994667768478,-7.538231020763516
1790107338051750000,2.96575,2.438409927456081,6.0284115642249585,-7.340489603570103
1790107338061695000,2.975695068359375,2.246540763296932,6.400941393047571,-7.081765017625689
1790107338071640000,2.98564013671875,2.0018914644561705,6.755342859983444,-6.821155348587036
1790107338081583900,2.995583984375,1.7578087134569882,7.083582880702615,-6.550062279456854
1790107338091529000,3.005529052734375,1.484459097571671,7.356685536089539,-6.312364699450135
1790107338101473800,3.015473876953125,1.1942418604504317,7.547628963705897,-6.146340024513006
1790107338111419000,3.0254189453125,0.9583815788734704,7.677926491701602,-6.0250587466657155
1790107338121363000,3.035363037109375,0.7799803105093538,7.776321984001994,-5.923751750832796
1790107338131307800,3.045307861328125,0.629191344757378,7.851247753387689,-5.842295702895521
1790107338141253000,3.055253173828125,0.5150968366090208,7.906585609728097,-5.778492216026783
1790107338151197000,3.065197021484375,0.45609764474947,7.955580819043517,-5.715863033634424
1790107338161142000,3.07514208984375,0.4280838851969689,8.014113672032952,-5.635701117160916
1790107338171087400,3.08508740234375,0.38551721109170467,8.074923237782716,-5.55133941091001
1790107338181031200,3.09503125,0.32786472113337367,8.13276869302988,-5.470005528047681
1790107338190976300,3.104976318359375,0.28698336976654826,8.197452469864487,-5.3749242748618125
1790107338200921000,3.114921142578125,0.27043760089613494,8.26925046261847,-5.264670586985349
1790107338210865200,3.124865234375,0.2684223703498952,8.354693534365296,-5.1281052307665345
1790107338220810200,3.134810302734375,0.28343897515796124,8.45140443457961,-4.966271577778459
1790107338230755000,3.144755126953125,0.32199626749139276,8.556019239786266,-4.781342588146031
1790107338240700200,3.1547001953125,0.3851325956882909,8.663305310028791,-4.57921491869241
1790107338250644200,3.164644287109375,0.4661304880619049,8.76823283444643,-4.36706006848216
1790107338260589000,3.174589111328125,0.5619500289270654,8.866272352916003,-4.152567130713164
1790107338270534400,3.184534423828125,0.6656202102273702,8.9557977255404,-3.9396746138781307
1790107338280478200,3.194478271484375,0.7908254565853625,9.034426441097258,-3.73150415712893
1790107338290423000,3.204423095703125,0.9507545180611312,9.102296446752547,-3.523442129190266
1790107338300368100,3.2143681640625,1.132746723589301,9.159498927921057,-3.315245661216974
1790107338310312200,3.224312255859375,1.31741691615507,9.203584737884999,-3.1191058340013025
1790107338320257300,3.23425732421875,1.5014911886543034,9.237633137959241,-2.929515866820514
1790107338330202000,3.2442021484375,1.6772385084435342,9.257600990232826,-2.7666064012944696
1790107338340146200,3.254146240234375,1.8369335419677197,9.264225961330533,-2.640113234017789
1790107338350091300,3.26409130859375,1.97340932020694,9.261286985269189,-2.550420395871997
1790107338360036000,3.2740361328125,2.0763560460709036,9.250455210131406,-2.5076281328499315
1790107338369981000,3.28398095703125,2.136881826443225,9.236149621403216,-2.5095187689021228
1790107338379925200,3.29392529296875,2.1416043249204755,9.225599001294373,-2.5440640125826
1790107338389870000,3.3038701171875,2.0974811055555938,9.222065566471219,-2.5931612209677697
1790107338399815200,3.313815185546875,2.0465765554875133,9.226057266455888,-2.6195062070578334
1790107338409759200,3.32375927734375,2.00713827906847,9.240477421474456,-2.599110777021944
1790107338419704300,3.333704345703125,1.9792396337956188,9.264722220414876,-2.533362585826218
1790107338429649200,3.343649169921875,1.9834587127953767,9.284505363771318,-2.4564704848036167
1790107338439593000,3.353593017578125,2.0177432597130536,9.294038331270217,-2.391644669149816
1790107338449538300,3.363538330078125,2.048080238048732,9.301664003843069,-2.335547665005177
1790107338459483100,3.373483154296875,2.0511799576297403,9.314608825612067,-2.2805936934158204
1790107338469427200,3.38342724609375,2.020529821691662,9.333827320823072,-2.22878518024534
1790107338479372300,3.393372314453125,1.989071584241092,9.354811072140931,-2.16829330214262
1790107338489317000,3.403317138671875,1.978126850248128,9.37432124377489,-2.0927315729409455
1790107338499262200,3.41326220703125,1.9706115061819551,9.394733917206525,-2.006508018340915
1790107338509206000,3.4232060546875,1.9527071623094379,9.414816335770487,-1.9283532039061189
1790107338519151000,3.433151123046875,1.9358862297594546,9.43174408969581,-1.86143903767094
1790107338529096200,3.44309619140625,1.931806559230387,9.444953699880838,-1.7976016485325992
1790107338539040000,3.4530400390625,1.9306592888914047,9.455492629551888,-1.7425933164075016
1790107338548985300,3.4629853515625,1.923181061965227,9.46492389024198,-1.699120231514424
1790107338558930200,3.47293017578125,1.9082922665216027,9.474287346392869,-1.6633390162982045
1790107338568874200,3.482874267578125,1.8815631034195421,9.485037872987984,-1.6322249161101876
1790107338578819300,3.4928193359375,1.8599065674066542,9.494254029622674,-1.6032035504177211
1790107338588764200,3.50276416015625,1.873058456055075,9.494612341541051,-1.585677392207831
1790107338598708200,3.512708251953125,1.8987408865831792,9.489785944297909,-1.5840212955638766
1790107338608653000,3.522653076171875,1.9031081418819724,9.486994852274655,-1.595460681205988
1790107338618598100,3.53259814453125,1.890746526828408,9.485780800309776,-1.6172259382903575
1790107338628542200,3.542542236328125,1.8895396352566778,9.479757302236557,-1.653551343385875
1790107338638487000,3.552487060546875,1.9214872636593878,9.462887415978312,-1.7123269190900026
1790107338648432000,3.56243212890625,1.9757256343252956,9.440347667390107,-1.7739004549495874
1790107338658377200,3.572377197265625,2.0333323123805225,9.418089658352732,-1.8263348449334502
1790107338668321000,3.582321044921875,2.063717367641628,9.401649395683407,-1.8762820942766962
1790107338678266000,3.59226611328125,2.084872237742692,9.38545813933909,-1.9330949916057287
1790107338688211200,3.602211181640625,2.1123215318128463,9.364434056010841,-2.0039676862083375
1790107338698155300,3.6121552734375,2.1268847485639153,9.343546750804782,-2.0844402760662137
1790107338708100000,3.62210009765625,2.1524903144635257,9.318876419928669,-2.1669676064968106
1790107338718045200,3.632045166015625,2.18074215708822,9.293030031010508,-2.248187361460179
1790107338727989200,3.6419892578125,2.208051750426739,9.26704861753583,-2.3273842322938143
1790107338737934000,3.65193408203125,2.2244744774393737,9.242920138451456,-2.4063494863286614
1790107338747879200,3.661879150390625,2.229676576127112,9.221178846764564,-2.4837004370346665
1790107338757823200,3.6718232421875,2.247527582377195,9.196209240680933,-2.559047062180936
1790107338767768000,3.68176806640625,2.274018991200626,9.168068018823861,-2.6354730069965124
1790107338777713200,3.691713134765625,2.2850873515732584,9.142624950009584,-2.7131445679590103
1790107338787658200,3.701658203125,2.2830013390794397,9.119640964785217,-2.7911390772655604
1790107338797602300,3.711602294921875,2.2774987961404025,9.099547440305352,-2.8603531910061832
1790107338807547100,3.721547119140625,2.2763038872674106,9.079663174661993,-2.9237857987359166
1790107338817492200,3.7314921875,2.2835323772162197,9.057367171701788,-2.986631546488404
1790107338827436300,3.741436279296875,2.3009691035769877,9.032569415053725,-3.0477205137014387
1790107338837381000,3.751381103515625,2.326818122843653,9.00717486155629,-3.1027558799639343
1790107338847326200,3.761326171875,2.3497679135374723,8.983639087668061,-3.153284290196001
1790107338857270300,3.771270263671875,2.3540154879793525,8.963668897306919,-3.2064997475549575
1790107338867215000,3.781215087890625,2.344914774417877,8.943944790661334,-3.2676649948745964
1790107338877160200,3.79116015625,2.3493114019416272,8.918053978079557,-3.3345828143715854
1790107338887104300,3.801104248046875,2.37398962386325,8.887308126682042,-3.3985765631154177
1790107338897049000,3.811049072265625,2.401245441187918,8.85872266818881,-3.453607253202796
1790107338906994200,3.820994140625,2.4058292618468404,8.837475882020593,-3.5044808236107228
1790107338916938000,3.83093798828125,2.403436083099991,8.815608333605528,-3.5607504078432917
1790107338926883300,3.84088330078125,2.413712708573043,8.787998442146181,-3.6215257790625093
1790107338936828200,3.850828125,2.4356341791324314,8.758579455438255,-3.677685180918872
1790107338946773000,3.86077294921875,2.469782678580284,8.73005537174344,-3.7224569273203607
1790107338956717300,3.87071728515625,2.5033926872372625,8.704322964593768,-3.760074125792086
1790107338966662100,3.880662109375,2.526322604186833,8.680885974904895,-3.7987230053991077
1790107338976607000,3.89060693359375,2.5458479733899235,8.65547447027266,-3.843410288387537
1790107338986551300,3.90055126953125,2.563670922589302,8.62858178717196,-3.8917289136156437
1790107338996496100,3.91049609375,2.5768460459828377,8.60295693204999,-3.9394656473025678
1790107339006441200,3.920441162109375,2.5854741735965012,8.577712016156315,-3.9885555491641163
1790107339016385000,3.930385009765625,2.588116797059774,8.551731771725416,-4.042270772738754
1790107339026330000,3.940330078125,2.5975775761052966,8.521800743842125,-4.099009435787797
1790107339036275200,3.950275146484375,2.6245789802774784,8.486344230535625,-4.15499143525064
1790107339046219000,3.960218994140625,2.6614295782908797,8.447586337596178,-4.210162995113432
1790107339056164400,3.970164306640625,2.7088471630260345,8.403013036376237,-4.268713091498613
1790107339066109200,3.980109130859375,2.7746052910938857,8.348497602334618,-4.332960815003514
1790107339076054000,3.990053955078125,2.855592844736576,8.286622453179955,-4.3986216201767325
1790107339085998000,3.999998046875,2.942246461316943,8.223226962590218,-4.460056916609406
1790107339095943200,4.009943115234375,3.024082740743458,8.16234842325747,-4.516790026700496
1790107339105888300,4.01988818359375,3.103135234670341,8.10255592559576,-4.5705072961017486
1790107339115832000,4.02983203125,3.1848692227661606,8.03974437237382,-4.62487864549756
1790107339125777200,4.039777099609375,3.2643720908090472,7.976233146449923,-4.679096557897329
1790107339135722200,4.04972216796875,3.3396079490572212,7.917423814606666,-4.725655479976535
1790107339145666000,4.059666015625,3.4078517564609645,7.8664301249504085,-4.761958088718354
1790107339155611400,4.069611328125,3.465220241846144,7.821157151028514,-4.795013678362965
1790107339165556200,4.07955615234375,3.5043203723520038,7.779652005207538,-4.833960371872783
1790107339175500300,4.089500244140625,3.5268706423342224,7.742209286519885,-4.877471596819162
1790107339185445400,4.0994453125,3.551874150687456,7.70197021511197,-4.922828741893172
1790107339195390200,4.10939013671875,3.5967505265071984,7.647160182037949,-4.975412915611267
1790107339205335300,4.119335205078125,3.663901277977228,7.57576492486596,-5.035276140421629
1790107339215279400,4.129279296875,3.7437040057495232,7.497796134522557,-5.092944485536218
1790107339225224200,4.13922412109375,3.8228549916148182,7.424473708680272,-5.141339390870929
1790107339235169500,4.14916943359375,3.8905733138397336,7.358916656142473,-5.184611546364426
1790107339245113300,4.15911328125,3.946320920024812,7.294082072660326,-5.2338656988769765
1790107339255058200,4.16905810546875,3.9974601556316016,7.223212885189056,-5.293006454631686
1790107339265003300,4.179003173828125,4.046110204771161,7.146912904840708,-5.359196544376015
1790107339274947300,4.188947265625,4.087964310160279,7.075588374817371,-5.421712329521775
1790107339284892400,4.198892333984375,4.117960219973326,7.017787343233824,-5.473886168873309
1790107339294837200,4.208837158203125,4.1332323156461115,6.9680725874722,-5.525646166726946
1790107339304781300,4.21878125,4.151538372187316,6.9155813527345655,-5.577621853157877
1790107339314726400,4.228726318359375,4.189368628887832,6.861091053134203,-5.616493727865815
1790107339324671200,4.238671142578125,4.238574558344483,6.81195205143392,-5.639345611143112
1790107339334615300,4.248615234375,4.271437548026443,6.777501500299572,-5.656032542049885
1790107339344560400,4.258560302734375,4.273073624795675,6.760968298649788,-5.674554871690273
1790107339354505200,4.268505126953125,4.247728171136975,6.753586956226825,-5.702299787706137
1790107339364450300,4.2784501953125,4.21524015224725,6.744656630796194,-5.736874257481098
1790107339374394000,4.28839404296875,4.185657207149267,6.735886464363336,-5.7687499896913765
1790107339384339500,4.29833935546875,4.1643242040023205,6.730168671238422,-5.790822120767832
1790107339394284300,4.3082841796875,4.154275103674829,6.726185739082098,-5.802655181902646
1790107339404228000,4.31822802734375,4.131357753945887,6.732267689344287,-5.8119560942113395
1790107339414173400,4.32817333984375,4.097341502575576,6.747286979299783,-5.818617305666208
1790107339424118300,4.3381181640625,4.064363654342293,6.767814219021797,-5.817907111570238
1790107339434062300,4.348062255859375,4.036457994806766,6.79227704462707,-5.8088172116637224
1790107339444007400,4.35800732421875,4.014884168641269,6.818709124478698,-5.792781438142061
1790107339453952300,4.3679521484375,4.0003248974129555,6.847980811670422,-5.768268343654275
1790107339463896300,4.377896240234375,3.982917543277144,6.8856164225816725,-5.735420551541448
1790107339473841200,4.387841064453125,3.9577693657562136,6.933399333497881,-5.695124196988344
1790107339483786200,4.3977861328125,3.9191766002506014,6.991398518002033,-5.650734435641765
1790107339493731300,4.4077314453125,3.8600893282487987,7.058660620892048,-5.607618932014703
1790107339503675100,4.417675048828125,3.7814538906902073,7.133872221481799,-5.565866533434391
1790107339513620500,4.427620361328125,3.691967681032419,7.211943887677788,-5.525184978955984
1790107339523565300,4.4375654296875,3.6048467392012475,7.287200496453046,-5.48380784342885
1790107339533509400,4.44750927734375,3.519121343381703,7.3624389850497245,-5.438809010273218
1790107339543454500,4.457454345703125,3.428523665350675,7.443541397243738,-5.386027852678299
1790107339553399300,4.4673994140625,3.337056803269684,7.533025853335857,-5.31864183114767
1790107339563343400,4.47734326171875,3.249079244609177,7.628855294540524,-5.235878792265058
1790107339573288200,4.4872880859375,3.1621953264042735,7.727601499974727,-5.143451852980256
1790107339583233300,4.4972333984375,3.075331866465509,7.826928720167278,-5.0449873870968815
1790107339593177300,4.50717724609375,2.987519435238838,7.923919021844863,-4.945363814306259
1790107339603122200,4.5171220703125,2.89757642172426,8.01803172225952,-4.846197337633371
1790107339613067300,4.5270673828125,2.800360202336311,8.1129820425421,-4.74424882902652
1790107339623012400,4.537012451171875,2.6915052753418682,8.213235145407914,-4.633460011360049
1790107339632956200,4.5469560546875,2.580073775857687,8.317934706288575,-4.508385770970583
1790107339642901200,4.5569013671875,2.473604282695055,8.425856151825188,-4.365391258487105
1790107339652846300,4.566846435546875,2.3728443993508814,8.530808226162195,-4.214892361722886
1790107339662790400,4.576790283203125,2.2800145783536134,8.62671657782197,-4.068375520332157
1790107339672735200,4.5867353515625,2.193413861004263,8.71293297202885,-3.9299040382310744
1790107339682680300,4.596680419921875,2.1098072109043597,8.792125751209259,-3.7970553644478318
1790107339692624400,4.606624267578125,2.0360124913752076,8.868947709605097,-3.656066638828814
1790107339702569200,4.6165693359375,1.9793686670027673,8.945918721082807,-3.496145249202847
1790107339712514300,4.626514404296875,1.9297779760122298,9.021409138613938,-3.325734614266455
1790107339722458400,4.636458251953125,1.878792908053845,9.093072691333294,-3.1553949987396597
1790107339732403200,4.6464033203125,1.838817602148652,9.159152890962362,-2.983129675847292
1790107339742348300,4.656348388671875,1.8165164846219122,9.21971286586523,-2.8049215189024803
1790107339752293400,4.66629345703125,1.8031718498803675,9.275419555518031,-2.624038882051408
1790107339762237200,4.6762373046875,1.7995682724304496,9.323989817419648,-2.4485037437081334
1790107339772182300,4.686182373046875,1.8092462013579904,9.36277869001925,-2.2881021693497896
1790107339782127400,4.69612744140625,1.8260588044710455,9.39243148548305,-2.1489808450378476
1790107339792071400,4.706071533203125,1.8425483131095766,9.415254142665862,-2.0318340366467833
1790107339802016300,4.716016357421875,1.8567967648230492,9.433112455439566,-1.933670015014708
1790107339811961000,4.725961181640625,1.8651241559244691,9.448715682762861,-1.8475657028801737
1790107339821905400,4.735905517578125,1.8663227180592714,9.462826625701785,-1.7726053005725144
1790107339831850200,4.745850341796875,1.8686365479595959,9.473554355943202,-1.7118138550013302
1790107339841795300,4.75579541015625,1.878596070307493,9.480641099333763,-1.6609259638071059
1790107339851739400,4.765739501953125,1.8959088780276476,9.484807571363449,-1.6168921762913464
1790107339861684200,4.775684326171875,1.9122000876151024,9.487815521007775,-1.5796261293448506
1790107339871629300,4.78562939453125,1.908868020582944,9.493345682606101,-1.5501578966677187
1790107339881573000,4.795572998046875,1.8751492908544838,9.504078089022636,-1.5253563406273722
1790107339891518500,4.8055185546875,1.825349194896966,9.517707970446347,-1.5005778732016681
1790107339901463300,4.81546337890625,1.7777718895554542,9.530614798292516,-1.4755606285840273
1790107339911408000,4.825408203125,1.731630754496902,9.542895018672942,-1.4508657477885485
1790107339921352400,4.8353525390625,1.6761302549406885,9.556699087619782,-1.424956961158663
1790107339931297300,4.84529736328125,1.6089653288148342,9.572447860893607,-1.3963776401452719
1790107339941242000,4.8552421875,1.538509690580517,9.587780454581976,-1.370335290263593
1790107339951186200,4.865186279296875,1.4878813271053135,9.597783377680182,-1.3561433910429477
1790107339961131300,4.87513134765625,1.476360108398646,9.599257541885972,-1.3583024687729774
1790107339971076400,4.885076416015625,1.4964742372751234,9.591160160148144,-1.393056094507128
1790107339981020200,4.895020263671875,1.5126049956038594,9.574097966188193,-1.4896442451246081
1790107339990965200,4.90496533203125,1.5606227381892501,9.554543955412507,-1.5638174425773321
1790107340000910300,4.914910400390625,1.5713889007449149,9.542024665579198,-1.628147291407734
1790107340010855200,4.924855224609375,1.5456825048193334,9.53141208615005,-1.712724540105462
1790107340020799500,4.934799560546875,1.5092920716635883,9.519875962135195,-1.806753507759422
1790107340030744300,4.944744384765625,1.4803867335662244,9.50628699724376,-1.899833942516893
1790107340040689200,4.954689208984375,1.4630096284382044,9.489162259441613,-1.9964425514005124
1790107340050633200,4.96463330078125,1.4559569334477185,9.469749118441342,-2.0915162058018146
1790107340060578300,4.974578369140625,1.452336112602055,9.450256482464075,-2.180318378718197
1790107340070523100,4.984523193359375,1.4457674017362296,9.432072006475925,-2.2618983452960846
1790107340080467200,4.99446728515625,1.4442001524195074,9.414649162510036,-2.3343241145595908
1790107340090412300,5.004412353515625,1.458072172036022,9.396987833613156,-2.396047288022935
1790107340100357400,5.014357421875,1.4877541935943066,9.378373734036087,-2.4501170241236685
1790107340110301200,5.02430126953125,1.5237882145278154,9.358753087764978,-2.5024472230806944
1790107340120246500,5.03424658203125,1.5537240647166966,9.337942354926467,-2.5610908429682255
1790107340130191400,5.04419140625,1.5645977793000638,9.314895241338014,-2.6372595981523395
1790107340140135200,5.05413525390625,1.5522551612079143,9.289683058670162,-2.7317922775447365
1790107340150080300,5.064080322265625,1.5249508285664022,9.26424934220612,-2.831711033889651
1790107340160025300,5.074025390625,1.4957044219464062,9.238132904174924,-2.9308973843067885
1790107340169970400,5.083970458984375,1.4848197475776075,9.213122966080903,-3.013978110836446
1790107340179914500,5.09391455078125,1.4999236470766364,9.191302763938904,-3.0725553874894973
1790107340189859300,5.103859375,1.5273447379656135,9.170954387915135,-3.119491033926606
1790107340199804400,5.113804443359375,1.5513313243612645,9.151592100319267,-3.164198775181174
1790107340209748500,5.12374853515625,1.5627587273046373,9.13114318653047,-3.217204389181733
1790107340219693300,5.133693359375,1.5393481872312724,9.109554455056786,-3.2888921995595095
1790107340229638400,5.143638427734375,1.4803874642185866,9.084971802464127,-3.382620576831698
1790107340239582200,5.153582275390625,1.4071746362306177,9.0533538444072,-3.4967134044796224
1790107340249527600,5.163527587890625,1.3168819324955343,9.018539136135578,-3.6196959332868457
1790107340259472400,5.173472412109375,1.223575799223408,8.98339709560573,-3.7378888897299762
1790107340269416400,5.18341650390625,1.1507676065135746,8.938685262697934,-3.866009950469434
1790107340279361500,5.193361572265625,1.1174317386228592,8.873057483011484,-4.0237539960563184
1790107340289306400,5.203306396484375,1.133376765121147,8.772680461505056,-4.233901013575494
1790107340299251200,5.213251220703125,1.199973243709281,8.619079799333214,-4.521273894116282
1790107340309195500,5.223195556640625,1.323171095767617,8.409533962577582,-4.86819669573456
1790107340319140400,5.233140380859375,1.5183490922138094,8.147195862311124,-5.242918773904442
1790107340329085400,5.24308544921875,1.7921654488280414,7.847259560534358,-5.601702401447296
1790107340339029200,5.253029296875,2.1394775420248506,7.523776378953457,-5.914881046634912
1790107340348974600,5.262974609375,2.5540523226335643,7.165361584722995,-6.1890872793495655
1790107340358919400,5.27291943359375,3.033962037461996,6.732573394292593,-6.452744645521045
1790107340368863200,5.28286328125,3.5246903756856915,6.226217278826236,-6.706801239654421
1790107340378808600,5.29280859375,3.93870664562881,5.731483796614408,-6.9142673475265495
1790107340388753400,5.30275341796875,4.245880205182731,5.350681814008951,-7.036552833980322
1790107340398697500,5.312697509765625,4.466858997839689,5.099875746104121,-7.085816923364996
1790107340408642600,5.322642578125,4.639381218102574,4.936255794221163,-7.090833874744177
1790107340418587400,5.33258740234375,4.77210158933103,4.812519816698134,-7.087811312052607
1790107340428532500,5.342532470703125,4.858897536991536,4.7131271300539375,-7.0956246161520475
1790107340438476300,5.352476318359375,4.889023795185983,4.645756013831496,-7.11932522521317
1790107340448421400,5.36242138671875,4.840162733644247,4.608201066941023,-7.176886602821946
1790107340458366500,5.372366455078125,4.694338550692796,4.599017643532156,-7.278916652232408
1790107340468310300,5.382310302734375,4.466731864328682,4.623032433108985,-7.4058233687460415
1790107340478255600,5.392255615234375,4.204138620257377,4.679153548781573,-7.523372474327683
1790107340488200400,5.402200439453125,3.9290105965226885,4.769248537987471,-7.6149541949599975
1790107340498144500,5.41214453125,3.630344168551266,4.906249363014101,-7.67591632092297
1790107340508089300,5.42208935546875,3.337385596832633,5.099450798690318,-7.682958640649915
1790107340518034400,5.432034423828125,3.096185269401967,5.330841972029209,-7.626675027891993
1790107340527978500,5.441978515625,2.971716009168327,5.558206374070048,-7.5130316975772375
1790107340537923300,5.45192333984375,2.952916031630337,5.7464726914316415,-7.377585116255283
1790107340547868400,5.461868408203125,2.971032703079283,5.8926148542910814,-7.25399614598751
1790107340557812500,5.4718125,2.9995293142452835,6.01283405586481,-7.142761045858264
1790107340567757300,5.48175732421875,3.0529838410571215,6.083795597794651,-7.059540326336026
1790107340577702400,5.491702392578125,3.1476702497065063,6.078913670971989,-7.02206428990066
1790107340587647500,5.5016474609375,3.2550562731921673,6.007375205937028,-7.034657814013958
1790107340597591300,5.51159130859375,3.332799145825207,5.916252919510007,-7.075367425543069
1790107340607536400,5.521536376953125,3.3840696065962312,5.829252096927165,-7.123083116441965
1790107340617481500,5.5314814453125,3.4253359752252694,5.767337200284004,-7.153691020673513
1790107340627425500,5.541425537109375,3.475382739420235,5.741268693047761,-7.150521742987633
1790107340637370400,5.551370361328125,3.5401007107853886,5.7330649283260104,-7.12531189840734
1790107340647315500,5.5613154296875,3.6055697927787898,5.731974210479855,-7.093285944071412
1790107340657259500,5.571259521484375,3.644635436493158,5.733428500941395,-7.072113976705074
1790107340667204400,5.581204345703125,3.642114101321995,5.734415758413076,-7.072614327442645
1790107340677149400,5.5911494140625,3.6023806413486597,5.728256066739559,-7.097908927696943
1790107340687093500,5.601093505859375,3.5602874665066597,5.691635185828805,-7.148427985578775
1790107340697038300,5.611038330078125,3.52765010227412,5.647767987051606,-7.19922118422687
1790107340706983400,5.6209833984375,3.505492923262715,5.620191997861862,-7.231554012554883
1790107340716928500,5.630928466796875,3.48867067553848,5.598648274573684,-7.256354691812396
1790107340726872300,5.640872314453125,3.4507264370694752,5.583168965891003,-7.286361707541346
1790107340736817400,5.6508173828125,3.3805186361163853,5.575346893963218,-7.325159347969294
1790107340746762500,5.660762451171875,3.286095554578304,5.578794404068589,-7.36539432772398
1790107340756706600,5.67070654296875,3.1789763653352856,5.596513016110658,-7.398885678437352
1790107340766651400,5.6806513671875,3.070859104965627,5.630577198275923,-7.418680512231588
1790107340776596200,5.69059619140625,2.9807208611398934,5.669900323882699,-7.425491945812106
1790107340786540500,5.70054052734375,2.917800294585526,5.71658024199307,-7.414682967028021
1790107340796485400,5.7104853515625,2.868774397870898,5.7854129552006714,-7.380344059574604
1790107340806430500,5.720430419921875,2.8269468882277606,5.877853923010826,-7.323223411470651
1790107340816374300,5.730374267578125,2.7737033738180994,5.996886545148492,-7.246677347406744
1790107340826319400,5.7403193359375,2.6638699571803213,6.159474815896153,-7.150877716818451
1790107340836264400,5.750264404296875,2.5195973875850437,6.354349737742543,-7.031661554807424
1790107340846208300,5.760208251953125,2.4816247998043894,6.462139665853977,-6.946413713371753
1790107340856153600,5.770153564453125,2.475435297514498,6.544566020128131,-6.8710460454374545
1790107340866098400,5.780098388671875,2.4584233724370597,6.629589989680051,-6.79522478851676
1790107340876043300,5.790043212890625,2.4067402392119166,6.725028385740518,-6.71952335858345
1790107340885987600,5.799987548828125,2.3202540881529448,6.828429723504185,-6.6452499156266445
1790107340895932400,5.809932373046875,2.215004930565506,6.942452993047237,-6.562503243356943
1790107340905877200,5.819877197265625,2.1018058368869124,7.071068267044424,-6.461638146072626
1790107340915821300,5.8298212890625,1.9803984484419226,7.205439912611245,-6.350593015557527
1790107340925766400,5.839766357421875,1.8557849574320018,7.3371589978426695,-6.236389713272452
1790107340935711500,5.84971142578125,1.7230251309759914,7.476114464068412,-6.108129828584194
1790107340945655300,5.8596552734375,1.584510101994127,7.6318778572320936,-5.950981118541955
1790107340955600400,5.869600341796875,1.4487093004070222,7.805458062115311,-5.757295114219188
1790107340965545500,5.87954541015625,1.3296565122641621,7.972467071914672,-5.553572284528613
1790107340975489300,5.8894892578125,1.2342943963102995,8.108854148957132,-5.375257452338934
1790107340985434600,5.8994345703125,1.1609727011203765,8.212208140447736,-5.232798946428298
1790107340995379500,5.90937939453125,1.0660211387287826,8.297720185777544,-5.116818113076687
1790107341005324300,5.91932421875,0.9045105071499944,8.363235737261176,-5.040685890510678
1790107341015268400,5.929268310546875,0.7229850423507392,8.427989072200656,-4.961521752902865
1790107341025213400,5.93921337890625,0.6250364170350134,8.455424191614984,-4.928033909320831
1790107341035158300,5.949158203125,0.5963801948605105,8.446617200303077,-4.946652685073018
1790107341045102300,5.959102294921875,0.6116237950911745,8.437011752089857,-4.961164025506377
1790107341055047400,5.96904736328125,0.6277628463242203,8.452499828600883,-4.932704823741316
1790107341064992500,5.978992431640625,0.6276143046990037,8.477623748463392,-4.88941279450357
1790107341074936300,5.988936279296875,0.6119300845613703,8.50241390632689,-4.848185881102085
1790107341084881400,5.99888134765625,0.5894076524341478,8.53699012966752,-4.789863163731992
1790107341094826500,6.008826416015625,0.5770663129836321,8.585690739950538,-4.7035368794098495
1790107341104770300,6.018770263671875,0.5669401288319379,8.654894624558091,-4.576213691049814
1790107341114715400,6.02871533203125,0.5863199155518785,8.725995867219567,-4.436620219181478
1790107341124660500,6.038660400390625,0.6677296035967767,8.788772349128127,-4.2990696513175966
1790107341134605300,6.048605224609375,0.7803921792458742,8.882479391351342,-4.082024106456339
1790107341144549400,6.05854931640625,0.9185437086775898,8.986600275561212,-3.8167622276976703
1790107341154493700,6.06849365234375,1.06944577941522,9.073302407458424,-3.5639676163241267
1790107341164439000,6.07843896484375,1.196721402306482,9.140983028021454,-3.343756593169272
1790107341174382800,6.0883828125,1.3095374149516223,9.185099817645549,-3.1763860565811393
1790107341184328000,6.098327880859375,1.4288617135122417,9.209795867484807,-3.05097250123471
1790107341194273000,6.10827294921875,1.5502866376139222,9.230550486221908,-2.9264234537631273
1790107341204216800,6.118216796875,1.6800407063826917,9.244848476165533,-2.807246162457764
1790107341214162000,6.128161865234375,1.87235878335312,9.240205618795752,-2.6987548080787063
1790107341224107000,6.13810693359375,2.032658212511241,9.245273423579334,-2.5619591502353547
1790107341234051000,6.148051025390625,2.0860431812182068,9.269441065630316,-2.4282234644845127
1790107341243996000,6.157995849609375,2.089522547766566,9.291072467201948,-2.3409895637981593
1790107341253940700,6.167940673828125,2.0981706952549515,9.297601576709747,-2.307091970371455
1790107341263886000,6.177885986328125,2.122212518969178,9.292734847456217,-2.3047085823662576
1790107341273830000,6.187829833984375,2.1371762793451548,9.28709771835208,-2.313594776394218
1790107341283775000,6.19777490234375,2.1382585216239094,9.282582871276139,-2.330648202525824
1790107341293720000,6.207719970703125,2.166060282393545,9.271846957728267,-2.347642299685627
1790107341303663900,6.217663818359375,2.2289595138989386,9.252214621019363,-2.3661513314530254
1790107341313609000,6.22760888671875,2.312804795060307,9.219984668543935,-2.411053718496859
1790107341323553800,6.2375537109375,2.405582301348448,9.176399209317564,-2.485408117735386
1790107341333498000,6.247498046875,2.481353581647575,9.15322350091338,-2.4963503675103187
1790107341343443000,6.25744287109375,2.5367206640824675,9.151893713614344,-2.445050534514338
1790107341353387800,6.2673876953125,2.5393407834529875,9.149559133186935,-2.4510638034544883
1790107341363332000,6.27733203125,2.504643271820247,9.144102621346711,-2.50650322047323
1790107341373277000,6.28727685546875,2.457627253623307,9.131248400470614,-2.5982263954028486
1790107341383221800,6.2972216796875,2.4241186595141886,9.10572408311367,-2.7165868173673746
1790107341393165800,6.307165771484375,2.411173983875662,9.06264072819054,-2.867960743400454
1790107341403111000,6.31711083984375,2.4149736684195697,9.008411125352978,-3.0309774686932562
1790107341413056000,6.327055908203125,2.424302930039912,8.961060176113248,-3.1611019782096146
1790107341423000800,6.337000732421875,2.433413580473512,8.927885051742196,-3.246801655066013
1790107341432945000,6.34694482421875,2.4436133413180707,8.901801346936821,-3.3101535987749693
1790107341442890000,6.356889892578125,2.456794602191448,8.877083669787645,-3.3662919578433033
1790107341452834800,6.366834716796875,2.4713337074145674,8.85840410375893,-3.404637470589578
1790107341462779000,6.37677880859375,2.494719551438093,8.844778313988447,-3.422960770526528
1790107341472724000,6.386723876953125,2.5294284612476825,8.833774689415097,-3.42590442276299
1790107341482668800,6.396668701171875,2.5676933099731802,8.824059351086616,-3.4224691876173017
1790107341492612900,6.40661279296875,2.6007410085722804,8.815517732712626,-3.419534887731075
1790107341502558000,6.416557861328125,2.6258570373892782,8.806625985726713,-3.4232401719897982
1790107341512502800,6.426502685546875,2.632758195079863,8.799746747606992,-3.4356127468287943
1790107341522446800,6.43644677734375,2.6167887647926804,8.79854029442668,-3.4508678913667796
1790107341532392000,6.446391845703125,2.5928242440983653,8.800109735700488,-3.4649285654231905
1790107341542337000,6.4563369140625,2.577104404658079,8.796157783204317,-3.486625141185522
1790107341552280800,6.46628076171875,2.572945531412959,8.77938375853598,-3.5316754122674463
1790107341562226000,6.476225830078125,2.562488727067411,8.749263930082321,-3.6130896668896075
1790107341572171000,6.4861708984375,2.5540052686214447,8.709908655771613,-3.712803256051242
1790107341582115800,6.49611572265625,2.56862620690912,8.662201732701062,-3.8129789097666738
1790107341592060000,6.506059814453125,2.6106805110454556,8.610295604375004,-3.9009672820821404
1790107341602005000,6.5160048828125,2.668267607617378,8.561878487208485,-3.9679923613458867
1790107341611949800,6.52594970703125,2.722780119049549,8.523645494925976,-4.013021005117893
1790107341621894000,6.535893798828125,2.7697584355846048,8.494961252233386,-4.041590389259159
1790107341631838700,6.545838623046875,2.8206527565196153,8.468668288591504,-4.0615231702193615
1790107341641784000,6.5557841796875,2.879626631274819,8.438550213703513,-4.08276820282191
1790107341651728000,6.565727783203125,2.94490925078541,8.40239402769506,-4.110676492705941
1790107341661672700,6.575672607421875,3.0099606918886304,8.360659164771437,-4.1484865834012625
1790107341671618000,6.5856181640625,3.068760671381652,8.312818970710039,-4.201203735849261
1790107341681561900,6.595561767578125,3.1184996848016975,8.259460305488108,-4.269270140859485
1790107341691507000,6.6055068359375,3.159726598203182,8.20347304532826,-4.346211049459875
1790107341701452000,6.6154521484375,3.196082982958853,8.146238999977708,-4.426540431454778
1790107341711396900,6.62539697265625,3.236145821017027,8.08334795177877,-4.511899332049489
1790107341721341000,6.6353408203125,3.2936978462755677,8.009719236466289,-4.600686161266267
1790107341731285800,6.64528564453125,3.369062007078528,7.927446026927233,-4.687792490050196
1790107341741230800,6.65523095703125,3.452689261575043,7.842267159074544,-4.769503389531374
1790107341751175000,6.6651748046875,3.538436576965451,7.760584901165962,-4.839748015363514
1790107341761119700,6.67511962890625,3.627174014082551,7.683073206940293,-4.897386257600784
1790107341771065000,6.685065185546875,3.7344367034494876,7.6027189827650785,-4.941965404039621
1790107341781009000,6.6950087890625,3.858623347349465,7.51293408242166,-4.983693252700567
1790107341790954000,6.7049541015625,3.98486458569169,7.411597275972366,-5.0358226683884855
1790107341800899000,6.714899169921875,4.1112414331123235,7.305014970085025,-5.089677592694759
1790107341810843000,6.7248427734375,4.240869099022448,7.200548633438348,-5.132006329858303
1790107341820788000,6.7347880859375,4.361368578842282,7.101280449956655,-5.169200042220949
1790107341830732800,6.74473291015625,4.460987767718732,7.005303709235787,-5.21494823243916
1790107341840678000,6.754677978515625,4.533843160571157,6.910750863838196,-5.277895394739509
1790107341850622000,6.7646220703125,4.597629404044151,6.817664583861827,-5.343374705865979
1790107341860566800,6.77456689453125,4.667395598709583,6.724678257128596,-5.400420535168052
1790107341870512000,6.78451220703125,4.740286939658224,6.63177376345992,-5.4515755528658625
1790107341880456000,6.7944560546875,4.807777298346162,6.543436139315366,-5.499010088735819
1790107341890400800,6.80440087890625,4.865924366888404,6.464435667836666,-5.541138334891199
1790107341900345900,6.814345947265625,4.9128632281959055,6.3983467003792525,-5.576318369343877
1790107341910290000,6.8242900390625,4.941664959788322,6.348005921673774,-5.608309252366423
1790107341920235000,6.834235107421875,4.954280695733428,6.307793738272785,-5.64244474620223
1790107341930179800,6.844179931640625,4.955146372652053,6.272585062247514,-5.6808086713880295
1790107341940124200,6.854124267578125,4.94196774212718,6.245500071445107,-5.721981224253773
1790107341950069000,6.864069091796875,4.9261347977012395,6.225045896959305,-5.757812416091561
1790107341960013800,6.874013916015625,4.9120647712945935,6.211747439447045,-5.784134021306038
1790107341969958000,6.8839580078125,4.892674718908966,6.2103790737032885,-5.802007531648874
1790107341979903000,6.893903076171875,4.859656538665295,6.219055132111906,-5.820438675874471
1790107341989847800,6.903847900390625,4.819228082165122,6.2317012631952755,-5.840491283822059
1790107341999793000,6.91379296875,4.779048631989956,6.250628666505217,-5.85326484067738
1790107342009737000,6.923737060546875,4.738072186218202,6.2777674333214755,-5.857530096906423
1790107342019682000,6.93368212890625,4.699103865398467,6.308999606931209,-5.855370873045921
1790107342029627000,6.943626953125,4.666124848121404,6.34394933975935,-5.843969189065694
1790107342039570700,6.95357080078125,4.633857193984091,6.385954836317897,-5.823855790841579
1790107342049516000,6.96351611328125,4.598085915639996,6.435936718583107,-5.797131450045108
1790107342059460900,6.9734609375,4.552092226228118,6.49514469435513,-5.7673161574959755
1790107342069405000,6.983405029296875,4.495402663017809,6.562244300159811,-5.735741454058886
1790107342079350000,6.99335009765625,4.433948661884665,6.635087418052554,-5.699658917808533
1790107342089294800,7.003294921875,4.3649440992414945,6.714512252423167,-5.65977055953443
1790107342099240000,7.013239990234375,4.285046971184015,6.8022834748566146,-5.615841401436924
1790107342109184000,7.02318408203125,4.196162526811659,6.8979889974206685,-5.566000973469019
1790107342119128800,7.03312890625,4.098875580275059,7.001482105121016,-5.5089802786082025
1790107342129074000,7.043073974609375,3.994385862752795,7.111801843971014,-5.4440393121421335
1790107342139017700,7.053017822265625,3.8861210106059905,7.226110360196232,-5.371387332907319
1790107342148963000,7.062963134765625,3.7825849405467507,7.340326521962881,-5.289807950851321
1790107342158907600,7.07290771484375,3.6901281906455754,7.451642870634794,-5.198690340599417
1790107342168851700,7.082851806640625,3.600787819199264,7.5626915082812305,-5.100042334842682
1790107342178796500,7.092796630859375,3.5090956239297983,7.677545967951416,-4.991185654282569
1790107342188741400,7.102741455078125,3.4222885703533885,7.794862433820962,-4.868105218058824
1790107342198685700,7.112685791015625,3.3455101588383314,7.911741677317023,-4.730995379699767
1790107342208630500,7.122630615234375,3.2700293859183787,8.027053233104944,-4.587339188437164
1790107342218575400,7.132575439453125,3.187360455060005,8.140317793235182,-4.443687088827788
1790107342228519400,7.14251953125,3.0994884026005862,8.250815811261534,-4.299722270007432
1790107342238464500,7.152464599609375,3.008773235669732,8.358297696337104,-4.154097409020364
1790107342248409600,7.16240966796875,2.9156635748177764,8.462964523991943,-4.005932215900719
1790107342258354400,7.1723544921875,2.8183550009712577,8.56500217218697,-3.8559064896062014
1790107342268298800,7.182298828125,2.722590149435401,8.66084447287321,-3.7077860124111175
1790107342278243600,7.19224365234375,2.641915315003693,8.746269424441456,-3.56278629758507
1790107342288188400,7.2021884765625,2.5856141665890813,8.819234122887254,-3.4214173404768107
1790107342298132700,7.2121328125,2.554477854569256,8.880177544149756,-3.284429959453642
1790107342308077600,7.22207763671875,2.5443498437866565,8.932620848092435,-3.1472154916763304
1790107342318022400,7.2320224609375,2.5482988736733794,8.981052578306198,-3.002879501456022
1790107342327966500,7.241966552734375,2.55852771448195,9.026354778322577,-2.8546885893732306
1790107342337911600,7.25191162109375,2.576132637016475,9.06722980954647,-2.705411635619402
1790107342347856600,7.261856689453125,2.605620889568329,9.101796680536866,-2.557033092010021
1790107342357800400,7.271800537109375,2.641521639510989,9.130012721195817,-2.4157066588692366
1790107342367745500,7.28174560546875,2.676864755570888,9.15300079807341,-2.2863339906334876
1790107342377690600,7.291690673828125,2.7074036862194535,9.17191475737989,-2.171719477199018
1790107342387634400,7.301634521484375,2.7341666054606435,9.187490512174367,-2.069969559904188
1790107342397579500,7.31157958984375,2.759492185375094,9.200619458338618,-1.975895291803777
1790107342407524600,7.321524658203125,2.7858310339853167,9.211410316944121,-1.8866440599456429
1790107342417469400,7.331469482421875,2.815824897971749,9.219239987656474,-1.8019804481387138
1790107342427413500,7.34141357421875,2.8449279505982994,9.224493085879088,-1.7278674564406276
1790107342437358600,7.351358642578125,2.8597774369448423,9.230216724222897,-1.671862368363142
1790107342447303400,7.361303466796875,2.8424469474375247,9.241903654885292,-1.6364932410791515
1790107342457247500,7.37124755859375,2.7820804492801425,9.263884600546955,-1.6158134411439298
1790107342467192600,7.381192626953125,2.6995447894126174,9.290722338590026,-1.601660558759421
1790107342477137700,7.3911376953125,2.618667418146133,9.318686450314521,-1.5732409583523868
1790107342487081500,7.40108154296875,2.555390293239057,9.34444399190545,-1.5237161722049115
1790107342497026600,7.411026611328125,2.5105712005645033,9.364379695475101,-1.4750653924129902
1790107342506971600,7.4209716796875,2.4731147456124423,9.378767117267847,-1.4466606973141432
1790107342516915500,7.43091552734375,2.4423405449032782,9.388654889553784,-1.434750771550834
1790107342526860500,7.440860595703125,2.431869565901905,9.391728305649757,-1.4324255434736608
1790107342536805600,7.4508056640625,2.4336583490148187,9.38991453422606,-1.4412619070105255
1790107342546750500,7.46075048828125,2.4429661294557152,9.383941305035352,-1.4642306946657597
1790107342556694500,7.470694580078125,2.458827569323778,9.373588253325224,-1.50346964912042
1790107342566639400,7.480639404296875,2.4899045523718,9.3566604993999,-1.5568158932521938
1790107342576584700,7.490584716796875,2.538049282337725,9.333004898524283,-1.619793889082223
1790107342586528500,7.500528564453125,2.573579153141379,9.310868470039964,-1.689618974328041
1790107342596473300,7.510473388671875,2.594934075859189,9.29088191306591,-1.7652884016878903
1790107342606418700,7.520418701171875,2.6292712297469376,9.266260097506642,-1.8422212731122969
1790107342616362500,7.530362548828125,2.674746740503609,9.237946441692113,-1.9174035014770925
1790107342626307600,7.5403076171875,2.7126190827801824,9.210752145296334,-1.993515996429324
1790107342636252700,7.550252685546875,2.74453339343518,9.184628108480572,-2.0689450391620396
1790107342646196500,7.560196533203125,2.775588164651394,9.159134186261891,-2.1393413484245536
1790107342656141600,7.5701416015625,2.79900118894279,9.136772716850041,-2.203484880902618
1790107342666086400,7.58008642578125,2.815579398778081,9.116789082485436,-2.26430818291679
1790107342676031500,7.590031494140625,2.8301655580133196,9.097673463127016,-2.3222632360182702
1790107342685975600,7.5999755859375,2.8416414762735367,9.080312578481434,-2.375580692446977
1790107342695920400,7.60992041015625,2.850538776217401,9.065265815997122,-2.421927433080226
1790107342705865700,7.61986572265625,2.859326478306949,9.051840517234801,-2.461463178524375
1790107342715809500,7.6298095703125,2.8652374559164047,9.040084028467536,-2.497539577294886
1790107342725754600,7.639754638671875,2.871935784511268,9.027347881013155,-2.5356141641452905
1790107342735699700,7.64969970703125,2.8860733231961726,9.01053118624687,-2.5790111150622366
1790107342745643500,7.6596435546875,2.908219688552618,8.988456132560968,-2.630642810361087
1790107342755588600,7.669588623046875,2.9311802929013964,8.962982084086537,-2.691375219221413
1790107342765533400,7.679533447265625,2.945774927704036,8.937864593964814,-2.758147785028815
1790107342775477800,7.689477783203125,2.9584061534792183,8.91198839443028,-2.8274942929774523
1790107342785422600,7.699422607421875,2.9760446860224006,8.883400597849487,-2.8980519302815195
1790107342795367400,7.709367431640625,3.0024440326482056,8.85099996498227,-2.9690958897978064
1790107342805312500,7.7193125,3.039906040558219,8.813770012262463,-3.040859980282187
1790107342815256600,7.729256591796875,3.082800594910979,8.772506273981929,-3.116068658262491
1790107342825201400,7.739201416015625,3.1237758716389536,8.729208399525284,-3.1958243320226667
1790107342835146500,7.749146484375,3.163670951914787,8.6841557903558,-3.278268806475401
1790107342845090600,7.759090576171875,3.20622473000586,8.637869839999079,-3.3582354926377533
1790107342855035600,7.76903564453125,3.2512972129195927,8.590295018875599,-3.4360283418923614
1790107342864980500,7.77898046875,3.2970641078382728,8.539514679709077,-3.518022149968147
1790107342874924500,7.788924560546875,3.346827671177685,8.483847737544775,-3.60464595593214
1790107342884869600,7.79886962890625,3.4046272414565086,8.423575347411631,-3.690831955000758
1790107342894814500,7.808814453125,3.4715023908555507,8.360212590047716,-3.771721016705036
1790107342904758500,7.818758544921875,3.54222486333251,8.294645600637793,-3.8499201086729764
1790107342914703600,7.82870361328125,3.6080692083790895,8.227896123445033,-3.9311499466389415
1790107342924648400,7.8386484375,3.6697923818424343,8.158553122627735,-4.017587290120124
1790107342934593500,7.848593505859375,3.732833944427967,8.08578949971199,-4.105649019932747
1790107342944537600,7.85853759765625,3.794099437251687,8.011874368673563,-4.193455898201465
1790107342954482400,7.868482421875,3.8488606627479194,7.937886172398924,-4.283298081690073
1790107342964427500,7.878427490234375,3.900731135238707,7.863530311855674,-4.3725928604289885
1790107342974371300,7.888371337890625,3.9481650865867732,7.790388503277302,-4.4600686070472
1790107342984316700,7.898316650390625,3.995062446840107,7.715729275873303,-4.5472380641952155
1790107342994261500,7.908261474609375,4.051685666815937,7.6349992041230195,-4.632605148096382
1790107343004205600,7.91820556640625,4.116895221090316,7.550010890406369,-4.713692362721264
1790107343014150700,7.928150634765625,4.191137976647913,7.462906022927164,-4.78641565362662
1790107343024095500,7.938095458984375,4.271130089512467,7.37501614255011,-4.851495151780545
1790107343034039600,7.94803955078125,4.350389211927354,7.286757428860664,-4.91402934936583
1790107343043984600,7.957984619140625,4.42771064427793,7.195990531742573,-4.978301622790098
1790107343053929500,7.967929443359375,4.503113383525609,7.100619355699419,-5.047131413388252
1790107343063874600,7.97787451171875,4.581248762607574,6.999730877539515,-5.117257673537731
1790107343073818400,7.987818359375,4.6705844578787685,6.895368585789203,-5.177829338878393
1790107343083763700,7.997763671875,4.7605546516612165,6.7940534066498275,-5.229564786812663
1790107343093708500,8.00770849609375,4.838935237675905,6.69675155480504,-5.282859154626727
1790107343103652400,8.01765234375,4.89799971332401,6.601942688819766,-5.347372251069546
1790107343113597700,8.02759765625,4.959448453760147,6.508049184113741,-5.4055105517834425
1790107343123542500,8.03754248046875,5.032608967038989,6.416873706194758,-5.446739218750595
1790107343133486600,8.047486572265624,5.106446941187977,6.335552682814002,-5.473148502248526
1790107343143431400,8.057431396484375,5.163761650559306,6.269137552142143,-5.4958028171271085
1790107343153376500,8.06737646484375,5.200492421585321,6.211985339856147,-5.525983435857295
1790107343163321300,8.0773212890625,5.2212587307602165,6.159253282099962,-5.56528902580738
1790107343173266200,8.08726611328125,5.224961676931381,6.114408178201318,-5.611076378992199
1790107343183211000,8.0972109375,5.229472432354092,6.082503219896554,-5.641472101777792
1790107343193155000,8.107155029296875,5.227215593338013,6.063803780123591,-5.663648862272501
1790107343203100200,8.11710009765625,5.2121244071900845,6.051581427410245,-5.69056083459556
1790107343213045200,8.127045166015625,5.187786669269204,6.045591247084737,-5.71909719325006
1790107343222990300,8.136990234375,5.147762117394804,6.056973057320714,-5.743172480842471
1790107343232934100,8.14693408203125,5.084717924460769,6.090215401709079,-5.764139865547418
1790107343242879200,8.156879150390624,5.01552339220345,6.129208272448182,-5.78340278442204
1790107343252824000,8.166823974609375,4.9554555847316974,6.171992352163791,-5.789674704298377
1790107343262768400,8.176768310546874,4.8963946162149306,6.226128431499004,-5.781957846310735
1790107343272713200,8.186713134765625,4.828459728629887,6.290718684831261,-5.769164415711164
1790107343282658000,8.196657958984375,4.756581364116072,6.3630766495555635,-5.7494882398605345
1790107343292602000,8.20660205078125,4.672984797018766,6.445531645402312,-5.726144773674011
1790107343302547200,8.216547119140625,4.585036172191798,6.535123653522134,-5.695609350156784
1790107343312492000,8.226491943359376,4.506461817170679,6.626039603722095,-5.653117531386018
1790107343322436000,8.23643603515625,4.42777640299052,6.719230513116717,-5.605100227192044
1790107343332381200,8.246381103515626,4.338240508972108,6.8186343056768175,-5.55484537320435
1790107343342326300,8.256326171875,4.235054567524791,6.925495428505539,-5.502022714555263
1790107343352270000,8.26627001953125,4.125640253081918,7.0350465210705995,-5.445880556094646
1790107343362215200,8.276215087890625,4.021020771700144,7.141957912781834,-5.3846290917962785
1790107343372160300,8.28616015625,3.918701383954286,7.246957917913794,-5.319378328728676
1790107343382105000,8.29610498046875,3.8083901206716892,7.3550149725288145,-5.250743183919787
1790107343392049200,8.306049072265624,3.6947967669785022,7.4667656209647655,-5.173610259878635
1790107343401994200,8.315994140625,3.5847473695024847,7.579540351751446,-5.086310746610164
1790107343411939000,8.32593896484375,3.4783769528001547,7.690119618320464,-4.993327342486381
1790107343421883100,8.335883056640625,3.3718720960631963,7.8000553262889385,-4.89489444078505
1790107343431828200,8.345828125,3.261196091121435,7.912872727173566,-4.787635550810396
1790107343441773000,8.35577294921875,3.1536309116765855,8.025660901963711,-4.670524544385075
1790107343451717000,8.365717041015625,3.0601477413371203,8.133228127235174,-4.544937386037409
1790107343461662000,8.375661865234376,2.980150660036504,8.23409614712894,-4.414601864118874
1790107343471607300,8.385607177734375,2.900514521002769,8.329764844813942,-4.286306615856289
1790107343481551000,8.395551025390626,2.823877856045961,8.41975549686253,-4.159786560572684
1790107343491496200,8.40549609375,2.759654974721372,8.50289847497344,-4.0317970172584054
1790107343501441300,8.415441162109374,2.716509952738881,8.57830004517734,-3.899193842668831
1790107343511386000,8.42538623046875,2.6971777680203317,8.645161166051029,-3.762550745038688
1790107343521330200,8.435330078125,2.6900965775877235,8.704514687773585,-3.6283883583083747
1790107343531275300,8.445275146484375,2.6850691048145294,8.757500428029894,-3.5024221375152464
1790107343541220000,8.45522021484375,2.688133460821211,8.801433093258739,-3.3880803035423157
1790107343551164200,8.4651640625,2.703117094941437,8.837413338178395,-3.280798909474909
1790107343561109000,8.47510888671875,2.721772695572674,8.872161995476484,-3.1697131546884774
1790107343571054300,8.485054443359376,2.726483942003548,8.91224616858363,-3.05099120593518
1790107343580998100,8.494998046875,2.6878911764979363,8.960600741907953,-2.9416461573362347
1790107343590943000,8.50494287109375,2.6063068260058757,9.01241860742867,-2.8554946450591085
1790107343600888300,8.514888427734375,2.523326929502189,9.058979867595434,-2.781746102759242
1790107343610832100,8.52483203125,2.4586606883242723,9.100637573629617,-2.702550400969386
1790107343620777200,8.534777099609375,2.4004057754933834,9.143419899779557,-2.6088871978878974
1790107343630722300,8.544722412109374,2.331604334206879,9.189317727601528,-2.50807879922688
1790107343640666400,8.554666259765625,2.2602967553183433,9.234350463026761,-2.4058660867258905
1790107343650611200,8.564611083984374,2.210596174212545,9.27169089038372,-2.306383383710682
1790107343660556000,8.57455615234375,2.176711148006469,9.302157924839854,-2.2140863544158638
1790107343670501000,8.584501220703125,2.1301529565796256,9.331578080591559,-2.134125951863825
1790107343680445200,8.594445068359375,2.0753860319949684,9.360115608289837,-2.0618857683002947
1790107343690390000,8.60439013671875,2.022642283800989,9.386112219333649,-1.9950475899107754
1790107343700335400,8.61433544921875,1.9764614012539385,9.407764663693309,-1.9385500421412287
1790107343710279200,8.624279052734375,1.9537180929176508,9.42087081350386,-1.897521573921293
1790107343720224300,8.634224365234376,1.9630423861019313,9.424632796385884,-1.8690007050968704
1790107343730169000,8.644169189453125,1.9803394117310642,9.423006656488775,-1.8589207712396978
1790107343740113200,8.654113037109376,1.9894510850779712,9.419518814373015,-1.866857701718807
1790107343750058200,8.664058349609375,2.0050847075395284,9.411574577370285,-1.8900513841710984
1790107343760003000,8.674003173828124,2.021323164026439,9.399938500112295,-1.9302321495205164
1790107343769947100,8.683947021484375,2.0475902625747024,9.38275121846795,-1.9853854430742561
1790107343779892200,8.693892333984374,2.0838101614691316,9.36098654590547,-2.0494114866524935
1790107343789837000,8.703837158203125,2.1278832580819724,9.336002326774597,-2.116973449271917
1790107343799782400,8.713782470703125,2.169491425886005,9.309089185407757,-2.191928152491152
1790107343809726200,8.723726318359375,2.1866284386478365,9.284753785574436,-2.2764885961845516
1790107343819671000,8.733671142578125,2.1992314612418413,9.26018165437579,-2.36279529902339
1790107343829616000,8.7436162109375,2.238549180021137,9.229452169591188,-2.444694122292101
1790107343839560200,8.753560302734375,2.2788040335200725,9.198189016321301,-2.5240438455998895
1790107343849505300,8.76350537109375,2.321421670627594,9.165780200147628,-2.6018966083481905
1790107343859450000,8.7734501953125,2.371184795575589,9.130179309934377,-2.6809847581103443
1790107343869394200,8.783394287109376,2.4142083831354975,9.092605073821543,-2.7688483350023625
1790107343879339300,8.79333935546875,2.4291470090702174,9.057171356868743,-2.8700685293346644
1790107343889284000,8.8032841796875,2.413239245842397,9.025198594024777,-2.9820220068663357
1790107343899228200,8.813228271484375,2.4062403268657624,8.98787453328073,-3.098147509385645
1790107343909173200,8.82317333984375,2.440860535478592,8.940084608101845,-3.207411309441924
1790107343919118000,8.8331181640625,2.4911419852122663,8.89195741379261,-3.3011624830678103
1790107343929063200,8.843063232421875,2.5083345275536177,8.856206885975599,-3.3832278950750827
1790107343939007200,8.85300732421875,2.4923668508321044,8.830627039039134,-3.460999701541662
1790107343948952300,8.862952392578125,2.4995377653747797,8.796417895445227,-3.541997192056477
1790107343958897200,8.872897216796876,2.5490868091806766,8.750624697041511,-3.6192689400464295
1790107343968841000,8.882841064453125,2.610810274904966,8.702253172582388,-3.6911820836126803
1790107343978786300,8.892786376953126,2.644311854751408,8.664082139620184,-3.756553258189559
1790107343988731100,8.902731201171875,2.6725004228815434,8.628995044147969,-3.8168832237288353
1790107343998675200,8.91267529296875,2.7080966369196773,8.591324361923336,-3.8763098106876015
1790107344008620300,8.922620361328125,2.7506951309353114,8.550114984178542,-3.9369539567425846
1790107344018565000,8.932565185546874,2.7965172631725665,8.50407277944982,-4.003827937097848
1790107344028509200,8.94250927734375,2.8334166687637565,8.454139412501453,-4.0828497436255216
1790107344038454000,8.9524541015625,2.862471206073463,8.400234803834557,-4.172857054547965
1790107344048399000,8.962399169921875,2.8980662510678172,8.343099542683362,-4.261963324977457
1790107344058343200,8.97234326171875,2.9406343499451872,8.286751047995686,-4.341982325848937
1790107344068288000,8.9822880859375,2.984313917195797,8.23230341849327,-4.415134071299433
1790107344078233300,8.9922333984375,3.030729923672974,8.179471992015838,-4.481213686406612
1790107344088178200,9.00217822265625,3.0862612567588683,8.125748000612855,-4.540659562587738
1790107344098122200,9.012122314453125,3.1473236282259225,8.068081409063934,-4.601176575131714
1790107344108067300,9.0220673828125,3.2056293944612144,8.004637987679242,-4.671200543950498
1790107344118012200,9.03201220703125,3.2611323782354593,7.935841514828801,-4.7495089415118095
1790107344127956200,9.041956298828126,3.312358999864757,7.864365593636036,-4.832226972208917
1790107344137901000,9.051901123046875,3.358487421572208,7.792669892212748,-4.915816232782602
1790107344147846100,9.06184619140625,3.403598775191605,7.72144063925743,-4.996528768876194
1790107344157789700,9.071789794921875,3.451486023265123,7.650005050075054,-5.072969618999958
1790107344167734500,9.081734619140626,3.505340070788562,7.572754052612185,-5.151348743709922
1790107344177680000,9.091679931640625,3.575783141802251,7.484834946140647,-5.230812156525254
1790107344187623700,9.101623779296874,3.670447046358883,7.38766285815537,-5.302888381698727
1790107344197568800,9.11156884765625,3.7929382845178243,7.287855160969495,-5.354546672743559
1790107344207513900,9.121513916015624,3.926365050449967,7.192879121723771,-5.386701806417107
1790107344217458700,9.131458740234375,4.046865991574526,7.103786295297741,-5.415668373182416
1790107344227402800,9.14140283203125,4.137068532808125,7.014998589298129,-5.463043872341514
1790107344237347600,9.15134765625,4.200191928458214,6.921217312794924,-5.53403230227828
1790107344247292700,9.161292724609375,4.26613681126982,6.822146113190055,-5.606138922590017
1790107344257236700,9.17123681640625,4.3546331331074235,6.719944214344024,-5.66126225939691
1790107344267181600,9.181181640625,4.456744138799608,6.619981618857383,-5.699441475665569
1790107344277127000,9.191126953125,4.554888871209323,6.524187248966097,-5.732220294195414
1790107344287070700,9.20107080078125,4.643270334495604,6.432127973949909,-5.765252795225382
1790107344297015600,9.211015625,4.717544654235244,6.3432672027140855,-5.803285881021618
1790107344306961000,9.2209609375,4.789186871905625,6.258716695892811,-5.836314874920249
1790107344316904700,9.23090478515625,4.851898179623484,6.184386554312706,-5.86368920405805
1790107344326849800,9.240849853515625,4.897576519475877,6.1214428991436955,-5.891690140661597
1790107344336794600,9.250794677734374,4.926182143974304,6.072593235778808,-5.91833440195918
1790107344346738700,9.26073876953125,4.937480367580056,6.043594520309567,-5.93857113430202
1790107344356683800,9.270683837890624,4.927431267252564,6.031892392078042,-5.958783901247382
1790107344366628600,9.280628662109375,4.907490887507796,6.023492228001356,-5.983681611138582
1790107344376573700,9.29057373046875,4.876437285335362,6.022073593375087,-6.010436347073316
1790107344386517800,9.300517822265626,4.82603951574564,6.0375534865796565,-6.035531040841341
1790107344396462600,9.310462646484375,4.767917581644654,6.0620262490570545,-6.0571565971940755
1790107344406407700,9.32040771484375,4.704323938134312,6.097179395502805,-6.071581428387761
1790107344416351700,9.330351806640625,4.630005194731057,6.145525785520673,-6.079962887763977
1790107344426296800,9.340296875,4.568908336472511,6.193793265083432,-6.077204528966545
1790107344436241700,9.35024169921875,4.530701063153147,6.2411857153773305,-6.057288114619254
1790107344446185700,9.360185791015626,4.50235788898319,6.295627499660849,-6.021981823438406
1790107344456130800,9.370130859375,4.464200884546339,6.362738211381435,-5.9797056932449335
1790107344466075600,9.38007568359375,4.409001267632842,6.439538542467355,-5.938297578057647
1790107344476019700,9.390019775390625,4.342963153579831,6.519695782765746,-5.899373096379637
1790107344485964800,9.39996484375,4.269273063468932,6.605563217404485,-5.857491518461704
1790107344495909600,9.40990966796875,4.190250087897479,6.696877811533212,-5.810681251969934
1790107344505854700,9.419854736328125,4.110329286703467,6.7922349590510125,-5.756833926448226
1790107344515798800,9.429798828125,4.0324788620427245,6.890954861000179,-5.694229878497123
1790107344525743600,9.43974365234375,3.955072966279089,6.99280312410295,-5.623920078474283
1790107344535688700,9.449688720703126,3.87522172318995,7.09785924333632,-5.5473816131949425
1790107344545632500,9.459632568359375,3.796463536034524,7.20502139493823,-5.463047963994741
1790107344555577900,9.469577880859376,3.719047411137819,7.312491005054116,-5.372758621260523
1790107344565522700,9.479522705078125,3.631653205323219,7.422084767717123,-5.281487866273522
1790107344575466800,9.489466796875,3.5282410539045928,7.535811100140213,-5.189748324730992
1790107344585411800,9.499411865234375,3.4186738869875666,7.651617745968699,-5.092721198174357
1790107344595356700,9.509356689453124,3.314754662829637,7.767268908974528,-4.985211840569972
1790107344605300700,9.51930078125,3.2210899984434245,7.880964261737465,-4.8667614022344345
1790107344615245800,9.529245849609374,3.136688836964965,7.990757930886745,-4.7412411716431375
1790107344625190700,9.539190673828125,3.0557009910613298,8.09675863749385,-4.612546110408008
1790107344635134700,9.549134765625,2.9761992920622227,8.200000400781631,-4.480249225288629
1790107344645079600,9.55907958984375,2.9030855405345557,8.300614153653383,-4.340773534581065
1790107344655024600,9.569024658203125,2.8393603795990345,8.398842472693323,-4.191406856717169
1790107344664969700,9.5789697265625,2.7888787311181424,8.491088794714212,-4.036576360489428
1790107344674913500,9.58891357421875,2.758587637750804,8.572101775059103,-3.8832515926495192
1790107344684859000,9.59885888671875,2.7462726383179423,8.64059020487368,-3.737456928053498
1790107344694803700,9.6088037109375,2.7433675645262,8.698081439855693,-3.603849837118387
1790107344704747800,9.618747802734376,2.742550695185363,8.74896757748425,-3.4791362467348574
1790107344714692600,9.628692626953125,2.7456477844178675,8.795378031003475,-3.35754195741564
1790107344724637700,9.6386376953125,2.7584865154638885,8.83679140688777,-3.2360882456108926
1790107344734581800,9.648581787109375,2.777819576965272,8.87578661571443,-3.1103888590604063
1790107344744526600,9.658526611328124,2.7932670292049644,8.915645163372158,-2.979816605776548
1790107344754471700,9.6684716796875,2.7900717402949926,8.959353956717251,-2.8488293419510122
1790107344764415700,9.678415771484374,2.755947060114145,9.008143998849391,-2.725521234451234
1790107344774360600,9.688360595703125,2.696423442521691,9.057561817491054,-2.6192098544597626
1790107344784306000,9.698305908203125,2.633110661779344,9.101192284902929,-2.530890935015678
1790107344794249700,9.708249755859375,2.5713959638833996,9.139345197686552,-2.455746262182295
1790107344804194800,9.71819482421875,2.5141224633052945,9.17527108207047,-2.3799165296941993
1790107344814139600,9.7281396484375,2.464730071365833,9.211883195152879,-2.2883780636817215
1790107344824084700,9.738084716796875,2.422648733092099,9.249186797630786,-2.1802932442769407
1790107344834028800,9.74802880859375,2.376879353955388,9.285860285511612,-2.0721023341491818
1790107344843973600,9.7579736328125,2.3281800588466224,9.319930312895774,-1.9720202039361
1790107344853918700,9.767918701171874,2.2869055069111286,9.348745488491653,-1.8818623786270616
1790107344863862800,9.77786279296875,2.2534183939814567,9.372088370156288,-1.8045660807177424
1790107344873807600,9.7878076171875,2.2185908262282608,9.391137354019284,-1.7477897160068154
1790107344883752700,9.797752685546875,2.196201299765706,9.403687623512745,-1.7081312209658324
1790107344893696800,9.80769677734375,2.2008573088780046,9.408000226014853,-1.678134288239479
1790107344903641600,9.8176416015625,2.220642936452478,9.406669854193925,-1.6594247654639183
1790107344913586700,9.827586669921875,2.2356559427976608,9.403458490931987,-1.65747275461331
1790107344923530800,9.83753076171875,2.2563998940102756,9.395354679453373,-1.6752181085318325
1790107344933475800,9.847475830078125,2.2775185237541793,9.383307683306931,-1.7137138434037564
1790107344943420700,9.857420654296876,2.2970824714019895,9.368886359244584,-1.7657237243652342
1790107344953365800,9.86736572265625,2.3159467463478443,9.351999521851539,-1.8294529769539831
1790107344963309800,9.877309814453126,2.3389777855843303,9.331236135286092,-1.9046337440140544
1790107344973254700,9.887254638671875,2.38179503691718,9.30298619235754,-1.9879374656446276
1790107344983199500,9.897199462890624,2.430913288090378,9.270294467589258,-2.0791108977369963
1790107344993143800,9.907143798828125,2.4796061534583567,9.234924463522434,-2.1767253226622936
1790107345003088600,9.917088623046874,2.534617554323375,9.195638162794708,-2.277352519537508
1790107345013033700,9.92703369140625,2.586509654124081,9.155582631260156,-2.3781695398963985
1790107345022977500,9.9369775390625,2.615805598974228,9.120745126634835,-2.477891750755906
1790107345032922600,9.946922607421875,2.6328946809411047,9.089408323606849,-2.573111243368685
1790107345042867700,9.95686767578125,2.6588077053546906,9.055805913734435,-2.663364930267632
1790107345052811500,9.9668115234375,2.6933351211175323,9.01952347099781,-2.750369259981811
1790107345062756900,9.9767568359375,2.7236516411870717,8.983742548042535,-2.836278780196607
1790107345072701700,9.98670166015625,2.738115927608311,8.951789074420928,-2.9220827942103145
1790107345082645800,9.996645751953125,2.744026320695877,8.922177195489406,-3.0059073248445984
1790107345092590800,10.0065908203125,2.7617852647483345,8.888908547616005,-3.0871020914971825
1790107345102535700,10.01653564453125,2.791006098535657,8.852811982840299,-3.1636013938099143
1790107345112480800,10.026480712890624,2.8208795510128137,8.817774571728705,-3.234168383464217
1790107345122424600,10.036424560546875,2.847472958905995,8.784727457651496,-3.3001278793230653
1790107345132369700,10.04636962890625,2.8825787590786813,8.749581325468421,-3.3624367437198757
1790107345142314800,10.056314697265625,2.926744940802455,8.713389483624697,-3.417804995198548
1790107345152258600,10.066258544921874,2.9801909920468925,8.676668064948917,-3.4647178452819585
1790107345162204000,10.076203857421875,3.0362624233588575,8.638998551768063,-3.5098709922164675
1790107345172149200,10.086149169921875,3.083132603344321,8.600861421075463,-3.562277471280098
1790107345182093000,10.096093017578125,3.122554805411398,8.559775377449393,-3.626332594822347
1790107345192038100,10.1060380859375,3.161048494456708,8.51298615374565,-3.702327747005224
1790107345201983000,10.11598291015625,3.193479814723134,8.463170860219002,-3.7877182117819785
1790107345211927300,10.12592724609375,3.215137812040746,8.414237025701999,-3.877353474521637
1790107345221872000,10.1358720703125,3.2359152271315454,8.36477770600617,-3.966071622416377
1790107345231817000,10.14581689453125,3.2658351490989324,8.313239241948724,-4.049047135005891
1790107345241762000,10.155761962890624,3.308509046438336,8.259038865205644,-4.124610033251345
1790107345251706000,10.1657060546875,3.3626293436825274,8.201396239054203,-4.195256517882645
1790107345261651000,10.17565087890625,3.428332526692748,8.13918498981297,-4.262700991602242
1790107345271596300,10.18559619140625,3.5101693906411526,8.070833338120579,-4.325594670149684
1790107345281540000,10.1955400390625,3.6063723413333295,7.997857533758879,-4.381638336671888
1790107345291485200,10.205485107421875,3.7016093696027994,7.924322926470637,-4.435495599065721
1790107345301430000,10.215429931640625,3.7888960233896967,7.850579644867778,-4.492560425329208
1790107345311374000,10.2253740234375,3.8669562914088367,7.773971621483564,-4.55877360368818
1790107345321319200,10.235319091796875,3.931316535377502,7.694115409958362,-4.638507942399382
1790107345331264000,10.245263916015626,3.9829040992736813,7.61166625933051,-4.729629059782624
1790107345341208000,10.2552080078125,4.028417019431293,7.530023164388537,-4.820891631463169
1790107345351153200,10.265153076171876,4.074597171325982,7.451890123394131,-4.902795715428889
1790107345361098000,10.275097900390625,4.127990615600347,7.373929516357183,-4.975467276147008
1790107345371043000,10.28504296875,4.19618853803575,7.287992523613572,-5.044556594464183
1790107345380987100,10.294987060546875,4.2751510155916215,7.189909750524163,-5.118463542196154
1790107345390932000,10.304931884765624,4.3635719341054555,7.082757535794377,-5.192700744795799
1790107345400877000,10.314876953125,4.4714264518857,6.969893957680464,-5.253309819537401
1790107345410821000,10.324821044921874,4.591353392514586,6.854160961610078,-5.301918075361848
1790107345420766200,10.33476611328125,4.7084334192797535,6.736324855780601,-5.350040008974075
1790107345430711000,10.3447109375,4.822659225657582,6.617766280895471,-5.396061755436659
1790107345440655000,10.354655029296875,4.933626030239463,6.502779719278216,-5.435401247656345
1790107345450600200,10.36460009765625,5.031069920903444,6.3947875465929505,-5.474070293268561
1790107345460545000,10.374544921875,5.11179414743483,6.29109277884066,-5.519249743688106
1790107345470489000,10.384489013671875,5.181275679939985,6.192056066027283,-5.566253486925363
1790107345480434200,10.39443408203125,5.249165559339523,6.098738315382599,-5.605538618609309
1790107345490379000,10.40437890625,5.313910710972547,6.011458091336489,-5.638716665589809
1790107345500323000,10.414322998046876,5.369865822428465,5.936757362878322,-5.664793356132507
1790107345510268000,10.424267822265625,5.405262714502215,5.885040035122633,-5.685049377697706
1790107345520213200,10.434213134765624,5.413752894949913,5.852219131016731,-5.7107940598070615
1790107345530158000,10.444157958984375,5.39952855476439,5.82581335465014,-5.7511208094984285
1790107345540102000,10.454101806640624,5.374196545109153,5.809479474964737,-5.791233039656281
1790107345550047200,10.464047119140625,5.338480504083633,5.816586092099547,-5.817071245267987
1790107345559992000,10.473991943359374,5.279098340788483,5.850416465508937,-5.837309731176495
1790107345569936100,10.48393603515625,5.197532402735948,5.898488130238652,-5.862069493901729
1790107345579881200,10.493881103515625,5.113668709135055,5.9499202113121745,-5.883811954632401
1790107345589826000,10.503825927734376,5.039080793401599,6.006050094813108,-5.891133091300725
1790107345599770000,10.51377001953125,4.971818690511584,6.070477851060033,-5.882236668139695
1790107345609715000,10.52371484375,4.90234446453005,6.14265753660798,-5.865590069243312
1790107345619660000,10.533659912109375,4.823944004771113,6.223862240132689,-5.844954108449817
1790107345629604000,10.54360400390625,4.729847086447477,6.317318522465229,-5.821546929377317
1790107345639549000,10.553548828125,4.629581708621979,6.41776451755464,-5.792206853124499
1790107345649494300,10.563494384765624,4.5352556577175855,6.522016334667802,-5.750228829094767
1790107345659438000,10.57343798828125,4.442036691272259,6.630986996996402,-5.698133315676451
1790107345669383200,10.583383056640624,4.343213913470507,6.742680362287163,-5.6429714004248375
1790107345679328000,10.593327880859375,4.237123775014281,6.856136061075329,-5.586640441393852
1790107345689273000,10.603273193359374,4.119867222638428,6.972595033332705,-5.529919021740556
1790107345699217200,10.613217041015625,3.9935865290686485,7.091655712521076,-5.470843147915601
1790107345709162000,10.623161865234374,3.8635099503472445,7.211316695690154,-5.407458763241768
1790107345719107000,10.633107177734376,3.7303050104722377,7.33021896944642,-5.340699349176884
1790107345729051100,10.643051025390625,3.594580488991737,7.447591549417376,-5.270939584252238
1790107345738996000,10.652995849609376,3.4614725797504184,7.5645800985068075,-5.192851551443338
1790107345748941000,10.662941162109375,3.3376354799404737,7.681691397193074,-5.101196765574812
1790107345758885000,10.672885009765626,3.2292154372319577,7.795822218763828,-4.996769591894745
1790107345768830000,10.682829833984375,3.1335297884121536,7.908154466480016,-4.879800039766729
1790107345778775000,10.692775146484376,3.0476237753286957,8.018303524938226,-4.7528076907962555
1790107345788719000,10.702718994140625,2.973209754857421,8.12331171337664,-4.619762325397134
1790107345798664200,10.712664306640624,2.9073049117952583,8.222707907152175,-4.483863616393506
1790107345808609000,10.722609130859375,2.8443697321936487,8.318508122262358,-4.345381320637464
1790107345818553000,10.732552978515624,2.7883102835804223,8.409607027813792,-4.204071107979119
1790107345828498200,10.742498291015625,2.7452880111947655,8.49534469859302,-4.0574475913435215
1790107345838443000,10.752443115234374,2.719516441078484,8.574749659219384,-3.9049069596186277
1790107345848388000,10.76238818359375,2.716236104233563,8.64629923017025,-3.746193192216754
1790107345858332200,10.772332275390625,2.7390397644549607,8.706067762434483,-3.5878155249014494
1790107345868277000,10.782277099609376,2.7844237975358963,8.75212048855722,-3.4376989054530855
1790107345878222000,10.79222216796875,2.8437954394370317,8.788232835423946,-3.2939608811259267
1790107345888166100,10.802166259765626,2.897175439707935,8.823480674415826,-3.1500740959778426
1790107345898111200,10.812111328125,2.9245471384972332,8.863566016566752,-3.00909413818717
1790107345908056000,10.82205615234375,2.917016450731456,8.90945040038526,-2.8780367317348716
1790107345917999900,10.831999755859375,2.877385574349761,8.96010448282361,-2.7581802259936925
1790107345927945200,10.8419453125,2.809676019953191,9.01292012721002,-2.6539362999260425
1790107345937890000,10.85189013671875,2.7136390734776854,9.067671708095073,-2.5659099336877462
1790107345947834000,10.861834228515624,2.6158961998671293,9.11961816843152,-2.481937519015372
1790107345957779200,10.871779296875,2.5496128788813945,9.16239874101579,-2.391714373385161
1790107345967724000,10.88172412109375,2.5108552782028912,9.196779149523376,-2.2989679928876456
1790107345977669000,10.891669189453125,2.4753350520104167,9.229038912615179,-2.206346261683106
1790107345987613200,10.90161328125,2.43328732374534,9.261416164606809,-2.1155783416517076
1790107345997558000,10.91155810546875,2.383911444549262,9.292191826620698,-2.0353227555453777
1790107346007503000,10.921503173828125,2.3327349456720055,9.319921545067428,-1.9666640837304292
1790107346017447000,10.931447021484376,2.288136802271753,9.34351051044762,-1.9062005549393592
1790107346027392300,10.941392333984375,2.2584606259323654,9.361561130923032,-1.8522768031805752
1790107346037337000,10.951337158203126,2.245883030040562,9.373733214753866,-1.8054145142406224
1790107346047281200,10.96128125,2.2442913769349455,9.380517175805569,-1.7718442530721425
1790107346057226200,10.971226318359374,2.2439095380105076,9.383709249845147,-1.755348314692825
1790107346067171000,10.981171142578125,2.2448203692451116,9.38384953509867,-1.7534285986766218
1790107346077115100,10.991115234375,2.2452527693130073,9.381870343980193,-1.7634478883877396
1790107346087060000,11.00106005859375,2.2488411491937934,9.376776820233463,-1.7858173949755727
1790107346097005000,11.011005126953124,2.2651428801752624,9.365953812924026,-1.821655016554147
1790107346106950100,11.0209501953125,2.293044448057562,9.35009631857872,-1.8676370155282318
1790107346116894000,11.03089404296875,2.339750377392024,9.32743674300313,-1.9222104633674024
1790107346126839000,11.040839111328125,2.376321427811682,9.304506533792614,-1.987375447847694
1790107346136784100,11.0507841796875,2.4043397539414464,9.281863324829935,-2.058288766721636
1790107346146728000,11.06072802734375,2.44954024714902,9.253677679309249,-2.1306370868347586
1790107346156673300,11.07067333984375,2.501452366824448,9.222198252940178,-2.20549563620314
1790107346166617900,11.080617919921876,2.5459043797522782,9.191133252590895,-2.2829420101076363
1790107346176562000,11.09056201171875,2.567066994768381,9.165082281011342,-2.3625937851019203
1790107346186506800,11.1005068359375,2.593673262143135,9.136556443750857,-2.442658963202685
1790107346196451800,11.110451904296875,2.6345181904897093,9.102383540514111,-2.525139824143052
1790107346206396000,11.12039599609375,2.6765143346980214,9.06571882046163,-2.6113947967946527
1790107346216340700,11.1303408203125,2.696469912011921,9.033259735405444,-2.701782046945393
1790107346226285800,11.140285888671874,2.7047651544094085,9.002892654192447,-2.7933099915638566
1790107346236230000,11.15022998046875,2.7132956668674946,8.971282294920087,-2.8852283968046306
1790107346246174700,11.1601748046875,2.7246716318845747,8.938651360428333,-2.97440451759994
1790107346256119800,11.170119873046875,2.7424998417809605,8.905275745049119,-3.056979924955964
1790107346266065000,11.18006494140625,2.7580358490869403,8.873875229135155,-3.133364953239262
1790107346276009000,11.190009033203125,2.776481314098835,8.842242073509096,-3.2056650502964854
1790107346285953800,11.199953857421875,2.809461500419676,8.806067182800174,-3.2757392879977822
1790107346295899000,11.20989892578125,2.8464883317828176,8.76895939515531,-3.3426433712303636
1790107346305843000,11.219843017578125,2.8859467742070555,8.731426075574754,-3.4064430587068197
1790107346315787800,11.229787841796876,2.9275848987579343,8.692712606298922,-3.469352811606228
1790107346325732900,11.23973291015625,2.9635496538475152,8.654810453405975,-3.5329920478239654
1790107346335677000,11.249677001953126,2.996753127530217,8.617416250035166,-3.595830196791887
1790107346345621800,11.259621826171875,3.0349644925028083,8.576406778776645,-3.661237903986871
1790107346355566800,11.26956689453125,3.0771339474514123,8.530198569831251,-3.7332761352375146
1790107346365511000,11.279510986328125,3.1207305125936866,8.478406423273682,-3.814192669470608
1790107346375455700,11.289455810546874,3.1627146741032597,8.420791269651055,-3.9061365014135836
1790107346385400800,11.29940087890625,3.203850694350898,8.358381867489218,-4.005391533152759
1790107346395346000,11.309345947265625,3.2491908882901073,8.292757594934105,-4.104061750741303
1790107346405290000,11.3192900390625,3.302168445239961,8.225194463270903,-4.196692688165605
1790107346415234800,11.32923486328125,3.36277313606739,8.156534768542647,-4.281711104759574
1790107346425179600,11.3391796875,3.4303029499828814,8.086047858387232,-4.361103498165309
1790107346435124000,11.3491240234375,3.501998651406169,8.012029266974329,-4.440022136579453
1790107346445068800,11.35906884765625,3.574179798258841,7.933871676060557,-4.5220898866742845
1790107346455013600,11.369013671875,3.6440664044335485,7.85374483090043,-4.605412313005328
1790107346464958000,11.3789580078125,3.7083313713341948,7.773541997894644,-4.689425351949036
1790107346474902800,11.38890283203125,3.76619377771616,7.693259085389971,-4.774927752667665
1790107346484847900,11.398847900390624,3.83145827704817,7.607641241598129,-4.859432374520599
1790107346494791700,11.408791748046875,3.9115988584727046,7.515729850620031,-4.937974873098731
1790107346504737000,11.418737060546874,3.9973783225670454,7.423577052101493,-5.008180043703318
1790107346514681900,11.428681884765625,4.083466998741031,7.332749364706873,-5.0721279074788095
1790107346524626700,11.438626708984375,4.176995469526946,7.236516018876433,-5.133804903712869
1790107346534571000,11.448571044921875,4.277966365273296,7.133906708273291,-5.193912458673119
1790107346544515800,11.458515869140625,4.379377698263526,7.029474858418107,-5.251468575584888
1790107346554460700,11.468460693359376,4.488037102685868,6.920230055323243,-5.304558945259451
1790107346564404700,11.47840478515625,4.606492217196524,6.8063470710337155,-5.350163927614688
1790107346574349800,11.488349853515626,4.721092702105641,6.694371381670236,-5.391392594581842
1790107346584295000,11.498294921875,4.82735264417082,6.586851502671838,-5.429586423897743
1790107346594238700,11.50823876953125,4.92106114769876,6.480085072389245,-5.473761665710806
1790107346604183800,11.518183837890625,5.002318458193541,6.37382659162879,-5.524633774814009
1790107346614129000,11.52812890625,5.086850844836235,6.272596752685308,-5.563167211347818
1790107346624072700,11.53807275390625,5.168718396183848,6.178530229499936,-5.592901255354285
1790107346634018000,11.54801806640625,5.240764810740948,6.090286713379621,-5.622558142471314
1790107346643963000,11.557962890625,5.304671173462271,6.0093660874933,-5.649634949967265
1790107346653907000,11.567906982421874,5.359646626231074,5.943422665986418,-5.667476896128058
1790107346663851800,11.577851806640625,5.398898440167308,5.895903958964348,-5.679842456704378
1790107346673796900,11.587796875,5.41668544127047,5.862129699656367,-5.69783637855649
1790107346683741700,11.59774169921875,5.4097296307832,5.8438896940886975,-5.723126302635669
1790107346693685800,11.607685791015625,5.374705663675069,5.848726612725853,-5.751115548801422
1790107346703630800,11.617630859375,5.319561868602037,5.867631804203986,-5.783043303459882
1790107346713576000,11.627575927734375,5.258599742639064,5.891379759538173,-5.814561892795562
1790107346723519700,11.637519775390626,5.201145917057991,5.922976090285181,-5.8341047976553435
1790107346733464800,11.64746484375,5.133199923557043,5.974049274918436,-5.84220568652451
1790107346743410000,11.657409912109374,5.052337165337801,6.0417608751416205,-5.84306259561479
1790107346753353700,11.667353759765625,4.961749716439843,6.12081862976551,-5.838410385894775
1790107346763298800,11.677298828125,4.865664546908438,6.206953775429725,-5.8283285523414605
1790107346773244000,11.687243896484375,4.771173076309263,6.295269772264361,-5.811700073623657
1790107346783188000,11.69718798828125,4.681812831118703,6.3860822620898485,-5.785235260546207
1790107346793132800,11.7071328125,4.5926700280711055,6.482284628260135,-5.749585855016112
1790107346803078000,11.717077880859375,4.490120923222602,6.586637567660212,-5.711862565821409
1790107346813022000,11.72702197265625,4.3683840105623,6.700578419616818,-5.67360911527276
1790107346822966800,11.736966796875,4.242105362819135,6.818076087272167,-5.62927780611515
1790107346832911600,11.74691162109375,4.126276505158842,6.933835386827588,-5.573703218409419
1790107346842857000,11.75685693359375,4.015586471691727,7.048228074204921,-5.510711632445454
1790107346852800800,11.76680078125,3.8980747755110263,7.163451951709389,-5.446133654072881
1790107346862745900,11.776745849609375,3.773060156354308,7.279487145596742,-5.3799160917997355
1790107346872691000,11.78669091796875,3.643464054626226,7.395841488435864,-5.310093198511004
1790107346882634800,11.796634765625,3.517442304253578,7.510337636187672,-5.233817183560133
1790107346892579800,11.806579833984374,3.4029075780570506,7.621810052204132,-5.147679115286469
1790107346902525000,11.81652490234375,3.2950784869790075,7.730418310961126,-5.055047008818388
1790107346912469000,11.826468994140624,3.182386466039717,7.840201458716392,-4.95722259440422
1790107346922413800,11.836413818359375,3.06232128598392,7.956180538502335,-4.846831251622736
1790107346932358700,11.846358642578124,2.94642929995954,8.077727189287543,-4.715854509191215
1790107346942303000,11.856302978515625,2.848583550496399,8.198392965584993,-4.565337492248416
1790107346952247800,11.866247802734375,2.773058061651885,8.310036061993241,-4.407247701963782
1790107346962193000,11.87619287109375,2.7120442055016754,8.410518881961703,-4.2518677551597355
1790107346972138000,11.886137939453125,2.650923674106598,8.501213298365473,-4.107594308781624
1790107346982081800,11.896081787109376,2.5978964327961207,8.582708509269356,-3.9696868903040885
1790107346992027000,11.90602685546875,2.5682600039452312,8.654873581770062,-3.8298280454978344
1790107347001971700,11.9159716796875,2.5623046026721594,8.716117447283864,-3.6924630633339284
1790107347011916000,11.925916015625,2.575384448997676,8.765756799721718,-3.5636084276229143
1790107347021860900,11.93586083984375,2.595458099733293,8.808452032110095,-3.4416774536952373
1790107347031805700,11.9458056640625,2.602253751222789,8.850976584106684,-3.3254859002023935
1790107347041749800,11.955749755859374,2.5937612326875326,8.896810699042677,-3.2077368881344794
1790107347051694800,11.96569482421875,2.588710086777806,8.943749560350179,-3.0786919905483723
1790107347061639700,11.9756396484375,2.5869544752821323,8.990125527077913,-2.942060291095078
1790107347071583700,11.985583740234375,2.5765625528663394,9.034790013712644,-2.8114599807605147
1790107347081528800,11.99552880859375,2.5572131247520447,9.075226068997383,-2.6965359629854557
1790107347091474000,12.005473876953126,2.5315882696300744,9.10991919671595,-2.6020705036103724
1790107347101417700,12.015417724609375,2.474988430529833,9.14554054519534,-2.530594874678552
1790107347111362800,12.02536279296875,2.370317803482711,9.189979990902543,-2.469062839873135
1790107347121308000,12.035307861328125,2.2434502499356865,9.240748055109382,-2.3970566111959517
1790107347131252700,12.045252685546876,2.160598071464896,9.287169030022621,-2.291435259295255
1790107347141196800,12.05519677734375,2.1311590648822487,9.323002559947968,-2.1702983583547173
1790107347151142000,12.065141845703126,2.1121751090794803,9.353421079087257,-2.054896932326257
1790107347161087200,12.075087158203125,2.0873798366494474,9.379943759831786,-1.9570145041145384
1790107347171031300,12.08503125,2.0669494814306497,9.39949952417314,-1.8834819426529108
1790107347180976400,12.094976318359375,2.0468768536083397,9.413423420107364,-1.8352489498816429
1790107347190921200,12.104921142578124,2.0330073182098567,9.422397584679722,-1.8043490769661963
1790107347200865300,12.114865234375,2.0483914959549905,9.422568265071511,-1.7859701013192533
1790107347210810000,12.12481005859375,2.0778581211969254,9.41704920938909,-1.7810276764810085
1790107347220755500,12.13475537109375,2.073957606627047,9.416292838063836,-1.7895602347657082
1790107347230699300,12.14469921875,2.0565609200157224,9.416503850466013,-1.8084221716240048
1790107347240644000,12.15464404296875,2.0580970435418187,9.410296227997542,-1.8387442446514963
1790107347250589400,12.16458935546875,2.082814866821468,9.395027347195148,-1.888312139288336
1790107347260533200,12.174533203125,2.1196407687850294,9.373595852109789,-1.9527388726219534
1790107347270478300,12.184478271484375,2.162646674557775,9.347683412218093,-2.028337426702678
1790107347280423400,12.19442333984375,2.175787603420764,9.325876654079556,-2.112900793005526
1790107347290368300,12.2043681640625,2.188723072839528,9.302934169909358,-2.1989335012085736
1790107347300312300,12.214312255859374,2.2212311116039754,9.27463804975152,-2.2842143681310114
1790107347310257200,12.224257080078125,2.256040705309063,9.24490809739828,-2.3690400386318564
1790107347320202200,12.2342021484375,2.279542723058164,9.218067436745763,-2.449759150596708
1790107347330146300,12.244146240234375,2.3135778252594172,9.188965845423937,-2.52600082488656
1790107347340091100,12.254091064453124,2.3469119395844635,9.159706433191895,-2.60041513761878
1790107347350036500,12.264036376953126,2.3550141436278818,9.136694975438713,-2.6730370139762756
1790107347359980300,12.273980224609375,2.341887827812135,9.119873019975424,-2.7411405361264944
1790107347369925400,12.28392529296875,2.3408378803677854,9.100820528981089,-2.8046228282168504
1790107347379870200,12.2938701171875,2.3498951931789516,9.079127168089151,-2.8666762565478683
1790107347389814300,12.303814208984376,2.371765664203465,9.052535513761638,-2.932013528855145
1790107347399759400,12.31375927734375,2.396398293417692,9.022053866258263,-3.0050363872289654
1790107347409704200,12.3237041015625,2.4111194772094486,8.991208646139501,-3.0846500221699475
1790107347419649300,12.333649169921875,2.4026794195137917,8.96496945851147,-3.1665181580394504
1790107347429593300,12.34359326171875,2.38854568022117,8.939339342692493,-3.2486057818785308
1790107347439538200,12.3535380859375,2.4052698743984102,8.904156385630369,-3.3318247478350993
1790107347449483500,12.3634833984375,2.451746086630225,8.861141419768332,-3.4116675153568385
1790107347459427300,12.37342724609375,2.4880171311900017,8.823098981621861,-3.483256833796203
1790107347469372200,12.3833720703125,2.5141297698289153,8.791217404192686,-3.5445772716775537
1790107347479317200,12.393317138671875,2.5627561458319423,8.757174264815449,-3.5936809098035094
1790107347489261300,12.40326123046875,2.635680804528296,8.720499023368955,-3.6299382180988786
1790107347499206400,12.413206298828126,2.7119065505966544,8.683912629249692,-3.6613618226274847
1790107347509151200,12.423151123046875,2.7699709092915055,8.646972599387169,-3.7050627249270676
1790107347519095300,12.43309521484375,2.7957825191572305,8.608445008072257,-3.7747397800043223
1790107347529040400,12.443040283203125,2.804752592076361,8.564462658482789,-3.86700539124757
1790107347538985200,12.452985107421876,2.823885454830527,8.513848323532939,-3.9636367964848875
1790107347548929300,12.46292919921875,2.856463490091264,8.460335344532131,-4.0538551198095085
1790107347558874400,12.472874267578124,2.895438825173676,8.405949089828134,-4.1384596949055785
1790107347568819200,12.482819091796875,2.9443422645524144,8.348479482156037,-4.219495763865113
1790107347578764300,12.492764404296874,3.009761954446137,8.283567741784452,-4.300493838901818
1790107347588708400,12.502708251953125,3.0957769808620212,8.20802237919569,-4.383484256799519
1790107347598653400,12.5126533203125,3.1952336726531385,8.123903834050893,-4.468006414309143
1790107347608598300,12.522598388671875,3.2940847997665403,8.036112153351306,-4.554149158757925
1790107347618542000,12.5325419921875,3.396888463898003,7.944784699741006,-4.638094977684319
1790107347628487400,12.5424873046875,3.5092090211763978,7.848818480414152,-4.717193648840487
1790107347638432300,12.552432373046875,3.6184000482574104,7.750363951402902,-4.796811375434697
1790107347648376300,12.562376220703126,3.713230541552603,7.653454313746094,-4.879232176750898
1790107347658321400,12.5723212890625,3.8019443055331705,7.557610259494185,-4.95964836024642
1790107347668266200,12.582266357421876,3.895311448277533,7.461204479706287,-5.032630009827018
1790107347678210300,12.592210205078125,3.9887154159009452,7.367712541538476,-5.096795315745473
1790107347688155100,12.602155029296876,4.079912521129846,7.2749267058134075,-5.157531816259026
1790107347698100200,12.612100341796875,4.168765109059215,7.18280956313014,-5.21526562782526
1790107347708045300,12.62204541015625,4.255242200028896,7.091185172399878,-5.270523404666781
1790107347717989000,12.631989013671875,4.342612148185074,6.992911260652542,-5.33022354786992
1790107347727934500,12.6419345703125,4.4417575820699335,6.8838336308181285,-5.390175035485625
1790107347737879300,12.65187939453125,4.558132383175194,6.770196145722269,-5.436754415830969
1790107347747823400,12.6618232421875,4.673829723410308,6.660857234603166,-5.473454791718721
1790107347757768400,12.6717685546875,4.775111877062916,6.559758913084864,-5.508012894880771
1790107347767713300,12.68171337890625,4.860302435353398,6.466984767797589,-5.543102328440547
1790107347777657300,12.6916572265625,4.936975340667367,6.380358623746037,-5.575631556123494
1790107347787602200,12.701602294921875,5.006004453229904,6.297035028371215,-5.608713156992197
1790107347797547300,12.71154736328125,5.059938287991285,6.219777016645669,-5.646397867742181
1790107347807491300,12.7214912109375,5.100986922216415,6.156334764304757,-5.678897869330644
1790107347817436200,12.731436279296876,5.116479090380668,6.115961837384105,-5.708507994696498
1790107347827381200,12.74138134765625,5.09970915736556,6.099270814824104,-5.741277460876107
1790107347837325300,12.7513251953125,5.066610020840168,6.09045622472763,-5.779812066453695
1790107347847270100,12.761270263671875,5.0407010880798095,6.077163027912378,-5.8163417619496585
1790107347857215500,12.771215576171874,5.025192553302645,6.0703913418203586,-5.836792429304123
1790107347867160300,12.781160400390625,4.999366038128733,6.080590079751611,-5.8483455044537775
1790107347877104400,12.7911044921875,4.960545601347088,6.10162936064899,-5.8594753857553
1790107347887049200,12.80104931640625,4.906461544460058,6.13478811840713,-5.870381395173072
1790107347896994300,12.810994384765625,4.840855099822581,6.177741709470749,-5.8797992118597024
1790107347906938400,12.8209384765625,4.768642388787866,6.22995821892023,-5.883715508520603
1790107347916883200,12.83088330078125,4.6877089034199715,6.292890183651447,-5.881777233934402
1790107347926828300,12.840828369140626,4.599939142291247,6.366206179752946,-5.872171785721182
1790107347936772400,12.8507724609375,4.503790259873867,6.449159188249707,-5.856164653772115
1790107347946717200,12.86071728515625,4.403297795294225,6.53664048782587,-5.835554996463656
1790107347956662300,12.870662353515625,4.305118283832073,6.625949587351084,-5.808025769025087
1790107347966606300,12.8806064453125,4.2094478325814,6.721190415012836,-5.768586323562264
1790107347976551200,12.89055126953125,4.1173666379943485,6.8210723464787,-5.717575682771206
