time,seconds_elapsed,z,y,x
1790107335147901000,0.06190087890625,0.5991813540458679,0.05375394970178604,0.9254798889160156
1790107335157846300,0.07184619140625,0.7705795764923096,0.02280641905963421,0.8316348791122437
1790107335167790000,0.0817900390625,0.9802212119102478,-0.1424214243888855,0.5671257376670837
1790107335177735200,0.091735107421875,1.3016018867492676,-0.204398512840271,0.2543784976005554
1790107335187680300,0.10168017578125,1.7253310680389404,-0.025167496874928474,0.21195539832115173
1790107335197625000,0.111625,2.0083882808685303,0.066993847489357,0.4142581820487976
1790107335207569200,0.121569091796875,1.723750114440918,-0.4997294843196869,0.6181660294532776
1790107335217514200,0.13151416015625,1.2958592176437378,-1.2019797563552856,0.8757269978523254
1790107335227459000,0.141458984375,1.0791884660720825,-1.8204890489578247,1.0940463542938232
1790107335237403100,0.151403076171875,1.0271880626678467,-2.573538303375244,1.2215381860733032
1790107335247348000,0.161347900390625,1.0042797327041626,-3.163048028945923,1.354627013206482
1790107335257293300,0.171293212890625,1.0842002630233765,-3.579568862915039,1.5256885290145874
1790107335267237000,0.181237060546875,1.1157121658325195,-4.237351417541504,1.5173314809799194
1790107335277182200,0.19118212890625,1.2204669713974,-4.794508934020996,1.382775068283081
1790107335287127300,0.201127197265625,1.4032045602798462,-5.413815021514893,1.209806203842163
1790107335297071000,0.211071044921875,1.6382888555526733,-6.513968467712402,1.1520975828170776
1790107335307016200,0.22101611328125,2.1034340858459473,-7.50842809677124,1.248810052871704
1790107335316961000,0.2309609375,3.0153648853302,-7.91961669921875,1.285951852798462
1790107335326905300,0.2409052734375,4.027651786804199,-7.549839496612549,1.230745553970337
1790107335336850200,0.25085009765625,4.811375617980957,-6.984412670135498,1.2296653985977173
1790107335346795000,0.260794921875,5.158225059509277,-6.592858791351318,1.1127283573150635
1790107335356740400,0.270740234375,5.101698875427246,-6.326428413391113,0.760165810585022
1790107335366684200,0.28068408203125,5.055907726287842,-5.5580244064331055,0.29647111892700195
1790107335376629000,0.29062890625,4.971541404724121,-4.416742324829102,-0.2497299313545227
1790107335386574300,0.30057421875,4.868844032287598,-3.570110559463501,-0.7470686435699463
1790107335396518100,0.31051806640625,4.795750141143799,-3.3077499866485596,-0.9227834343910217
1790107335406463200,0.320463134765625,4.852678298950195,-3.5603981018066406,-0.7556641697883606
1790107335416408000,0.330407958984375,5.0560431480407715,-3.734393358230591,-0.4226348400115967
1790107335426352400,0.340352294921875,5.369634628295898,-3.55346941947937,-0.15717042982578278
1790107335436297200,0.350297119140625,5.315624713897705,-2.9541029930114746,-0.0921189934015274
1790107335446242000,0.360241943359375,4.954400539398193,-2.3683114051818848,-0.05943161994218826
1790107335456186000,0.37018603515625,4.568996906280518,-1.5792391300201416,-0.01898249052464962
1790107335466131200,0.380131103515625,4.172140121459961,-0.8126863241195679,-0.07803169637918472
1790107335476076000,0.390075927734375,3.773206949234009,0.2154427170753479,-0.4150000810623169
1790107335486021400,0.400021484375,3.2870731353759766,0.8768019676208496,-1.1207231283187866
1790107335495965200,0.409965087890625,2.912208080291748,1.2568303346633911,-1.3211352825164795
1790107335505910300,0.41991015625,2.6345226764678955,1.2479199171066284,-1.3397351503372192
1790107335515855000,0.429855224609375,2.4241859912872314,0.9145197868347168,-1.085560917854309
1790107335525799200,0.439799072265625,2.382188081741333,0.679439127445221,-0.7076029777526855
1790107335535744300,0.449744140625,2.4241044521331787,0.5462949275970459,-0.3844834864139557
1790107335545689000,0.459689208984375,2.4003453254699707,0.33249983191490173,-0.12314324080944061
1790107335555633200,0.469633056640625,2.2882485389709473,0.14582635462284088,0.09620669484138489
1790107335565578200,0.479578125,2.0374743938446045,-0.12114463001489639,0.2224746197462082
1790107335575523000,0.489523193359375,1.9009839296340942,-0.3752370774745941,0.7518974542617798
1790107335585467100,0.499467041015625,1.7309528589248657,-0.5654318332672119,1.2789711952209473
1790107335595412200,0.509412109375,1.4675692319869995,-0.8141717910766602,1.5207635164260864
1790107335605357000,0.519357177734375,1.1522048711776733,-1.1900296211242676,1.2799279689788818
1790107335615302100,0.52930224609375,1.0122418403625488,-1.0247764587402344,0.9808624982833862
1790107335625246000,0.539245849609375,0.764198899269104,-0.6512377858161926,0.7085638642311096
1790107335635191300,0.54919140625,0.464550644159317,-0.45396706461906433,0.5838310122489929
1790107335645136100,0.55913623046875,0.13988228142261505,-0.10827650129795074,0.3275398015975952
1790107335655080200,0.569080078125,-0.3971492052078247,0.11607830226421356,-0.2871052622795105
1790107335665025300,0.579025390625,-0.8325754404067993,0.30996549129486084,-0.8210890293121338
1790107335674970000,0.58897021484375,-1.2125245332717896,0.3285418450832367,-1.2678190469741821
1790107335684914200,0.5989140625,-1.4362457990646362,0.13888534903526306,-1.4155558347702026
1790107335694859300,0.608859375,-1.488072395324707,-0.2841458022594452,-1.4503591060638428
1790107335704804000,0.61880419921875,-1.4805854558944702,-0.5163353681564331,-1.4320250749588013
1790107335714748200,0.628748046875,-1.4138802289962769,-0.7028863430023193,-1.5206915140151978
1790107335724693000,0.63869287109375,-1.471631407737732,-1.0852086544036865,-1.472751259803772
1790107335734638300,0.648638427734375,-1.883865475654602,-1.437994122505188,-1.1476365327835083
1790107335744582100,0.65858203125,-2.352867364883423,-1.287495493888855,-0.6081240177154541
1790107335754527000,0.66852685546875,-2.289815664291382,-1.2271956205368042,-0.20141193270683289
1790107335764472300,0.678472412109375,-1.8569285869598389,-1.745306134223938,-0.1622442901134491
1790107335774416100,0.688416015625,-2.181288242340088,-2.076434373855591,0.20304685831069946
1790107335784361200,0.698361328125,-2.1324851512908936,-1.9700316190719604,0.6856510639190674
1790107335794306300,0.708306396484375,-1.5779178142547607,-1.421570897102356,0.3075873851776123
1790107335804251100,0.718251220703125,-1.1255536079406738,-0.9616542458534241,0.22917459905147552
1790107335814195200,0.7281953125,-0.7166887521743774,-0.7915368676185608,-0.08168260753154755
1790107335824140000,0.73814013671875,-0.24641096591949463,-0.506791353225708,-0.14387035369873047
1790107335834085000,0.748085205078125,0.17090478539466858,-0.24392513930797577,-0.6374337077140808
1790107335844029200,0.758029296875,0.16862910985946655,-0.03638685122132301,-0.5492308735847473
1790107335853974000,0.76797412109375,0.6895735263824463,-0.8260892033576965,-0.13314500451087952
1790107335863919400,0.77791943359375,1.0541560649871826,-1.017250657081604,-0.07524042576551437
1790107335873863200,0.78786328125,1.8125089406967163,-0.9006300568580627,0.22568480670452118
1790107335883808300,0.797808349609375,2.1708178520202637,-0.676314651966095,0.3220837712287903
1790107335893753000,0.807753173828125,1.9976634979248047,-0.7197704911231995,0.6006022095680237
1790107335903697200,0.817697265625,1.546103835105896,-0.4568895995616913,0.3507841229438782
1790107335913642200,0.827642333984375,0.7591160535812378,-0.22498659789562225,-0.07950599491596222
1790107335923587000,0.837587158203125,-0.29603952169418335,-0.30334317684173584,-0.23440103232860565
1790107335933532200,0.8475322265625,-0.567011833190918,-0.18194034695625305,-0.6207687258720398
1790107335943476200,0.857476318359375,-0.283565491437912,-0.9989363551139832,-1.0358164310455322
1790107335953421000,0.867421142578125,0.6022686958312988,-1.3870875835418701,-0.9800176620483398
1790107335963366100,0.8773662109375,1.1591190099716187,-0.3997706472873688,-0.5781275033950806
1790107335973310200,0.887310302734375,1.438499927520752,0.3778574764728546,-0.2381446361541748
1790107335983255000,0.897255126953125,1.5276827812194824,0.5705336928367615,-0.06151154637336731
1790107335993200000,0.9072001953125,1.4864600896835327,0.31046217679977417,0.01823042333126068
1790107336003144200,0.917144287109375,1.3892946243286133,-0.03986174985766411,-0.05171297490596771
1790107336013089300,0.92708935546875,1.3985271453857422,-0.05434589087963104,-0.2035571187734604
1790107336023034000,0.9370341796875,1.5826213359832764,0.3543896973133087,-0.2557460069656372
1790107336032978200,0.946978271484375,1.5602257251739502,0.7137052416801453,-0.26944372057914734
1790107336042923300,0.95692333984375,1.4155428409576416,0.9865348935127258,-0.31209689378738403
1790107336052868000,0.9668681640625,1.560645580291748,0.5984958410263062,0.015165669843554497
1790107336062813200,0.976813232421875,1.387354850769043,0.5924416780471802,-0.09082254767417908
1790107336072757200,0.98675732421875,1.2308852672576904,0.579228401184082,-0.362534761428833
1790107336082702000,0.9967021484375,1.3453782796859741,0.5439385771751404,-0.5433378219604492
1790107336092647200,1.006647216796875,1.4673820734024048,0.2509003281593323,-0.7843044400215149
1790107336102591200,1.01659130859375,1.5854929685592651,-0.3137478828430176,-0.9783668518066406
1790107336112536000,1.0265361328125,1.8383601903915405,-0.6887593269348145,-1.197939395904541
1790107336122481200,1.036481201171875,2.3325002193450928,-0.7687215209007263,-1.1384445428848267
1790107336132425000,1.046425048828125,2.7760465145111084,-0.32810741662979126,-0.8546739220619202
1790107336142370300,1.056370361328125,3.1890416145324707,0.6231425404548645,-0.4883217513561249
1790107336152314400,1.066314453125,3.7023322582244873,1.4430904388427734,-0.3904215097427368
1790107336162258400,1.076258544921875,4.3014678955078125,2.060093641281128,-0.288677841424942
1790107336172203500,1.08620361328125,4.857115268707275,2.5094046592712402,-0.4009343385696411
1790107336182148400,1.0961484375,5.188359260559082,2.646022081375122,-0.7052958607673645
1790107336192092400,1.106092529296875,4.848946571350098,2.2033143043518066,-0.6477598547935486
1790107336202037500,1.11603759765625,3.3254828453063965,1.8659693002700806,-0.1814185082912445
1790107336211982600,1.125982666015625,0.20514854788780212,2.4414114952087402,0.6149103045463562
1790107336221927400,1.135927490234375,-0.7253700494766235,1.7406030893325806,0.27794986963272095
1790107336231871500,1.14587158203125,-0.5531007647514343,0.6255934834480286,-0.9265312552452087
1790107336241816600,1.155816650390625,-0.9228593707084656,-0.3626464605331421,-1.6697566509246826
1790107336251761400,1.165761474609375,-1.2708945274353027,-0.31440407037734985,-1.686245322227478
1790107336261705500,1.17570556640625,-1.4001880884170532,0.24238832294940948,-1.6072053909301758
1790107336271650600,1.185650634765625,-1.4183622598648071,0.5636124610900879,-1.4297877550125122
1790107336281595400,1.195595458984375,-1.3135693073272705,0.569528341293335,-1.2841037511825562
1790107336291539500,1.20553955078125,-1.4311645030975342,0.12521907687187195,-1.0892589092254639
1790107336301484300,1.215484375,-1.7234035730361938,-0.30665910243988037,-1.0011367797851562
1790107336311429400,1.225429443359375,-1.8498607873916626,-0.25659406185150146,-0.9672014713287354
1790107336321373400,1.23537353515625,-1.768015742301941,0.009345737285912037,-0.8918260335922241
1790107336331318300,1.245318359375,-1.543736457824707,0.3513222634792328,-0.9170951843261719
1790107336341263600,1.255263671875,-1.4087722301483154,0.7519993782043457,-0.9682150483131409
1790107336351208400,1.26520849609375,-1.2739861011505127,1.5269027948379517,-0.8467674851417542
1790107336361152500,1.275152587890625,-1.0324957370758057,1.6202300786972046,-0.9040422439575195
1790107336371097600,1.28509765625,-1.019924521446228,0.7657154202461243,-1.0896546840667725
1790107336381042400,1.29504248046875,-1.2139195203781128,-0.37070226669311523,-1.2704249620437622
1790107336390986500,1.304986572265625,-1.1706571578979492,-0.7636445164680481,-1.460601568222046
1790107336400931300,1.314931396484375,-1.0266778469085693,-0.950461745262146,-1.6189806461334229
1790107336410876400,1.32487646484375,-0.8812072277069092,-1.1872377395629883,-1.7553738355636597
1790107336420820500,1.334820556640625,-0.6418833136558533,-0.9249276518821716,-2.016474723815918
1790107336430765300,1.344765380859375,-0.7326909303665161,-0.6189706325531006,-1.8458701372146606
1790107336440710700,1.354710693359375,-1.2673691511154175,-0.18423357605934143,-0.7206247448921204
1790107336450654500,1.364654541015625,-1.5103545188903809,-0.07158826291561127,-0.07212240993976593
1790107336460599300,1.374599365234375,-1.1530530452728271,-0.31192976236343384,-0.3351247310638428
1790107336470544600,1.384544677734375,-0.6129646301269531,-0.48326370120048523,-0.6624506711959839
1790107336480488400,1.394488525390625,-0.3044661283493042,-0.47889983654022217,-0.7832085490226746
1790107336490433500,1.40443359375,-0.1010657548904419,-0.3463103771209717,-0.8975460529327393
1790107336500378400,1.41437841796875,0.03320896998047829,-0.18534357845783234,-0.9355874061584473
1790107336510323500,1.424323486328125,0.1490076780319214,0.006474049761891365,-0.7910819053649902
1790107336520267500,1.434267578125,0.3084724247455597,0.24019359052181244,-0.6229010820388794
1790107336530212400,1.44421240234375,0.3594701886177063,0.6987712979316711,-0.2777341306209564
1790107336540157400,1.454157470703125,0.21480248868465424,0.9354429841041565,-0.17365114390850067
1790107336550101500,1.4641015625,0.10439173132181168,0.8383414149284363,-0.2757013440132141
1790107336560046300,1.47404638671875,0.10929673910140991,0.6150825023651123,-0.34474992752075195
1790107336569991400,1.483991455078125,0.11578959226608276,0.5889880657196045,-0.26853078603744507
1790107336579935500,1.493935546875,0.07091879099607468,0.50204998254776,-0.22038908302783966
1790107336589880600,1.503880615234375,0.002705684397369623,0.4843370318412781,-0.1380140632390976
1790107336599825400,1.513825439453125,0.026656026020646095,0.3720877170562744,0.05802017077803612
1790107336609769500,1.52376953125,0.1664905548095703,0.10802145302295685,-0.24516473710536957
1790107336619714600,1.533714599609375,0.28255778551101685,-0.1030135527253151,-0.38459905982017517
1790107336629659400,1.543659423828125,0.34265217185020447,-0.15446317195892334,-0.44681477546691895
1790107336639603500,1.553603515625,0.3718856871128082,0.16292917728424072,-0.42420879006385803
1790107336649548500,1.563548583984375,0.32472139596939087,0.7989593744277954,-0.20034880936145782
1790107336659493400,1.573493408203125,0.5461906790733337,0.8995983600616455,0.0554233118891716
1790107336669438500,1.5834384765625,0.821969747543335,0.8366860747337341,0.49412769079208374
1790107336679382500,1.593382568359375,1.018986463546753,0.6345806121826172,0.7033647894859314
1790107336689327400,1.603327392578125,0.8918938636779785,0.7279427647590637,0.9531192183494568
1790107336699272400,1.6132724609375,0.5219120979309082,0.64706951379776,0.9669367671012878
1790107336709216300,1.62321630859375,0.22913239896297455,0.3158377408981323,0.7915886640548706
1790107336719161600,1.63316162109375,0.1295410841703415,0.05399869754910469,0.6367124915122986
1790107336729106400,1.6431064453125,0.08998969197273254,-0.19605109095573425,0.7058255672454834
1790107336739050500,1.653050537109375,-0.08863198757171631,-0.3861757516860962,0.977245569229126
1790107336748995600,1.66299560546875,-0.23544007539749146,-0.11325608193874359,1.364268183708191
1790107336758940400,1.6729404296875,-0.18118003010749817,0.4781284034252167,1.7024537324905396
1790107336768884500,1.682884521484375,-0.11440515518188477,0.08993937820196152,1.7231744527816772
1790107336778829600,1.69282958984375,0.17237600684165955,-0.4001584053039551,1.772197961807251
1790107336788774400,1.7027744140625,0.8584335446357727,-0.7782418131828308,1.23493230342865
1790107336798719500,1.712719482421875,1.92530357837677,-1.0647369623184204,0.3378097414970398
1790107336808663300,1.722663330078125,2.3672358989715576,-1.793938398361206,-0.014594674110412598
1790107336818608600,1.732608642578125,2.7248878479003906,-2.2782657146453857,-0.027385303750634193
1790107336828553500,1.742553466796875,2.9086976051330566,-2.1484107971191406,0.11358753591775894
1790107336838497300,1.752497314453125,2.949195623397827,-2.070585012435913,0.1823359727859497
1790107336848442600,1.762442626953125,2.9426610469818115,-2.2425596714019775,0.13466063141822815
1790107336858387500,1.772387451171875,2.8553097248077393,-2.45232892036438,0.22963720560073853
1790107336868331500,1.78233154296875,2.7045607566833496,-2.327644109725952,0.3990616798400879
1790107336878276400,1.7922763671875,1.7650552988052368,1.5614725351333618,0.9263995289802551
1790107336888221400,1.802221435546875,1.3149755001068115,0.36032453179359436,0.7744275331497192
1790107336898165500,1.81216552734375,0.47967907786369324,0.3587551414966583,0.716167151927948
1790107336908110300,1.8221103515625,0.3685610294342041,0.0395830012857914,0.8794335722923279
1790107336918055400,1.832055419921875,0.6364896893501282,0.18886595964431763,0.8336088061332703
1790107336928000500,1.84200048828125,0.7041566371917725,0.5389864444732666,0.5424491763114929
1790107336937944300,1.8519443359375,0.6169865727424622,0.8054812550544739,0.2675592601299286
1790107336947889700,1.8618896484375,0.7052450180053711,0.6783773899078369,0.10014123469591141
1790107336957834500,1.87183447265625,0.9194960594177246,0.1459033191204071,0.12477600574493408
1790107336967778600,1.881778564453125,1.2683255672454834,-0.14920341968536377,0.2239270955324173
1790107336977723400,1.891723388671875,2.210730791091919,-0.7266944646835327,-0.031088953837752342
1790107336987668500,1.90166845703125,2.9638545513153076,-1.6748815774917603,-0.22364962100982666
1790107336997612500,1.911612548828125,3.1124014854431152,-1.2104192972183228,-0.20029635727405548
1790107337007557400,1.921557373046875,2.0773918628692627,-0.6651674509048462,-0.04173387587070465
1790107337017502500,1.93150244140625,1.2288708686828613,-0.04511883482336998,-0.1667059063911438
1790107337027446500,1.941446533203125,1.1459449529647827,-0.7936878800392151,-0.560084879398346
1790107337037391400,1.951391357421875,1.199039340019226,-0.9447652697563171,-0.7734533548355103
1790107337047336400,1.96133642578125,0.6416661739349365,-0.5391173958778381,-0.35330161452293396
1790107337057281500,1.971281494140625,0.3937074840068817,0.31991666555404663,-0.09050300717353821
1790107337067225300,1.981225341796875,0.22658304870128632,0.6914899349212646,0.058124542236328125
1790107337077170400,1.99117041015625,0.16811388731002808,0.6703705191612244,0.15805913507938385
1790107337087115500,2.001115478515625,0.23915264010429382,0.9940266609191895,0.0911983773112297
1790107337097059600,2.0110595703125,0.025252074003219604,0.8149735331535339,0.08177558332681656
1790107337107004400,2.02100439453125,0.2011338174343109,0.7149803638458252,0.15744556486606598
1790107337116949500,2.030949462890625,0.8247630596160889,0.697884202003479,-0.30660784244537354
1790107337126893600,2.0408935546875,0.74471116065979,0.5676074028015137,-0.014676148071885109
1790107337136838400,2.05083837890625,0.8474417924880981,0.7216790318489075,0.053033921867609024
1790107337146783200,2.060783203125,0.7485664486885071,0.6827510595321655,0.14692288637161255
1790107337156728000,2.07072802734375,0.22632403671741486,-0.593227207660675,0.7297378778457642
1790107337166673000,2.0806728515625,-0.16221076250076294,-0.5900561809539795,1.1682595014572144
1790107337176618000,2.090617919921875,-0.6003026366233826,-0.37561365962028503,1.2885457277297974
1790107337186561800,2.100561767578125,-1.3996142148971558,0.15049327909946442,1.3422116041183472
1790107337196507000,2.1105068359375,-2.0116426944732666,-0.36823219060897827,0.86081862449646
1790107337206452000,2.120451904296875,-1.9368089437484741,-0.13820110261440277,1.3426854610443115
1790107337216395800,2.130395751953125,-0.7088637948036194,0.24685364961624146,1.4012672901153564
1790107337226341000,2.140341064453125,0.4809713065624237,0.656201958656311,1.6635897159576416
1790107337236286000,2.150285888671875,1.0020637512207031,1.0951215028762817,1.0330023765563965
1790107337246230800,2.160230712890625,1.2549344301223755,1.4289195537567139,0.08829046785831451
1790107337256174800,2.1701748046875,1.5196822881698608,0.7394044995307922,-0.32175350189208984
1790107337266120000,2.180119873046875,2.115612745285034,0.12480815500020981,-0.3624889850616455
1790107337276064800,2.190064697265625,2.760000467300415,-1.2859306335449219,-0.043546680361032486
1790107337286008800,2.2000087890625,2.762422561645508,-1.0372710227966309,-0.4222620129585266
1790107337295954000,2.209953857421875,3.253793478012085,-0.4579964280128479,-0.19416625797748566
1790107337305899000,2.21989892578125,3.5361621379852295,-0.5980267524719238,0.0036301598884165287
1790107337315842800,2.2298427734375,3.5997798442840576,-1.2662426233291626,-0.32658103108406067
1790107337325788000,2.239787841796875,3.7652969360351562,-2.11203670501709,-0.61224764585495
1790107337335733000,2.24973291015625,3.909536838531494,-2.221963882446289,-0.9669474959373474
1790107337345676800,2.2596767578125,4.0564751625061035,-1.596021294593811,-1.218738317489624
1790107337355622000,2.269621826171875,4.5540876388549805,-0.692750096321106,-1.6939711570739746
1790107337365567000,2.27956689453125,5.235368251800537,0.13491617143154144,-2.2304000854492188
1790107337375511800,2.28951171875,5.429929256439209,0.715816080570221,-2.8190650939941406
1790107337385455900,2.299455810546875,4.458093643188477,0.5386670827865601,-3.4218108654022217
1790107337395401000,2.30940087890625,2.5422093868255615,-0.5035833716392517,-3.354429244995117
1790107337405345800,2.319345703125,0.8422992825508118,-1.184844970703125,-2.4199774265289307
1790107337415289900,2.329289794921875,-0.5256770849227905,-1.4883044958114624,-0.9079738855361938
1790107337425235000,2.33923486328125,-1.3092397451400757,-1.0165915489196777,0.6310160160064697
1790107337435180000,2.349179931640625,-1.794517993927002,-0.3839424252510071,1.8450276851654053
1790107337445123800,2.359123779296875,-2.2897400856018066,0.8184798359870911,2.3882558345794678
1790107337455069000,2.36906884765625,-2.627854347229004,2.3662140369415283,2.2376227378845215
1790107337465014000,2.379013916015625,-2.9529740810394287,3.5918664932250977,1.302005410194397
1790107337474957800,2.388957763671875,-3.552421808242798,3.498685836791992,0.43464601039886475
1790107337484903000,2.39890283203125,-3.967139959335327,1.7426297664642334,0.19304081797599792
1790107337494848000,2.408847900390625,-3.7946300506591797,-0.004800706636160612,0.04130588471889496
1790107337504792800,2.418792724609375,-2.5654265880584717,-0.3027125597000122,0.20442131161689758
1790107337514737000,2.42873681640625,-1.006514549255371,0.8084724545478821,0.5179853439331055
1790107337524681700,2.438681640625,-0.5736890435218811,1.942905068397522,0.42205774784088135
1790107337534627000,2.448626953125,-0.9356858730316162,3.2463414669036865,0.03426261618733406
1790107337544571000,2.45857080078125,-0.7177576422691345,3.06552791595459,0.050342023372650146
1790107337554515700,2.468515625,-0.4113753139972687,2.200976848602295,-0.21349015831947327
1790107337564461000,2.4784609375,-0.16778555512428284,1.468917727470398,-0.8579392433166504
1790107337574404900,2.48840478515625,-0.2094254195690155,0.49127060174942017,-0.9685690402984619
1790107337584350000,2.498349853515625,-0.23989863693714142,0.35277339816093445,-1.2384060621261597
1790107337594295000,2.508294921875,-0.5623725652694702,-0.3387768268585205,-0.7106411457061768
1790107337604239000,2.518239013671875,-0.9239749908447266,-0.6039973497390747,0.16179315745830536
1790107337614184000,2.528183837890625,-0.5438963770866394,0.5171746015548706,0.5147666335105896
1790107337624128800,2.538128662109375,-0.15451399981975555,2.1060800552368164,0.8791853189468384
1790107337634073900,2.548073974609375,-0.7972636818885803,4.787315368652344,1.4696459770202637
1790107337644018000,2.558017822265625,-1.5935897827148438,4.0987043380737305,1.5442981719970703
1790107337653962800,2.567962646484375,-1.0809863805770874,2.05002760887146,0.5643581748008728
1790107337663908000,2.577908203125,-1.0198776721954346,0.39113864302635193,-0.3542337417602539
1790107337673852000,2.587851806640625,-1.2040568590164185,-0.42493513226509094,-0.6484440565109253
1790107337683797000,2.597796875,-1.358918309211731,-0.31036248803138733,-0.7072337865829468
1790107337693741800,2.607741943359375,-1.2098456621170044,0.03171362727880478,-0.6919475197792053
1790107337703686000,2.617685791015625,-1.1442629098892212,-0.08158070594072342,-0.7051134705543518
1790107337713631000,2.627630859375,-1.2349001169204712,-0.22995899617671967,-0.7448403835296631
1790107337723575800,2.637575927734375,-1.393946886062622,-0.3328646123409271,-0.7487722635269165
1790107337733520100,2.64752001953125,-1.26431405544281,-0.3387555181980133,-0.6886942982673645
1790107337743465000,2.65746484375,-1.3557945489883423,-0.263981431722641,-0.28797346353530884
1790107337753409800,2.667409912109375,-1.6648237705230713,-0.2772335708141327,-0.45242393016815186
1790107337763353900,2.677353759765625,-2.1649179458618164,1.0205078125,-0.048382170498371124
1790107337773299000,2.687298828125,-1.7031992673873901,1.5220049619674683,0.3527489900588989
1790107337783243800,2.697243896484375,-1.6677882671356201,1.5106862783432007,0.2380514293909073
1790107337793188900,2.70718896484375,-2.2575221061706543,1.2959696054458618,-0.054980698972940445
1790107337803133000,2.7171328125,-2.5660529136657715,0.8188252449035645,-0.04363935813307762
1790107337813078000,2.727078125,-2.261061191558838,0.246430441737175,-0.0861724391579628
1790107337823022800,2.73702294921875,-2.3401389122009277,0.04724571481347084,-0.0731668770313263
1790107337832967000,2.746966796875,-2.644040584564209,-0.2857234477996826,-0.16799458861351013
1790107337842912000,2.756912109375,-2.1630327701568604,-0.3706953525543213,-0.3528326153755188
1790107337852856800,2.76685693359375,-1.9861679077148438,-0.43587303161621094,-0.451104074716568
1790107337862801000,2.77680078125,-1.6830646991729736,-0.5270918607711792,-0.5098044276237488
1790107337872746000,2.78674609375,-1.9007827043533325,-0.7130129933357239,-0.47731009125709534
1790107337882690800,2.79669091796875,-1.372277021408081,-0.600564181804657,-0.5726190209388733
1790107337892635000,2.806634765625,-1.192124605178833,-0.8786365389823914,-0.7018464803695679
1790107337902580000,2.816580078125,-1.1724509000778198,-1.1763652563095093,-0.6951484680175781
1790107337912525000,2.826525146484375,-1.1549824476242065,-1.0874121189117432,-0.6228324174880981
1790107337922468900,2.83646875,-1.118534803390503,-1.0022461414337158,-0.5943692922592163
1790107337932413700,2.84641357421875,-0.9911288619041443,-0.834632396697998,-0.45005449652671814
1790107337942359000,2.856359130859375,-1.147696852684021,-0.9042569994926453,-0.34524261951446533
1790107337952303900,2.866303955078125,-0.7945696115493774,-0.6038356423377991,-0.27584490180015564
1790107337962248000,2.876248046875,-0.6184055209159851,-0.5236873030662537,-0.20747488737106323
1790107337972193000,2.886193115234375,-0.4987792670726776,-0.4327602982521057,-0.07272693514823914
1790107337982137900,2.896137939453125,-0.3468666672706604,-0.31894397735595703,-0.03382321074604988
1790107337992082000,2.90608203125,-0.12776173651218414,-0.2568505108356476,-0.028177578002214432
1790107338002027000,2.916027099609375,0.23915743827819824,-0.1920909732580185,0.018037324771285057
1790107338011971800,2.925971923828125,0.7099912762641907,0.05397818237543106,0.2083691954612732
1790107338021916000,2.935916015625,1.3334726095199585,0.5206508636474609,0.3274306058883667
1790107338031860700,2.94586083984375,2.1233322620391846,0.8851377367973328,0.6236675977706909
1790107338041806000,2.95580615234375,3.2745156288146973,1.2219737768173218,0.9387056827545166
1790107338051750000,2.96575,4.491106986999512,1.182152509689331,1.3113048076629639
1790107338061695000,2.975695068359375,4.677192687988281,1.5872952938079834,1.8296496868133545
1790107338071640000,2.98564013671875,4.248898983001709,1.0982129573822021,2.6264450550079346
1790107338081583900,2.995583984375,3.9339375495910645,0.48192098736763,3.056171178817749
1790107338091529000,3.005529052734375,2.9733214378356934,1.0999828577041626,3.137573003768921
1790107338101473800,3.015473876953125,2.0176992416381836,1.3251911401748657,2.4959847927093506
1790107338111419000,3.0254189453125,1.5745203495025635,1.0012506246566772,1.8667970895767212
1790107338121363000,3.035363037109375,1.2522944211959839,0.6840051412582397,1.5441306829452515
1790107338131307800,3.045307861328125,0.95101398229599,0.5183941125869751,1.3868765830993652
1790107338141253000,3.055253173828125,0.7496404051780701,0.025416314601898193,1.1017316579818726
1790107338151197000,3.065197021484375,0.8374738693237305,-0.6649186611175537,0.8810314536094666
1790107338161142000,3.07514208984375,1.0677307844161987,-0.6398911476135254,0.8305703997612
1790107338171087400,3.08508740234375,0.9464533925056458,-0.3599955439567566,0.9297078847885132
1790107338181031200,3.09503125,1.085471749305725,-0.14671576023101807,0.7723709940910339
1790107338190976300,3.104976318359375,1.2577766180038452,0.037278033792972565,0.31498458981513977
1790107338200921000,3.114921142578125,1.5292915105819702,0.19052591919898987,-0.026815099641680717
1790107338210865200,3.124865234375,1.780076026916504,0.2668619453907013,-0.20670951902866364
1790107338220810200,3.134810302734375,2.1076393127441406,0.43708696961402893,-0.5968834161758423
1790107338230755000,3.144755126953125,2.2761919498443604,0.3462958037853241,-0.8059269189834595
1790107338240700200,3.1547001953125,2.4507362842559814,0.3881322145462036,-1.0433963537216187
1790107338250644200,3.164644287109375,2.477786064147949,0.5219493508338928,-1.2978030443191528
1790107338260589000,3.174589111328125,2.4809834957122803,0.6165903806686401,-1.4150162935256958
1790107338270534400,3.184534423828125,2.387101888656616,0.33694329857826233,-1.3821810483932495
1790107338280478200,3.194478271484375,2.28019642829895,-0.253487229347229,-1.4801667928695679
1790107338290423000,3.204423095703125,2.23618221282959,-0.7277722358703613,-1.6541571617126465
1790107338300368100,3.2143681640625,2.126028060913086,-1.0123594999313354,-1.6693744659423828
1790107338310312200,3.224312255859375,1.940824270248413,-1.2524110078811646,-1.6067543029785156
1790107338320257300,3.23425732421875,1.7460767030715942,-1.4035969972610474,-1.526878833770752
1790107338330202000,3.2442021484375,1.2646287679672241,-1.6267086267471313,-1.350691318511963
1790107338340146200,3.254146240234375,0.867393970489502,-1.6344575881958008,-1.156869888305664
1790107338350091300,3.26409130859375,0.40223586559295654,-1.5533268451690674,-0.8920319676399231
1790107338360036000,3.2740361328125,-0.10411177575588226,-1.3510422706604004,-0.5425264239311218
1790107338369981000,3.28398095703125,-0.40581703186035156,-0.8131260275840759,-0.16032496094703674
1790107338379925200,3.29392529296875,-0.46376460790634155,0.2402937412261963,0.20677900314331055
1790107338389870000,3.3038701171875,-0.25877872109413147,0.9859690070152283,0.3309323787689209
1790107338399815200,3.313815185546875,0.1428605169057846,0.951012372970581,0.21393440663814545
1790107338409759200,3.32375927734375,0.6118168234825134,0.4331872761249542,0.2663203775882721
1790107338419704300,3.333704345703125,0.8165310621261597,-0.1392679661512375,0.21814140677452087
1790107338429649200,3.343649169921875,0.6867751479148865,-0.4551577568054199,-0.14990292489528656
1790107338439593000,3.353593017578125,0.5290718674659729,-0.47989025712013245,-0.29046061635017395
1790107338449538300,3.363538330078125,0.4961206018924713,-0.4727042317390442,-0.09585996717214584
1790107338459483100,3.373483154296875,0.5212785005569458,-0.20799456536769867,0.2329605519771576
1790107338469427200,3.38342724609375,0.5834502577781677,-0.0053953914903104305,0.4211525619029999
1790107338479372300,3.393372314453125,0.6528869867324829,-0.33203238248825073,0.2993132174015045
1790107338489317000,3.403317138671875,0.7717670798301697,-0.5989242792129517,0.1804179847240448
1790107338499262200,3.41326220703125,0.8097839951515198,-0.49343857169151306,0.24533198773860931
1790107338509206000,3.4232060546875,0.6681509613990784,-0.42120006680488586,0.30939194560050964
1790107338519151000,3.433151123046875,0.5652338862419128,-0.5941494703292847,0.23594170808792114
1790107338529096200,3.44309619140625,0.494764506816864,-0.8040297031402588,0.1393781453371048
1790107338539040000,3.4530400390625,0.3667103052139282,-0.7097932696342468,0.18221880495548248
1790107338548985300,3.4629853515625,0.30363038182258606,-0.5720556378364563,0.20733748376369476
1790107338558930200,3.47293017578125,0.26751258969306946,-0.3765212595462799,0.28748103976249695
1790107338568874200,3.482874267578125,0.28394192457199097,-0.20664435625076294,0.36504456400871277
1790107338578819300,3.4928193359375,0.17697905004024506,-0.4845026135444641,0.1424221247434616
1790107338588764200,3.50276416015625,-0.029435906559228897,-0.6572187542915344,-0.16516578197479248
1790107338598708200,3.512708251953125,-0.09735523909330368,-0.19483189284801483,-0.1751617044210434
1790107338608653000,3.522653076171875,-0.08104816824197769,0.4779885709285736,0.012912330217659473
1790107338618598100,3.53259814453125,-0.1647070199251175,0.6006612181663513,0.03797267749905586
1790107338628542200,3.542542236328125,-0.4776984751224518,0.16507141292095184,-0.2067049741744995
1790107338638487000,3.552487060546875,-0.7297743558883667,-0.14899861812591553,-0.4362574815750122
1790107338648432000,3.56243212890625,-0.6561494469642639,-0.30068856477737427,-0.6215828657150269
1790107338658377200,3.572377197265625,-0.49873894453048706,0.17820774018764496,-0.5008916258811951
1790107338668321000,3.582321044921875,-0.4308464527130127,0.5292030572891235,-0.3122548758983612
1790107338678266000,3.59226611328125,-0.6375738978385925,0.18432261049747467,-0.3368094861507416
1790107338688211200,3.602211181640625,-0.7781302332878113,0.2532702684402466,-0.2573269009590149
1790107338698155300,3.6121552734375,-0.8059700131416321,0.3412906527519226,-0.26509690284729004
1790107338708100000,3.62210009765625,-0.8027957677841187,0.38640326261520386,-0.4075448513031006
1790107338718045200,3.632045166015625,-0.7455044984817505,0.5001058578491211,-0.429324209690094
1790107338727989200,3.6419892578125,-0.7201562523841858,0.5796810984611511,-0.40258312225341797
1790107338737934000,3.65193408203125,-0.6639552712440491,0.7918215990066528,-0.29212453961372375
1790107338747879200,3.661879150390625,-0.6448146104812622,0.7632871866226196,-0.2904067933559418
1790107338757823200,3.6718232421875,-0.70003741979599,0.5119258165359497,-0.4361421465873718
1790107338767768000,3.68176806640625,-0.6985745429992676,0.591627836227417,-0.410497784614563
1790107338777713200,3.691713134765625,-0.6259000301361084,0.9774497747421265,-0.3097016513347626
1790107338787658200,3.701658203125,-0.589616060256958,0.9216919541358948,-0.2244642674922943
1790107338797602300,3.711602294921875,-0.539385974407196,0.7142807841300964,-0.17249135673046112
1790107338807547100,3.721547119140625,-0.5608721375465393,0.5347155332565308,-0.20037785172462463
1790107338817492200,3.7314921875,-0.5910980701446533,0.4200618863105774,-0.2726219594478607
1790107338827436300,3.741436279296875,-0.5704215168952942,0.3178718686103821,-0.35977551341056824
1790107338837381000,3.751381103515625,-0.5176887512207031,0.2387368381023407,-0.38790005445480347
1790107338847326200,3.761326171875,-0.4877689480781555,0.28431791067123413,-0.2796734571456909
1790107338857270300,3.771270263671875,-0.5299007296562195,0.41245323419570923,-0.06458006799221039
1790107338867215000,3.781215087890625,-0.6432440876960754,0.3377566337585449,-0.05184084177017212
1790107338877160200,3.79116015625,-0.7173040509223938,0.16932155191898346,-0.24117612838745117
1790107338887104300,3.801104248046875,-0.6504384279251099,0.09629475325345993,-0.3879818320274353
1790107338897049000,3.811049072265625,-0.5112287998199463,0.23388724029064178,-0.3068704605102539
1790107338906994200,3.820994140625,-0.48872825503349304,0.4022373557090759,-0.08662942796945572
1790107338916938000,3.83093798828125,-0.625124454498291,0.21079736948013306,-0.12907862663269043
1790107338926883300,3.84088330078125,-0.6537867784500122,0.14647483825683594,-0.24050210416316986
1790107338936828200,3.850828125,-0.5635548830032349,0.054896727204322815,-0.35207465291023254
1790107338946773000,3.86077294921875,-0.4749152660369873,-0.06219314783811569,-0.40559300780296326
1790107338956717300,3.87071728515625,-0.43106019496917725,-0.03477698564529419,-0.30964547395706177
1790107338966662100,3.880662109375,-0.4842509925365448,-0.013728157617151737,-0.21661727130413055
1790107338976607000,3.89060693359375,-0.551312267780304,0.00924054253846407,-0.23310302197933197
1790107338986551300,3.90055126953125,-0.5469270944595337,0.049979183822870255,-0.20173418521881104
1790107338996496100,3.91049609375,-0.5417071580886841,0.04528430104255676,-0.15129601955413818
1790107339006441200,3.920441162109375,-0.558443009853363,0.13646480441093445,-0.12146089971065521
1790107339016385000,3.930385009765625,-0.5855051279067993,0.2424096167087555,-0.1347692608833313
1790107339026330000,3.940330078125,-0.6221997141838074,0.1487790048122406,-0.2905157208442688
1790107339036275200,3.950275146484375,-0.662846028804779,-0.025848735123872757,-0.38747236132621765
1790107339046219000,3.960218994140625,-0.7444857954978943,-0.2610117197036743,-0.34649670124053955
1790107339056164400,3.970164306640625,-0.9058107733726501,-0.5186605453491211,-0.4063381850719452
1790107339066109200,3.980109130859375,-1.0010690689086914,-0.6118735671043396,-0.5825976133346558
1790107339076054000,3.990053955078125,-0.9672339558601379,-0.5505588054656982,-0.7495114803314209
1790107339085998000,3.999998046875,-0.8910616636276245,-0.4800060987472534,-0.7854394316673279
1790107339095943200,4.009943115234375,-0.8272165060043335,-0.4129575788974762,-0.7356811761856079
1790107339105888300,4.01988818359375,-0.7975262403488159,-0.3609257936477661,-0.7990097999572754
1790107339115832000,4.02983203125,-0.7869399189949036,-0.23000453412532806,-0.8826253414154053
1790107339125777200,4.039777099609375,-0.7361363768577576,-0.2062011957168579,-0.8554456233978271
1790107339135722200,4.04972216796875,-0.6504639983177185,-0.3033818006515503,-0.7382851839065552
1790107339145666000,4.059666015625,-0.5242679715156555,-0.25156599283218384,-0.6609461903572083
1790107339155611400,4.069611328125,-0.43855929374694824,0.031926415860652924,-0.6509639024734497
1790107339165556200,4.07955615234375,-0.4028337895870209,0.310362309217453,-0.5731173157691956
1790107339175500300,4.089500244140625,-0.421568900346756,0.33466124534606934,-0.4537661671638489
1790107339185445400,4.0994453125,-0.5836837887763977,0.07722518593072891,-0.48015010356903076
1790107339195390200,4.10939013671875,-0.8164797425270081,-0.11992330104112625,-0.6644331216812134
1790107339205335300,4.119335205078125,-0.9386469125747681,-0.28438708186149597,-0.8270518779754639
1790107339215279400,4.129279296875,-0.8983859419822693,-0.35859954357147217,-0.8523505926132202
1790107339225224200,4.13922412109375,-0.7592285871505737,-0.32559841871261597,-0.792891800403595
1790107339235169500,4.14916943359375,-0.6854996085166931,-0.14436259865760803,-0.7198987603187561
1790107339245113300,4.15911328125,-0.7384344935417175,0.02041037566959858,-0.7354276180267334
1790107339255058200,4.16905810546875,-0.8077661991119385,0.13530074059963226,-0.7967038154602051
1790107339265003300,4.179003173828125,-0.9058557152748108,0.11392540484666824,-0.7026103734970093
1790107339274947300,4.188947265625,-0.8223498463630676,-0.05306730419397354,-0.5079330205917358
1790107339284892400,4.198892333984375,-0.6831221580505371,0.06366969645023346,-0.3401176333427429
1790107339294837200,4.208837158203125,-0.6445987224578857,0.2192438542842865,-0.3558446168899536
1790107339304781300,4.21878125,-0.6295345425605774,0.10610717535018921,-0.4715813398361206
1790107339314726400,4.228726318359375,-0.5280132293701172,-0.16441753506660461,-0.5757101774215698
1790107339324671200,4.238671142578125,-0.3752579689025879,-0.16951988637447357,-0.5349156260490417
1790107339334615300,4.248615234375,-0.20259210467338562,0.05615878105163574,-0.31801843643188477
1790107339344560400,4.258560302734375,-0.09945187717676163,0.37750616669654846,-0.0973646342754364
1790107339354505200,4.268505126953125,-0.1343696266412735,0.5485333204269409,0.014858040027320385
1790107339364450300,4.2784501953125,-0.21459415555000305,0.49441230297088623,0.047678302973508835
1790107339374394000,4.28839404296875,-0.20748943090438843,0.3745306134223938,0.12622131407260895
1790107339384339500,4.29833935546875,-0.16921794414520264,0.08898171782493591,0.10095909237861633
1790107339394284300,4.3082841796875,-0.07048314064741135,0.11447109282016754,0.09348522126674652
1790107339404228000,4.31822802734375,0.07740458846092224,0.34434691071510315,0.18226702511310577
1790107339414173400,4.32817333984375,0.14272189140319824,0.3347472846508026,0.24126718938350677
1790107339424118300,4.3381181640625,0.1924055516719818,0.18459159135818481,0.2859558165073395
1790107339434062300,4.348062255859375,0.2468823939561844,0.1045585423707962,0.28958094120025635
1790107339444007400,4.35800732421875,0.2696353793144226,-0.04820358008146286,0.289866179227829
1790107339453952300,4.3679521484375,0.3513552248477936,-0.1202993392944336,0.3112204372882843
1790107339463896300,4.377896240234375,0.5141870379447937,-0.038946159183979034,0.3367502987384796
1790107339473841200,4.387841064453125,0.6515589356422424,0.045110926032066345,0.4027884602546692
1790107339483786200,4.3977861328125,0.7223013043403625,0.13651621341705322,0.5755323171615601
1790107339493731300,4.4077314453125,0.7308300137519836,0.27107852697372437,0.7908781170845032
1790107339503675100,4.417675048828125,0.7874083518981934,0.36448678374290466,0.9303329586982727
1790107339513620500,4.427620361328125,0.7440323233604431,0.3781796991825104,0.9733073115348816
1790107339523565300,4.4375654296875,0.7307437062263489,0.2752072513103485,0.9584916234016418
1790107339533509400,4.44750927734375,0.7865630984306335,0.2837386727333069,0.9923473000526428
1790107339543454500,4.457454345703125,0.9432080984115601,0.3185510039329529,1.0171611309051514
1790107339553399300,4.4673994140625,1.111560583114624,0.22557657957077026,1.0395833253860474
1790107339563343400,4.47734326171875,1.2100964784622192,0.10188392549753189,1.0746172666549683
1790107339573288200,4.4872880859375,1.263662338256836,0.03377251327037811,1.1074260473251343
1790107339583233300,4.4972333984375,1.2938458919525146,0.021768318489193916,1.1006362438201904
1790107339593177300,4.50717724609375,1.2783244848251343,0.047814834862947464,1.0945490598678589
1790107339603122200,4.5171220703125,1.2876158952713013,0.11347906291484833,1.0867221355438232
1790107339613067300,4.5270673828125,1.3893991708755493,0.24297073483467102,1.1398649215698242
1790107339623012400,4.537012451171875,1.5238049030303955,0.29259687662124634,1.213550329208374
1790107339632956200,4.5469560546875,1.6905430555343628,0.19616569578647614,1.216017246246338
1790107339642901200,4.5569013671875,1.8047330379486084,0.0768001452088356,1.2001866102218628
1790107339652846300,4.566846435546875,1.7625447511672974,-0.025234077125787735,1.15982186794281
1790107339662790400,4.576790283203125,1.6323111057281494,-0.10622453689575195,1.0831260681152344
1790107339672735200,4.5867353515625,1.5377697944641113,-0.050670724362134933,1.0084784030914307
1790107339682680300,4.596680419921875,1.5349994897842407,0.04552878066897392,0.9074145555496216
1790107339692624400,4.606624267578125,1.668084979057312,-0.15289057791233063,0.803219735622406
1790107339702569200,4.6165693359375,1.7803065776824951,-0.4738622009754181,0.7471660375595093
1790107339712514300,4.626514404296875,1.8246735334396362,-0.4138214886188507,0.7208184003829956
1790107339722458400,4.636458251953125,1.8307805061340332,-0.20996877551078796,0.6150517463684082
1790107339732403200,4.6464033203125,1.864201307296753,-0.3143737316131592,0.431609183549881
1790107339742348300,4.656348388671875,1.880458116531372,-0.4513305127620697,0.31719526648521423
1790107339752293400,4.66629345703125,1.863053321838379,-0.459929883480072,0.23687514662742615
1790107339762237200,4.6762373046875,1.726996660232544,-0.5371338725090027,0.10734405368566513
1790107339772182300,4.686182373046875,1.4725062847137451,-0.7251567244529724,0.01632758602499962
1790107339782127400,4.69612744140625,1.214017629623413,-0.8189916610717773,-0.002742244629189372
1790107339792071400,4.706071533203125,0.9869991540908813,-0.7536541819572449,-0.0012588545214384794
1790107339802016300,4.716016357421875,0.8409974575042725,-0.6642856597900391,0.00661211833357811
1790107339811961000,4.725961181640625,0.7648018002510071,-0.5165585279464722,0.057498469948768616
1790107339821905400,4.735905517578125,0.6369929313659668,-0.4156465530395508,0.08146345615386963
1790107339831850200,4.745850341796875,0.49183592200279236,-0.4714304506778717,0.026199908927083015
1790107339841795300,4.75579541015625,0.37236517667770386,-0.6404528021812439,-0.03696174919605255
1790107339851739400,4.765739501953125,0.2685866355895996,-0.8315612077713013,-0.06477472186088562
1790107339861684200,4.775684326171875,0.19717742502689362,-0.7705410122871399,0.019731635227799416
1790107339871629300,4.78562939453125,0.19129925966262817,-0.41381245851516724,0.2690871059894562
1790107339881573000,4.795572998046875,0.25174450874328613,-0.04149293899536133,0.4966592788696289
1790107339891518500,4.8055185546875,0.2815219461917877,0.0836697667837143,0.5230671763420105
1790107339901463300,4.81546337890625,0.27058514952659607,0.056048791855573654,0.4646715521812439
1790107339911408000,4.825408203125,0.2834085524082184,0.1007520854473114,0.5010250210762024
1790107339921352400,4.8353525390625,0.33246585726737976,0.2821897864341736,0.613074541091919
1790107339931297300,4.84529736328125,0.38024163246154785,0.3866485357284546,0.6915810704231262
1790107339941242000,4.8552421875,0.24938879907131195,0.19992128014564514,0.6638482809066772
1790107339951186200,4.865186279296875,0.02279767021536827,-0.3336038887500763,0.38901644945144653
1790107339961131300,4.87513134765625,-0.2386096864938736,-0.7159739136695862,-0.0028309309855103493
1790107339971076400,4.885076416015625,-0.4795001149177551,2.180685043334961,-0.47061383724212646
1790107339981020200,4.895020263671875,-0.7913586497306824,1.0318530797958374,-0.6389341950416565
1790107339990965200,4.90496533203125,-0.6006258726119995,0.30369189381599426,-0.4278368353843689
1790107340000910300,4.914910400390625,-0.5929743051528931,1.0124293565750122,-0.0464969128370285
1790107340010855200,4.924855224609375,-0.7413201928138733,1.5549975633621216,0.10910598933696747
1790107340020799500,4.934799560546875,-0.7695640921592712,1.2791590690612793,0.11077073216438293
1790107340030744300,4.944744384765625,-0.8774966597557068,0.8360958695411682,0.08406642824411392
1790107340040689200,4.954689208984375,-0.9308027625083923,0.6432822346687317,-0.011126665398478508
1790107340050633200,4.96463330078125,-0.889235258102417,0.5753105878829956,-0.08886247873306274
1790107340060578300,4.974578369140625,-0.8348442316055298,0.4928061366081238,-0.058120813220739365
1790107340070523100,4.984523193359375,-0.7805451154708862,0.2619127333164215,0.01095357071608305
1790107340080467200,4.99446728515625,-0.7334937453269958,-0.07129957526922226,-0.03655429184436798
1790107340090412300,5.004412353515625,-0.6452339291572571,-0.3098199963569641,-0.15945489704608917
1790107340100357400,5.014357421875,-0.6300534009933472,-0.3763161897659302,-0.2824394106864929
1790107340110301200,5.02430126953125,-0.6147691011428833,-0.3016129434108734,-0.2953411042690277
1790107340120246500,5.03424658203125,-0.735231876373291,-0.16423536837100983,-0.20034053921699524
1790107340130191400,5.04419140625,-0.9212710857391357,0.11960674077272415,-0.012602854520082474
1790107340140135200,5.05413525390625,-1.0173211097717285,0.3269207775592804,0.13076096773147583
1790107340150080300,5.064080322265625,-1.0294541120529175,0.44124630093574524,0.2178514003753662
1790107340160025300,5.074025390625,-0.9931043982505798,0.20229096710681915,0.18982109427452087
1790107340169970400,5.083970458984375,-0.8055545687675476,-0.21791909635066986,0.052797988057136536
1790107340179914500,5.09391455078125,-0.599080502986908,-0.4008135497570038,-0.15570515394210815
1790107340189859300,5.103859375,-0.4986327886581421,-0.03295644000172615,-0.2860010862350464
1790107340199804400,5.113804443359375,-0.4558408558368683,0.28612542152404785,-0.31992602348327637
1790107340209748500,5.12374853515625,-0.5611664056777954,0.64244145154953,-0.2292392998933792
1790107340219693300,5.133693359375,-0.6798909306526184,1.4384759664535522,0.0263578612357378
1790107340229638400,5.143638427734375,-0.9299750328063965,1.3997297286987305,0.19178810715675354
1790107340239582200,5.153582275390625,-1.1397252082824707,1.486800193786621,0.35331282019615173
1790107340249527600,5.163527587890625,-1.131684422492981,1.4484809637069702,0.49180546402931213
1790107340259472400,5.173472412109375,-1.1576075553894043,1.2073112726211548,0.47310900688171387
1790107340269416400,5.18341650390625,-1.4848544597625732,0.7665138244628906,0.2830016016960144
1790107340279361500,5.193361572265625,-1.9712235927581787,0.24332867562770844,0.00491540040820837
1790107340289306400,5.203306396484375,-2.8813364505767822,-0.24173389375209808,-0.34508147835731506
1790107340299251200,5.213251220703125,-3.8649497032165527,-0.7944535613059998,-0.6929446458816528
1790107340309195500,5.223195556640625,-4.647242546081543,-1.5238664150238037,-0.9832640886306763
1790107340319140400,5.233140380859375,-5.074901580810547,-2.4500646591186523,-1.3264325857162476
1790107340329085400,5.24308544921875,-5.062860012054443,-3.230252981185913,-1.6873610019683838
1790107340339029200,5.253029296875,-4.922388553619385,-3.8035967350006104,-1.990494728088379
1790107340348974600,5.262974609375,-5.3964362144470215,-4.624180793762207,-2.378526210784912
1790107340358919400,5.27291943359375,-6.092410564422607,-4.946680068969727,-2.625730514526367
1790107340368863200,5.28286328125,-6.621887683868408,-4.785776615142822,-2.561429500579834
1790107340378808600,5.29280859375,-5.393709182739258,-3.5736870765686035,-1.8675241470336914
1790107340388753400,5.30275341796875,-3.594249963760376,-2.6094086170196533,-1.4861769676208496
1790107340398697500,5.312697509765625,-1.8663352727890015,-1.644352674484253,-1.4100087881088257
1790107340408642600,5.322642578125,-1.0248775482177734,-1.2303800582885742,-1.4341061115264893
1790107340418587400,5.33258740234375,-0.6800527572631836,-0.6065070629119873,-1.3441388607025146
1790107340428532500,5.342532470703125,-0.49593809247016907,-0.19681566953659058,-1.0127415657043457
1790107340438476300,5.352476318359375,-0.3155880272388458,0.45876723527908325,-0.6001507639884949
1790107340448421400,5.36242138671875,-0.1275467574596405,1.5534145832061768,-0.30045464634895325
1790107340458366500,5.372366455078125,0.16727794706821442,2.747821807861328,-0.10765856504440308
1790107340468310300,5.382310302734375,0.6286908388137817,3.587930917739868,-0.12284175306558609
1790107340478255600,5.392255615234375,1.0947874784469604,3.7004456520080566,-0.24094443023204803
1790107340488200400,5.402200439453125,1.5681190490722656,3.91145658493042,-0.2272467166185379
1790107340498144500,5.41214453125,2.2532148361206055,4.105251789093018,-0.1433211863040924
1790107340508089300,5.42208935546875,2.918337821960449,3.679131269454956,-0.17109155654907227
1790107340518034400,5.432034423828125,3.272797107696533,2.796219825744629,-0.26729610562324524
1790107340527978500,5.441978515625,3.048426389694214,1.1407381296157837,-0.5771594047546387
1790107340537923300,5.45192333984375,2.4930667877197266,0.38733217120170593,-0.6045671105384827
1790107340547868400,5.461868408203125,1.9728403091430664,-0.015495693311095238,-0.39444345235824585
1790107340557812500,5.4718125,1.5299887657165527,-0.3605782389640808,-0.14932475984096527
1790107340567757300,5.48175732421875,0.5390706658363342,-0.948742687702179,-0.10075561702251434
1790107340577702400,5.491702392578125,-0.51883465051651,-1.375972032546997,-0.2632395923137665
1790107340587647500,5.5016474609375,-1.0515691041946411,-0.9225206971168518,-0.5098749995231628
1790107340597591300,5.51159130859375,-1.0463074445724487,-0.41236478090286255,-0.5203124284744263
1790107340607536400,5.521536376953125,-0.9490697383880615,-0.32432302832603455,-0.3692432940006256
1790107340617481500,5.5314814453125,-0.48023438453674316,-0.38557493686676025,-0.23406121134757996
1790107340627425500,5.541425537109375,-0.05103674158453941,-0.5992558002471924,-0.28399229049682617
1790107340637370400,5.551370361328125,0.15121038258075714,-0.6302715539932251,-0.4156600534915924
1790107340647315500,5.5613154296875,0.26829516887664795,-0.42213401198387146,-0.4936336874961853
1790107340657259500,5.571259521484375,0.2079111784696579,0.03269580006599426,-0.37667110562324524
1790107340667204400,5.581204345703125,0.10915376245975494,0.5068721771240234,-0.17484265565872192
1790107340677149400,5.5911494140625,-0.24258697032928467,0.6989459991455078,-0.034301262348890305
1790107340687093500,5.601093505859375,-0.7203808426856995,0.47294190526008606,0.03210305795073509
1790107340697038300,5.611038330078125,-0.5884270668029785,0.24534443020820618,0.2133636623620987
1790107340706983400,5.6209833984375,-0.44684725999832153,0.029405198991298676,0.27023202180862427
1790107340716928500,5.630928466796875,-0.3748316466808319,0.11003027111291885,0.24152126908302307
1790107340726872300,5.640872314453125,-0.39556416869163513,0.403572678565979,0.4674489498138428
1790107340736817400,5.6508173828125,-0.4082602560520172,0.5319604873657227,0.8162090182304382
1790107340746762500,5.660762451171875,-0.29622986912727356,0.6843167543411255,0.9546270966529846
1790107340756706600,5.67070654296875,-0.05992680415511131,0.75244140625,0.9850780367851257
1790107340766651400,5.6806513671875,0.1103942021727562,0.6374192237854004,1.0232254266738892
1790107340776596200,5.69059619140625,0.1437702625989914,0.2618861198425293,0.9630771279335022
1790107340786540500,5.70054052734375,0.4353047013282776,0.08474702388048172,0.8515313863754272
1790107340796485400,5.7104853515625,0.7872518301010132,-0.03439854457974434,0.8064717650413513
1790107340806430500,5.720430419921875,1.1200166940689087,-0.09265705943107605,0.8161206245422363
1790107340816374300,5.730374267578125,1.480892539024353,0.16235019266605377,1.0167603492736816
1790107340826319400,5.7403193359375,2.1801586151123047,0.7673684358596802,1.6594380140304565
1790107340836264400,5.750264404296875,1.5267717838287354,-0.34637269377708435,1.616515874862671
1790107340846208300,5.760208251953125,0.8585332632064819,-0.7455376386642456,1.0144697427749634
1790107340856153600,5.770153564453125,0.8916893601417542,-0.7548983693122864,0.8367055654525757
1790107340866098400,5.780098388671875,0.9261389970779419,-0.5919694304466248,1.1286215782165527
1790107340876043300,5.790043212890625,0.9955303072929382,-0.33293116092681885,1.3695135116577148
1790107340885987600,5.799987548828125,1.1374250650405884,0.10088470578193665,1.3890212774276733
1790107340895932400,5.809932373046875,1.4337819814682007,0.3023374080657959,1.291333794593811
1790107340905877200,5.819877197265625,1.6817721128463745,0.47034451365470886,1.2587652206420898
1790107340915821300,5.8298212890625,1.6683050394058228,0.3663182556629181,1.3990973234176636
1790107340925766400,5.839766357421875,1.6461044549942017,0.14044596254825592,1.6245983839035034
1790107340935711500,5.84971142578125,1.8997201919555664,-0.008650307543575764,1.8550426959991455
1790107340945655300,5.8596552734375,2.268728256225586,-0.33367449045181274,2.1229820251464844
1790107340955600400,5.869600341796875,2.5555906295776367,-0.4209100604057312,1.9702521562576294
1790107340965545500,5.87954541015625,2.4529216289520264,-0.3840084671974182,1.6369044780731201
1790107340975489300,5.8894892578125,1.8234550952911377,-0.6895564198493958,1.4366792440414429
1790107340985434600,5.8994345703125,1.5893936157226562,-0.1979674994945526,1.0607330799102783
1790107340995379500,5.90937939453125,1.195935845375061,0.741520881652832,1.0026077032089233
1790107341005324300,5.91932421875,1.136695384979248,1.5783532857894897,1.4634499549865723
1790107341015268400,5.929268310546875,0.9115807414054871,1.1896721124649048,1.0098483562469482
1790107341025213400,5.93921337890625,0.03382212296128273,0.6253692507743835,0.33624032139778137
1790107341035158300,5.949158203125,-0.3637058138847351,-0.2036363035440445,0.1107797920703888
1790107341045102300,5.959102294921875,0.029086092486977577,-0.6693733930587769,0.14415529370307922
1790107341055047400,5.96904736328125,0.4903503954410553,-0.5939878225326538,0.23928260803222656
1790107341064992500,5.978992431640625,0.453779399394989,-0.19996780157089233,0.22099949419498444
1790107341074936300,5.988936279296875,0.5712293386459351,0.2571592628955841,0.11516068875789642
1790107341084881400,5.99888134765625,0.8606202602386475,0.2877400517463684,0.034051161259412766
1790107341094826500,6.008826416015625,1.2611520290374756,0.5699904561042786,-0.2309781014919281
1790107341104770300,6.018770263671875,1.7648518085479736,0.7890953421592712,-0.25981664657592773
1790107341114715400,6.02871533203125,1.4354363679885864,0.03931641951203346,-0.6706507802009583
1790107341124660500,6.038660400390625,1.9103704690933228,-0.22988416254520416,-1.0431092977523804
1790107341134605300,6.048605224609375,2.866400718688965,-0.727118194103241,-1.065993070602417
1790107341144549400,6.05854931640625,2.829923152923584,-1.3177582025527954,-1.1166253089904785
1790107341154493700,6.06849365234375,2.466628074645996,-1.5362900495529175,-1.0075541734695435
1790107341164439000,6.07843896484375,2.0189754962921143,-1.2242826223373413,-0.7977384924888611
1790107341174382800,6.0883828125,1.3322012424468994,-1.2518717050552368,-0.8188831806182861
1790107341184328000,6.098327880859375,1.1242083311080933,-1.0648411512374878,-0.998908281326294
1790107341194273000,6.10827294921875,1.3146839141845703,-0.6656875610351562,-1.0832455158233643
1790107341204216800,6.118216796875,1.031678557395935,-0.6510090231895447,-1.5159330368041992
1790107341214162000,6.128161865234375,1.0549277067184448,-1.2194955348968506,-1.8725124597549438
1790107341224107000,6.13810693359375,1.3820914030075073,-0.9833573698997498,-0.8598580360412598
1790107341234051000,6.148051025390625,1.1863934993743896,-0.225990891456604,-0.07818108797073364
1790107341243996000,6.157995849609375,0.6464834213256836,-0.01226581446826458,-0.009605498984456062
1790107341253940700,6.167940673828125,0.11696095019578934,-0.0336238332092762,-0.18326783180236816
1790107341263886000,6.177885986328125,-0.06825434416532516,-0.09040854871273041,-0.2574954330921173
1790107341273830000,6.187829833984375,-0.0993046760559082,0.22424259781837463,-0.08287997543811798
1790107341283775000,6.19777490234375,-0.24889706075191498,-0.2190389633178711,-0.023633437231183052
1790107341293720000,6.207719970703125,-0.4675082266330719,-1.2563761472702026,-0.2083902359008789
1790107341303663900,6.217663818359375,-0.6674485802650452,-1.6316487789154053,-0.39501282572746277
1790107341313609000,6.22760888671875,-1.085817575454712,-1.488037109375,-0.6142807602882385
1790107341323553800,6.2375537109375,-1.0821815729141235,-1.157789945602417,-0.6249105334281921
1790107341333498000,6.247498046875,0.3118208050727844,-1.2237354516983032,-0.45940276980400085
1790107341343443000,6.25744287109375,0.05599387362599373,-0.7235918641090393,-0.12595394253730774
1790107341353387800,6.2673876953125,-0.2842276096343994,0.2448970079421997,0.15105608105659485
1790107341363332000,6.27733203125,-0.5934123396873474,0.9394302368164062,0.2594810724258423
1790107341373277000,6.28727685546875,-0.8725763559341431,1.0626797676086426,0.17110303044319153
1790107341383221800,6.2972216796875,-1.268885612487793,0.782480001449585,0.0259663388133049
1790107341393165800,6.307165771484375,-1.7091405391693115,0.534705400466919,-0.1377890408039093
1790107341403111000,6.31711083984375,-1.5861091613769531,0.44341012835502625,-0.2408812940120697
1790107341413056000,6.327055908203125,-1.043821930885315,0.5402975082397461,-0.3074136972427368
1790107341423000800,6.337000732421875,-0.5992953181266785,0.651782751083374,-0.33752983808517456
1790107341432945000,6.34694482421875,-0.4879501760005951,0.7470234632492065,-0.40421244502067566
1790107341442890000,6.356889892578125,-0.3707279562950134,0.6672725081443787,-0.4120836853981018
1790107341452834800,6.366834716796875,-0.1841202676296234,0.497315376996994,-0.37611663341522217
1790107341462779000,6.37677880859375,-0.0338616780936718,0.2426666021347046,-0.43130242824554443
1790107341472724000,6.386723876953125,0.051854826509952545,0.11856651306152344,-0.49739915132522583
1790107341482668800,6.396668701171875,0.09833117574453354,0.1800554245710373,-0.4756442904472351
1790107341492612900,6.40661279296875,0.08569101244211197,0.2746756672859192,-0.4516521394252777
1790107341502558000,6.416557861328125,0.05301519110798836,0.5094690322875977,-0.41174787282943726
1790107341512502800,6.426502685546875,0.09152743220329285,0.9048025012016296,-0.27817195653915405
1790107341522446800,6.43644677734375,0.16099590063095093,1.0853650569915771,-0.1612628996372223
1790107341532392000,6.446391845703125,0.13379250466823578,1.0649421215057373,-0.15594591200351715
1790107341542337000,6.4563369140625,-0.07708631455898285,0.8688178658485413,-0.26484444737434387
1790107341552280800,6.46628076171875,-0.5363985300064087,0.6990517377853394,-0.21308138966560364
1790107341562226000,6.476225830078125,-0.9216645359992981,0.5801790952682495,-0.08453644812107086
1790107341572171000,6.4861708984375,-1.0709199905395508,0.38733723759651184,-0.1576937586069107
1790107341582115800,6.49611572265625,-1.047465205192566,0.2422647327184677,-0.4488030970096588
1790107341592060000,6.506059814453125,-0.8612349033355713,0.182861328125,-0.702930212020874
1790107341602005000,6.5160048828125,-0.5780747532844543,0.23888252675533295,-0.805363655090332
1790107341611949800,6.52594970703125,-0.29550349712371826,0.3841302692890167,-0.7602286338806152
1790107341621894000,6.535893798828125,-0.1314987689256668,0.4148775339126587,-0.7460204362869263
1790107341631838700,6.545838623046875,-0.12890830636024475,0.30169743299484253,-0.8038171529769897
1790107341641784000,6.5557841796875,-0.22242175042629242,0.1962224245071411,-0.842141330242157
1790107341651728000,6.565727783203125,-0.3627365231513977,0.06450752168893814,-0.8276695013046265
1790107341661672700,6.575672607421875,-0.5300247669219971,0.0032982323318719864,-0.7581838369369507
1790107341671618000,6.5856181640625,-0.7136039137840271,0.07838792353868484,-0.6978829503059387
1790107341681561900,6.595561767578125,-0.8303029537200928,0.18713757395744324,-0.6451624631881714
1790107341691507000,6.6055068359375,-0.8511131405830383,0.30971887707710266,-0.6231394410133362
1790107341701452000,6.6154521484375,-0.8906697630882263,0.3188894987106323,-0.6140027046203613
1790107341711396900,6.62539697265625,-1.0225160121917725,0.1885138899087906,-0.6815242767333984
1790107341721341000,6.6353408203125,-1.1053780317306519,0.02852129563689232,-0.8728340268135071
1790107341731285800,6.64528564453125,-1.0871737003326416,-0.006252930499613285,-1.0171253681182861
1790107341741230800,6.65523095703125,-1.0086978673934937,-0.04597184434533119,-1.06741201877594
1790107341751175000,6.6651748046875,-0.9037334322929382,-0.1411510854959488,-1.0094025135040283
1790107341761119700,6.67511962890625,-0.8049831986427307,-0.32363516092300415,-1.0433276891708374
1790107341771065000,6.685065185546875,-0.7888103127479553,-0.49100178480148315,-1.2332701683044434
1790107341781009000,6.6950087890625,-0.8669333457946777,-0.5164719820022583,-1.3860278129577637
1790107341790954000,6.7049541015625,-0.9954795837402344,-0.41296422481536865,-1.4099221229553223
1790107341800899000,6.714899169921875,-0.9576730132102966,-0.48790451884269714,-1.4231727123260498
1790107341810843000,6.7248427734375,-0.839451253414154,-0.5524952411651611,-1.3969448804855347
1790107341820788000,6.7347880859375,-0.7847445607185364,-0.3604868948459625,-1.3080847263336182
1790107341830732800,6.74473291015625,-0.8237228393554688,-0.06550107151269913,-1.1938343048095703
1790107341840678000,6.754677978515625,-0.863784670829773,0.1840139627456665,-1.0735398530960083
1790107341850622000,6.7646220703125,-0.8398357033729553,0.11405669897794724,-1.0524516105651855
1790107341860566800,6.77456689453125,-0.8437532782554626,-0.06973417103290558,-1.0449737310409546
1790107341870512000,6.78451220703125,-0.83043372631073,-0.11149413138628006,-0.9864186644554138
1790107341880456000,6.7944560546875,-0.7676676511764526,-0.090119868516922,-0.8879812359809875
1790107341890400800,6.80440087890625,-0.6568627953529358,-0.07369375228881836,-0.769075870513916
1790107341900345900,6.814345947265625,-0.5342161655426025,-0.027405615895986557,-0.589733362197876
1790107341910290000,6.8242900390625,-0.47471290826797485,0.04741509631276131,-0.334540456533432
1790107341920235000,6.834235107421875,-0.530198872089386,0.06474614888429642,-0.1822044402360916
1790107341930179800,6.844179931640625,-0.45017483830451965,0.2537195384502411,-0.11137741059064865
1790107341940124200,6.854124267578125,-0.3564589023590088,0.36676138639450073,-0.06608182936906815
1790107341950069000,6.864069091796875,-0.32267484068870544,0.24215315282344818,0.007023009937256575
1790107341960013800,6.874013916015625,-0.23191231489181519,0.12815122306346893,0.12189048528671265
1790107341969958000,6.8839580078125,-0.13769207894802094,0.16841500997543335,0.2589513957500458
1790107341979903000,6.893903076171875,-0.10455595701932907,0.2943503260612488,0.3592362105846405
1790107341989847800,6.903847900390625,-0.09186013787984848,0.25391924381256104,0.41727474331855774
1790107341999793000,6.91379296875,-0.009042518213391304,0.1492311954498291,0.5037792921066284
1790107342009737000,6.923737060546875,0.08993306756019592,0.15199822187423706,0.5252640843391418
1790107342019682000,6.93368212890625,0.16239620745182037,0.08574090898036957,0.4866144061088562
1790107342029627000,6.943626953125,0.25615784525871277,0.002575448714196682,0.49929288029670715
1790107342039570700,6.95357080078125,0.3399498164653778,-0.04667358472943306,0.5663851499557495
1790107342049516000,6.96351611328125,0.41184717416763306,-0.06298065185546875,0.6686968803405762
1790107342059460900,6.9734609375,0.5039975047111511,0.05339016020298004,0.7704647183418274
1790107342069405000,6.983405029296875,0.5684201717376709,0.08059567958116531,0.8430973887443542
1790107342079350000,6.99335009765625,0.5985705256462097,0.027173470705747604,0.947351336479187
1790107342089294800,7.003294921875,0.6605271100997925,0.05884750932455063,1.0625752210617065
1790107342099240000,7.013239990234375,0.7753744721412659,0.1454649716615677,1.1362518072128296
1790107342109184000,7.02318408203125,0.8813599944114685,0.17432405054569244,1.2138270139694214
1790107342119128800,7.03312890625,0.9774821996688843,0.1791888326406479,1.3195621967315674
1790107342129074000,7.043073974609375,1.0522176027297974,0.1374933272600174,1.4102303981781006
1790107342139017700,7.053017822265625,1.1205987930297852,0.10559291392564774,1.428205132484436
1790107342148963000,7.062963134765625,1.189527988433838,-0.010347533039748669,1.343931794166565
1790107342158907600,7.07290771484375,1.240233063697815,-0.07077226787805557,1.2451069355010986
1790107342168851700,7.082851806640625,1.357672095298767,-0.030412595719099045,1.2284400463104248
1790107342178796500,7.092796630859375,1.4989147186279297,-0.015540970489382744,1.2091619968414307
1790107342188741400,7.102741455078125,1.6267017126083374,-0.14606568217277527,1.1374664306640625
1790107342198685700,7.112685791015625,1.6948736906051636,-0.25449708104133606,1.093393087387085
1790107342208630500,7.122630615234375,1.720676064491272,-0.2139507234096527,1.1007153987884521
1790107342218575400,7.132575439453125,1.7406423091888428,-0.0732913538813591,1.1047178506851196
1790107342228519400,7.14251953125,1.7705047130584717,0.02197710983455181,1.076668620109558
1790107342238464500,7.152464599609375,1.8050241470336914,0.11756622046232224,1.0504053831100464
1790107342248409600,7.16240966796875,1.8371057510375977,0.16794869303703308,1.0416613817214966
1790107342258354400,7.1723544921875,1.8524503707885742,0.2976915240287781,1.0306735038757324
1790107342268298800,7.182298828125,1.8012449741363525,0.32052409648895264,0.9136136174201965
1790107342278243600,7.19224365234375,1.7032504081726074,0.1732100397348404,0.7298896312713623
1790107342288188400,7.2021884765625,1.5730862617492676,-0.040406905114650726,0.5061657428741455
1790107342298132700,7.2121328125,1.4823756217956543,-0.172443225979805,0.2915453314781189
1790107342308077600,7.22207763671875,1.482174277305603,-0.3331191837787628,0.13088639080524445
1790107342318022400,7.2320224609375,1.5176887512207031,-0.46914973855018616,0.06985525786876678
1790107342327966500,7.241966552734375,1.517721176147461,-0.476894736289978,0.008051816374063492
1790107342337911600,7.25191162109375,1.4939939975738525,-0.5870233774185181,-0.08488213270902634
1790107342347856600,7.261856689453125,1.3856309652328491,-0.7961949706077576,-0.15527373552322388
1790107342357800400,7.271800537109375,1.2404779195785522,-0.8844010233879089,-0.17185483872890472
1790107342367745500,7.28174560546875,1.0849496126174927,-0.8794683218002319,-0.14441949129104614
1790107342377690600,7.291690673828125,0.916022002696991,-0.8762173652648926,-0.09949088096618652
1790107342387634400,7.301634521484375,0.7855491638183594,-0.9253817200660706,-0.07199373841285706
1790107342397579500,7.31157958984375,0.68074631690979,-1.055334448814392,-0.05050124600529671
1790107342407524600,7.321524658203125,0.5818407535552979,-1.2235915660858154,-0.05043866112828255
1790107342417469400,7.331469482421875,0.46285775303840637,-1.3790725469589233,-0.07736560702323914
1790107342427413500,7.34141357421875,0.2987002432346344,-1.3492275476455688,-0.014358151704072952
1790107342437358600,7.351358642578125,0.15119735896587372,-1.1485642194747925,0.18008029460906982
1790107342447303400,7.361303466796875,0.08833424001932144,-0.617976725101471,0.5346351861953735
1790107342457247500,7.37124755859375,0.17544083297252655,0.020691879093647003,0.8403021693229675
1790107342467192600,7.381192626953125,0.21826766431331635,0.1489044427871704,0.8926631212234497
1790107342477137700,7.3911376953125,0.43006807565689087,-0.0444415882229805,0.8066735863685608
1790107342487081500,7.40108154296875,0.49400630593299866,-0.3385946452617645,0.6344272494316101
1790107342497026600,7.411026611328125,0.2652427852153778,-0.5841913819313049,0.4965096414089203
1790107342506971600,7.4209716796875,0.08256220072507858,-0.43881845474243164,0.4705193042755127
1790107342516915500,7.43091552734375,-0.02010548859834671,-0.3490867018699646,0.2735636234283447
1790107342526860500,7.440860595703125,-0.10068687796592712,-0.2683929204940796,0.07280870527029037
1790107342536805600,7.4508056640625,-0.18129244446754456,-0.0670078843832016,-0.06109023839235306
1790107342546750500,7.46075048828125,-0.2994534373283386,0.1334431916475296,-0.14814071357250214
1790107342556694500,7.470694580078125,-0.4643987715244293,0.15622998774051666,-0.2528189420700073
1790107342566639400,7.480639404296875,-0.6425642967224121,-0.034808672964572906,-0.4478134512901306
1790107342576584700,7.490584716796875,-0.6918160915374756,0.09680208563804626,-0.5275908708572388
1790107342586528500,7.500528564453125,-0.6206386089324951,0.6155371069908142,-0.3717258870601654
1790107342596473300,7.510473388671875,-0.6698324084281921,0.6259945631027222,-0.3688834607601166
1790107342606418700,7.520418701171875,-0.7551536560058594,0.2277933955192566,-0.5261604189872742
1790107342616362500,7.530362548828125,-0.7576321363449097,0.2203410565853119,-0.5182165503501892
1790107342626307600,7.5403076171875,-0.7147400379180908,0.4180416464805603,-0.4507533311843872
1790107342636252700,7.550252685546875,-0.6620499491691589,0.4883884787559509,-0.45429426431655884
1790107342646196500,7.560196533203125,-0.5853407382965088,0.49454811215400696,-0.4322581887245178
1790107342656141600,7.5701416015625,-0.5233154892921448,0.5143044590950012,-0.32969269156455994
1790107342666086400,7.58008642578125,-0.5289052128791809,0.4288593828678131,-0.2745665907859802
1790107342676031500,7.590031494140625,-0.502231776714325,0.3799011707305908,-0.24584120512008667
1790107342685975600,7.5999755859375,-0.4276968538761139,0.40904760360717773,-0.21147868037223816
1790107342695920400,7.60992041015625,-0.35113340616226196,0.38507649302482605,-0.1998731791973114
1790107342705865700,7.61986572265625,-0.29479557275772095,0.36957743763923645,-0.184326171875
1790107342715809500,7.6298095703125,-0.2765125334262848,0.3880714774131775,-0.16447362303733826
1790107342725754600,7.639754638671875,-0.3248675465583801,0.39192771911621094,-0.21242837607860565
1790107342735699700,7.64969970703125,-0.39466798305511475,0.4002344012260437,-0.32751956582069397
1790107342745643500,7.6596435546875,-0.4734506905078888,0.4922916293144226,-0.41798287630081177
1790107342755588600,7.669588623046875,-0.5046138763427734,0.6739727258682251,-0.42014721035957336
1790107342765533400,7.679533447265625,-0.5114762783050537,0.7880457639694214,-0.36774125695228577
1790107342775477800,7.689477783203125,-0.5741803646087646,0.6584483981132507,-0.374895304441452
1790107342785422600,7.699422607421875,-0.6407327651977539,0.4887349605560303,-0.39750075340270996
1790107342795367400,7.709367431640625,-0.7184794545173645,0.27241411805152893,-0.4551643133163452
1790107342805312500,7.7193125,-0.7793287038803101,0.14564232528209686,-0.5333424806594849
1790107342815256600,7.729256591796875,-0.82113116979599,0.2057482749223709,-0.5581804513931274
1790107342825201400,7.739201416015625,-0.8406262993812561,0.2761596143245697,-0.5621496438980103
1790107342835146500,7.749146484375,-0.8420878052711487,0.3113468885421753,-0.5853945016860962
1790107342845090600,7.759090576171875,-0.8044349551200867,0.279019832611084,-0.625676691532135
1790107342855035600,7.76903564453125,-0.8216211199760437,0.264223575592041,-0.6372185349464417
1790107342864980500,7.77898046875,-0.9012997150421143,0.26483288407325745,-0.6602591276168823
1790107342874924500,7.788924560546875,-0.9609391093254089,0.19806984066963196,-0.7154380083084106
1790107342884869600,7.79886962890625,-0.9584839344024658,0.10944916307926178,-0.7915711402893066
1790107342894814500,7.808814453125,-0.9313135147094727,0.03533366695046425,-0.8628892302513123
1790107342904758500,7.818758544921875,-0.9281073212623596,0.04900340735912323,-0.870222270488739
1790107342914703600,7.82870361328125,-0.9733595252037048,0.14240792393684387,-0.8259631991386414
1790107342924648400,7.8386484375,-1.023206114768982,0.1448068916797638,-0.8303424715995789
1790107342934593500,7.848593505859375,-1.0533852577209473,0.0866282731294632,-0.8365383148193359
1790107342944537600,7.85853759765625,-1.0699890851974487,0.0803232416510582,-0.7732973098754883
1790107342954482400,7.868482421875,-1.1034948825836182,0.1035635769367218,-0.7132190465927124
1790107342964427500,7.878427490234375,-1.0709235668182373,0.10343281924724579,-0.7103502750396729
1790107342974371300,7.888371337890625,-1.0486149787902832,0.1649172157049179,-0.665201723575592
1790107342984316700,7.898316650390625,-1.1033551692962646,0.05974685773253441,-0.6976752281188965
1790107342994261500,7.908261474609375,-1.1415399312973022,-0.06787474453449249,-0.7677164077758789
1790107343004205600,7.91820556640625,-1.1182303428649902,-0.15156137943267822,-0.8282156586647034
1790107343014150700,7.928150634765625,-1.0696815252304077,-0.27511635422706604,-0.884738028049469
1790107343024095500,7.938095458984375,-1.0251522064208984,-0.26352760195732117,-0.8996407985687256
1790107343034039600,7.94803955078125,-1.0040634870529175,-0.2381327599287033,-0.9294407963752747
1790107343043984600,7.957984619140625,-1.0261563062667847,-0.15345622599124908,-0.9536086916923523
1790107343053929500,7.967929443359375,-1.0591498613357544,-0.044964902102947235,-1.0017677545547485
1790107343063874600,7.97787451171875,-1.0400294065475464,-0.13596884906291962,-1.1170780658721924
1790107343073818400,7.987818359375,-0.9878893494606018,-0.26613616943359375,-1.1437442302703857
1790107343083763700,7.997763671875,-0.958284854888916,-0.30659571290016174,-1.0334763526916504
1790107343093708500,8.00770849609375,-0.9956457018852234,-0.17642226815223694,-0.9215556979179382
1790107343103652400,8.01765234375,-0.9961469173431396,0.015312017872929573,-0.8370019197463989
1790107343113597700,8.02759765625,-0.9073446989059448,-0.17299076914787292,-0.910573422908783
1790107343123542500,8.03754248046875,-0.8206217885017395,-0.39379531145095825,-0.8705397248268127
1790107343133486600,8.047486572265624,-0.7347238659858704,-0.4786311089992523,-0.6704086661338806
1790107343143431400,8.057431396484375,-0.7116361260414124,-0.37351346015930176,-0.4142189919948578
1790107343153376500,8.06737646484375,-0.7592835426330566,-0.22328750789165497,-0.250377893447876
1790107343163321300,8.0773212890625,-0.7197774052619934,-0.01906273514032364,-0.2036290317773819
1790107343173266200,8.08726611328125,-0.575162410736084,0.13167430460453033,-0.12978222966194153
1790107343183211000,8.0972109375,-0.41214844584465027,-0.05385320633649826,-0.025611886754631996
1790107343193155000,8.107155029296875,-0.42611587047576904,-0.039079852402210236,0.18613950908184052
1790107343203100200,8.11710009765625,-0.4671514630317688,0.02528155967593193,0.30845344066619873
1790107343213045200,8.127045166015625,-0.3767695128917694,0.07891737669706345,0.4207555055618286
1790107343222990300,8.136990234375,-0.13090407848358154,0.2689448297023773,0.6096482276916504
1790107343232934100,8.14693408203125,0.02880885824561119,0.44824427366256714,0.7345746159553528
1790107343242879200,8.156879150390624,0.06058729439973831,0.374696284532547,0.7170134782791138
1790107343252824000,8.166823974609375,0.17571528255939484,0.17440259456634521,0.7560208439826965
1790107343262768400,8.176768310546874,0.34831422567367554,0.22245189547538757,0.8281938433647156
1790107343272713200,8.186713134765625,0.40281546115875244,0.1861727088689804,0.9373339414596558
1790107343282658000,8.196657958984375,0.44008904695510864,0.12378257513046265,1.0964487791061401
1790107343292602000,8.20660205078125,0.6067941188812256,0.29361048340797424,1.1347005367279053
1790107343302547200,8.216547119140625,0.752856433391571,0.2649495303630829,1.0602055788040161
1790107343312492000,8.226491943359376,0.7894445061683655,0.1198754534125328,1.040930151939392
1790107343322436000,8.23643603515625,0.852314293384552,0.17355038225650787,1.0946838855743408
1790107343332381200,8.246381103515626,0.9298757314682007,0.2738277316093445,1.2068424224853516
1790107343342326300,8.256326171875,1.0293521881103516,0.39431047439575195,1.2622536420822144
1790107343352270000,8.26627001953125,1.0754525661468506,0.4113195240497589,1.2296669483184814
1790107343362215200,8.276215087890625,1.0892784595489502,0.33756595849990845,1.1728394031524658
1790107343372160300,8.28616015625,1.1245980262756348,0.3766174912452698,1.1854084730148315
1790107343382105000,8.29610498046875,1.2201038599014282,0.46429169178009033,1.2295972108840942
1790107343392049200,8.306049072265624,1.3088603019714355,0.3909873962402344,1.2399201393127441
1790107343401994200,8.315994140625,1.3749074935913086,0.35829922556877136,1.1953614950180054
1790107343411939000,8.32593896484375,1.4293570518493652,0.41594091057777405,1.1053810119628906
1790107343421883100,8.335883056640625,1.5328855514526367,0.49341490864753723,1.0893561840057373
1790107343431828200,8.345828125,1.636881709098816,0.5109161734580994,1.1101794242858887
1790107343441773000,8.35577294921875,1.6677367687225342,0.36559122800827026,1.0640748739242554
1790107343451717000,8.365717041015625,1.6545342206954956,0.15633359551429749,0.965949296951294
1790107343461662000,8.375661865234376,1.6118760108947754,0.0548357218503952,0.9159913659095764
1790107343471607300,8.385607177734375,1.5812188386917114,0.15175402164459229,0.8937184810638428
1790107343481551000,8.395551025390626,1.5438637733459473,0.09524093568325043,0.8111962080001831
1790107343491496200,8.40549609375,1.5189622640609741,-0.04228416457772255,0.6771433353424072
1790107343501441300,8.415441162109374,1.5031335353851318,-0.27597442269325256,0.478971391916275
1790107343511386000,8.42538623046875,1.4158855676651,-0.550714910030365,0.35597196221351624
1790107343521330200,8.435330078125,1.2919434309005737,-0.7269823551177979,0.37556377053260803
1790107343531275300,8.445275146484375,1.1538485288619995,-0.7282324433326721,0.32415786385536194
1790107343541220000,8.45522021484375,1.0238170623779297,-0.7202399969100952,0.16814403235912323
1790107343551164200,8.4651640625,0.9600191712379456,-0.8491330146789551,0.09600615501403809
1790107343561109000,8.47510888671875,1.0488269329071045,-0.8639873266220093,0.12280634790658951
1790107343571054300,8.485054443359376,1.1474392414093018,-0.6212157011032104,0.3453904092311859
1790107343580998100,8.494998046875,1.0544285774230957,-0.1266871988773346,0.7859033346176147
1790107343590943000,8.50494287109375,0.851549506187439,-0.007216994185000658,1.0062682628631592
1790107343600888300,8.514888427734375,0.7622944712638855,-0.1560000777244568,0.8738635778427124
1790107343610832100,8.52483203125,0.8858582377433777,-0.2933230400085449,0.7105976343154907
1790107343620777200,8.534777099609375,1.00238037109375,-0.3085712194442749,0.7769268751144409
1790107343630722300,8.544722412109374,1.0477110147476196,-0.3051842451095581,0.8836988806724548
1790107343640666400,8.554666259765625,0.9768092632293701,-0.5345138311386108,0.8428020477294922
1790107343650611200,8.564611083984374,0.8385639190673828,-0.865275502204895,0.6105318069458008
1790107343660556000,8.57455615234375,0.7733258008956909,-0.6820716261863708,0.5618694424629211
1790107343670501000,8.584501220703125,0.7435694336891174,-0.2651899456977844,0.6465030908584595
1790107343680445200,8.594445068359375,0.7075541615486145,-0.1930936574935913,0.6218840479850769
1790107343690390000,8.60439013671875,0.6290192604064941,-0.21644344925880432,0.5890384912490845
1790107343700335400,8.61433544921875,0.4593961238861084,-0.30247047543525696,0.4797847270965576
1790107343710279200,8.624279052734375,0.27306970953941345,-0.4447900652885437,0.13730858266353607
1790107343720224300,8.634224365234376,0.13830097019672394,-0.3960329294204712,-0.12566418945789337
1790107343730169000,8.644169189453125,-0.008471003733575344,-0.0183468759059906,-0.12286734580993652
1790107343740113200,8.654113037109376,-0.13544492423534393,0.12431439757347107,-0.14495906233787537
1790107343750058200,8.664058349609375,-0.29738345742225647,0.19874629378318787,-0.1991724967956543
1790107343760003000,8.674003173828124,-0.46560654044151306,0.23115722835063934,-0.2626374661922455
1790107343769947100,8.683947021484375,-0.6088196635246277,0.2186177372932434,-0.3818262219429016
1790107343779892200,8.693892333984374,-0.6634764671325684,0.1983385533094406,-0.4882003366947174
1790107343789837000,8.703837158203125,-0.7025386095046997,0.24513456225395203,-0.5356758832931519
1790107343799782400,8.713782470703125,-0.774315595626831,0.3852996528148651,-0.4772493839263916
1790107343809726200,8.723726318359375,-0.7447901368141174,0.8805855512619019,-0.23253658413887024
1790107343819671000,8.733671142578125,-0.8106741309165955,0.4331723749637604,-0.43419989943504333
1790107343829616000,8.7436162109375,-0.8266977071762085,0.19543597102165222,-0.5146292448043823
1790107343839560200,8.753560302734375,-0.823362410068512,0.14754435420036316,-0.47113820910453796
1790107343849505300,8.76350537109375,-0.8292763233184814,0.08213499188423157,-0.530726432800293
1790107343859450000,8.7734501953125,-0.8471666574478149,0.20704098045825958,-0.6175633072853088
1790107343869394200,8.783394287109376,-0.8727006316184998,0.6608771681785583,-0.5538285374641418
1790107343879339300,8.79333935546875,-0.851082980632782,1.267753005027771,-0.36819931864738464
1790107343889284000,8.8032841796875,-0.8812306523323059,1.5291846990585327,-0.25725123286247253
1790107343899228200,8.813228271484375,-1.0203677415847778,1.0171674489974976,-0.48787859082221985
1790107343909173200,8.82317333984375,-1.0076239109039307,0.49409350752830505,-0.7761068940162659
1790107343919118000,8.8331181640625,-0.809370756149292,0.6385505199432373,-0.6818996667861938
1790107343929063200,8.843063232421875,-0.5910516381263733,1.020967721939087,-0.3241434395313263
1790107343939007200,8.85300732421875,-0.6472920179367065,0.9291136860847473,-0.1795114427804947
1790107343948952300,8.862952392578125,-0.8453262448310852,0.27850452065467834,-0.4726327657699585
1790107343958897200,8.872897216796876,-0.8621222972869873,-0.03064294531941414,-0.722309947013855
1790107343968841000,8.882841064453125,-0.7212489247322083,0.26905134320259094,-0.7035335898399353
1790107343978786300,8.892786376953126,-0.5381933450698853,0.579238772392273,-0.5189086198806763
1790107343988731100,8.902731201171875,-0.586771547794342,0.3494529724121094,-0.5365235805511475
1790107343998675200,8.91267529296875,-0.6478258371353149,0.15594370663166046,-0.521012008190155
1790107344008620300,8.922620361328125,-0.708907961845398,0.08253393322229385,-0.5785712599754333
1790107344018565000,8.932565185546874,-0.7771022319793701,0.2449856847524643,-0.6260130405426025
1790107344028509200,8.94250927734375,-0.8500809073448181,0.5174207091331482,-0.6036398410797119
1790107344038454000,8.9524541015625,-0.9245926737785339,0.5293194055557251,-0.6269004344940186
1790107344048399000,8.962399169921875,-0.892479419708252,0.399619460105896,-0.6807399392127991
1790107344058343200,8.97234326171875,-0.8064348101615906,0.327364981174469,-0.7040500640869141
1790107344068288000,8.9822880859375,-0.7242701053619385,0.3784564137458801,-0.7324020266532898
1790107344078233300,8.9922333984375,-0.6161761283874512,0.4070613980293274,-0.8314106464385986
1790107344088178200,9.00217822265625,-0.5891016125679016,0.36403989791870117,-0.9405422210693359
1790107344098122200,9.012122314453125,-0.6743435263633728,0.35922226309776306,-0.9412016272544861
1790107344108067300,9.0220673828125,-0.8451563715934753,0.2735523581504822,-0.858561098575592
1790107344118012200,9.03201220703125,-0.9723691940307617,0.15599030256271362,-0.7623336315155029
1790107344127956200,9.041956298828126,-1.0317305326461792,0.11324497312307358,-0.6829913258552551
1790107344137901000,9.051901123046875,-1.0289808511734009,0.0997411459684372,-0.6339358687400818
1790107344147846100,9.06184619140625,-0.9958810806274414,0.04819140210747719,-0.6274860501289368
1790107344157789700,9.071789794921875,-0.9979221224784851,0.013808396644890308,-0.6654046773910522
1790107344167734500,9.081734619140626,-1.0499866008758545,0.034532591700553894,-0.8095900416374207
1790107344177680000,9.091679931640625,-1.0767595767974854,-0.0474054180085659,-1.0636779069900513
1790107344187623700,9.101623779296874,-1.0035895109176636,-0.2774982750415802,-1.2904142141342163
1790107344197568800,9.11156884765625,-0.8523411154747009,-0.5664190053939819,-1.408212423324585
1790107344207513900,9.121513916015624,-0.7276169657707214,-0.6544522047042847,-1.3433409929275513
1790107344217458700,9.131458740234375,-0.7667915225028992,-0.4777647852897644,-1.1453027725219727
1790107344227402800,9.14140283203125,-0.9571201205253601,-0.1343405842781067,-0.9522167444229126
1790107344237347600,9.15134765625,-1.0662182569503784,0.07670560479164124,-0.9080522060394287
1790107344247292700,9.161292724609375,-1.0293853282928467,-0.102542445063591,-1.0407757759094238
1790107344257236700,9.17123681640625,-0.9367986917495728,-0.4048194885253906,-1.1371939182281494
1790107344267181600,9.181181640625,-0.8558289408683777,-0.5090436339378357,-1.112263560295105
1790107344277127000,9.191126953125,-0.808153510093689,-0.4322361946105957,-1.0590754747390747
1790107344287070700,9.20107080078125,-0.7537735104560852,-0.27273228764533997,-1.0291202068328857
1790107344297015600,9.211015625,-0.7325683832168579,-0.1849779337644577,-0.968572199344635
1790107344306961000,9.2209609375,-0.6713384985923767,-0.2498117983341217,-0.8755970597267151
1790107344316904700,9.23090478515625,-0.6507791876792908,-0.254501074552536,-0.6471092700958252
1790107344326849800,9.240849853515625,-0.6551176309585571,-0.2052118331193924,-0.3922969400882721
1790107344336794600,9.250794677734374,-0.5421740412712097,-0.18938013911247253,-0.16506034135818481
1790107344346738700,9.26073876953125,-0.3432435691356659,-0.039900101721286774,0.03729439154267311
1790107344356683800,9.270683837890624,-0.2728671431541443,0.13179123401641846,0.17642804980278015
1790107344366628600,9.280628662109375,-0.2966097593307495,0.1880670189857483,0.18569451570510864
1790107344376573700,9.29057373046875,-0.08424931764602661,0.4352320730686188,0.26141244173049927
1790107344386517800,9.300517822265626,-0.02614523656666279,0.4644370675086975,0.4822406470775604
1790107344396462600,9.310462646484375,-0.0866922065615654,0.278270959854126,0.6956596970558167
1790107344406407700,9.32040771484375,0.08905189484357834,0.3593282401561737,0.819265604019165
1790107344416351700,9.330351806640625,0.20990586280822754,0.37589338421821594,0.8155699372291565
1790107344426296800,9.340296875,0.2568259537220001,0.10587360709905624,0.6802264451980591
1790107344436241700,9.35024169921875,0.3654794692993164,-0.1339869201183319,0.6091626286506653
1790107344446185700,9.360185791015626,0.5484157800674438,-0.13656087219715118,0.606927752494812
1790107344456130800,9.370130859375,0.7316878437995911,0.06645003706216812,0.6831918954849243
1790107344466075600,9.38007568359375,0.7699164152145386,0.22753532230854034,0.7558522820472717
1790107344476019700,9.390019775390625,0.7711643576622009,0.24225649237632751,0.8610463738441467
1790107344485964800,9.39996484375,0.8341405987739563,0.2513064444065094,0.9495779871940613
1790107344495909600,9.40990966796875,0.922994077205658,0.2848082184791565,0.9615347981452942
1790107344505854700,9.419854736328125,1.0083602666854858,0.24043594300746918,0.9656161665916443
1790107344515798800,9.429798828125,1.0635478496551514,0.1551532745361328,0.9940363764762878
1790107344525743600,9.43974365234375,1.1249969005584717,0.12259054183959961,1.0311328172683716
1790107344535688700,9.449688720703126,1.186862587928772,0.09881224483251572,1.064772367477417
1790107344545632500,9.459632568359375,1.2314907312393188,0.000029202550649642944,1.0706030130386353
1790107344555577900,9.469577880859376,1.262054443359375,0.010331908240914345,1.0920859575271606
1790107344565522700,9.479522705078125,1.3493683338165283,0.2382097989320755,1.1303465366363525
1790107344575466800,9.489466796875,1.4627329111099243,0.46853116154670715,1.1361881494522095
1790107344585411800,9.499411865234375,1.5388503074645996,0.4578726589679718,1.1211557388305664
1790107344595356700,9.509356689453124,1.5864455699920654,0.280738890171051,1.107216477394104
1790107344605300700,9.51930078125,1.6161396503448486,0.11535126715898514,1.0532666444778442
1790107344615245800,9.529245849609374,1.640584111213684,0.09070317447185516,0.9750011563301086
1790107344625190700,9.539190673828125,1.6823192834854126,0.17572565376758575,0.8988357186317444
1790107344635134700,9.549134765625,1.7243660688400269,0.1941179782152176,0.849687933921814
1790107344645079600,9.55907958984375,1.7671184539794922,0.05102634057402611,0.7929735779762268
1790107344655024600,9.569024658203125,1.7953077554702759,-0.12378089129924774,0.7673089504241943
1790107344664969700,9.5789697265625,1.7272017002105713,-0.3513607680797577,0.6511513590812683
1790107344674913500,9.58891357421875,1.5781004428863525,-0.5836195945739746,0.4991312026977539
1790107344684859000,9.59885888671875,1.401421308517456,-0.7183454632759094,0.38159263134002686
1790107344694803700,9.6088037109375,1.2486956119537354,-0.7231367230415344,0.31105029582977295
1790107344704747800,9.618747802734376,1.1802237033843994,-0.7310699820518494,0.2942923605442047
1790107344714692600,9.628692626953125,1.1155281066894531,-0.8473614454269409,0.23712438344955444
1790107344724637700,9.6386376953125,1.0794047117233276,-1.0150343179702759,0.17381736636161804
1790107344734581800,9.648581787109375,1.1099151372909546,-1.119174838066101,0.16755573451519012
1790107344744526600,9.658526611328124,1.1495531797409058,-1.0605169534683228,0.25233131647109985
1790107344754471700,9.6684716796875,1.1880302429199219,-0.8569238185882568,0.4644086956977844
1790107344764415700,9.678415771484374,1.119175672531128,-0.5577864050865173,0.7368754148483276
1790107344774360600,9.688360595703125,0.9443255662918091,-0.45200297236442566,0.8428207635879517
1790107344784306000,9.698305908203125,0.7527288794517517,-0.42893972992897034,0.8136007189750671
1790107344794249700,9.708249755859375,0.6664278507232666,-0.46329373121261597,0.7906776070594788
1790107344804194800,9.71819482421875,0.7279767990112305,-0.5751781463623047,0.742172360420227
1790107344814139600,9.7281396484375,0.9096717238426208,-0.7777139544487,0.6779696941375732
1790107344824084700,9.738084716796875,0.991448700428009,-0.8073378801345825,0.652667760848999
1790107344834028800,9.74802880859375,0.9609385132789612,-0.6645679473876953,0.6775744557380676
1790107344843973600,9.7579736328125,0.9009026288986206,-0.5175125002861023,0.6220906972885132
1790107344853918700,9.767918701171874,0.7682068943977356,-0.5893163681030273,0.4926126301288605
1790107344863862800,9.77786279296875,0.6115397810935974,-0.47818875312805176,0.4594496190547943
1790107344873807600,9.7878076171875,0.4429933428764343,-0.24921578168869019,0.39773058891296387
1790107344883752700,9.797752685546875,0.3062361776828766,-0.23419047892093658,0.1462176889181137
1790107344893696800,9.80769677734375,0.1978929340839386,-0.3341599702835083,-0.12731240689754486
1790107344903641600,9.8176416015625,0.08865834027528763,-0.12709546089172363,-0.16926999390125275
1790107344913586700,9.827586669921875,-0.06421802192926407,0.06856777518987656,-0.1635356843471527
1790107344923530800,9.83753076171875,-0.3168070912361145,-0.027576062828302383,-0.27884814143180847
1790107344933475800,9.847475830078125,-0.4464966654777527,0.20171625912189484,-0.20825226604938507
1790107344943420700,9.857420654296876,-0.5645990371704102,0.23017293214797974,-0.2768486440181732
1790107344953365800,9.86736572265625,-0.6425783038139343,0.4477023184299469,-0.2633141875267029
1790107344963309800,9.877309814453126,-0.792474091053009,0.27950289845466614,-0.4088279902935028
1790107344973254700,9.887254638671875,-0.9241042733192444,0.07436974346637726,-0.5560381412506104
1790107344983199500,9.897199462890624,-0.9886937141418457,0.15552425384521484,-0.5501006245613098
1790107344993143800,9.907143798828125,-1.03878915309906,0.18614181876182556,-0.5970923900604248
1790107345003088600,9.917088623046874,-1.0583736896514893,0.1693876087665558,-0.6736493110656738
1790107345013033700,9.92703369140625,-0.9998989105224609,0.3779866099357605,-0.5606540441513062
1790107345022977500,9.9369775390625,-0.9042201042175293,0.6234829425811768,-0.3687079846858978
1790107345032922600,9.946922607421875,-0.8725032210350037,0.5189874172210693,-0.3591808080673218
1790107345042867700,9.95686767578125,-0.8815235495567322,0.3372522294521332,-0.4566357135772705
1790107345052811500,9.9668115234375,-0.8479719758033752,0.37682095170021057,-0.4986462891101837
1790107345062756900,9.9767568359375,-0.7987735867500305,0.5444392561912537,-0.4528364837169647
1790107345072701700,9.98670166015625,-0.7160438299179077,0.7906186580657959,-0.30844786763191223
1790107345082645800,9.996645751953125,-0.7353250980377197,0.6449310183525085,-0.3345053195953369
1790107345092590800,10.0065908203125,-0.7674505114555359,0.42526039481163025,-0.4268498718738556
1790107345102535700,10.01653564453125,-0.724982738494873,0.3477035164833069,-0.4888671636581421
1790107345112480800,10.026480712890624,-0.6194397807121277,0.4963185787200928,-0.4748067259788513
1790107345122424600,10.036424560546875,-0.5761479139328003,0.4965206980705261,-0.5323345065116882
1790107345132369700,10.04636962890625,-0.5686982274055481,0.3656466007232666,-0.5936782956123352
1790107345142314800,10.056314697265625,-0.5310097932815552,0.16205352544784546,-0.6315351128578186
1790107345152258600,10.066258544921874,-0.5071262717247009,0.02413027547299862,-0.6673756837844849
1790107345162204000,10.076203857421875,-0.5233812928199768,0.08154243230819702,-0.6538193821907043
1790107345172149200,10.086149169921875,-0.5781391263008118,0.2921087145805359,-0.6027340888977051
1790107345182093000,10.096093017578125,-0.6801508069038391,0.4020988643169403,-0.6218297481536865
1790107345192038100,10.1060380859375,-0.7901606559753418,0.48259398341178894,-0.651237964630127
1790107345201983000,10.11598291015625,-0.8249319195747375,0.6090052127838135,-0.5842986106872559
1790107345211927300,10.12592724609375,-0.842597484588623,0.6377018094062805,-0.5112624764442444
1790107345221872000,10.1358720703125,-0.8680683374404907,0.485171377658844,-0.5099121928215027
1790107345231817000,10.14581689453125,-0.8529186844825745,0.2865874469280243,-0.5706735849380493
1790107345241762000,10.155761962890624,-0.8147586584091187,0.18390768766403198,-0.6841164827346802
1790107345251706000,10.1657060546875,-0.7851613759994507,0.15249890089035034,-0.8001818656921387
1790107345261651000,10.17565087890625,-0.8006613254547119,0.03435974568128586,-0.9220430254936218
1790107345271596300,10.18559619140625,-0.8020227551460266,-0.14587873220443726,-1.0504590272903442
1790107345281540000,10.1955400390625,-0.782814621925354,-0.23032145202159882,-1.1124769449234009
1790107345291485200,10.205485107421875,-0.7805477380752563,-0.18320906162261963,-1.0526045560836792
1790107345301430000,10.215429931640625,-0.846493661403656,-0.1421298086643219,-0.9859954118728638
1790107345311374000,10.2253740234375,-0.9570153951644897,-0.03373302146792412,-0.9056622385978699
1790107345321319200,10.235319091796875,-1.0815762281417847,0.09646493196487427,-0.8097127676010132
1790107345331264000,10.245263916015626,-1.1532799005508423,0.16260826587677002,-0.7246407866477966
1790107345341208000,10.2552080078125,-1.1076927185058594,0.11624076962471008,-0.667980968952179
1790107345351153200,10.265153076171876,-1.0309464931488037,0.009416313841938972,-0.6585347056388855
1790107345361098000,10.275097900390625,-1.0240134000778198,-0.14375753700733185,-0.7246040105819702
1790107345371043000,10.28504296875,-1.098265290260315,-0.21260957419872284,-0.8860008716583252
1790107345380987100,10.294987060546875,-1.1758331060409546,-0.16347742080688477,-1.027745246887207
1790107345390932000,10.304931884765624,-1.1472117900848389,-0.2745826542377472,-1.1870763301849365
1790107345400877000,10.314876953125,-1.0755691528320312,-0.49041855335235596,-1.3129689693450928
1790107345410821000,10.324821044921874,-1.0804754495620728,-0.5948453545570374,-1.314288854598999
1790107345420766200,10.33476611328125,-1.139562726020813,-0.5772716403007507,-1.234262228012085
1790107345430711000,10.3447109375,-1.1072444915771484,-0.6379494071006775,-1.2277717590332031
1790107345440655000,10.354655029296875,-0.9901790618896484,-0.5352597832679749,-1.1731224060058594
1790107345450600200,10.36460009765625,-0.9505645036697388,-0.40154963731765747,-1.0849858522415161
1790107345460545000,10.374544921875,-0.9701106548309326,-0.2090446501970291,-0.945787787437439
1790107345470489000,10.384489013671875,-0.9300702810287476,-0.2653723955154419,-0.8800112009048462
1790107345480434200,10.39443408203125,-0.8789402842521667,-0.3340422213077545,-0.7972803711891174
1790107345490379000,10.40437890625,-0.8365254402160645,-0.35987064242362976,-0.7010757923126221
1790107345500323000,10.414322998046876,-0.7120321989059448,-0.35752254724502563,-0.4729771316051483
1790107345510268000,10.424267822265625,-0.599035382270813,-0.2638415992259979,-0.11109376698732376
1790107345520213200,10.434213134765624,-0.6362497806549072,-0.08032183349132538,0.1390683948993683
1790107345530158000,10.444157958984375,-0.6076015830039978,0.1920982450246811,0.21224407851696014
1790107345540102000,10.454101806640624,-0.39507856965065,0.19190116226673126,0.2864549458026886
1790107345550047200,10.464047119140625,-0.11046787351369858,0.25031495094299316,0.5346338748931885
1790107345559992000,10.473991943359374,0.023681605234742165,0.4609360992908478,0.8109633922576904
1790107345569936100,10.48393603515625,0.035840000957250595,0.5318499207496643,0.9383344054222107
1790107345579881200,10.493881103515625,0.0656803548336029,0.4073367714881897,0.9594067335128784
1790107345589826000,10.503825927734376,0.20591868460178375,0.20028772950172424,0.9563097357749939
1790107345599770000,10.51377001953125,0.3592289686203003,0.1517777144908905,0.9658289551734924
1790107345609715000,10.52371484375,0.44542989134788513,0.16953220963478088,1.0196458101272583
1790107345619660000,10.533659912109375,0.5545992851257324,0.248794823884964,1.1552374362945557
1790107345629604000,10.54360400390625,0.6863317489624023,0.3926534354686737,1.2441340684890747
1790107345639549000,10.553548828125,0.7543483972549438,0.28888633847236633,1.2735588550567627
1790107345649494300,10.563494384765624,0.8294320106506348,0.11261621862649918,1.3143185377120972
1790107345659438000,10.57343798828125,0.9373842477798462,0.16896522045135498,1.3085790872573853
1790107345669383200,10.583383056640624,1.0200830698013306,0.2881928086280823,1.2736520767211914
1790107345679328000,10.593327880859375,1.0641580820083618,0.3806188702583313,1.3185383081436157
1790107345689273000,10.603273193359374,1.099440097808838,0.4598487317562103,1.407139539718628
1790107345699217200,10.613217041015625,1.132718563079834,0.47355228662490845,1.4612808227539062
1790107345709162000,10.623161865234374,1.1716028451919556,0.484085351228714,1.4672760963439941
1790107345719107000,10.633107177734376,1.2318646907806396,0.5892703533172607,1.4237650632858276
1790107345729051100,10.643051025390625,1.289803385734558,0.6493552923202515,1.373357892036438
1790107345738996000,10.652995849609376,1.4182573556900024,0.6421359777450562,1.2880213260650635
1790107345748941000,10.662941162109375,1.522921085357666,0.544411838054657,1.1645712852478027
1790107345758885000,10.672885009765626,1.6003700494766235,0.41902807354927063,1.0339148044586182
1790107345768830000,10.682829833984375,1.6929646730422974,0.3351083993911743,0.952867865562439
1790107345778775000,10.692775146484376,1.7216993570327759,0.2167215645313263,0.8804916143417358
1790107345788719000,10.702718994140625,1.7004115581512451,0.08876306563615799,0.804485023021698
1790107345798664200,10.712664306640624,1.7075797319412231,0.09730701893568039,0.7282456159591675
1790107345808609000,10.722609130859375,1.737019658088684,0.14925836026668549,0.6582849025726318
1790107345818553000,10.732552978515624,1.7379149198532104,0.060503747314214706,0.5686728358268738
1790107345828498200,10.742498291015625,1.7381937503814697,-0.08641619980335236,0.46231865882873535
1790107345838443000,10.752443115234374,1.7270097732543945,-0.3194662034511566,0.3294439911842346
1790107345848388000,10.76238818359375,1.6411622762680054,-0.7169970870018005,0.19599692523479462
1790107345858332200,10.772332275390625,1.444932222366333,-1.0953043699264526,0.05054203048348427
1790107345868277000,10.782277099609376,1.2471469640731812,-1.3436620235443115,-0.10893844068050385
1790107345878222000,10.79222216796875,1.1773877143859863,-1.411085844039917,-0.1653367578983307
1790107345888166100,10.802166259765626,1.2025047540664673,-1.345041275024414,-0.014066552743315697
1790107345898111200,10.812111328125,1.183207392692566,-1.1106168031692505,0.2582528591156006
1790107345908056000,10.82205615234375,1.1658278703689575,-0.7689691781997681,0.5339656472206116
1790107345917999900,10.831999755859375,1.1093220710754395,-0.5115576386451721,0.7478857040405273
1790107345927945200,10.8419453125,0.9956560134887695,-0.18563494086265564,0.9922163486480713
1790107345937890000,10.85189013671875,0.9109081029891968,-0.032741256058216095,1.1655710935592651
1790107345947834000,10.861834228515624,0.848876416683197,-0.36791977286338806,1.0485137701034546
1790107345957779200,10.871779296875,0.7737088799476624,-0.8920008540153503,0.7540487051010132
1790107345967724000,10.88172412109375,0.738250732421875,-0.9698349237442017,0.6127443313598633
1790107345977669000,10.891669189453125,0.794599175453186,-0.812000572681427,0.6157087683677673
1790107345987613200,10.90161328125,0.7518013715744019,-0.7410433292388916,0.6611297726631165
1790107345997558000,10.91155810546875,0.6590865254402161,-0.5418763756752014,0.6836371421813965
1790107346007503000,10.921503173828125,0.5831456780433655,-0.4172436594963074,0.6263067722320557
1790107346017447000,10.931447021484376,0.5311669111251831,-0.3513285517692566,0.48251497745513916
1790107346027392300,10.941392333984375,0.47091907262802124,-0.30443403124809265,0.2881700098514557
1790107346037337000,10.951337158203126,0.3879641890525818,-0.2478754073381424,0.09921900928020477
1790107346047281200,10.96128125,0.23524735867977142,-0.14049169421195984,0.01933642290532589
1790107346057226200,10.971226318359374,0.09363193064928055,0.019764024764299393,0.004692234564572573
1790107346067171000,10.981171142578125,-0.017156902700662613,0.13054326176643372,-0.04299619048833847
1790107346077115100,10.991115234375,-0.1005605086684227,0.29700765013694763,-0.05259100720286369
1790107346087060000,11.00106005859375,-0.2612875998020172,0.22154322266578674,-0.14337070286273956
1790107346097005000,11.011005126953124,-0.407440721988678,0.18203601241111755,-0.24712802469730377
1790107346106950100,11.0209501953125,-0.5269500613212585,0.04479240998625755,-0.4355919361114502
1790107346116894000,11.03089404296875,-0.6215514540672302,0.09782154858112335,-0.555838942527771
1790107346126839000,11.040839111328125,-0.6055895686149597,0.5939369797706604,-0.37423935532569885
1790107346136784100,11.0507841796875,-0.6849293112754822,0.34165045619010925,-0.4805953800678253
1790107346146728000,11.06072802734375,-0.7705275416374207,0.10838550329208374,-0.5727575421333313
1790107346156673300,11.07067333984375,-0.8233377933502197,0.024778231978416443,-0.5821056962013245
1790107346166617900,11.080617919921876,-0.7808025479316711,0.3095066547393799,-0.4154549539089203
1790107346176562000,11.09056201171875,-0.7455875873565674,0.468013733625412,-0.3244982063770294
1790107346186506800,11.1005068359375,-0.8173619508743286,0.26829421520233154,-0.45093443989753723
1790107346196451800,11.110451904296875,-0.8778641819953918,0.18191590905189514,-0.5597764849662781
1790107346206396000,11.12039599609375,-0.8394750356674194,0.4952181577682495,-0.5111730098724365
1790107346216340700,11.1303408203125,-0.7491784691810608,0.9105564951896667,-0.3796328008174896
1790107346226285800,11.140285888671874,-0.7423490285873413,0.949148416519165,-0.3797033727169037
1790107346236230000,11.15022998046875,-0.7788475155830383,0.8260754942893982,-0.3685016334056854
1790107346246174700,11.1601748046875,-0.7973631024360657,0.5708189606666565,-0.3517804443836212
1790107346256119800,11.170119873046875,-0.7810714840888977,0.37200862169265747,-0.3560505211353302
1790107346266065000,11.18006494140625,-0.6850834488868713,0.4909997284412384,-0.30201950669288635
1790107346276009000,11.190009033203125,-0.6986083984375,0.36118659377098083,-0.438852995634079
1790107346285953800,11.199953857421875,-0.6851423978805542,0.3173235356807709,-0.5351552963256836
1790107346295899000,11.20989892578125,-0.6374744772911072,0.34605610370635986,-0.5630117058753967
1790107346305843000,11.219843017578125,-0.6117035746574402,0.33925145864486694,-0.6062873005867004
1790107346315787800,11.229787841796876,-0.6181425452232361,0.3568645715713501,-0.6129521131515503
1790107346325732900,11.23973291015625,-0.5864269733428955,0.43682968616485596,-0.5466649532318115
1790107346335677000,11.249677001953126,-0.6380665302276611,0.28958749771118164,-0.5359296798706055
1790107346345621800,11.259621826171875,-0.744088888168335,0.17092639207839966,-0.5436520576477051
1790107346355566800,11.26956689453125,-0.8453157544136047,0.15572212636470795,-0.5823472738265991
1790107346365511000,11.279510986328125,-0.9458996057510376,0.2459564059972763,-0.6192498803138733
1790107346375455700,11.289455810546874,-1.0289703607559204,0.35562005639076233,-0.6553152203559875
1790107346385400800,11.29940087890625,-1.0588369369506836,0.3970061242580414,-0.6961808800697327
1790107346395346000,11.309345947265625,-1.047135829925537,0.3067132234573364,-0.7466219663619995
1790107346405290000,11.3192900390625,-1.0258334875106812,0.15391063690185547,-0.7746613025665283
1790107346415234800,11.32923486328125,-1.005361795425415,0.0023195212706923485,-0.7927833795547485
1790107346425179600,11.3391796875,-1.001933217048645,-0.07646051049232483,-0.8365287184715271
1790107346435124000,11.3491240234375,-1.0332387685775757,-0.04916178062558174,-0.881355881690979
1790107346445068800,11.35906884765625,-1.0404781103134155,0.025808334350585938,-0.92783522605896
1790107346455013600,11.369013671875,-1.0201984643936157,0.1054949089884758,-0.9266705513000488
1790107346464958000,11.3789580078125,-1.0249519348144531,0.15653812885284424,-0.8731666207313538
1790107346474902800,11.38890283203125,-1.0633398294448853,0.1174762025475502,-0.8324658274650574
1790107346484847900,11.398847900390624,-1.1291804313659668,-0.07357072085142136,-0.9195080399513245
1790107346494791700,11.408791748046875,-1.0937089920043945,-0.1993054747581482,-1.0142160654067993
1790107346504737000,11.418737060546874,-1.0160748958587646,-0.20735114812850952,-1.0146715641021729
1790107346514681900,11.428681884765625,-1.0229339599609375,-0.30862876772880554,-0.9989034533500671
1790107346524626700,11.438626708984375,-1.1160261631011963,-0.45760759711265564,-1.0460691452026367
1790107346534571000,11.448571044921875,-1.1087534427642822,-0.4659914970397949,-1.0938904285430908
1790107346544515800,11.458515869140625,-1.085176706314087,-0.44243744015693665,-1.1297699213027954
1790107346554460700,11.468460693359376,-1.1090774536132812,-0.604059636592865,-1.212740421295166
1790107346564404700,11.47840478515625,-1.1059497594833374,-0.7014807462692261,-1.2085528373718262
1790107346574349800,11.488349853515626,-1.0604987144470215,-0.6651740670204163,-1.1222180128097534
1790107346584295000,11.498294921875,-1.007697582244873,-0.5598439574241638,-1.0812662839889526
1790107346594238700,11.50823876953125,-1.0329633951187134,-0.33192452788352966,-1.0484241247177124
1790107346604183800,11.518183837890625,-0.9907877445220947,-0.33133381605148315,-1.0061880350112915
1790107346614129000,11.52812890625,-0.894607663154602,-0.4730885624885559,-0.9520869851112366
1790107346624072700,11.53807275390625,-0.8456619381904602,-0.4484332799911499,-0.8524852991104126
1790107346634018000,11.54801806640625,-0.825530469417572,-0.37927764654159546,-0.7568575739860535
1790107346643963000,11.557962890625,-0.7559814453125,-0.4174247682094574,-0.6211133003234863
1790107346653907000,11.567906982421874,-0.6362126469612122,-0.4532559812068939,-0.39039677381515503
1790107346663851800,11.577851806640625,-0.5946404337882996,-0.39274871349334717,-0.12763650715351105
1790107346673796900,11.587796875,-0.5847269296646118,-0.19370964169502258,0.07507798075675964
1790107346683741700,11.59774169921875,-0.4369494616985321,0.0253412164747715,0.32462868094444275
1790107346693685800,11.607685791015625,-0.24680590629577637,0.29319530725479126,0.5413171052932739
1790107346703630800,11.617630859375,-0.17759887874126434,0.4461451768875122,0.6101563572883606
1790107346713576000,11.627575927734375,-0.14442287385463715,0.3598923087120056,0.6455712914466858
1790107346723519700,11.637519775390626,-0.008568374440073967,0.2257044017314911,0.7810239195823669
1790107346733464800,11.64746484375,0.140082448720932,0.252128005027771,1.0314971208572388
1790107346743410000,11.657409912109374,0.2303079515695572,0.2344914972782135,1.2028851509094238
1790107346753353700,11.667353759765625,0.3941537141799927,0.3365856409072876,1.2330005168914795
1790107346763298800,11.677298828125,0.5154979825019836,0.3981318473815918,1.1928997039794922
1790107346773244000,11.687243896484375,0.6047850847244263,0.3542863428592682,1.1404534578323364
1790107346783188000,11.69718798828125,0.6895638704299927,0.25728070735931396,1.142423391342163
1790107346793132800,11.7071328125,0.7803909182548523,0.26682788133621216,1.2030140161514282
1790107346803078000,11.717077880859375,0.8942959308624268,0.47640109062194824,1.3153789043426514
1790107346813022000,11.72702197265625,0.9914199113845825,0.6043278574943542,1.4103914499282837
1790107346822966800,11.736966796875,1.0161036252975464,0.45343613624572754,1.4251525402069092
1790107346832911600,11.74691162109375,1.0263506174087524,0.24941426515579224,1.4068676233291626
1790107346842857000,11.75685693359375,1.0902446508407593,0.29805102944374084,1.37278151512146
1790107346852800800,11.76680078125,1.1956353187561035,0.5191844701766968,1.3154479265213013
1790107346862745900,11.776745849609375,1.2433415651321411,0.5965455770492554,1.3282090425491333
1790107346872691000,11.78669091796875,1.2450393438339233,0.539032518863678,1.3809376955032349
1790107346882634800,11.796634765625,1.259116530418396,0.3688128590583801,1.3593422174453735
1790107346892579800,11.806579833984374,1.319490909576416,0.27698493003845215,1.2500848770141602
1790107346902525000,11.81652490234375,1.3916388750076294,0.3830469250679016,1.159238576889038
1790107346912469000,11.826468994140624,1.5605084896087646,0.6075944900512695,1.120837688446045
1790107346922413800,11.836413818359375,1.7827410697937012,0.7007262706756592,1.1000226736068726
1790107346932358700,11.846358642578124,1.9683631658554077,0.5328425168991089,1.0430654287338257
1790107346942303000,11.856302978515625,1.9898016452789307,0.193245530128479,0.9509572386741638
1790107346952247800,11.866247802734375,1.8795115947723389,-0.1090482845902443,0.8518224358558655
1790107346962193000,11.87619287109375,1.7583404779434204,-0.14201608300209045,0.7816026210784912
1790107346972138000,11.886137939453125,1.6486679315567017,0.015978872776031494,0.7161106467247009
1790107346982081800,11.896081787109376,1.6168310642242432,-0.007182105910032988,0.5044428706169128
1790107346992027000,11.90602685546875,1.518674373626709,-0.3858897387981415,0.36689305305480957
1790107347001971700,11.9159716796875,1.3032288551330566,-0.7900116443634033,0.2814388573169708
1790107347011916000,11.925916015625,1.1281075477600098,-1.0510841608047485,0.19800764322280884
1790107347021860900,11.93586083984375,1.0516098737716675,-1.003569483757019,0.20109158754348755
1790107347031805700,11.9458056640625,1.088126540184021,-0.7366752028465271,0.3181060552597046
1790107347041749800,11.955749755859374,1.1821374893188477,-0.6896725296974182,0.36045321822166443
1790107347051694800,11.96569482421875,1.2569941282272339,-0.900688886642456,0.3180232346057892
1790107347061639700,11.9756396484375,1.2414075136184692,-0.9696394801139832,0.3696161210536957
1790107347071583700,11.985583740234375,1.1156775951385498,-0.9167264103889465,0.4696396589279175
1790107347081528800,11.99552880859375,0.9023325443267822,-0.9587873220443726,0.5140001773834229
1790107347091474000,12.005473876953126,0.6934254765510559,-0.7586638331413269,0.6017787456512451
1790107347101417700,12.015417724609375,0.6773980259895325,-0.0636264756321907,0.9060686230659485
1790107347111362800,12.02536279296875,0.7662619352340698,0.34539246559143066,1.2889436483383179
1790107347121308000,12.035307861328125,0.916056215763092,-0.15051530301570892,1.2951668500900269
1790107347131252700,12.045252685546876,1.0328586101531982,-1.1304347515106201,0.8204869031906128
1790107347141196800,12.05519677734375,1.0114436149597168,-1.2545369863510132,0.4605593681335449
1790107347151142000,12.065141845703126,1.0298993587493896,-0.5922935009002686,0.392037034034729
1790107347161087200,12.075087158203125,0.8964512348175049,-0.13734489679336548,0.2768630385398865
1790107347171031300,12.08503125,0.6501075029373169,0.04843534901738167,0.20138666033744812
1790107347180976400,12.094976318359375,0.43190059065818787,0.13655295968055725,0.1831112504005432
1790107347190921200,12.104921142578124,0.26511046290397644,0.01966949552297592,0.025077160447835922
1790107347200865300,12.114865234375,0.05108713358640671,-0.33279478549957275,-0.28220900893211365
1790107347210810000,12.12481005859375,-0.0029937466606497765,0.060337819159030914,-0.16522330045700073
1790107347220755500,12.13475537109375,-0.04088973253965378,0.5405667424201965,0.08187676966190338
1790107347230699300,12.14469921875,-0.16192640364170074,0.38635826110839844,0.053356971591711044
1790107347240644000,12.15464404296875,-0.4351198673248291,-0.06134947016835213,-0.16120433807373047
1790107347250589400,12.16458935546875,-0.6537726521492004,-0.11545957624912262,-0.30196091532707214
1790107347260533200,12.174533203125,-0.7661104202270508,-0.054298751056194305,-0.4699555039405823
1790107347270478300,12.184478271484375,-0.7862319946289062,0.374169260263443,-0.4209948778152466
1790107347280423400,12.19442333984375,-0.7513632774353027,0.7994153499603271,-0.2181011587381363
1790107347290368300,12.2043681640625,-0.8284540176391602,0.4048837423324585,-0.3558105528354645
1790107347300312300,12.214312255859374,-0.9038278460502625,0.1036759689450264,-0.451964795589447
1790107347310257200,12.224257080078125,-0.8390124440193176,0.2864950895309448,-0.3526488244533539
1790107347320202200,12.2342021484375,-0.7741708755493164,0.30629193782806396,-0.3718981444835663
1790107347330146300,12.244146240234375,-0.7832269072532654,0.15837277472019196,-0.4696662724018097
1790107347340091100,12.254091064453124,-0.7329565286636353,0.3009088933467865,-0.35804280638694763
1790107347350036500,12.264036376953126,-0.5995196104049683,0.7234148979187012,-0.08853702992200851
1790107347359980300,12.273980224609375,-0.5587572455406189,0.6091915965080261,-0.10082485526800156
1790107347369925400,12.28392529296875,-0.5596131682395935,0.518863320350647,-0.1921670287847519
1790107347379870200,12.2938701171875,-0.5708796977996826,0.4642932713031769,-0.32880106568336487
1790107347389814300,12.303814208984376,-0.630470335483551,0.5184803605079651,-0.4490342438220978
1790107347399759400,12.31375927734375,-0.6798930168151855,0.6904891133308411,-0.4901678264141083
1790107347409704200,12.3237041015625,-0.6391159892082214,1.018883228302002,-0.38227707147598267
1790107347419649300,12.333649169921875,-0.5936875343322754,1.2340373992919922,-0.23318955302238464
1790107347429593300,12.34359326171875,-0.6910021305084229,0.8912597894668579,-0.2776435911655426
1790107347439538200,12.3535380859375,-0.8534759879112244,0.3378823399543762,-0.5440917611122131
1790107347449483500,12.3634833984375,-0.7748672366142273,0.33470842242240906,-0.6824640035629272
1790107347459427300,12.37342724609375,-0.5750837922096252,0.6774117350578308,-0.5426586866378784
1790107347469372200,12.3833720703125,-0.5233051180839539,0.39834141731262207,-0.5537995100021362
1790107347479317200,12.393317138671875,-0.5028789639472961,-0.052736543118953705,-0.7068966627120972
1790107347489261300,12.40326123046875,-0.41674748063087463,-0.17173585295677185,-0.8406309485435486
1790107347499206400,12.413206298828126,-0.37581443786621094,0.07558312267065048,-0.8461362719535828
1790107347509151200,12.423151123046875,-0.4851503074169159,0.5164967775344849,-0.7202913761138916
1790107347519095300,12.43309521484375,-0.7100555896759033,0.8944054841995239,-0.5089175701141357
1790107347529040400,12.443040283203125,-0.921250581741333,0.7138271927833557,-0.4518177807331085
1790107347538985200,12.452985107421876,-0.9894844889640808,0.38349485397338867,-0.4972630441188812
