time,seconds_elapsed,z,y,x
1790267270760566000,0.07156591796875,0,0,0
1790267270770566100,0.081566162109375,-0.2545623779296875,-0.0830235481262207,0.23417329788208008
1790267270780566000,0.09156591796875,-0.7113351821899414,-0.06250166893005371,0.328660249710083
1790267270790566100,0.101566162109375,-0.8630304336547852,0.1065828800201416,0.2829720973968506
1790267270800566000,0.11156591796875,-0.5100183486938477,0.331573486328125,0.42141151428222656
1790267270810566100,0.121566162109375,-0.3271484375,0.35657691955566406,0.8430280685424805
1790267270820566000,0.13156591796875,-1.0461125373840332,0.24281001091003418,0.9380714893341064
1790267270830566100,0.141566162109375,-1.9705400466918945,-0.09474563598632812,0.7805538177490234
1790267270840566000,0.15156591796875,-2.35823392868042,-0.5788830518722534,0.6460132598876953
1790267270850566100,0.161566162109375,-0.28640174865722656,-0.4906039237976074,-1.9776363372802734
1790267270860566000,0.17156591796875,-0.22588300704956055,0.4625706672668457,-2.9150447845458984
1790267270870566100,0.181566162109375,0.4040522575378418,0.7611405849456787,-1.5798530578613281
1790267270880566000,0.19156591796875,-0.1344919204711914,0.2186417579650879,-0.7505779266357422
1790267270890566100,0.201566162109375,-1.316366195678711,-0.5404388904571533,0.5515341758728027
1790267270900566000,0.21156591796875,-2.0365519523620605,-0.9238471984863281,1.261213779449463
1790267270910566100,0.221566162109375,-1.7855415344238281,-0.8292832374572754,1.079826831817627
1790267270920566000,0.23156591796875,-0.34294748306274414,-0.31176793575286865,0.3720283508300781
1790267270930566100,0.241566162109375,1.0831551551818848,0.275205135345459,0.21794366836547852
1790267270940566000,0.25156591796875,3.3874588012695312,-0.057598233222961426,2.25249981880188
1790267270950566100,0.261566162109375,7.1069254875183105,0.26185452938079834,5.150873184204102
1790267270960566000,0.27156591796875,7.14306116104126,2.0632967948913574,2.767670154571533
1790267270970566100,0.281566162109375,3.9894261360168457,2.139525890350342,1.0025215148925781
1790267270980566000,0.29156591796875,1.2639131546020508,1.0323338508605957,0.5850479602813721
1790267270990566100,0.301566162109375,-1.3546710014343262,-0.03762006759643555,0.5589532852172852
1790267271000566000,0.31156591796875,-3.446488857269287,-0.5117223262786865,-0.5634546279907227
1790267271010566100,0.321566162109375,-4.591586589813232,-0.4136044979095459,-2.583710193634033
1790267271020566000,0.33156591796875,-4.0787200927734375,-0.07927370071411133,-4.915114402770996
1790267271030566100,0.341566162109375,-3.158851146697998,-0.4418904781341553,-5.465929985046387
1790267271040566000,0.35156591796875,-2.980301856994629,-1.4069814682006836,-4.666817665100098
1790267271050566100,0.361566162109375,-1.8727178573608398,-1.7842615842819214,-4.196815013885498
1790267271060566000,0.37156591796875,-1.440396785736084,-1.9281214475631714,-3.636780023574829
1790267271070566100,0.381566162109375,-1.2613611221313477,-1.9055793285369873,-3.4499716758728027
1790267271080566000,0.39156591796875,-1.2793688774108887,-1.951810359954834,-2.876582145690918
1790267271090566100,0.401566162109375,-0.8645234107971191,-1.9081792831420898,-1.6625014543533325
1790267271100566000,0.41156591796875,-0.002388477325439453,-1.6500303745269775,-0.2559551000595093
1790267271110566100,0.421566162109375,0.8555927276611328,-1.0673778057098389,-0.15500569343566895
1790267271120566000,0.43156591796875,1.3972272872924805,-0.49063777923583984,-0.9131860733032227
1790267271130566100,0.441566162109375,1.0853862762451172,-0.7905888557434082,-1.0996181964874268
1790267271140566000,0.45156591796875,1.930893898010254,-0.08272910118103027,-2.2443623542785645
1790267271150566100,0.461566162109375,2.424435615539551,1.6466822624206543,-1.8988721370697021
1790267271160566000,0.47156591796875,2.090846061706543,2.3097386360168457,-0.23277336359024048
1790267271170566100,0.481566162109375,2.2478370666503906,2.450127601623535,-0.20245034992694855
1790267271180566000,0.49156591796875,2.966153144836426,2.525190830230713,-0.9012019634246826
1790267271190566100,0.501566162109375,3.5017614364624023,2.628136396408081,-1.189539909362793
1790267271200566000,0.51156591796875,3.6623573303222656,2.911280870437622,-1.280611276626587
1790267271210566100,0.521566162109375,3.6995201110839844,3.2768211364746094,-1.0667287111282349
1790267271220566000,0.53156591796875,3.417635917663574,3.5846288204193115,-0.3950614035129547
1790267271230566100,0.541566162109375,3.2619762420654297,3.832306146621704,0.15479999780654907
1790267271240566000,0.55156591796875,3.429928779602051,3.751983165740967,0.21025091409683228
1790267271250566100,0.561566162109375,3.765443801879883,3.232816457748413,0.11221492290496826
1790267271260566000,0.57156591796875,3.748636245727539,2.574812889099121,0.02923029661178589
1790267271270566100,0.581566162109375,3.372553825378418,1.9906589984893799,0.3729317784309387
1790267271280566000,0.59156591796875,2.9908628463745117,1.6534719467163086,0.9597486257553101
1790267271290566100,0.601566162109375,2.583376884460449,1.351405382156372,1.427192211151123
1790267271300566000,0.61156591796875,1.7897119522094727,0.8964715003967285,1.456268548965454
1790267271310566100,0.621566162109375,1.020315170288086,0.14185547828674316,1.2903904914855957
1790267271320566000,0.63156591796875,0.9265041351318359,-0.5732462406158447,0.9037437438964844
1790267271330566100,0.641566162109375,0.9833574295043945,-1.0516655445098877,0.39925310015678406
1790267271340566000,0.65156591796875,0.5409708023071289,-1.3079357147216797,0.4164142608642578
1790267271350566100,0.661566162109375,-0.09293842315673828,-1.2916309833526611,0.9531083106994629
1790267271360566000,0.67156591796875,-0.8776950836181641,-1.0034983158111572,1.5542776584625244
1790267271370566100,0.681566162109375,-1.8408432006835938,-0.9268566370010376,2.0017426013946533
1790267271380566000,0.69156591796875,-2.2026824951171875,-1.0783342123031616,2.161367893218994
1790267271390566100,0.701566162109375,-1.7243714332580566,-0.9811073541641235,2.0893335342407227
1790267271400566000,0.71156591796875,-0.7884578704833984,-1.0419979095458984,1.8429450988769531
1790267271410566100,0.721566162109375,-0.010181427001953125,-1.4538763761520386,1.8389710187911987
1790267271420566000,0.73156591796875,0.3575468063354492,-1.5700675249099731,1.7904510498046875
1790267271430566100,0.741566162109375,0.24166011810302734,-1.3871190547943115,1.6463069915771484
1790267271440566000,0.75156591796875,-0.2518329620361328,-1.449392318725586,1.5578069686889648
1790267271450566100,0.761566162109375,-0.8823118209838867,-1.2426525354385376,0.9614943861961365
1790267271460566000,0.77156591796875,-1.7275896072387695,-0.8068671226501465,0.6120778918266296
1790267271470566100,0.781566162109375,-2.39803409576416,-0.4856107234954834,0.8193733096122742
1790267271480566000,0.79156591796875,-2.342348575592041,-0.272169828414917,1.171125054359436
1790267271490566100,0.801566162109375,-1.6480827331542969,-0.24336624145507812,1.4513301849365234
1790267271500566000,0.81156591796875,-0.953150749206543,-0.5014348030090332,1.7929351329803467
1790267271510566100,0.821566162109375,-0.4594917297363281,-0.564138650894165,1.6599030494689941
1790267271520566000,0.83156591796875,-0.13219928741455078,-0.6999390125274658,1.318403720855713
1790267271530566100,0.841566162109375,0.42445850372314453,-0.9672982692718506,1.0798230171203613
1790267271540566000,0.85156591796875,1.399383544921875,-0.8544806241989136,1.2583485841751099
1790267271550566100,0.861566162109375,1.8602676391601562,-0.3615396022796631,1.9216253757476807
1790267271560566000,0.87156591796875,1.4667549133300781,0.13621735572814941,2.3684792518615723
1790267271570566100,0.881566162109375,0.5022182464599609,0.5022625923156738,2.3532142639160156
1790267271580566000,0.89156591796875,-0.3316802978515625,0.7565033435821533,1.9088531732559204
1790267271590566100,0.901566162109375,-0.5495471954345703,0.6398649215698242,1.0773643255233765
1790267271600566000,0.91156591796875,-0.40306854248046875,0.4039618968963623,0.18153417110443115
1790267271610566100,0.921566162109375,-0.018932342529296875,0.23826050758361816,-0.19180601835250854
1790267271620566000,0.93156591796875,0.2673149108886719,-0.05572175979614258,0.041075944900512695
1790267271630566100,0.941566162109375,0.6129589080810547,-0.2032991647720337,0.13416969776153564
1790267271640566000,0.95156591796875,0.29075145721435547,-0.25144505500793457,0.2621324062347412
1790267271650566100,0.961566162109375,-0.4219989776611328,-0.30385100841522217,0.0594325065612793
1790267271660566000,0.97156591796875,-1.123504638671875,-0.42920875549316406,0.07958078384399414
1790267271670566100,0.981566162109375,-1.5585603713989258,-0.49483370780944824,0.2651764154434204
1790267271680566000,0.99156591796875,-1.4424090385437012,-0.2678414583206177,-0.12866270542144775
1790267271690566100,1.001566162109375,-0.9140186309814453,-0.012959003448486328,-0.39115190505981445
1790267271700566000,1.01156591796875,-0.5520172119140625,-0.347118616104126,-0.033856749534606934
1790267271710566100,1.021566162109375,-0.24514293670654297,-0.7949604988098145,-0.007408499717712402
1790267271720566000,1.03156591796875,0.025829315185546875,-1.0475298166275024,-0.20213210582733154
1790267271730566100,1.041566162109375,0.24953842163085938,-1.1188725233078003,-0.2394564151763916
1790267271740566000,1.05156591796875,0.42838001251220703,-1.094373106956482,-0.009599924087524414
1790267271750566100,1.061566162109375,0.5093250274658203,-1.0852601528167725,0.5007609128952026
1790267271760566000,1.07156591796875,0.5461587905883789,-1.069429874420166,0.8647308349609375
1790267271770566100,1.081566162109375,0.7110500335693359,-1.0184640884399414,0.6922823190689087
1790267271780566000,1.09156591796875,1.2177553176879883,-0.9735124111175537,0.41669154167175293
1790267271790566100,1.101566162109375,1.625960350036621,-1.1121102571487427,0.2086467742919922
1790267271800566000,1.11156591796875,1.4831218719482422,-1.4497387409210205,0.09197056293487549
1790267271810566100,1.121566162109375,0.46566200256347656,-2.5302295684814453,1.0937039852142334
1790267271820566000,1.13156591796875,0.32320117950439453,-2.5852413177490234,0.5033564567565918
1790267271830566100,1.141566162109375,-0.06894302368164062,-2.141193151473999,-0.4742109775543213
1790267271840566000,1.15156591796875,-1.2429890632629395,-1.9496781826019287,-1.3673840761184692
1790267271850566100,1.161566162109375,-2.7688255310058594,-2.6890172958374023,-1.2060225009918213
1790267271860566000,1.17156591796875,-3.9194517135620117,-3.7202112674713135,-0.6772358417510986
1790267271870566100,1.181566162109375,-4.311879634857178,-4.44856071472168,-0.7074460983276367
1790267271880566000,1.19156591796875,-4.121234893798828,-5.065239906311035,-0.9535789489746094
1790267271890566100,1.201566162109375,-3.8136415481567383,-5.468819618225098,-1.366640567779541
1790267271900566000,1.21156591796875,-4.155516624450684,-5.959671497344971,-1.6323270797729492
1790267271910566100,1.221566162109375,-4.680986404418945,-5.921993255615234,-2.3957390785217285
1790267271920566000,1.23156591796875,-5.029387950897217,-5.343365669250488,-3.5118966102600098
1790267271930566100,1.241566162109375,-5.41730260848999,-5.175049304962158,-3.3756155967712402
1790267271940566000,1.25156591796875,-5.665822505950928,-6.296595573425293,-1.0531415939331055
1790267271950566100,1.261566162109375,-4.860090255737305,-6.989615440368652,0.4839286804199219
1790267271960566000,1.27156591796875,-2.9954488277435303,-5.629335403442383,0.402921199798584
1790267271970566100,1.281566162109375,-1.859107494354248,-4.370473861694336,1.2487030029296875
1790267271980566000,1.29156591796875,-1.9163572788238525,-3.386645793914795,2.3712148666381836
1790267271990566100,1.301566162109375,-2.4319372177124023,-2.7101776599884033,3.6958694458007812
1790267272000566000,1.31156591796875,-2.5191056728363037,-1.7793846130371094,4.802755355834961
1790267272010566100,1.321566162109375,-1.9850444793701172,0.47247323393821716,4.707674980163574
1790267272020566000,1.33156591796875,-0.9919402599334717,2.280381917953491,5.345961570739746
1790267272030566100,1.341566162109375,-1.0166325569152832,1.646835446357727,8.192394256591797
1790267272040566000,1.35156591796875,-0.513235330581665,1.393163800239563,10.284599304199219
1790267272050566100,1.361566162109375,0.27408790588378906,2.042527675628662,10.450220108032227
1790267272060566000,1.37156591796875,1.5450937747955322,1.7432740926742554,9.9876127243042
1790267272070566100,1.381566162109375,3.4206502437591553,0.7396433353424072,9.011558532714844
1790267272080566000,1.39156591796875,5.356367111206055,1.0359197854995728,6.447198867797852
1790267272090566100,1.401566162109375,6.42969274520874,1.8793773651123047,2.982881546020508
1790267272100566000,1.41156591796875,5.328855514526367,1.7112476825714111,1.0807018280029297
1790267272110566100,1.421566162109375,3.0776937007904053,1.29531991481781,-1.6704730987548828
1790267272120566000,1.43156591796875,1.8584442138671875,-0.0924147367477417,-2.6741390228271484
1790267272130566100,1.441566162109375,1.8630642890930176,-1.130751609802246,-3.012026309967041
1790267272140566000,1.45156591796875,1.8767642974853516,-0.6868717670440674,-3.459188461303711
1790267272150566100,1.461566162109375,1.1216199398040771,-0.6117476224899292,-2.9622678756713867
1790267272160566000,1.47156591796875,0.6461856365203857,-0.6882627010345459,-3.136331081390381
1790267272170566100,1.481566162109375,0.4833993911743164,-1.1931982040405273,-4.160851955413818
1790267272180566000,1.49156591796875,1.0226776599884033,-2.4640138149261475,-4.676974296569824
1790267272190566100,1.501566162109375,2.2446560859680176,-3.0978851318359375,-5.10581111907959
1790267272200566000,1.51156591796875,3.050952911376953,-3.303654432296753,-5.065483570098877
1790267272210566100,1.521566162109375,3.1070406436920166,-3.618403673171997,-4.602054595947266
1790267272220566000,1.53156591796875,3.070042848587036,-4.009515762329102,-4.442608833312988
1790267272230566100,1.541566162109375,3.1870691776275635,-4.476494312286377,-4.4973626136779785
1790267272240566000,1.55156591796875,3.0753068923950195,-4.46821928024292,-4.510678291320801
1790267272250566100,1.561566162109375,2.5479860305786133,-4.607720375061035,-3.6814393997192383
1790267272260566000,1.57156591796875,2.782323122024536,-4.86415433883667,-2.0273866653442383
1790267272270566100,1.581566162109375,3.771306276321411,-5.448082447052002,1.188950538635254
1790267272280566000,1.59156591796875,3.9931089878082275,-7.292680263519287,6.184843063354492
1790267272290566100,1.601566162109375,3.6865148544311523,-6.480489253997803,8.443380355834961
1790267272300566000,1.61156591796875,3.0393261909484863,-2.996701717376709,8.391775131225586
1790267272310566100,1.621566162109375,2.0560085773468018,-0.39342403411865234,10.744443893432617
1790267272320566000,1.63156591796875,0.41580522060394287,0.5060901641845703,14.158187866210938
1790267272330566100,1.641566162109375,-1.6716656684875488,1.3804206848144531,15.679462432861328
1790267272340566000,1.65156591796875,-2.1441917419433594,2.4696238040924072,15.029792785644531
1790267272350566100,1.661566162109375,-1.6199764013290405,3.1111321449279785,13.165779113769531
1790267272360566000,1.67156591796875,-1.711398959159851,3.683283805847168,11.366594314575195
1790267272370566100,1.681566162109375,-2.8353934288024902,4.372328758239746,11.699899673461914
1790267272380566000,1.69156591796875,-4.886857986450195,5.321423053741455,13.416179656982422
1790267272390566100,1.701566162109375,-7.112861633300781,5.887076377868652,13.145201683044434
1790267272400566000,1.71156591796875,-8.535669326782227,6.232458591461182,11.700236320495605
1790267272410566100,1.721566162109375,-9.623419761657715,5.900113582611084,8.329302787780762
1790267272420566000,1.73156591796875,-8.856329917907715,4.976302146911621,4.046904563903809
1790267272430566100,1.741566162109375,-6.184321403503418,4.147433280944824,0.7860898971557617
1790267272440566000,1.75156591796875,-3.415560722351074,3.9825539588928223,-1.7118425369262695
1790267272450566100,1.761566162109375,-2.0806336402893066,4.160018444061279,-2.5256495475769043
1790267272460566000,1.77156591796875,-2.45589017868042,4.145890235900879,-1.0800848007202148
1790267272470566100,1.781566162109375,-2.990004062652588,3.897282600402832,-0.23740005493164062
1790267272480566000,1.79156591796875,-3.0233564376831055,3.561936616897583,-2.2844643592834473
1790267272490566100,1.801566162109375,-2.2505860328674316,2.3875715732574463,-5.8880720138549805
1790267272500566000,1.81156591796875,-2.5291481018066406,0.29711127281188965,-10.290266036987305
1790267272510566100,1.821566162109375,-3.031186580657959,-0.8839352130889893,-12.231611251831055
1790267272520566000,1.83156591796875,-1.8384346961975098,-1.824070692062378,-10.73408317565918
1790267272530566100,1.841566162109375,-0.8922817707061768,-1.993058204650879,-7.033723831176758
1790267272540566000,1.85156591796875,-0.19478440284729004,-0.682218074798584,-2.3367881774902344
1790267272550566100,1.861566162109375,1.6184006929397583,-0.31786787509918213,-0.5199832916259766
1790267272560566000,1.87156591796875,2.017125368118286,-2.7287917137145996,-3.299513816833496
1790267272570566100,1.881566162109375,-0.41233253479003906,-1.7604471445083618,-4.015362739562988
1790267272580566000,1.89156591796875,-5.503021240234375,0.5802208781242371,-5.537178039550781
1790267272590566100,1.901566162109375,0.7785317897796631,4.744896411895752,-9.282485008239746
1790267272600566000,1.91156591796875,5.33209228515625,-3.1905133724212646,-2.7180604934692383
1790267272610566100,1.921566162109375,8.775777816772461,-0.04128611087799072,0.21807289123535156
1790267272620566000,1.93156591796875,2.2468101978302,0.16665709018707275,4.565306663513184
1790267272630566100,1.941566162109375,-2.610896587371826,2.5833611488342285,5.027657508850098
1790267272640566000,1.95156591796875,-5.4133687019348145,3.1411213874816895,3.161436080932617
1790267272650566100,1.961566162109375,-4.702977180480957,2.6965627670288086,0.5742216110229492
1790267272660566000,1.97156591796875,-1.7447261810302734,-0.047702252864837646,-1.4015750885009766
1790267272670566100,1.981566162109375,0.5851044654846191,-1.829157829284668,-2.7994375228881836
1790267272680566000,1.99156591796875,0.026181697845458984,-2.098816156387329,-1.9133939743041992
1790267272690566100,2.001566162109375,-1.2463841438293457,-2.0611870288848877,-2.2408666610717773
1790267272700566000,2.01156591796875,-1.8483891487121582,-2.8319790363311768,-1.8072433471679688
1790267272710566100,2.021566162109375,-0.10798168182373047,-4.352540016174316,-0.05376768112182617
1790267272720566000,2.03156591796875,0.9250831604003906,-5.929995536804199,0.5471615791320801
1790267272730566100,2.041566162109375,3.1876397132873535,-6.342756271362305,2.531076431274414
1790267272740566000,2.05156591796875,5.0870561599731445,-7.058375835418701,3.378664493560791
1790267272750566100,2.061566162109375,5.352969646453857,-9.281055450439453,2.581890106201172
1790267272760566000,2.07156591796875,4.679229259490967,-10.260971069335938,2.793288230895996
1790267272770566100,2.081566162109375,2.642685890197754,-8.550322532653809,3.5153632164001465
1790267272780566000,2.09156591796875,0.18592453002929688,-8.273833274841309,0.5178508758544922
1790267272790566100,2.101566162109375,-1.4080414772033691,-6.869212627410889,-2.4324774742126465
1790267272800566000,2.11156591796875,-2.5905776023864746,-4.613621711730957,-4.695059299468994
1790267272810566100,2.121566162109375,-4.841675758361816,-1.2607040405273438,-3.4365596771240234
1790267272820566000,2.13156591796875,-6.188504219055176,0.9566628932952881,-1.4419655799865723
1790267272830566100,2.141566162109375,-4.555519104003906,0.956655740737915,-0.6834187507629395
1790267272840566000,2.15156591796875,-0.977135181427002,0.3781709671020508,-0.6471633911132812
1790267272850566100,2.161566162109375,2.156674385070801,-0.6160898208618164,-0.9150485992431641
1790267272860566000,2.17156591796875,4.008520126342773,-1.4718108177185059,-1.455587387084961
1790267272870566100,2.181566162109375,5.155579090118408,-2.121708869934082,-0.8748607635498047
1790267272880566000,2.19156591796875,4.287970542907715,-2.044593334197998,1.1065587997436523
1790267272890566100,2.201566162109375,1.686903953552246,-0.37178564071655273,3.091855525970459
1790267272900566000,2.21156591796875,0.20086669921875,1.960597038269043,5.059992790222168
1790267272910566100,2.221566162109375,-0.07078123092651367,3.6352906227111816,6.240658283233643
1790267272920566000,2.23156591796875,1.194230079650879,4.418785572052002,5.098552227020264
1790267272930566100,2.241566162109375,1.4717283248901367,4.615665435791016,3.2594375610351562
1790267272940566000,2.25156591796875,1.1238722801208496,3.9732484817504883,1.0317902565002441
1790267272950566100,2.261566162109375,1.3934292793273926,3.438971996307373,-1.5271177291870117
1790267272960566000,2.27156591796875,1.5165562629699707,3.458589553833008,-2.1068520545959473
1790267272970566100,2.281566162109375,1.035834789276123,2.6475753784179688,-0.39937543869018555
1790267272980566000,2.29156591796875,-0.8867111206054688,0.6123952865600586,2.148858070373535
1790267272990566100,2.301566162109375,-2.960496425628662,-0.6873588562011719,2.7853779792785645
1790267273000566000,2.31156591796875,-4.554291725158691,-0.8973612785339355,2.328184127807617
1790267273010566100,2.321566162109375,-2.91287899017334,-0.5324954986572266,1.5031728744506836
1790267273020566000,2.33156591796875,0.02089405059814453,0.5492663383483887,0.9672369956970215
1790267273030566100,2.341566162109375,1.2244131565093994,1.6217660903930664,0.19828319549560547
1790267273040566000,2.35156591796875,1.3547797203063965,2.349435806274414,0.10417985916137695
1790267273050566100,2.361566162109375,1.954136848449707,2.554568290710449,0.36009740829467773
1790267273060566000,2.37156591796875,3.102503776550293,2.6942148208618164,0.4376087188720703
1790267273070566100,2.381566162109375,4.162812232971191,2.202763080596924,-0.5050077438354492
1790267273080566000,2.39156591796875,4.741369724273682,1.156996726989746,-2.3961377143859863
1790267273090566100,2.401566162109375,3.982733964920044,0.5504255294799805,-3.7605154514312744
1790267273100566000,2.41156591796875,1.5982074737548828,0.08409690856933594,-3.0981154441833496
1790267273110566100,2.421566162109375,-0.581993579864502,-0.3347320556640625,-2.0786497592926025
1790267273120566000,2.43156591796875,-1.4515602588653564,-0.7186884880065918,-1.4173929691314697
1790267273130566100,2.441566162109375,-1.7319505214691162,-1.0022015571594238,-0.6628355979919434
1790267273140566000,2.45156591796875,-1.2061238288879395,-1.293111801147461,-0.19721651077270508
1790267273150566100,2.461566162109375,-0.1657710075378418,-1.4508867263793945,0.14850091934204102
1790267273160566000,2.47156591796875,1.0620708465576172,-1.1292386054992676,-0.16310739517211914
1790267273170566100,2.481566162109375,1.6774712800979614,-0.8498878479003906,-0.8646297454833984
1790267273180566000,2.49156591796875,1.910806655883789,-0.439633846282959,-1.6884028911590576
1790267273190566100,2.501566162109375,1.9274598360061646,6.551368236541748,-2.863771438598633
1790267273200566000,2.51156591796875,0.4362637996673584,14.432164192199707,-3.3817975521087646
1790267273210566100,2.521566162109375,4.893476486206055,6.742941856384277,-0.548898458480835
1790267273220566000,2.53156591796875,6.032569885253906,1.8513612747192383,0.1576831340789795
1790267273230566100,2.541566162109375,4.850117206573486,-0.009675025939941406,-0.212066650390625
1790267273240566000,2.55156591796875,1.3466455936431885,-0.8992853164672852,-0.886913537979126
1790267273250566100,2.561566162109375,-2.9378302097320557,-1.4635143280029297,-2.154912233352661
1790267273260566000,2.57156591796875,-5.539369583129883,-2.5578813552856445,-3.089803695678711
1790267273270566100,2.581566162109375,-4.358386993408203,-3.343533515930176,-2.7939658164978027
1790267273280566000,2.59156591796875,-0.3666696548461914,-4.314661026000977,-2.051158905029297
1790267273290566100,2.601566162109375,5.035425186157227,-5.33154296875,-0.6199188232421875
1790267273300566000,2.61156591796875,7.432353973388672,-4.865148544311523,1.3653225898742676
1790267273310566100,2.621566162109375,4.447615623474121,-4.1355133056640625,1.9903979301452637
1790267273320566000,2.63156591796875,1.0991277694702148,-4.069182395935059,3.1951744556427
1790267273330566100,2.641566162109375,-0.9487770795822144,-5.142986297607422,4.369548797607422
1790267273340566000,2.65156591796875,0.21437442302703857,-5.560973167419434,4.253430366516113
1790267273350566100,2.661566162109375,0.26398420333862305,-5.658368110656738,2.4501655101776123
1790267273360566000,2.67156591796875,-1.7382265329360962,-4.975899696350098,0.7474138736724854
1790267273370566100,2.681566162109375,-2.2737462520599365,-4.296531677246094,-0.584108829498291
1790267273380566000,2.69156591796875,-1.8116402626037598,-4.285840034484863,-1.3254693746566772
1790267273390566100,2.701566162109375,-0.8581335544586182,-3.943608283996582,-2.340078353881836
1790267273400566000,2.71156591796875,-0.11596024036407471,-3.0709409713745117,-3.4570465087890625
1790267273410566100,2.721566162109375,0.1741344928741455,-2.1879663467407227,-4.197538375854492
1790267273420566000,2.73156591796875,-0.05656695365905762,-2.0987768173217773,-3.323781967163086
1790267273430566100,2.741566162109375,-0.06503760814666748,-2.5625905990600586,-2.0917978286743164
1790267273440566000,2.75156591796875,0.3740699291229248,-2.3458194732666016,-1.1710331439971924
1790267273450566100,2.761566162109375,0.8301186561584473,-1.4575462341308594,-0.642308235168457
1790267273460566000,2.77156591796875,0.8476709127426147,-0.3787660598754883,-0.6922047138214111
1790267273470566100,2.781566162109375,-0.018545031547546387,1.2719879150390625,0.10540628433227539
1790267273480566000,2.79156591796875,-0.46537625789642334,1.4563441276550293,1.719123125076294
1790267273490566100,2.801566162109375,0.1227959394454956,0.9261264801025391,2.88566517829895
1790267273500566000,2.81156591796875,1.1605578660964966,0.7070417404174805,2.1256136894226074
1790267273510566100,2.821566162109375,1.8180633783340454,0.6641607284545898,0.33779144287109375
1790267273520566000,2.83156591796875,1.8063364028930664,0.3351411819458008,-0.7044565677642822
1790267273530566100,2.841566162109375,0.6983276605606079,-0.5609102249145508,-0.8716487884521484
1790267273540566000,2.85156591796875,-0.2949404716491699,-1.102330207824707,-0.676929235458374
1790267273550566100,2.861566162109375,-0.5724036693572998,-1.0503501892089844,-0.8427102565765381
1790267273560566000,2.87156591796875,-0.5894906520843506,-0.8761711120605469,-1.088249921798706
1790267273570566100,2.881566162109375,-0.6448676586151123,-0.3682870864868164,-1.1287156343460083
1790267273580566000,2.89156591796875,-0.5187647342681885,0.18715190887451172,-1.08961820602417
1790267273590566100,2.901566162109375,-0.52734375,0.6106081008911133,-1.0046038627624512
1790267273600566000,2.91156591796875,-0.2867603302001953,0.8104152679443359,-0.8324155807495117
1790267273610566100,2.921566162109375,0.6383917331695557,0.8524684906005859,-0.5095157623291016
1790267273620566000,2.93156591796875,2.1454546451568604,2.0108485221862793,-0.06646275520324707
1790267273630566100,2.941566162109375,2.401850700378418,3.985653877258301,0.23743391036987305
1790267273640566000,2.95156591796875,2.4314017295837402,1.7115392684936523,1.3933444023132324
1790267273650566100,2.961566162109375,2.0129122734069824,-1.1983671188354492,1.7617013454437256
1790267273660566000,2.97156591796875,0.7093695402145386,-0.8458080291748047,0.4865241050720215
1790267273670566100,2.981566162109375,-0.37841343879699707,-0.2286224365234375,0.508267879486084
1790267273680566000,2.99156591796875,0.06817328929901123,0.4845705032348633,1.010793685913086
1790267273690566100,3.001566162109375,0.7472226619720459,1.0815153121948242,0.9942300319671631
1790267273700566000,3.01156591796875,0.5470988750457764,1.133753776550293,0.32361316680908203
1790267273710566100,3.021566162109375,1.3163825273513794,0.7839698791503906,0.015565156936645508
1790267273720566000,3.03156591796875,1.5031203031539917,0.814600944519043,-0.39040660858154297
1790267273730566100,3.041566162109375,0.6882792711257935,0.30527687072753906,-0.8512668609619141
1790267273740566000,3.05156591796875,-0.764272928237915,-0.7599878311157227,-0.9965701103210449
1790267273750566100,3.061566162109375,1.0213465690612793,-1.316391944885254,0.2315833568572998
1790267273760566000,3.07156591796875,1.5156834125518799,-0.7942028045654297,0.555717945098877
1790267273770566100,3.081566162109375,1.344671368598938,-1.2816028594970703,-0.29639601707458496
1790267273780566000,3.09156591796875,1.2349576950073242,-0.5720300674438477,-1.1094944477081299
1790267273790566100,3.101566162109375,1.6046468019485474,-0.14582443237304688,-1.4462237358093262
1790267273800566000,3.11156591796875,1.890297770500183,-0.16101551055908203,-2.014134168624878
1790267273810566100,3.121566162109375,1.4734350442886353,-0.7125387191772461,-1.9981406927108765
1790267273820566000,3.13156591796875,1.5980758666992188,-1.208486557006836,-1.8159042596817017
1790267273830566100,3.141566162109375,2.4136970043182373,-2.1067895889282227,-1.7402622699737549
1790267273840566000,3.15156591796875,0.2335052490234375,-1.993607521057129,-0.638042688369751
1790267273850566100,3.161566162109375,-1.8541960716247559,-4.649850845336914,-2.724029064178467
1790267273860566000,3.17156591796875,-3.349015235900879,-3.870511054992676,-3.326394557952881
1790267273870566100,3.181566162109375,-3.307279109954834,-3.9478273391723633,-2.97517466545105
1790267273880566000,3.19156591796875,-2.6857504844665527,-3.018061637878418,-2.30045223236084
1790267273890566100,3.201566162109375,-2.129164457321167,-2.3796424865722656,-1.7911360263824463
1790267273900566000,3.21156591796875,-0.8896790742874146,-1.5081720352172852,-1.5059013366699219
1790267273910566100,3.221566162109375,0.2089138627052307,-0.7061290740966797,-1.366410732269287
1790267273920566000,3.23156591796875,1.0876816511154175,0.2563743591308594,-0.46875667572021484
1790267273930566100,3.241566162109375,1.885441541671753,0.9765243530273438,1.0400094985961914
1790267273940566000,3.25156591796875,2.5210065841674805,1.2210760116577148,2.4761829376220703
1790267273950566100,3.261566162109375,1.842038631439209,1.594038963317871,2.328334331512451
1790267273960566000,3.27156591796875,0.8455274105072021,1.6101274490356445,2.33272385597229
1790267273970566100,3.281566162109375,0.8531707525253296,0.935882568359375,2.240785598754883
1790267273980566000,3.29156591796875,0.9574589133262634,0.23214149475097656,1.491485834121704
1790267273990566100,3.301566162109375,1.64982271194458,0.3232889175415039,1.079040765762329
1790267274000566000,3.31156591796875,1.9139137268066406,0.6421852111816406,1.3689677715301514
1790267274010566100,3.321566162109375,1.7510590553283691,1.824270248413086,2.499392509460449
1790267274020566000,3.33156591796875,0.9031304121017456,2.52616024017334,3.298281669616699
1790267274030566100,3.341566162109375,0.02118438482284546,2.3280506134033203,3.0084221363067627
1790267274040566000,3.35156591796875,-0.2531625032424927,1.2467327117919922,2.3225274085998535
1790267274050566100,3.361566162109375,0.3497932553291321,0.8178691864013672,2.335841655731201
1790267274060566000,3.37156591796875,1.2053380012512207,1.034224510192871,2.7212257385253906
1790267274070566100,3.381566162109375,1.314276099205017,0.8974637985229492,2.145205020904541
1790267274080566000,3.39156591796875,0.8918222784996033,0.5947113037109375,1.339664101600647
1790267274090566100,3.401566162109375,0.7920476198196411,0.6086883544921875,1.0827662944793701
1790267274100566000,3.41156591796875,0.8270814418792725,0.8612384796142578,1.1228435039520264
1790267274110566100,3.421566162109375,0.8734601736068726,1.1051435470581055,0.9534798860549927
1790267274120566000,3.43156591796875,1.17644202709198,0.5131721496582031,0.5314623117446899
1790267274130566100,3.441566162109375,1.6443915367126465,-1.136784553527832,-0.32193148136138916
1790267274140566000,3.45156591796875,1.783994436264038,-1.6790952682495117,-1.403173565864563
1790267274150566100,3.461566162109375,-1.233336091041565,-1.4347896575927734,-1.4332098960876465
1790267274160566000,3.47156591796875,-1.593589425086975,-1.8411483764648438,-0.39244401454925537
1790267274170566100,3.481566162109375,0.2621605396270752,-2.0710954666137695,0.07475042343139648
1790267274180566000,3.49156591796875,1.200128436088562,-0.2855558395385742,0.45263075828552246
1790267274190566100,3.501566162109375,1.304783821105957,1.9742040634155273,0.9793312549591064
1790267274200566000,3.51156591796875,1.3201954364776611,3.2437381744384766,2.0058670043945312
1790267274210566100,3.521566162109375,2.1457154750823975,3.4322023391723633,2.6882107257843018
1790267274220566000,3.53156591796875,1.5435612201690674,2.8342432975769043,3.0021021366119385
1790267274230566100,3.541566162109375,1.1506105661392212,-0.0056934356689453125,2.4991414546966553
1790267274240566000,3.55156591796875,2.144778251647949,-2.7881240844726562,1.9939610958099365
1790267274250566100,3.561566162109375,-0.8082501888275146,-3.3672866821289062,1.6603493690490723
1790267274260566000,3.57156591796875,-1.6827025413513184,-3.4373931884765625,-0.52581787109375
1790267274270566100,3.581566162109375,-1.0441863536834717,-3.6216354370117188,-2.902489185333252
1790267274280566000,3.59156591796875,0.802710771560669,-3.0906457901000977,-5.2209978103637695
1790267274290566100,3.601566162109375,2.455531120300293,-2.273768424987793,-5.844630718231201
1790267274300566000,3.61156591796875,2.3623392581939697,-1.2111330032348633,-5.42300271987915
1790267274310566100,3.621566162109375,1.9473497867584229,-0.1602010726928711,-3.4835076332092285
1790267274320566000,3.63156591796875,1.6743264198303223,0.1815929412841797,-1.8587208986282349
1790267274330566100,3.641566162109375,1.5385301113128662,-0.0249176025390625,-1.0032724142074585
1790267274340566000,3.65156591796875,1.7157484292984009,-0.11564445495605469,-0.40270018577575684
1790267274350566100,3.661566162109375,1.9141771793365479,0.02020549774169922,-0.08540654182434082
1790267274360566000,3.67156591796875,1.872129201889038,0.418121337890625,0.2776603698730469
1790267274370566100,3.681566162109375,1.5364322662353516,1.3464932441711426,1.2643399238586426
1790267274380566000,3.69156591796875,0.4319624900817871,2.043513298034668,1.734485387802124
1790267274390566100,3.701566162109375,-0.0952916145324707,1.9129109382629395,1.8732953071594238
1790267274400566000,3.71156591796875,-0.04408597946166992,0.9296369552612305,1.7701358795166016
1790267274410566100,3.721566162109375,-0.3983006477355957,-0.1872539520263672,1.2776165008544922
1790267274420566000,3.73156591796875,-0.8809123039245605,-0.9536075592041016,1.0273034572601318
1790267274430566100,3.741566162109375,-0.5177304744720459,-1.248891830444336,1.1463217735290527
1790267274440566000,3.75156591796875,0.6625790596008301,-1.193150520324707,0.9007289409637451
1790267274450566100,3.761566162109375,1.1157522201538086,-0.4722881317138672,0.6710186004638672
1790267274460566000,3.77156591796875,0.27571094036102295,-0.11571216583251953,0.7205877304077148
1790267274470566100,3.781566162109375,0.3237367868423462,0.33399105072021484,-0.6598050594329834
1790267274480566000,3.79156591796875,0.022727012634277344,0.6363592147827148,-1.7654789686203003
1790267274490566100,3.801566162109375,0.8186581134796143,0.21169662475585938,-0.9132263660430908
1790267274500566000,3.81156591796875,2.776407241821289,0.1173868179321289,0.10889530181884766
1790267274510566100,3.821566162109375,4.136088848114014,-0.6918220520019531,0.3652963638305664
1790267274520566000,3.83156591796875,2.4652884006500244,-0.5681238174438477,-0.25345301628112793
1790267274530566100,3.841566162109375,1.195697546005249,-0.3214263916015625,-0.10847043991088867
1790267274540566000,3.85156591796875,0.8565092086791992,0.22732162475585938,0.2876605987548828
1790267274550566100,3.861566162109375,0.7628287076950073,0.5693464279174805,0.30051541328430176
1790267274560566000,3.87156591796875,0.9582068920135498,0.5862674713134766,0.13608694076538086
1790267274570566100,3.881566162109375,1.2031182050704956,0.3226442337036133,-0.06032371520996094
1790267274580566000,3.89156591796875,1.177720069885254,0.10559558868408203,-0.10001850128173828
1790267274590566100,3.901566162109375,0.6466431617736816,0.15833282470703125,-0.055283308029174805
1790267274600566000,3.91156591796875,0.09585165977478027,0.2861976623535156,0.07732152938842773
1790267274610566100,3.921566162109375,1.4685598611831665,0.6727581024169922,0.02614307403564453
1790267274620566000,3.93156591796875,3.962327003479004,0.5135698318481445,0.5546901226043701
1790267274630566100,3.941566162109375,5.537662506103516,0.295013427734375,2.2741191387176514
1790267274640566000,3.95156591796875,3.1960771083831787,2.5145387649536133,2.6395492553710938
1790267274650566100,3.961566162109375,2.8052573204040527,1.7757883071899414,3.3120195865631104
1790267274660566000,3.97156591796875,1.3902260065078735,-2.681216239929199,1.837484359741211
1790267274670566100,3.981566162109375,-1.8556056022644043,-4.275198936462402,-0.4590904712677002
1790267274680566000,3.99156591796875,-3.7398860454559326,-2.5841073989868164,-1.4807703495025635
1790267274690566100,4.001566162109375,-2.3405001163482666,-0.4906301498413086,-1.76071035861969
1790267274700566000,4.01156591796875,-0.2367839813232422,1.8511104583740234,-0.9142351150512695
1790267274710566100,4.021566162109375,3.3530688285827637,1.7533740997314453,0.3534095287322998
1790267274720566000,4.03156591796875,5.00278377532959,0.5382461547851562,-0.13464140892028809
1790267274730566100,4.041566162109375,2.105286121368408,-1.4784183502197266,-0.5807533264160156
1790267274740566000,4.05156591796875,-0.2224726676940918,-2.3696212768554688,-0.27298474311828613
1790267274750566100,4.061566162109375,-1.3513338565826416,-3.734164237976074,0.01782083511352539
1790267274760566000,4.07156591796875,-0.8373948335647583,-4.122614860534668,-0.10522079467773438
1790267274770566100,4.081566162109375,-0.3884204626083374,-3.529788017272949,-0.6075122356414795
1790267274780566000,4.09156591796875,0.03543126583099365,-2.9366846084594727,-0.7387468814849854
1790267274790566100,4.101566162109375,0.3978358507156372,-2.99660587310791,-0.9881269931793213
1790267274800566000,4.11156591796875,-0.3184152841567993,-2.920355796813965,-1.9708411693572998
1790267274810566100,4.121566162109375,0.9671938419342041,-0.5671024322509766,-2.2039003372192383
1790267274820566000,4.13156591796875,1.6085683107376099,0.7482986450195312,-0.32605719566345215
1790267274830566100,4.141566162109375,0.8825429081916809,0.21896743774414062,1.2486765384674072
1790267274840566000,4.15156591796875,0.3113008737564087,0.027776718139648438,1.0201456546783447
1790267274850566100,4.161566162109375,0.49839144945144653,0.7230539321899414,0.6972982883453369
1790267274860566000,4.17156591796875,0.25911879539489746,0.724029541015625,0.5486233234405518
1790267274870566100,4.181566162109375,1.34722101688385,0.45170021057128906,0.8044006824493408
1790267274880566000,4.19156591796875,0.7805531620979309,0.02532672882080078,1.0238267183303833
1790267274890566100,4.201566162109375,-0.4807668924331665,0.8036708831787109,1.4498813152313232
1790267274900566000,4.21156591796875,-0.32017964124679565,1.1318140029907227,1.6199030876159668
1790267274910566100,4.221566162109375,0.6225642561912537,-0.16497421264648438,1.073065161705017
1790267274920566000,4.23156591796875,2.1346898078918457,1.4950714111328125,-1.3484829664230347
1790267274930566100,4.241566162109375,3.447476863861084,3.079036235809326,-2.202718734741211
1790267274940566000,4.25156591796875,3.415745258331299,1.7259187698364258,-1.4312933683395386
1790267274950566100,4.261566162109375,1.7655858993530273,1.3557004928588867,-1.0720655918121338
1790267274960566000,4.27156591796875,1.0239542722702026,2.0087313652038574,-0.6151419878005981
1790267274970566100,4.281566162109375,0.22685495018959045,1.4925460815429688,0.22291898727416992
1790267274980566000,4.29156591796875,-0.2857316732406616,0.8731927871704102,0.5207115411758423
1790267274990566100,4.301566162109375,-0.0876738429069519,0.8132820129394531,0.9843401908874512
1790267275000566000,4.31156591796875,1.0363317728042603,0.25478172302246094,1.5427498817443848
1790267275010566100,4.321566162109375,2.2648403644561768,-0.2507181167602539,1.5245857238769531
1790267275020566000,4.33156591796875,2.426909923553467,-0.28411865234375,1.6887235641479492
1790267275030566100,4.341566162109375,1.2502224445343018,0.024843215942382812,2.252704620361328
1790267275040566000,4.35156591796875,-0.032129526138305664,0.07757186889648438,2.3399627208709717
1790267275050566100,4.361566162109375,-0.9523614048957825,-0.15167999267578125,1.4655934572219849
1790267275060566000,4.37156591796875,-2.2103936672210693,-0.026680946350097656,0.7898241281509399
1790267275070566100,4.381566162109375,-2.1811301708221436,-0.2801542282104492,0.14618194103240967
1790267275080566000,4.39156591796875,-2.001032590866089,-0.7696027755737305,1.0891449451446533
1790267275090566100,4.401566162109375,-1.338379144668579,-0.16633224487304688,1.66546630859375
1790267275100566000,4.41156591796875,-0.7554267644882202,0.6333513259887695,2.0004427433013916
1790267275110566100,4.421566162109375,-0.21073734760284424,1.1977052688598633,2.457103967666626
1790267275120566000,4.43156591796875,0.16508954763412476,1.845890998840332,3.309302568435669
1790267275130566100,4.441566162109375,0.4759526252746582,1.4361000061035156,2.6525700092315674
1790267275140566000,4.45156591796875,0.29265183210372925,0.6008472442626953,2.198376178741455
1790267275150566100,4.461566162109375,0.05558156967163086,0.4572029113769531,2.065394878387451
1790267275160566000,4.47156591796875,-0.30835258960723877,0.44600486755371094,2.3923544883728027
1790267275170566100,4.481566162109375,-0.5384634733200073,0.5507392883300781,3.0158207416534424
1790267275180566000,4.49156591796875,-0.7066432237625122,0.7731151580810547,3.2414543628692627
1790267275190566100,4.501566162109375,-0.9330956935882568,0.7091531753540039,3.075700283050537
1790267275200566000,4.51156591796875,-0.6825485229492188,0.6744747161865234,2.844024181365967
1790267275210566100,4.521566162109375,-1.4686686992645264,0.3546419143676758,2.9648900032043457
1790267275220566000,4.53156591796875,-1.96903395652771,-0.5649700164794922,3.1661107540130615
1790267275230566100,4.541566162109375,-1.707594394683838,-2.2606515884399414,2.248175859451294
1790267275240566000,4.55156591796875,-1.4308850765228271,-4.9930620193481445,-0.25206637382507324
1790267275250566100,4.561566162109375,0.1301565170288086,-6.643223762512207,-3.5425615310668945
1790267275260566000,4.57156591796875,3.053339958190918,-5.07834529876709,-6.274721622467041
1790267275270566100,4.581566162109375,4.887580871582031,-2.964909553527832,-6.915301322937012
1790267275280566000,4.59156591796875,6.083900451660156,-1.3149442672729492,-6.074962615966797
1790267275290566100,4.601566162109375,5.5918803215026855,-0.1421670913696289,-5.110042572021484
1790267275300566000,4.61156591796875,3.446873188018799,0.0013437271118164062,-3.734848737716675
1790267275310566100,4.621566162109375,0.6671841144561768,-0.8216886520385742,-2.3066399097442627
1790267275320566000,4.63156591796875,-0.8609347343444824,-1.5893778800964355,-0.8343973159790039
1790267275330566100,4.641566162109375,-0.9840488433837891,-2.1717371940612793,0.8497357368469238
1790267275340566000,4.65156591796875,-0.09242010116577148,-2.41471004486084,2.187775135040283
1790267275350566100,4.661566162109375,1.050182580947876,-2.545161724090576,3.4721648693084717
1790267275360566000,4.67156591796875,1.6147756576538086,-2.523563861846924,3.8849642276763916
1790267275370566100,4.681566162109375,1.2057933807373047,-2.581674575805664,3.1030941009521484
1790267275380566000,4.69156591796875,0.24770021438598633,-2.613617420196533,2.0422022342681885
1790267275390566100,4.701566162109375,-1.176095962524414,-2.3850650787353516,1.0707602500915527
1790267275400566000,4.71156591796875,-2.374978542327881,-2.5356554985046387,0.8796873092651367
1790267275410566100,4.721566162109375,-2.526510238647461,-3.0142574310302734,1.5251686573028564
1790267275420566000,4.73156591796875,-1.7855033874511719,-3.171645164489746,2.329118251800537
1790267275430566100,4.741566162109375,-1.2674822807312012,-3.0330934524536133,3.432814598083496
1790267275440566000,4.75156591796875,-0.30109453201293945,-2.3760643005371094,3.94681453704834
1790267275450566100,4.761566162109375,-0.9714012145996094,-1.9986772537231445,3.974219799041748
1790267275460566000,4.77156591796875,-2.3244528770446777,-1.891850471496582,3.271340847015381
1790267275470566100,4.781566162109375,-3.0936055183410645,-2.1398963928222656,2.893476963043213
1790267275480566000,4.79156591796875,-3.094048500061035,-2.334347724914551,2.922402858734131
1790267275490566100,4.801566162109375,-2.527139186859131,-2.876713752746582,3.465637683868408
1790267275500566000,4.81156591796875,-1.459965705871582,-3.4147863388061523,4.3934526443481445
1790267275510566100,4.821566162109375,-0.552711009979248,-3.6851887702941895,4.948055744171143
1790267275520566000,4.83156591796875,-0.0012102127075195312,-3.750974655151367,4.964058876037598
1790267275530566100,4.841566162109375,0.6154947280883789,-3.413778781890869,4.5386152267456055
1790267275540566000,4.85156591796875,3.9439821243286133,-2.883091926574707,2.844696521759033
1790267275550566100,4.861566162109375,4.531657695770264,-2.490131378173828,0.8012175559997559
1790267275560566000,4.87156591796875,4.4410719871521,-2.5667896270751953,-1.202531337738037
1790267275570566100,4.881566162109375,4.282756805419922,-2.639932870864868,-2.5375161170959473
1790267275580566000,4.89156591796875,3.451702117919922,-1.7073180675506592,-2.3446924686431885
1790267275590566100,4.901566162109375,2.930813789367676,-0.4296586513519287,-1.5158655643463135
1790267275600566000,4.91156591796875,2.903337001800537,0.8212056159973145,-0.999880313873291
1790267275610566100,4.921566162109375,3.6305103302001953,1.2837741374969482,-0.9551877975463867
1790267275620566000,4.93156591796875,4.862304210662842,1.471492052078247,-1.2268311977386475
1790267275630566100,4.941566162109375,6.251619815826416,1.910315990447998,-1.4771069288253784
1790267275640566000,4.95156591796875,7.112715721130371,2.2516109943389893,-1.145016074180603
1790267275650566100,4.961566162109375,6.643615245819092,2.3202762603759766,-0.6647300720214844
1790267275660566000,4.97156591796875,5.502010345458984,1.7761763334274292,-0.558173418045044
1790267275670566100,4.981566162109375,4.689499378204346,1.074515461921692,-0.9862549304962158
1790267275680566000,4.99156591796875,3.5741920471191406,0.5242871046066284,-2.0057506561279297
1790267275690566100,5.001566162109375,3.386061191558838,0.33440959453582764,-2.642216682434082
1790267275700566000,5.01156591796875,2.621304512023926,0.10729360580444336,-2.859633684158325
1790267275710566100,5.021566162109375,2.287593364715576,-0.15293073654174805,-2.734111785888672
1790267275720566000,5.03156591796875,2.8139357566833496,0.04031169414520264,-1.8511894941329956
1790267275730566100,5.041566162109375,2.4865713119506836,0.05061757564544678,-1.07133948802948
1790267275740566000,5.05156591796875,1.7064223289489746,-0.4645184278488159,-0.1524951457977295
1790267275750566100,5.061566162109375,1.4915895462036133,-0.8719539642333984,1.3695905208587646
1790267275760566000,5.07156591796875,1.8553752899169922,-0.5693566203117371,2.234708309173584
1790267275770566100,5.081566162109375,2.5141096115112305,-0.21589571237564087,2.007136106491089
1790267275780566000,5.09156591796875,2.084756374359131,0.13261204957962036,1.1611738204956055
1790267275790566100,5.101566162109375,1.171372413635254,0.27075499296188354,0.5062997341156006
1790267275800566000,5.11156591796875,1.4911746978759766,0.21582072973251343,-0.02476334571838379
1790267275810566100,5.121566162109375,2.2382993698120117,-0.09885931015014648,-0.4769878387451172
1790267275820566000,5.13156591796875,2.623159408569336,-0.3856608271598816,-1.0676071643829346
1790267275830566100,5.141566162109375,3.4301557540893555,-0.5256080031394958,-2.047150135040283
1790267275840566000,5.15156591796875,3.820737361907959,-0.6495721936225891,-3.2579658031463623
1790267275850566100,5.161566162109375,3.6726574897766113,-0.6790735721588135,-3.708087921142578
1790267275860566000,5.17156591796875,3.7845559120178223,-0.3192509412765503,-3.5223684310913086
1790267275870566100,5.181566162109375,4.307059288024902,0.3788915276527405,-3.406285047531128
1790267275880566000,5.19156591796875,3.9717369079589844,1.1897300481796265,-3.3749825954437256
1790267275890566100,5.201566162109375,3.381103515625,2.0067942142486572,-2.7711572647094727
1790267275900566000,5.21156591796875,3.1180124282836914,2.5916340351104736,-2.2044548988342285
1790267275910566100,5.221566162109375,3.489499568939209,2.798738718032837,-1.7605631351470947
1790267275920566000,5.23156591796875,2.9922757148742676,2.4029555320739746,-1.8177907466888428
1790267275930566100,5.241566162109375,2.9110727310180664,1.7237751483917236,-1.7201852798461914
1790267275940566000,5.25156591796875,3.1913866996765137,1.12773859500885,-1.5654640197753906
1790267275950566100,5.261566162109375,2.799588203430176,0.6543452739715576,-1.4705286026000977
1790267275960566000,5.27156591796875,2.5407094955444336,0.31217455863952637,-1.2260751724243164
1790267275970566100,5.281566162109375,2.2838993072509766,0.02351522445678711,-0.9549593925476074
1790267275980566000,5.29156591796875,1.9200901985168457,-0.19725537300109863,-0.7199759483337402
1790267275990566100,5.301566162109375,1.7636542320251465,-0.3496873378753662,-0.5178036689758301
1790267276000566000,5.31156591796875,1.6344542503356934,-0.37713193893432617,-0.34771013259887695
1790267276010566100,5.321566162109375,1.3032479286193848,-0.49482035636901855,-0.1330122947692871
1790267276020566000,5.33156591796875,0.9286966323852539,-0.6751770973205566,0.19959068298339844
1790267276030566100,5.341566162109375,0.7995572090148926,-0.8772926330566406,0.5804538726806641
1790267276040566000,5.35156591796875,0.7137975692749023,-1.1493115425109863,0.7102417945861816
1790267276050566100,5.361566162109375,0.8283343315124512,-1.4463930130004883,0.7693557739257812
1790267276060566000,5.37156591796875,0.5811500549316406,-1.9590139389038086,1.0119514465332031
1790267276070566100,5.381566162109375,0.3572688102722168,-2.1187968254089355,1.0140461921691895
1790267276080566000,5.39156591796875,0.1620311737060547,-2.08180570602417,0.8463029861450195
1790267276090566100,5.401566162109375,-0.5841307640075684,-2.127258777618408,0.7345738410949707
1790267276100566000,5.41156591796875,-1.9484100341796875,-2.2179102897644043,0.7985105514526367
1790267276110566100,5.421566162109375,-2.8067727088928223,-2.3823094367980957,1.228320598602295
1790267276120566000,5.43156591796875,-2.878573417663574,-2.6638951301574707,1.7902617454528809
1790267276130566100,5.441566162109375,-2.655125141143799,-3.1285228729248047,2.2211084365844727
1790267276140566000,5.45156591796875,-2.5366673469543457,-3.589789867401123,2.6078782081604004
1790267276150566100,5.461566162109375,-2.682572364807129,-3.8960342407226562,3.0083518028259277
1790267276160566000,5.47156591796875,-2.6722726821899414,-3.9030966758728027,3.100674629211426
1790267276170566100,5.481566162109375,-2.4689254760742188,-3.57763671875,2.7880921363830566
1790267276180566000,5.49156591796875,-2.139148235321045,-2.8546528816223145,2.182766914367676
1790267276190566100,5.501566162109375,-1.8772120475769043,-1.9040989875793457,1.5472960472106934
1790267276200566000,5.51156591796875,-1.483644962310791,-0.9018921852111816,0.994147777557373
1790267276210566100,5.521566162109375,-0.830045223236084,0.03848123550415039,0.4561786651611328
1790267276220566000,5.53156591796875,-0.5097293853759766,0.8062238693237305,0.060803890228271484
1790267276230566100,5.541566162109375,-0.639307975769043,1.3226103782653809,-0.17289018630981445
1790267276240566000,5.55156591796875,-1.101059913635254,1.4670171737670898,-0.21875667572021484
1790267276250566100,5.561566162109375,-1.7019858360290527,1.2510700225830078,-0.18043017387390137
1790267276260566000,5.57156591796875,-1.8293113708496094,0.7480654716491699,0.009169816970825195
1790267276270566100,5.581566162109375,-1.3343629837036133,0.015869617462158203,0.46849489212036133
1790267276280566000,5.59156591796875,-0.8837242126464844,-0.7356815338134766,1.024864912033081
1790267276290566100,5.601566162109375,-0.7086892127990723,-1.3143582344055176,1.3989646434783936
1790267276300566000,5.61156591796875,-0.7858791351318359,-1.8202285766601562,1.4714622497558594
1790267276310566100,5.621566162109375,-1.0897679328918457,-2.290165424346924,1.458632469177246
1790267276320566000,5.63156591796875,-1.228154182434082,-2.6586575508117676,1.3932523727416992
1790267276330566100,5.641566162109375,-1.3326282501220703,-2.725132942199707,1.2221741676330566
1790267276340566000,5.65156591796875,-1.641660213470459,-2.532207489013672,0.9724535942077637
1790267276350566100,5.661566162109375,-1.9907145500183105,-2.2011876106262207,0.8107013702392578
1790267276360566000,5.67156591796875,-2.0861024856567383,-1.783607006072998,0.7615091800689697
1790267276370566100,5.681566162109375,-1.8610877990722656,-1.3829965591430664,0.7757425308227539
1790267276380566000,5.69156591796875,-1.421607494354248,-1.0348992347717285,0.8249197006225586
1790267276390566100,5.701566162109375,-1.0427594184875488,-0.7319521903991699,0.9250826835632324
1790267276400566000,5.71156591796875,-0.9660582542419434,-0.537086009979248,1.0924551486968994
1790267276410566100,5.721566162109375,-0.930382251739502,-0.2738947868347168,1.307502269744873
1790267276420566000,5.73156591796875,-0.836003303527832,0.1882948875427246,1.4983232021331787
1790267276430566100,5.741566162109375,-0.7604508399963379,0.5122981071472168,1.4036929607391357
1790267276440566000,5.75156591796875,-0.6066718101501465,0.7564358711242676,1.191448450088501
1790267276450566100,5.761566162109375,-0.3970222473144531,0.7481775283813477,0.9971914291381836
1790267276460566000,5.77156591796875,-0.21831750869750977,0.5392274856567383,0.9085745811462402
1790267276470566100,5.781566162109375,-0.1849069595336914,0.1867995262145996,0.9502792358398438
1790267276480566000,5.79156591796875,-0.34084320068359375,-0.22284936904907227,1.0975265502929688
1790267276490566100,5.801566162109375,-0.32451725006103516,-0.6458749771118164,1.1908292770385742
1790267276500566000,5.81156591796875,-0.18714570999145508,-0.9762039184570312,1.1132545471191406
1790267276510566100,5.821566162109375,-0.21033382415771484,-1.1652369499206543,0.8813843727111816
1790267276520566000,5.83156591796875,-0.42737340927124023,-1.2387776374816895,0.6530261039733887
1790267276530566100,5.841566162109375,-0.587679386138916,-1.4127554893493652,0.6884217262268066
1790267276540566000,5.85156591796875,-0.514866828918457,-1.6108007431030273,0.8517966270446777
1790267276550566100,5.861566162109375,-0.32555580139160156,-1.7627530097961426,0.9067234992980957
1790267276560566000,5.87156591796875,-0.19659900665283203,-1.7881574630737305,0.6365375518798828
1790267276570566100,5.881566162109375,-0.24083328247070312,-1.689237117767334,0.12877798080444336
1790267276580566000,5.89156591796875,-0.5236186981201172,-1.5477657318115234,-0.26117372512817383
1790267276590566100,5.901566162109375,-0.7906312942504883,-1.481935977935791,-0.2510557174682617
1790267276600566000,5.91156591796875,-1.083859920501709,-1.525890827178955,0.1251201629638672
1790267276610566100,5.921566162109375,-1.3995819091796875,-1.705237865447998,0.6211562156677246
1790267276620566000,5.93156591796875,-1.4047470092773438,-1.9584646224975586,1.0111370086669922
1790267276630566100,5.941566162109375,-1.0220136642456055,-2.067218780517578,1.206040382385254
1790267276640566000,5.95156591796875,-0.7959136962890625,-2.025160312652588,1.2283148765563965
1790267276650566100,5.961566162109375,-0.8272056579589844,-1.8439865112304688,1.1930971145629883
1790267276660566000,5.97156591796875,-0.7311773300170898,-1.6199407577514648,1.2037158012390137
1790267276670566100,5.981566162109375,-0.3651247024536133,-1.4447283744812012,1.1225800514221191
1790267276680566000,5.99156591796875,-0.13802719116210938,-1.3171935081481934,0.9622373580932617
1790267276690566100,6.001566162109375,-0.035619258880615234,-1.2228212356567383,0.7987279891967773
1790267276700566000,6.01156591796875,0.029979228973388672,-1.1962895393371582,0.6890864372253418
1790267276710566100,6.021566162109375,-0.26190853118896484,-1.1634464263916016,0.6934208869934082
1790267276720566000,6.03156591796875,-2.0933656692504883,-1.1081328392028809,0.9516582489013672
1790267276730566100,6.041566162109375,-4.062323093414307,-1.499783992767334,1.569624900817871
1790267276740566000,6.05156591796875,-2.7437729835510254,-2.129086971282959,2.273512840270996
1790267276750566100,6.061566162109375,-0.2221240997314453,-2.591425895690918,2.4421534538269043
1790267276760566000,6.07156591796875,1.1264209747314453,-2.893775224685669,1.7356452941894531
1790267276770566100,6.081566162109375,0.3740081787109375,-2.9654295444488525,1.2920513153076172
1790267276780566000,6.09156591796875,-0.8461790084838867,-2.8689072132110596,1.3160624504089355
1790267276790566100,6.101566162109375,-1.0108299255371094,-2.8513829708099365,1.1634330749511719
1790267276800566000,6.11156591796875,0.0729532241821289,-2.9906721115112305,1.0076665878295898
1790267276810566100,6.121566162109375,1.469092845916748,-3.1986732482910156,0.7469968795776367
1790267276820566000,6.13156591796875,2.3775148391723633,-3.323603868484497,0.0985114574432373
1790267276830566100,6.141566162109375,2.9760799407958984,-3.2132883071899414,-0.8886203765869141
1790267276840566000,6.15156591796875,3.6468963623046875,-2.510207176208496,-1.642432689666748
1790267276850566100,6.161566162109375,4.412487506866455,-1.4539042711257935,-2.2866077423095703
1790267276860566000,6.17156591796875,5.350817680358887,-0.11467099189758301,-2.8079752922058105
1790267276870566100,6.181566162109375,6.230405330657959,1.1925785541534424,-3.034850835800171
1790267276880566000,6.19156591796875,6.870960235595703,2.1381256580352783,-3.014310598373413
1790267276890566100,6.201566162109375,7.199568271636963,2.5606398582458496,-2.955211877822876
1790267276900566000,6.21156591796875,6.656569480895996,2.442565441131592,-3.2138099670410156
1790267276910566100,6.221566162109375,6.211839199066162,2.0317280292510986,-3.43975830078125
1790267276920566000,6.23156591796875,6.355854034423828,1.6037225723266602,-3.5509939193725586
1790267276930566100,6.241566162109375,5.824195861816406,1.3041115999221802,-3.6367077827453613
1790267276940566000,6.25156591796875,4.954051971435547,1.2924904823303223,-3.3973824977874756
1790267276950566100,6.261566162109375,4.815699577331543,1.4437954425811768,-2.8619754314422607
1790267276960566000,6.27156591796875,4.916904926300049,1.6650419235229492,-2.447418212890625
1790267276970566100,6.281566162109375,4.7905778884887695,1.8902305364608765,-2.2804312705993652
1790267276980566000,6.29156591796875,4.477937698364258,2.075380325317383,-2.2148075103759766
1790267276990566100,6.301566162109375,4.160887718200684,2.1553189754486084,-1.9025726318359375
1790267277000566000,6.31156591796875,3.800180435180664,2.0430827140808105,-1.5526971817016602
1790267277010566100,6.321566162109375,3.407909393310547,1.789700984954834,-1.4788691997528076
1790267277020566000,6.33156591796875,2.965559959411621,1.572283387184143,-1.4901773929595947
1790267277030566100,6.341566162109375,2.8061861991882324,1.3608804941177368,-1.3501851558685303
1790267277040566000,6.35156591796875,2.7056736946105957,1.170255422592163,-1.0549747943878174
1790267277050566100,6.361566162109375,2.5208921432495117,0.8892372250556946,-0.8485419750213623
1790267277060566000,6.37156591796875,2.019587516784668,0.5748374462127686,-0.6064944267272949
1790267277070566100,6.381566162109375,1.3552227020263672,0.2781718969345093,-0.31990575790405273
1790267277080566000,6.39156591796875,0.6104621887207031,0.07526266574859619,-0.07264995574951172
1790267277090566100,6.401566162109375,-0.1407022476196289,-0.033373117446899414,0.28067874908447266
1790267277100566000,6.41156591796875,-0.6189346313476562,-0.15180063247680664,0.7397637367248535
1790267277110566100,6.421566162109375,-0.638178825378418,-0.3422701358795166,1.1291394233703613
1790267277120566000,6.43156591796875,-0.6128883361816406,-0.6357715129852295,1.474062442779541
1790267277130566100,6.441566162109375,-0.7413644790649414,-0.9890573024749756,1.7007708549499512
1790267277140566000,6.45156591796875,-0.826237678527832,-1.3782274723052979,1.6839098930358887
1790267277150566100,6.461566162109375,-0.6664390563964844,-1.7158637046813965,1.3362693786621094
1790267277160566000,6.47156591796875,-0.8217382431030273,-1.9072113037109375,0.7549004554748535
1790267277170566100,6.481566162109375,-1.1829142570495605,-1.9321789741516113,0.07125997543334961
1790267277180566000,6.49156591796875,-1.4692740440368652,-1.8142433166503906,-0.36936140060424805
1790267277190566100,6.501566162109375,-1.372971534729004,-1.5378973484039307,-0.5129504203796387
1790267277200566000,6.51156591796875,-0.8373560905456543,-1.1400046348571777,-0.4996352195739746
1790267277210566100,6.521566162109375,-0.3587632179260254,-0.7611451148986816,-0.6870870590209961
1790267277220566000,6.53156591796875,0.026226043701171875,-0.5297062397003174,-0.9920415878295898
1790267277230566100,6.541566162109375,0.5042252540588379,-0.38969850540161133,-1.2641725540161133
1790267277240566000,6.55156591796875,0.781592845916748,-0.3283419609069824,-1.4544947147369385
1790267277250566100,6.561566162109375,0.6366457939147949,-0.32317543029785156,-1.5307655334472656
1790267277260566000,6.57156591796875,0.35221099853515625,-0.3323502540588379,-1.5097830295562744
1790267277270566100,6.581566162109375,0.44291067123413086,-0.338742733001709,-1.4209158420562744
1790267277280566000,6.59156591796875,0.5519514083862305,-0.35959482192993164,-1.2017786502838135
1790267277290566100,6.601566162109375,0.40610218048095703,-0.4216890335083008,-0.9412155151367188
1790267277300566000,6.61156591796875,0.34975194931030273,-0.580625057220459,-0.7988748550415039
1790267277310566100,6.621566162109375,0.20785999298095703,-0.7886700630187988,-0.7277312278747559
1790267277320566000,6.63156591796875,-0.07693052291870117,-1.0477166175842285,-0.47728538513183594
1790267277330566100,6.641566162109375,0.037616729736328125,-1.348630428314209,-0.1285386085510254
1790267277340566000,6.65156591796875,0.28811120986938477,-1.6206316947937012,0.2047562599182129
1790267277350566100,6.661566162109375,0.46223974227905273,-1.8301939964294434,0.4493565559387207
1790267277360566000,6.67156591796875,0.29469823837280273,-1.999514102935791,0.5041046142578125
1790267277370566100,6.681566162109375,-0.08174467086791992,-1.9703998565673828,0.39612293243408203
1790267277380566000,6.69156591796875,-0.37064695358276367,-1.6842565536499023,0.1100778579711914
1790267277390566100,6.701566162109375,-0.35173559188842773,-1.1610393524169922,-0.1335744857788086
1790267277400566000,6.71156591796875,-0.08623695373535156,-0.5640478134155273,-0.2947530746459961
1790267277410566100,6.721566162109375,0.14441204071044922,-0.09949684143066406,-0.33585071563720703
1790267277420566000,6.73156591796875,-0.03055429458618164,0.09795808792114258,-0.29178857803344727
1790267277430566100,6.741566162109375,-0.39984560012817383,0.04407310485839844,-0.15046262741088867
1790267277440566000,6.75156591796875,-0.7154717445373535,-0.17240333557128906,-0.031365394592285156
1790267277450566100,6.761566162109375,-0.8984107971191406,-0.4458622932434082,-0.041764259338378906
1790267277460566000,6.77156591796875,-0.9731802940368652,-0.6993675231933594,-0.13048458099365234
1790267277470566100,6.781566162109375,-0.8209543228149414,-0.9069962501525879,-0.07192087173461914
1790267277480566000,6.79156591796875,-0.562859058380127,-1.0610337257385254,0.11457300186157227
1790267277490566100,6.801566162109375,-0.5402307510375977,-1.1957221031188965,0.34305238723754883
1790267277500566000,6.81156591796875,-0.7611474990844727,-1.3048806190490723,0.597104549407959
1790267277510566100,6.821566162109375,-1.0708885192871094,-1.387427806854248,0.8391327857971191
1790267277520566000,6.83156591796875,-1.5840950012207031,-1.471273422241211,1.0871448516845703
1790267277530566100,6.841566162109375,-2.236966133117676,-1.6194992065429688,1.281890630722046
1790267277540566000,6.85156591796875,-2.6494369506835938,-1.803670883178711,1.5074489116668701
1790267277550566100,6.861566162109375,-2.8967103958129883,-1.9771308898925781,1.8537144660949707
1790267277560566000,6.87156591796875,-3.0448050498962402,-2.047854423522949,2.1095497608184814
1790267277570566100,6.881566162109375,-3.1378049850463867,-1.999748706817627,2.347731590270996
1790267277580566000,6.89156591796875,-2.953403949737549,-1.8327813148498535,2.4362807273864746
1790267277590566100,6.901566162109375,-2.9679551124572754,-1.6235294342041016,2.2594597339630127
1790267277600566000,6.91156591796875,-3.394507884979248,-1.402902603149414,2.039436101913452
1790267277610566100,6.921566162109375,-3.6204404830932617,-1.1895380020141602,2.0555930137634277
1790267277620566000,6.93156591796875,-3.5817947387695312,-1.053227424621582,2.2564361095428467
1790267277630566100,6.941566162109375,-3.6164908409118652,-1.0130524635314941,2.2780117988586426
1790267277640566000,6.95156591796875,-3.446949005126953,-1.066657543182373,2.147441864013672
1790267277650566100,6.961566162109375,-2.701598644256592,-1.12919282913208,2.1452765464782715
1790267277660566000,6.97156591796875,-1.7307262420654297,-0.9318337440490723,1.9638898372650146
1790267277670566100,6.981566162109375,-0.765477180480957,-0.4350566864013672,1.524519443511963
1790267277680566000,6.99156591796875,-0.028741836547851562,0.16567182540893555,1.0727577209472656
1790267277690566100,7.001566162109375,0.5495219230651855,0.7046256065368652,0.622673749923706
1790267277700566000,7.01156591796875,1.190506935119629,1.214705467224121,0.06477952003479004
1790267277710566100,7.021566162109375,1.820939064025879,1.690737247467041,-0.5034244060516357
1790267277720566000,7.03156591796875,1.8316802978515625,1.9691343307495117,-0.8530926704406738
1790267277730566100,7.041566162109375,1.5540013313293457,1.7707748413085938,-0.6732959747314453
1790267277740566000,7.05156591796875,2.0598056316375732,1.1647906303405762,-0.11751389503479004
1790267277750566100,7.061566162109375,2.354416847229004,0.3500180244445801,0.28754329681396484
1790267277760566000,7.07156591796875,1.968334674835205,-0.3917984962463379,0.6303009986877441
1790267277770566100,7.081566162109375,1.119612693786621,-1.051255702972412,1.093804121017456
1790267277780566000,7.09156591796875,-0.13937759399414062,-1.749176025390625,1.8438074588775635
1790267277790566100,7.101566162109375,-0.8022150993347168,-2.5124902725219727,2.771965742111206
1790267277800566000,7.11156591796875,-1.1724090576171875,-3.186203956604004,3.058196783065796
1790267277810566100,7.121566162109375,-1.3108525276184082,-3.6123695373535156,3.0959105491638184
1790267277820566000,7.13156591796875,-0.0933680534362793,-3.5112438201904297,3.40389084815979
1790267277830566100,7.141566162109375,1.1862492561340332,-2.7860727310180664,3.092306613922119
1790267277840566000,7.15156591796875,1.669217586517334,-1.7689704895019531,2.00185227394104
1790267277850566100,7.161566162109375,2.526948928833008,-0.6428031921386719,0.8827910423278809
1790267277860566000,7.17156591796875,3.2128942012786865,0.3345627784729004,-0.03642463684082031
1790267277870566100,7.181566162109375,3.275848865509033,1.075404167175293,-0.8124980926513672
1790267277880566000,7.19156591796875,2.77412486076355,1.5976896286010742,-1.3420653343200684
1790267277890566100,7.201566162109375,2.088322162628174,1.9036707878112793,-1.5755937099456787
1790267277900566000,7.21156591796875,1.6010265350341797,2.0011839866638184,-1.8252239227294922
1790267277910566100,7.221566162109375,0.7774844169616699,1.7687630653381348,-1.8568460941314697
1790267277920566000,7.23156591796875,0.18717241287231445,1.1934986114501953,-1.5429749488830566
1790267277930566100,7.241566162109375,0.2839818000793457,0.4870624542236328,-1.069162368774414
1790267277940566000,7.25156591796875,0.28307151794433594,-0.25025510787963867,-0.4320399761199951
1790267277950566100,7.261566162109375,-0.019526958465576172,-0.9880862236022949,0.34634923934936523
1790267277960566000,7.27156591796875,-0.5289006233215332,-1.7022008895874023,1.5134496688842773
1790267277970566100,7.281566162109375,-0.10159492492675781,-2.2104949951171875,2.728280544281006
1790267277980566000,7.29156591796875,0.43810558319091797,-2.408689022064209,2.627291202545166
1790267277990566100,7.301566162109375,0.7892699241638184,-2.2312350273132324,1.656327247619629
1790267278000566000,7.31156591796875,1.0292692184448242,-1.705108642578125,0.6084342002868652
1790267278010566100,7.321566162109375,1.15382719039917,-1.1147432327270508,-0.0996561050415039
1790267278020566000,7.33156591796875,1.2212791442871094,-0.5609474182128906,-0.5861673355102539
1790267278030566100,7.341566162109375,1.1744885444641113,-0.058428287506103516,-0.9848270416259766
1790267278040566000,7.35156591796875,1.0488262176513672,0.3484663963317871,-1.2259869575500488
1790267278050566100,7.361566162109375,0.9579973220825195,0.5912790298461914,-1.235851764678955
1790267278060566000,7.37156591796875,0.5095853805541992,0.5995273590087891,-0.9868144989013672
1790267278070566100,7.381566162109375,0.014752864837646484,0.3284616470336914,-0.4186556339263916
1790267278080566000,7.39156591796875,-0.5850863456726074,-0.10503721237182617,0.32280874252319336
1790267278090566100,7.401566162109375,-1.2498712539672852,-0.6173930168151855,1.0123023986816406
1790267278100566000,7.41156591796875,-1.4657211303710938,-1.0582518577575684,1.3634247779846191
1790267278110566100,7.421566162109375,-0.8918299674987793,-1.3837523460388184,1.3970541954040527
1790267278120566000,7.43156591796875,-0.5259904861450195,-1.5148296356201172,1.3853201866149902
1790267278130566100,7.441566162109375,-0.5071916580200195,-1.502626895904541,1.371488332748413
1790267278140566000,7.45156591796875,-0.42128515243530273,-1.441251277923584,1.2256674766540527
1790267278150566100,7.461566162109375,-0.30322885513305664,-1.4196500778198242,1.0728652477264404
1790267278160566000,7.47156591796875,-0.5112133026123047,-1.4122037887573242,0.9936020374298096
1790267278170566100,7.481566162109375,-0.8249244689941406,-1.3756284713745117,0.9185621738433838
1790267278180566000,7.49156591796875,-1.1035757064819336,-1.2460112571716309,0.8353688716888428
1790267278190566100,7.501566162109375,-1.1920528411865234,-1.1423757076263428,0.914177417755127
1790267278200566000,7.51156591796875,-0.9214811325073242,-1.0734550952911377,1.2191381454467773
1790267278210566100,7.521566162109375,-0.5888757705688477,-1.0884647369384766,1.5693471431732178
1790267278220566000,7.53156591796875,-0.4640989303588867,-1.2535014152526855,1.6712496280670166
1790267278230566100,7.541566162109375,-0.17874622344970703,-1.5914771556854248,1.3690156936645508
1790267278240566000,7.55156591796875,0.3329143524169922,-1.888143539428711,0.7745203971862793
1790267278250566100,7.561566162109375,0.915778636932373,-1.8495302200317383,0.17432594299316406
1790267278260566000,7.57156591796875,1.4052729606628418,-1.4956121444702148,-0.3355705738067627
1790267278270566100,7.581566162109375,1.6909713745117188,-0.94801926612854,-0.8016452789306641
1790267278280566000,7.59156591796875,1.79628324508667,-0.29995250701904297,-1.168921947479248
1790267278290566100,7.601566162109375,1.715062141418457,0.3457987308502197,-1.3856439590454102
1790267278300566000,7.61156591796875,1.675689697265625,0.8058366775512695,-1.242025375366211
1790267278310566100,7.621566162109375,1.7226886749267578,0.9716998338699341,-0.921942949295044
1790267278320566000,7.63156591796875,1.7549738883972168,0.8327822685241699,-0.764988899230957
1790267278330566100,7.641566162109375,1.9945402145385742,0.4622455835342407,-0.7838342189788818
1790267278340566000,7.65156591796875,2.274313449859619,-0.012573599815368652,-0.8868556022644043
1790267278350566100,7.661566162109375,2.3944883346557617,-0.47299134731292725,-0.9748036861419678
1790267278360566000,7.67156591796875,2.5051021575927734,-0.8486150503158569,-1.159346580505371
1790267278370566100,7.681566162109375,2.7235703468322754,-0.9421199560165405,-1.456510066986084
1790267278380566000,7.69156591796875,2.718618869781494,-0.8177965879440308,-1.770017385482788
1790267278390566100,7.701566162109375,2.424562454223633,-0.5579795837402344,-1.9968992471694946
1790267278400566000,7.71156591796875,1.7624778747558594,-0.28030717372894287,-2.117995262145996
1790267278410566100,7.721566162109375,1.142712116241455,-0.11435067653656006,-2.0356476306915283
1790267278420566000,7.73156591796875,0.752680778503418,-0.19076597690582275,-1.7284624576568604
1790267278430566100,7.741566162109375,0.8569478988647461,-0.38916730880737305,-1.3701701164245605
1790267278440566000,7.75156591796875,1.407637596130371,-0.5238438844680786,-1.0727553367614746
1790267278450566100,7.761566162109375,2.007296562194824,-0.5347127914428711,-1.0425879955291748
1790267278460566000,7.77156591796875,2.2714014053344727,-0.4357658624649048,-1.182462215423584
1790267278470566100,7.781566162109375,2.4706625938415527,-0.251531720161438,-1.5368239879608154
1790267278480566000,7.79156591796875,2.7325706481933594,0.30958306789398193,-1.7713499069213867
1790267278490566100,7.801566162109375,2.665170669555664,1.3105624914169312,-1.9493646621704102
1790267278500566000,7.81156591796875,2.1360678672790527,2.448171615600586,-1.9985496997833252
1790267278510566100,7.821566162109375,1.5139989852905273,2.886178970336914,-1.9147722721099854
1790267278520566000,7.83156591796875,1.1696429252624512,2.218442678451538,-1.647993803024292
1790267278530566100,7.841566162109375,0.9873037338256836,1.0302526950836182,-1.4325835704803467
1790267278540566000,7.85156591796875,0.6418533325195312,-0.00004076957702636719,-1.2147822380065918
1790267278550566100,7.861566162109375,0.20972442626953125,-0.6322958469390869,-0.7849290370941162
1790267278560566000,7.87156591796875,0.1551494598388672,-0.8735618591308594,-0.1667172908782959
1790267278570566100,7.881566162109375,0.5567970275878906,-0.810616135597229,0.3141756057739258
1790267278580566000,7.89156591796875,1.1063475608825684,-0.5672763586044312,0.2397904396057129
1790267278590566100,7.901566162109375,1.4549899101257324,-0.2188493013381958,-0.2608468532562256
1790267278600566000,7.91156591796875,1.4929895401000977,0.14679944515228271,-0.8773326873779297
1790267278610566100,7.921566162109375,1.2469482421875,0.5238702297210693,-1.5624663829803467
1790267278620566000,7.93156591796875,0.8640375137329102,1.0631330013275146,-2.122361898422241
1790267278630566100,7.941566162109375,1.0856494903564453,1.6900856494903564,-2.269663095474243
1790267278640566000,7.95156591796875,1.677743911743164,2.246192216873169,-2.178391218185425
1790267278650566100,7.961566162109375,2.0618019104003906,2.455556869506836,-2.1729116439819336
1790267278660566000,7.97156591796875,1.7686634063720703,2.298884630203247,-2.1024622917175293
1790267278670566100,7.981566162109375,1.6872615814208984,1.8577320575714111,-1.7259111404418945
1790267278680566000,7.99156591796875,1.839479923248291,1.298566460609436,-1.3164267539978027
1790267278690566100,8.001566162109375,1.5559825897216797,0.7886347770690918,-1.0938708782196045
1790267278700566000,8.01156591796875,1.0085015296936035,0.3928806781768799,-0.9435241222381592
1790267278710566100,8.021566162109375,0.8874807357788086,0.1390857696533203,-0.5919814109802246
1790267278720566000,8.03156591796875,1.353285789489746,0.029886245727539062,-0.14074087142944336
1790267278730566100,8.041566162109374,1.9212207794189453,-0.0724027156829834,0.1850872039794922
1790267278740566000,8.05156591796875,1.659205436706543,-0.22841596603393555,0.4525747299194336
1790267278750566100,8.061566162109376,0.8642411231994629,-0.4659736156463623,0.839045524597168
1790267278760566000,8.07156591796875,0.32584238052368164,-0.77850341796875,1.1790661811828613
1790267278770566100,8.081566162109375,-0.06093931198120117,-1.1097664833068848,1.174698829650879
1790267278780566000,8.09156591796875,-0.22939491271972656,-1.3677587509155273,1.0037212371826172
1790267278790566100,8.101566162109375,0.08517074584960938,-1.510462760925293,0.758124828338623
1790267278800566000,8.11156591796875,0.6553335189819336,-1.4851245880126953,0.4413924217224121
1790267278810566100,8.121566162109374,0.8237152099609375,-1.4367609024047852,0.16338872909545898
1790267278820566000,8.13156591796875,0.4510836601257324,-1.369001865386963,0.06682443618774414
1790267278830566100,8.141566162109376,-0.2740941047668457,-1.2956671714782715,0.1162567138671875
1790267278840566000,8.15156591796875,-1.1749448776245117,-1.1878294944763184,0.12666893005371094
1790267278850566100,8.161566162109375,-1.2694792747497559,-0.9917426109313965,0.013371944427490234
1790267278860566000,8.17156591796875,-0.6895670890808105,-0.7440094947814941,-0.18220758438110352
1790267278870566100,8.181566162109375,-0.20431804656982422,-0.5799527168273926,-0.31449317932128906
1790267278880566000,8.19156591796875,-0.18676042556762695,-0.4935898780822754,-0.3833341598510742
1790267278890566100,8.201566162109375,-0.3830571174621582,-0.5016083717346191,-0.2642049789428711
1790267278900566000,8.21156591796875,-0.744969367980957,-0.6046857833862305,-0.09646320343017578
1790267278910566100,8.221566162109376,-1.2887167930603027,-0.8115544319152832,0.0033731460571289062
1790267278920566000,8.23156591796875,-1.7319064140319824,-1.096578598022461,0.18464088439941406
1790267278930566100,8.241566162109375,-1.7706103324890137,-1.3273849487304688,0.39539337158203125
1790267278940566000,8.25156591796875,-1.8997583389282227,-1.413844108581543,0.2702059745788574
1790267278950566100,8.261566162109375,-1.964247703552246,-1.5218791961669922,0.26679468154907227
1790267278960566000,8.27156591796875,-1.843282699584961,-1.5595793724060059,0.3760108947753906
1790267278970566100,8.281566162109375,-1.8995399475097656,-1.4881172180175781,0.3806276321411133
1790267278980566000,8.29156591796875,-1.88871431350708,-1.3622069358825684,0.22764062881469727
1790267278990566100,8.301566162109374,-1.8818669319152832,-1.2816791534423828,0.10926532745361328
1790267279000566000,8.31156591796875,-1.6991877555847168,-1.205686092376709,0.12166213989257812
1790267279010566100,8.321566162109375,-1.2083401679992676,-1.044694423675537,0.0871281623840332
1790267279020566000,8.33156591796875,-0.8639812469482422,-0.7704205513000488,-0.03419351577758789
1790267279030566100,8.341566162109375,-0.8303804397583008,-0.40044450759887695,-0.30388450622558594
1790267279040566000,8.35156591796875,-1.1328511238098145,0.009111881256103516,-0.5906877517700195
1790267279050566100,8.361566162109375,-1.6760177612304688,0.26384544372558594,-0.7010335922241211
1790267279060566000,8.37156591796875,-2.1735453605651855,0.1833949089050293,-0.5840930938720703
1790267279070566100,8.381566162109374,-2.1218438148498535,-0.2986736297607422,-0.11248064041137695
1790267279080566000,8.39156591796875,-1.5466651916503906,-1.061479091644287,0.6490046977996826
1790267279090566100,8.401566162109376,-1.118525505065918,-1.780846118927002,1.2412211894989014
1790267279100566000,8.41156591796875,-1.1674556732177734,-2.227385997772217,1.619168758392334
1790267279110566100,8.421566162109375,-1.2408366203308105,-2.2575244903564453,1.8742671012878418
1790267279120566000,8.43156591796875,-1.1869301795959473,-1.9137005805969238,1.959761619567871
1790267279130566100,8.441566162109375,-1.1170673370361328,-1.4868230819702148,1.759688377380371
1790267279140566000,8.45156591796875,-1.0785069465637207,-1.1023359298706055,1.3121366500854492
1790267279150566100,8.461566162109374,-0.9603924751281738,-0.7571492195129395,0.9092772006988525
1790267279160566000,8.47156591796875,-0.7054653167724609,-0.4201836585998535,0.588881254196167
1790267279170566100,8.481566162109376,-0.6738762855529785,-0.1435832977294922,0.27393245697021484
1790267279180566000,8.49156591796875,-0.8869585990905762,0.0630350112915039,-0.1062324047088623
1790267279190566100,8.501566162109375,-1.1958837509155273,0.2391057014465332,-0.30529284477233887
1790267279200566000,8.51156591796875,-1.43943452835083,0.31670713424682617,-0.14252209663391113
1790267279210566100,8.521566162109375,-1.6564664840698242,0.1681818962097168,0.3835916519165039
1790267279220566000,8.53156591796875,-1.7888140678405762,-0.15476274490356445,0.9536981582641602
1790267279230566100,8.541566162109374,-1.7053322792053223,-0.4895772933959961,1.2069969177246094
1790267279240566000,8.55156591796875,-1.4147014617919922,-0.6648545265197754,0.9608979225158691
1790267279250566100,8.561566162109376,-1.0437822341918945,-0.5516219139099121,0.4028303623199463
1790267279260566000,8.57156591796875,-0.8324122428894043,-0.3007187843322754,-0.06201934814453125
1790267279270566100,8.581566162109375,-0.7189044952392578,-0.10153484344482422,-0.2794156074523926
1790267279280566000,8.59156591796875,-0.5328145027160645,-0.02936840057373047,-0.33267784118652344
1790267279290566100,8.601566162109375,-0.29727697372436523,-0.16911792755126953,-0.15288400650024414
1790267279300566000,8.61156591796875,-0.09975433349609375,-0.4240117073059082,0.14652705192565918
1790267279310566100,8.621566162109374,0.12051630020141602,-0.6627540588378906,0.4196605682373047
1790267279320566000,8.63156591796875,0.38675403594970703,-0.7953200340270996,0.5657863616943359
1790267279330566100,8.641566162109376,0.43766212463378906,-0.8644552230834961,0.6288309097290039
1790267279340566000,8.65156591796875,0.09592437744140625,-0.9053444862365723,0.5634105205535889
1790267279350566100,8.661566162109375,-0.28337621688842773,-0.959836483001709,0.5487098693847656
1790267279360566000,8.67156591796875,-0.6589474678039551,-1.0515732765197754,0.6463291645050049
1790267279370566100,8.681566162109375,-0.9379491806030273,-1.178757667541504,0.8955354690551758
1790267279380566000,8.69156591796875,-0.9928145408630371,-1.27266263961792,1.300673484802246
1790267279390566100,8.701566162109375,-0.9485259056091309,-1.2629833221435547,1.795593023300171
1790267279400566000,8.71156591796875,-0.910820484161377,-1.1179289817810059,2.170896530151367
1790267279410566100,8.721566162109376,-0.8152446746826172,-0.8902344703674316,2.1493449211120605
1790267279420566000,8.73156591796875,-0.5429515838623047,-0.5751008987426758,1.83860445022583
1790267279430566100,8.741566162109375,-0.3179774284362793,-0.2101001739501953,1.5009255409240723
1790267279440566000,8.75156591796875,-0.22336196899414062,0.11103248596191406,1.220975399017334
1790267279450566100,8.761566162109375,-0.24460935592651367,0.3122086524963379,0.9078402519226074
1790267279460566000,8.77156591796875,-0.5567507743835449,0.4040536880493164,0.5340819358825684
1790267279470566100,8.781566162109375,-0.9184036254882812,0.2629523277282715,0.22321605682373047
1790267279480566000,8.79156591796875,-1.2031612396240234,-0.23061609268188477,0.14457225799560547
1790267279490566100,8.801566162109374,-0.9293966293334961,-0.9276328086853027,0.3220949172973633
1790267279500566000,8.81156591796875,-0.17030096054077148,-1.4007582664489746,0.8041162490844727
1790267279510566100,8.821566162109375,0.2699289321899414,-1.5542387962341309,1.1237964630126953
1790267279520566000,8.83156591796875,-0.1395397186279297,-1.6064343452453613,1.2134876251220703
1790267279530566100,8.841566162109375,-0.5252866744995117,-1.7077679634094238,1.1576218605041504
1790267279540566000,8.85156591796875,-0.16452646255493164,-1.7740373611450195,0.9739589691162109
1790267279550566100,8.861566162109375,0.5409135818481445,-1.6396737098693848,0.6037092208862305
1790267279560566000,8.87156591796875,1.1336498260498047,-1.1890573501586914,0.14169692993164062
1790267279570566100,8.881566162109374,1.4351725578308105,-0.5399346351623535,-0.24543046951293945
1790267279580566000,8.89156591796875,1.418673038482666,0.11907243728637695,-0.5119915008544922
1790267279590566100,8.901566162109376,1.4199447631835938,0.5947127342224121,-0.6122174263000488
1790267279600566000,8.91156591796875,1.2745256423950195,0.7675423622131348,-0.6928505897521973
1790267279610566100,8.921566162109375,1.0319881439208984,0.6623492240905762,-0.8111624717712402
1790267279620566000,8.93156591796875,0.9388184547424316,0.3987255096435547,-0.8408722877502441
1790267279630566100,8.941566162109375,1.0175089836120605,0.11416387557983398,-0.8270065784454346
1790267279640566000,8.95156591796875,0.9831476211547852,-0.12903308868408203,-0.9129738807678223
1790267279650566100,8.961566162109374,0.9590535163879395,-0.2317795753479004,-1.0733437538146973
1790267279660566000,8.97156591796875,0.720456600189209,-0.1357717514038086,-1.3271467685699463
1790267279670566100,8.981566162109376,0.18414020538330078,0.10789203643798828,-1.405005693435669
1790267279680566000,8.99156591796875,-0.10633420944213867,0.36614131927490234,-1.1705248355865479
1790267279690566100,9.001566162109375,-0.2913088798522949,0.5619344711303711,-0.7756779193878174
1790267279700566000,9.01156591796875,-0.564732551574707,0.52056884765625,-0.4083395004272461
1790267279710566100,9.021566162109375,-0.7473235130310059,0.1809689998626709,-0.05299806594848633
1790267279720566000,9.03156591796875,-0.6178383827209473,-0.3391075134277344,0.42211198806762695
1790267279730566100,9.041566162109374,-0.3331146240234375,-0.8778395652770996,0.8623991012573242
1790267279740566000,9.05156591796875,-0.1704845428466797,-1.2430672645568848,1.092289924621582
1790267279750566100,9.061566162109376,0.09451770782470703,-1.4808769226074219,1.140915870666504
1790267279760566000,9.07156591796875,0.3745231628417969,-1.5471992492675781,0.969541072845459
1790267279770566100,9.081566162109375,0.7142024040222168,-1.5054759979248047,0.339479923248291
1790267279780566000,9.09156591796875,1.4152212142944336,-1.353881597518921,-0.4131646156311035
1790267279790566100,9.101566162109375,1.983931541442871,-1.0548856258392334,-0.9857363700866699
1790267279800566000,9.11156591796875,1.7701606750488281,-0.6747150421142578,-1.4443330764770508
1790267279810566100,9.121566162109374,1.1821260452270508,-0.36429500579833984,-1.6563010215759277
1790267279820566000,9.13156591796875,1.1126337051391602,-0.16546225547790527,-1.4458134174346924
1790267279830566100,9.141566162109376,1.0170464515686035,0.0974271297454834,-1.4572758674621582
1790267279840566000,9.15156591796875,1.1127209663391113,0.35052943229675293,-2.076244354248047
1790267279850566100,9.161566162109375,2.055802822113037,0.5185487270355225,-2.78275728225708
1790267279860566000,9.17156591796875,2.680715560913086,0.6866965293884277,-3.360790729522705
1790267279870566100,9.181566162109375,2.6298184394836426,1.0435168743133545,-3.7819273471832275
1790267279880566000,9.19156591796875,1.7089004516601562,1.4238300323486328,-4.060591220855713
1790267279890566100,9.201566162109375,1.219594955444336,1.701466679573059,-4.0985493659973145
1790267279900566000,9.21156591796875,1.7525568008422852,1.6521596908569336,-3.848142385482788
1790267279910566100,9.221566162109376,1.931060791015625,1.3790004253387451,-3.474198818206787
1790267279920566000,9.23156591796875,1.3474969863891602,1.1230058670043945,-2.717879056930542
1790267279930566100,9.241566162109375,1.4149646759033203,0.7898737192153931,-1.9810786247253418
1790267279940566000,9.25156591796875,1.2348666191101074,0.29299402236938477,-2.0195443630218506
1790267279950566100,9.261566162109375,0.3929271697998047,0.008103728294372559,-2.1094517707824707
1790267279960566000,9.27156591796875,0.15489959716796875,-0.10643613338470459,-1.878331184387207
1790267279970566100,9.281566162109375,0.4404892921447754,-0.25863516330718994,-1.5774600505828857
1790267279980566000,9.29156591796875,0.4463834762573242,-0.43255484104156494,-1.0785222053527832
1790267279990566100,9.301566162109374,0.4154205322265625,-0.45198023319244385,-0.6207985877990723
1790267280000566000,9.31156591796875,0.6912345886230469,-0.2810978889465332,-0.7000541687011719
1790267280010566100,9.321566162109375,0.6382160186767578,0.10613930225372314,-1.0908584594726562
1790267280020566000,9.33156591796875,0.48580312728881836,0.5177211761474609,-1.3515024185180664
1790267280030566100,9.341566162109375,0.6574578285217285,0.8215648531913757,-1.6233234405517578
1790267280040566000,9.35156591796875,1.084524154663086,0.9373151659965515,-2.021089553833008
1790267280050566100,9.361566162109375,1.5435876846313477,0.958520770072937,-2.291607618331909
1790267280060566000,9.37156591796875,2.126742362976074,0.9479081630706787,-2.653280258178711
1790267280070566100,9.381566162109374,2.2413573265075684,1.0228302478790283,-3.128948450088501
1790267280080566000,9.39156591796875,1.5314750671386719,1.1715173721313477,-3.3899993896484375
1790267280090566100,9.401566162109376,1.023003101348877,1.3011263608932495,-3.4172298908233643
1790267280100566000,9.41156591796875,0.8286633491516113,1.3564660549163818,-3.372896909713745
1790267280110566100,9.421566162109375,1.334467887878418,1.3051912784576416,-3.1755189895629883
1790267280120566000,9.43156591796875,1.3848767280578613,1.1929748058319092,-2.9498562812805176
1790267280130566100,9.441566162109375,1.1987862586975098,1.0136682987213135,-2.602531909942627
1790267280140566000,9.45156591796875,0.7717728614807129,0.7878897190093994,-2.1963939666748047
1790267280150566100,9.461566162109374,0.4585227966308594,0.5845966339111328,-1.8732261657714844
1790267280160566000,9.47156591796875,0.2424483299255371,0.4363863468170166,-1.6823811531066895
1790267280170566100,9.481566162109376,0.1241912841796875,0.3706357479095459,-1.4849753379821777
1790267280180566000,9.49156591796875,0.1309061050415039,0.3739888668060303,-1.2980742454528809
1790267280190566100,9.501566162109375,0.15354537963867188,0.38490939140319824,-1.0549864768981934
1790267280200566000,9.51156591796875,-0.013422012329101562,0.3568580150604248,-0.8952798843383789
1790267280210566100,9.521566162109375,-0.5437836647033691,0.2428426742553711,-0.808537483215332
1790267280220566000,9.53156591796875,-0.8074121475219727,-0.01428842544555664,-0.670989990234375
1790267280230566100,9.541566162109374,-0.7771449089050293,-0.3498709201812744,-0.6677899360656738
1790267280240566000,9.55156591796875,-0.8130030632019043,-0.7732267379760742,-0.7036681175231934
1790267280250566100,9.561566162109376,-1.104024887084961,-1.250317096710205,-0.6617317199707031
1790267280260566000,9.57156591796875,-1.5781464576721191,-1.6945319175720215,-0.6317362785339355
1790267280270566100,9.581566162109375,-2.0035629272460938,-2.1206297874450684,-0.557736873626709
1790267280280566000,9.59156591796875,-1.733139991760254,-2.3586206436157227,-0.5098714828491211
1790267280290566100,9.601566162109375,-1.276834487915039,-2.3694114685058594,-0.6378359794616699
1790267280300566000,9.61156591796875,-0.99688720703125,-2.2409582138061523,-1.0278205871582031
1790267280310566100,9.621566162109374,-1.2378878593444824,-2.0179572105407715,-1.2602500915527344
1790267280320566000,9.63156591796875,-1.425278663635254,-1.711735725402832,-1.2582755088806152
1790267280330566100,9.641566162109376,-1.364126205444336,-1.3106369972229004,-1.1799263954162598
1790267280340566000,9.65156591796875,-1.4399938583374023,-0.7765312194824219,-1.085707187652588
1790267280350566100,9.661566162109375,-1.4175996780395508,-0.2321643829345703,-1.1095294952392578
1790267280360566000,9.67156591796875,-1.306687831878662,0.2444629669189453,-1.1797571182250977
1790267280370566100,9.681566162109375,-0.9718422889709473,0.5304656028747559,-1.3158636093139648
1790267280380566000,9.69156591796875,-0.9677224159240723,0.4899024963378906,-1.2566919326782227
1790267280390566100,9.701566162109375,-1.516085147857666,0.07986783981323242,-0.7596769332885742
1790267280400566000,9.71156591796875,-1.4800844192504883,-0.46187496185302734,-0.03405332565307617
1790267280410566100,9.721566162109376,-1.3418760299682617,-1.023298740386963,0.2731966972351074
1790267280420566000,9.73156591796875,-1.493166446685791,-1.5623688697814941,0.24132919311523438
1790267280430566100,9.741566162109375,-1.898514747619629,-2.1382689476013184,0.37766313552856445
1790267280440566000,9.75156591796875,-2.43265700340271,-2.721381187438965,0.5484609603881836
1790267280450566100,9.761566162109375,-2.4685821533203125,-2.7532992362976074,-0.28961849212646484
1790267280460566000,9.77156591796875,-2.0746450424194336,-2.805765151977539,-0.7155399322509766
1790267280470566100,9.781566162109375,-2.2470550537109375,-3.4621663093566895,0.19757604598999023
1790267280480566000,9.79156591796875,-2.7766690254211426,-3.867310047149658,0.8910398483276367
1790267280490566100,9.801566162109374,-3.128929376602173,-3.8176164627075195,0.8478817939758301
1790267280500566000,9.81156591796875,-2.880725145339966,-3.4560956954956055,0.5721735954284668
1790267280510566100,9.821566162109375,-2.823502540588379,-2.888699531555176,0.4590420722961426
1790267280520566000,9.83156591796875,-2.6152150630950928,-2.209972858428955,0.4823136329650879
1790267280530566100,9.841566162109375,-2.2530083656311035,-1.4993376731872559,0.5235624313354492
1790267280540566000,9.85156591796875,-2.194262742996216,-0.8492498397827148,0.40509748458862305
1790267280550566100,9.861566162109375,-1.8842053413391113,-0.24115419387817383,0.14421510696411133
1790267280560566000,9.87156591796875,-1.9063429832458496,0.12552928924560547,-0.008316993713378906
1790267280570566100,9.881566162109374,-2.367079257965088,0.042937278747558594,0.04674482345581055
1790267280580566000,9.89156591796875,-2.422376871109009,-0.5540218353271484,0.4270167350769043
1790267280590566100,9.901566162109376,-2.2927253246307373,-1.3317523002624512,0.826469898223877
1790267280600566000,9.91156591796875,-2.118770122528076,-1.9670968055725098,1.0082054138183594
1790267280610566100,9.921566162109375,-1.7630367279052734,-2.2513275146484375,0.9931058883666992
1790267280620566000,9.93156591796875,-1.488199234008789,-2.034195899963379,0.8256597518920898
1790267280630566100,9.941566162109375,-1.8165736198425293,-1.4882912635803223,0.256375789642334
1790267280640566000,9.95156591796875,-2.620358467102051,-0.9363541603088379,-0.2866201400756836
1790267280650566100,9.961566162109374,-2.55330753326416,-0.668769359588623,-0.21070241928100586
1790267280660566000,9.97156591796875,-2.088974714279175,-0.5874876976013184,0.1655879020690918
1790267280670566100,9.981566162109376,-1.9718022346496582,-0.6426229476928711,0.07949018478393555
1790267280680566000,9.99156591796875,-1.5692343711853027,-0.7995047569274902,-0.012254714965820312
1790267280690566100,10.001566162109375,-1.246422529220581,-0.9388575553894043,-0.08240175247192383
1790267280700566000,10.01156591796875,-1.0390684604644775,-0.9496731758117676,-0.022275924682617188
1790267280710566100,10.021566162109375,-0.852635383605957,-0.7783327102661133,0.19354915618896484
1790267280720566000,10.03156591796875,-0.5098493099212646,-0.4969348907470703,0.23142004013061523
1790267280730566100,10.041566162109374,-0.20940876007080078,-0.25290679931640625,0.12690305709838867
1790267280740566000,10.05156591796875,-0.10860300064086914,-0.17735958099365234,0.010796546936035156
1790267280750566100,10.061566162109376,-0.2333970069885254,-0.3935060501098633,-0.0011239051818847656
1790267280760566000,10.07156591796875,-0.6664524078369141,-0.9025254249572754,0.030423641204833984
1790267280770566100,10.081566162109375,-1.1832122802734375,-1.6709909439086914,0.07004117965698242
1790267280780566000,10.09156591796875,-1.3653154373168945,-2.4239330291748047,0.2567596435546875
1790267280790566100,10.101566162109375,-1.097437858581543,-2.860114097595215,0.318087100982666
1790267280800566000,10.11156591796875,-0.6307229995727539,-2.784480571746826,-0.10277080535888672
1790267280810566100,10.121566162109374,-0.6621747016906738,-2.2325315475463867,-0.669830322265625
1790267280820566000,10.13156591796875,-1.417856216430664,-1.5984039306640625,-0.9757547378540039
1790267280830566100,10.141566162109376,-2.7327332496643066,-1.2228436470031738,-0.8020045757293701
1790267280840566000,10.15156591796875,-3.9440741539001465,-1.272221565246582,-0.154998779296875
1790267280850566100,10.161566162109375,-4.199272632598877,-1.6357874870300293,0.732327938079834
1790267280860566000,10.17156591796875,-2.9309029579162598,-1.9707579612731934,1.3838047981262207
1790267280870566100,10.181566162109375,-0.9271664619445801,-1.9294848442077637,1.0477657318115234
1790267280880566000,10.19156591796875,0.40952205657958984,-1.4971256256103516,-0.12369203567504883
1790267280890566100,10.201566162109375,0.8722338676452637,-0.9372496604919434,-0.9345879554748535
1790267280900566000,10.21156591796875,0.5662002563476562,-0.4492015838623047,-1.1775438785552979
1790267280910566100,10.221566162109376,0.1827831268310547,-0.051810264587402344,-0.9998140335083008
1790267280920566000,10.23156591796875,-0.14732694625854492,0.3723726272583008,-0.6927304267883301
1790267280930566100,10.241566162109375,0.08429718017578125,0.8233823776245117,-0.32508325576782227
1790267280940566000,10.25156591796875,0.5593295097351074,1.2505288124084473,-0.11401748657226562
1790267280950566100,10.261566162109375,0.809964656829834,1.509495735168457,-0.1324467658996582
1790267280960566000,10.27156591796875,0.46944713592529297,1.5536813735961914,-0.14489030838012695
1790267280970566100,10.281566162109375,-0.4369778633117676,1.3490948677062988,0.2767915725708008
1790267280980566000,10.29156591796875,-1.3884148597717285,0.7622218132019043,1.174776554107666
1790267280990566100,10.301566162109374,-1.4444079399108887,-0.11482763290405273,2.0783205032348633
1790267281000566000,10.31156591796875,-0.6903376579284668,-1.0804815292358398,2.601719856262207
1790267281010566100,10.321566162109375,-0.15697431564331055,-1.846473217010498,2.763817310333252
1790267281020566000,10.33156591796875,-0.44681215286254883,-2.346010684967041,2.82454252243042
1790267281030566100,10.341566162109375,-1.1461687088012695,-2.7868523597717285,2.965773105621338
1790267281040566000,10.35156591796875,-1.0084943771362305,-3.2401461601257324,2.975663661956787
1790267281050566100,10.361566162109375,-0.12622356414794922,-3.390805244445801,2.8024826049804688
1790267281060566000,10.37156591796875,0.7448983192443848,-2.953577995300293,2.4237890243530273
1790267281070566100,10.381566162109374,1.6673755645751953,-2.031538486480713,1.7583942413330078
1790267281080566000,10.39156591796875,2.7480740547180176,-1.0683894157409668,0.8999571800231934
1790267281090566100,10.401566162109376,3.4807214736938477,-0.28390932083129883,-0.021780014038085938
1790267281100566000,10.41156591796875,3.136115074157715,0.36434435844421387,-0.845766544342041
1790267281110566100,10.421566162109375,2.356295585632324,0.8447279930114746,-1.5559656620025635
1790267281120566000,10.43156591796875,2.3602819442749023,1.1137292385101318,-2.0313777923583984
1790267281130566100,10.441566162109375,3.019371509552002,1.2954363822937012,-2.153911828994751
1790267281140566000,10.45156591796875,3.432558059692383,1.5250678062438965,-1.9126718044281006
1790267281150566100,10.461566162109374,3.315138816833496,1.5436387062072754,-1.7812385559082031
1790267281160566000,10.47156591796875,2.8010358810424805,1.3322573900222778,-1.8611202239990234
1790267281170566100,10.481566162109376,1.9643325805664062,0.9710977077484131,-1.8489654064178467
1790267281180566000,10.49156591796875,0.9104995727539062,0.3770756721496582,-1.5428688526153564
1790267281190566100,10.501566162109375,0.8977160453796387,-0.20728564262390137,-1.2807576656341553
1790267281200566000,10.51156591796875,1.5943412780761719,-0.3407173156738281,-0.9726769924163818
1790267281210566100,10.521566162109375,1.6812043190002441,-0.16206622123718262,-0.6072213649749756
1790267281220566000,10.53156591796875,1.3729948997497559,-0.0859525203704834,-0.32874107360839844
1790267281230566100,10.541566162109374,0.7825946807861328,-0.13498806953430176,0.05865597724914551
1790267281240566000,10.55156591796875,0.34048938751220703,-0.30743837356567383,0.06076478958129883
1790267281250566100,10.561566162109376,0.39142417907714844,-0.5699634552001953,-0.4209609031677246
1790267281260566000,10.57156591796875,0.7633914947509766,-0.88502037525177,-0.9073238372802734
1790267281270566100,10.581566162109375,0.8200740814208984,-1.224604606628418,-1.0962090492248535
1790267281280566000,10.59156591796875,0.8903932571411133,-1.4262911081314087,-1.064850091934204
1790267281290566100,10.601566162109375,1.3212838172912598,-1.265087366104126,-0.8924012184143066
1790267281300566000,10.61156591796875,1.4241790771484375,-0.7877925634384155,-1.0565450191497803
1790267281310566100,10.621566162109374,1.570594310760498,-0.43670594692230225,-1.423978328704834
1790267281320566000,10.63156591796875,1.4487762451171875,-0.2766772508621216,-2.035583972930908
1790267281330566100,10.641566162109376,1.8807621002197266,-0.17856132984161377,-2.532763719558716
1790267281340566000,10.65156591796875,2.718677520751953,-0.0016875267028808594,-2.7635772228240967
1790267281350566100,10.661566162109375,3.0557308197021484,0.3286329507827759,-2.7808289527893066
1790267281360566000,10.67156591796875,3.549044609069824,0.9462195634841919,-2.5780725479125977
1790267281370566100,10.681566162109375,3.7492685317993164,1.7805640697479248,-2.616365432739258
1790267281380566000,10.69156591796875,4.0848565101623535,2.071432113647461,-2.817990303039551
1790267281390566100,10.701566162109375,3.9103994369506836,1.838529109954834,-2.875892162322998
1790267281400566000,10.71156591796875,3.5844192504882812,1.4616081714630127,-2.809175729751587
1790267281410566100,10.721566162109376,2.9488162994384766,1.1749037504196167,-2.854315996170044
1790267281420566000,10.73156591796875,2.092525005340576,1.163102388381958,-2.815674304962158
1790267281430566100,10.741566162109375,1.526209831237793,1.2352949380874634,-2.477431297302246
1790267281440566000,10.75156591796875,1.281477451324463,1.221909761428833,-1.762038230895996
1790267281450566100,10.761566162109375,1.5339345932006836,0.9275472164154053,-1.2667887210845947
1790267281460566000,10.77156591796875,1.351883888244629,0.6484131813049316,-1.225545883178711
1790267281470566100,10.781566162109375,0.39165592193603516,0.5406217575073242,-1.1988272666931152
1790267281480566000,10.79156591796875,-0.13923168182373047,0.5155119895935059,-1.111565113067627
1790267281490566100,10.801566162109374,-0.6493511199951172,0.45256662368774414,-0.992560625076294
1790267281500566000,10.81156591796875,-0.7813644409179688,0.23481416702270508,-0.9141418933868408
1790267281510566100,10.821566162109375,0.05409669876098633,-0.062238216400146484,-0.8924582004547119
1790267281520566000,10.83156591796875,0.9593219757080078,-0.32446765899658203,-0.9841234683990479
1790267281530566100,10.841566162109375,1.3497810363769531,-0.535888671875,-0.9980275630950928
1790267281540566000,10.85156591796875,1.201627254486084,-0.68937087059021,-0.7440128326416016
1790267281550566100,10.861566162109375,0.9548521041870117,-0.7379090785980225,-0.6274261474609375
1790267281560566000,10.87156591796875,0.8270816802978516,-0.7176015377044678,-0.8642945289611816
1790267281570566100,10.881566162109374,0.995417594909668,-0.6593897342681885,-1.2822916507720947
1790267281580566000,10.89156591796875,1.7059288024902344,-0.4817690849304199,-1.7732396125793457
1790267281590566100,10.901566162109376,2.04593563079834,-0.09149003028869629,-2.302152156829834
1790267281600566000,10.91156591796875,1.2671327590942383,0.3981287479400635,-2.4485130310058594
1790267281610566100,10.921566162109375,-0.21413755416870117,0.8765850067138672,-1.9814605712890625
1790267281620566000,10.93156591796875,-1.4734697341918945,1.205545425415039,-1.2379636764526367
1790267281630566100,10.941566162109375,-1.3423867225646973,1.2733683586120605,-0.6973333358764648
1790267281640566000,10.95156591796875,-0.7904410362243652,1.02864408493042,-0.5541925430297852
1790267281650566100,10.961566162109374,-0.28629064559936523,0.48932695388793945,-0.1567854881286621
1790267281660566000,10.97156591796875,-0.485933780670166,-0.3340620994567871,0.3882789611816406
1790267281670566100,10.981566162109376,-1.6637153625488281,-1.4618887901306152,0.7862367630004883
1790267281680566000,10.99156591796875,-2.761023998260498,-2.8405165672302246,1.206446647644043
1790267281690566100,11.001566162109375,-2.9672350883483887,-4.272137641906738,1.5046091079711914
1790267281700566000,11.01156591796875,-2.5977864265441895,-5.404658317565918,1.4004230499267578
1790267281710566100,11.021566162109375,-1.9898591041564941,-5.946559429168701,0.7101969718933105
1790267281720566000,11.03156591796875,-1.5051603317260742,-5.8506669998168945,0.2345280647277832
1790267281730566100,11.041566162109374,-1.454909324645996,-5.122650623321533,0.12909793853759766
1790267281740566000,11.05156591796875,-1.5783748626708984,-3.8278841972351074,-0.11509037017822266
1790267281750566100,11.061566162109376,-1.454124927520752,-2.4651198387145996,-0.4271535873413086
1790267281760566000,11.07156591796875,-0.9496974945068359,-1.1747040748596191,-0.8518257141113281
1790267281770566100,11.081566162109375,-0.1977214813232422,-0.0024619102478027344,-1.2675063610076904
1790267281780566000,11.09156591796875,0.22322893142700195,0.9734344482421875,-1.627171516418457
1790267281790566100,11.101566162109375,-0.05864238739013672,1.7211670875549316,-1.8728752136230469
1790267281800566000,11.11156591796875,-0.4819025993347168,2.2486443519592285,-1.659571647644043
1790267281810566100,11.121566162109374,-0.6639189720153809,2.450407028198242,-0.9509711265563965
1790267281820566000,11.13156591796875,-1.0270204544067383,2.1617870330810547,-0.029158592224121094
1790267281830566100,11.141566162109376,-1.7408599853515625,1.1831669807434082,0.8272123336791992
1790267281840566000,11.15156591796875,-2.2233028411865234,-0.315701961517334,1.4199929237365723
1790267281850566100,11.161566162109375,-2.181161403656006,-2.0563764572143555,2.144522190093994
1790267281860566000,11.17156591796875,-1.9406661987304688,-3.7045063972473145,2.746574878692627
1790267281870566100,11.181566162109375,-1.7617640495300293,-5.0043864250183105,2.934208393096924
1790267281880566000,11.19156591796875,-1.7653727531433105,-5.486117362976074,2.7942724227905273
1790267281890566100,11.201566162109375,-1.8819432258605957,-5.063450813293457,2.5875205993652344
1790267281900566000,11.21156591796875,-2.1620733737945557,-4.004856109619141,2.1706228256225586
1790267281910566100,11.221566162109376,-2.6749203205108643,-2.921816825866699,1.5183725357055664
1790267281920566000,11.23156591796875,-2.973057270050049,-2.0373950004577637,0.7923908233642578
1790267281930566100,11.241566162109375,-2.6064651012420654,-1.4198493957519531,0.32392263412475586
1790267281940566000,11.25156591796875,-1.764920711517334,-1.194997787475586,0.07781362533569336
1790267281950566100,11.261566162109375,-1.218327522277832,-1.1451234817504883,0.0012679100036621094
1790267281960566000,11.27156591796875,-0.9702610969543457,-0.989591121673584,-0.15321779251098633
1790267281970566100,11.281566162109375,-0.8918116092681885,-0.6568117141723633,-0.574444055557251
1790267281980566000,11.29156591796875,-0.8149518966674805,-0.13625288009643555,-1.1621525287628174
1790267281990566100,11.301566162109374,-0.6798763275146484,0.5195932388305664,-1.6653952598571777
1790267282000566000,11.31156591796875,-0.6017837524414062,1.2320380210876465,-1.8766274452209473
1790267282010566100,11.321566162109375,-0.6122040748596191,1.79475736618042,-1.7978754043579102
1790267282020566000,11.33156591796875,-0.6020126342773438,2.0121383666992188,-1.4853427410125732
1790267282030566100,11.341566162109375,-0.7643923759460449,1.6473684310913086,-0.980344295501709
1790267282040566000,11.35156591796875,-1.3016552925109863,0.6962943077087402,-0.3301224708557129
1790267282050566100,11.361566162109375,-1.791092872619629,-0.4700908660888672,0.1357278823852539
1790267282060566000,11.37156591796875,-1.7422056198120117,-1.5363783836364746,0.4093489646911621
1790267282070566100,11.381566162109374,-1.2967748641967773,-2.1796693801879883,0.1629643440246582
1790267282080566000,11.39156591796875,-1.0512561798095703,-2.3517165184020996,-0.46225452423095703
1790267282090566100,11.401566162109376,-1.525848388671875,-2.2529964447021484,-1.0455384254455566
1790267282100566000,11.41156591796875,-2.2037854194641113,-2.1824421882629395,-1.3802590370178223
1790267282110566100,11.421566162109375,-2.5319528579711914,-2.314520835876465,-1.0574541091918945
1790267282120566000,11.43156591796875,-2.084975242614746,-2.5184826850891113,-0.22101402282714844
1790267282130566100,11.441566162109375,-1.0188002586364746,-2.5597968101501465,0.509953498840332
1790267282140566000,11.45156591796875,-0.3778829574584961,-2.4087271690368652,0.709317684173584
1790267282150566100,11.461566162109374,-0.382596492767334,-2.108785629272461,0.32717323303222656
1790267282160566000,11.47156591796875,-0.9260258674621582,-1.7904152870178223,0.12296676635742188
1790267282170566100,11.481566162109376,-1.0037102699279785,-1.546259880065918,0.23035526275634766
1790267282180566000,11.49156591796875,-0.4503159523010254,-1.32930326461792,0.30551767349243164
1790267282190566100,11.501566162109375,0.16325092315673828,-1.0107994079589844,0.21517705917358398
1790267282200566000,11.51156591796875,0.26514148712158203,-0.5966033935546875,0.049508094787597656
1790267282210566100,11.521566162109375,-0.47932958602905273,-0.2785658836364746,0.1278061866760254
1790267282220566000,11.53156591796875,-1.718973159790039,-0.31176090240478516,0.6315317153930664
1790267282230566100,11.541566162109374,-2.202420234680176,-0.7311568260192871,1.4787960052490234
1790267282240566000,11.55156591796875,-1.3275418281555176,-1.2947139739990234,2.150698661804199
1790267282250566100,11.561566162109376,0.1161656379699707,-1.5380024909973145,2.3077712059020996
1790267282260566000,11.57156591796875,0.6875734329223633,-1.252448558807373,1.9917864799499512
1790267282270566100,11.581566162109375,0.07076787948608398,-0.7550454139709473,1.5047268867492676
1790267282280566000,11.59156591796875,-0.8428459167480469,-0.46646690368652344,1.4928054809570312
1790267282290566100,11.601566162109375,-1.3571991920471191,-0.6607141494750977,1.8238797187805176
1790267282300566000,11.61156591796875,-1.255622386932373,-1.2264151573181152,2.110642910003662
1790267282310566100,11.621566162109374,-0.3947024345397949,-1.8527870178222656,1.9172515869140625
1790267282320566000,11.63156591796875,0.5460267066955566,-2.110564708709717,1.279238224029541
1790267282330566100,11.641566162109376,0.8018712997436523,-1.9241223335266113,0.5159149169921875
1790267282340566000,11.65156591796875,0.6329512596130371,-1.523726463317871,-0.2140483856201172
1790267282350566100,11.661566162109375,0.1585845947265625,-1.213688850402832,-0.562258243560791
1790267282360566000,11.67156591796875,-0.42698144912719727,-1.2244172096252441,-0.4108242988586426
1790267282370566100,11.681566162109375,-0.3652377128601074,-1.5364923477172852,-0.004363536834716797
1790267282380566000,11.69156591796875,0.14959335327148438,-1.7991442680358887,0.2759852409362793
1790267282390566100,11.701566162109375,0.15530633926391602,-1.7834720611572266,0.41258668899536133
1790267282400566000,11.71156591796875,-0.10356569290161133,-1.569333553314209,0.5087261199951172
1790267282410566100,11.721566162109376,-0.01747417449951172,-1.2920880317687988,0.34807777404785156
1790267282420566000,11.73156591796875,0.5007963180541992,-1.0339460372924805,0.3151063919067383
1790267282430566100,11.741566162109375,0.9827818870544434,-0.8032524585723877,0.25800371170043945
1790267282440566000,11.75156591796875,1.2151756286621094,-0.6872406005859375,-0.13262653350830078
1790267282450566100,11.761566162109375,1.1585383415222168,-0.7045953273773193,-0.4905366897583008
1790267282460566000,11.77156591796875,1.3794441223144531,-0.8330948352813721,-0.7202792167663574
1790267282470566100,11.781566162109375,2.25936222076416,-1.0126781463623047,-0.7947063446044922
1790267282480566000,11.79156591796875,2.7868690490722656,-1.131809949874878,-0.9215714931488037
1790267282490566100,11.801566162109374,2.783529281616211,-1.017411708831787,-1.2054758071899414
1790267282500566000,11.81156591796875,2.362194061279297,-0.787299633026123,-1.370391845703125
1790267282510566100,11.821566162109375,1.8893084526062012,-0.6759564876556396,-1.5082416534423828
1790267282520566000,11.83156591796875,1.7551069259643555,-0.6877095699310303,-1.5527441501617432
1790267282530566100,11.841566162109375,2.6738967895507812,-1.489477515220642,-1.4038329124450684
1790267282540566000,11.85156591796875,3.0332493782043457,-0.760077714920044,-0.8664071559906006
1790267282550566100,11.861566162109375,3.2496519088745117,-1.186009168624878,-0.8072681427001953
1790267282560566000,11.87156591796875,2.1049203872680664,-1.3188228607177734,-1.0553553104400635
1790267282570566100,11.881566162109374,0.8804502487182617,-0.9430513381958008,-1.472083568572998
1790267282580566000,11.89156591796875,1.1230049133300781,-0.5422886610031128,-1.6930491924285889
1790267282590566100,11.901566162109376,1.7427759170532227,-0.1973971128463745,-1.4910118579864502
1790267282600566000,11.91156591796875,2.0195789337158203,0.012647628784179688,-1.1299047470092773
1790267282610566100,11.921566162109375,1.6707568168640137,-0.2543554902076721,-1.0930883884429932
1790267282620566000,11.93156591796875,0.7896051406860352,-0.6441401243209839,-1.2222628593444824
1790267282630566100,11.941566162109375,1.3010339736938477,-0.8060764670372009,-1.1259491443634033
1790267282640566000,11.95156591796875,2.288419723510742,-0.49709272384643555,-1.3645257949829102
1790267282650566100,11.961566162109374,2.37554931640625,-0.06685912609100342,-2.017824172973633
1790267282660566000,11.97156591796875,2.2809433937072754,0.25015655159950256,-2.474191188812256
1790267282670566100,11.981566162109376,3.1434531211853027,0.44027256965637207,-2.5413589477539062
1790267282680566000,11.99156591796875,3.2980852127075195,0.6217501163482666,-2.8320250511169434
1790267282690566100,12.001566162109375,3.6036624908447266,0.9863100051879883,-3.0485246181488037
1790267282700566000,12.01156591796875,4.214016914367676,1.4233367443084717,-3.05997896194458
1790267282710566100,12.021566162109375,3.671666145324707,1.8379838466644287,-2.9357738494873047
1790267282720566000,12.03156591796875,3.0087742805480957,2.038196563720703,-2.529553174972534
1790267282730566100,12.041566162109374,3.1817331314086914,1.928091049194336,-2.1631460189819336
1790267282740566000,12.05156591796875,3.031378746032715,1.7404398918151855,-1.7549879550933838
1790267282750566100,12.061566162109376,3.070864677429199,1.3918046951293945,-1.0819675922393799
1790267282760566000,12.07156591796875,3.091568946838379,0.9809625744819641,-1.0254735946655273
1790267282770566100,12.081566162109375,2.810662269592285,0.6756342053413391,-1.2151479721069336
1790267282780566000,12.09156591796875,1.9147682189941406,0.4632887840270996,-1.0901031494140625
1790267282790566100,12.101566162109375,1.9749259948730469,0.3995321989059448,-0.7077128887176514
1790267282800566000,12.11156591796875,2.2329463958740234,0.32796454429626465,-0.7128949165344238
1790267282810566100,12.121566162109374,1.7107787132263184,0.23831164836883545,-0.7082281112670898
1790267282820566000,12.13156591796875,0.9211020469665527,0.23496699333190918,-0.24351119995117188
1790267282830566100,12.141566162109376,0.9777426719665527,0.13527441024780273,0.24066925048828125
1790267282840566000,12.15156591796875,1.7916693687438965,0.03290867805480957,0.13409090042114258
1790267282850566100,12.161566162109375,1.7141122817993164,-0.09812664985656738,-0.034975528717041016
1790267282860566000,12.17156591796875,1.3618597984313965,-0.11730647087097168,0.04299163818359375
1790267282870566100,12.181566162109375,1.0814061164855957,-0.11754393577575684,0.1582636833190918
1790267282880566000,12.19156591796875,1.2398624420166016,-0.08680987358093262,0.2134847640991211
1790267282890566100,12.201566162109375,1.3245949745178223,0.10530900955200195,0.09895563125610352
1790267282900566000,12.21156591796875,1.4419198036193848,0.29776883125305176,-0.060028076171875
1790267282910566100,12.221566162109376,1.4516797065734863,0.3299703598022461,-0.34777355194091797
1790267282920566000,12.23156591796875,0.7798895835876465,0.21213817596435547,-0.5368843078613281
1790267282930566100,12.241566162109375,0.4880356788635254,0.03745555877685547,-0.6089591979980469
1790267282940566000,12.25156591796875,0.6503696441650391,-0.11498022079467773,-0.56494140625
1790267282950566100,12.261566162109375,0.6392302513122559,-0.19514894485473633,-0.5225324630737305
1790267282960566000,12.27156591796875,0.3681645393371582,-0.2913026809692383,-0.4082674980163574
1790267282970566100,12.281566162109375,0.3008260726928711,-0.48940181732177734,-0.2647109031677246
1790267282980566000,12.29156591796875,-0.06857061386108398,-0.7878665924072266,-0.25925111770629883
1790267282990566100,12.301566162109374,-0.834465503692627,-1.109950065612793,-0.33992433547973633
1790267283000566000,12.31156591796875,-0.8936114311218262,-1.4133296012878418,-0.22582721710205078
1790267283010566100,12.321566162109375,-0.8615932464599609,-1.6854462623596191,-0.20963573455810547
1790267283020566000,12.33156591796875,-1.5592784881591797,-1.9926013946533203,-0.27468442916870117
1790267283030566100,12.341566162109375,-2.4117612838745117,-2.0844101905822754,-0.2740597724914551
1790267283040566000,12.35156591796875,-2.503910541534424,-2.038404941558838,-0.20669889450073242
1790267283050566100,12.361566162109375,-2.087103843688965,-2.0626888275146484,-0.40626001358032227
1790267283060566000,12.37156591796875,-1.501584529876709,-2.029071807861328,-0.6271781921386719
1790267283070566100,12.381566162109374,-1.2612924575805664,-1.9732189178466797,-0.5868802070617676
1790267283080566000,12.39156591796875,-1.2783842086791992,-1.9489331245422363,-0.46715497970581055
1790267283090566100,12.401566162109376,-1.5181217193603516,-1.9775886535644531,-0.4294319152832031
1790267283100566000,12.41156591796875,-1.9535102844238281,-2.07061767578125,-0.5849752426147461
1790267283110566100,12.421566162109375,-1.9083800315856934,-2.0326194763183594,-0.6892495155334473
1790267283120566000,12.43156591796875,-1.6043305397033691,-2.0285277366638184,-0.47586894035339355
1790267283130566100,12.441566162109375,-1.3286795616149902,-2.1238856315612793,0.018887042999267578
1790267283140566000,12.45156591796875,-1.1792702674865723,-2.2710437774658203,0.6101317405700684
1790267283150566100,12.461566162109374,-1.1673922538757324,-2.4802727699279785,0.9436984062194824
1790267283160566000,12.47156591796875,-1.1000251770019531,-2.678776264190674,1.4061837196350098
1790267283170566100,12.481566162109376,-0.845909595489502,-2.720670223236084,1.773592472076416
1790267283180566000,12.49156591796875,-0.39568138122558594,-2.6259846687316895,1.9535982608795166
1790267283190566100,12.501566162109375,-0.04259014129638672,-2.247178077697754,2.01643705368042
1790267283200566000,12.51156591796875,0.07919073104858398,-1.7225537300109863,1.9902880191802979
1790267283210566100,12.521566162109375,-0.12160348892211914,-1.1168818473815918,1.8688633441925049
1790267283220566000,12.53156591796875,-0.4924139976501465,-0.5237975120544434,1.691967487335205
1790267283230566100,12.541566162109374,-0.5971546173095703,0.03565073013305664,1.4916484355926514
1790267283240566000,12.55156591796875,-0.6733007431030273,0.37554502487182617,1.3148951530456543
1790267283250566100,12.561566162109376,-0.7217440605163574,0.43525171279907227,1.3115203380584717
