time,seconds_elapsed,z,y,x
1790267270767745000,0.0787451171875,9.052047729492188,2.3712873458862305,-2.744567632675171
1790267270784998000,0.095997802734375,7.76470947265625,2.589034080505371,-3.0723843574523926
1790267270802250500,0.11325048828125,7.977670669555664,3.012563705444336,-3.012563705444336
1790267270819503400,0.13050341796875,6.226124286651611,2.6847469806671143,-3.081955671310425
1790267270836756200,0.147756103515625,4.603790760040283,1.648654818534851,-3.689732551574707
1790267270854009000,0.165009033203125,6.733402729034424,2.4358935356140137,-8.195417404174805
1790267270871262000,0.182261962890625,7.0755767822265625,2.6057839393615723,-6.664011001586914
1790267270888514600,0.1995146484375,4.823930263519287,1.2945170402526855,-4.687539577484131
1790267270905767400,0.216767333984375,4.4961137771606445,1.0169496536254883,-4.359723091125488
1790267270923020300,0.234020263671875,7.1234331130981445,1.9645073413848877,-5.096712112426758
1790267270940273200,0.251273193359375,12.308679580688477,1.5146567821502686,-0.5168496966362
1790267270957526000,0.268526123046875,14.237295150756836,4.517649173736572,-2.258824586868286
1790267270974778600,0.285778564453125,9.32722282409668,3.7256247997283936,-3.4959139823913574
1790267270992031500,0.303031494140625,5.077569484710693,2.359323024749756,-3.2590243816375732
1790267271009284400,0.320284423828125,3.0652058124542236,2.6321048736572266,-5.886343479156494
1790267271026537200,0.337537109375,4.677968502044678,2.493321180343628,-7.558926582336426
1790267271043790000,0.3547900390625,5.867201328277588,1.196411371231079,-6.345765590667725
1790267271061043000,0.37204296875,6.556334018707275,0.9236295223236084,-5.419743061065674
1790267271078295600,0.389295654296875,6.604190349578857,0.7752745151519775,-4.357329845428467
1790267271095548400,0.40654833984375,7.877171993255615,0.9810572862625122,-1.6965112686157227
1790267271112801300,0.42380126953125,9.34157943725586,1.9908283948898315,-1.8855443000793457
1790267271130054100,0.44105419921875,9.329615592956543,1.8113667964935303,-2.5076780319213867
1790267271147307000,0.45830712890625,10.588240623474121,4.603790760040283,-2.163111686706543
1790267271164559600,0.4755595703125,10.482955932617188,5.264209747314453,-0.1459621787071228
1790267271181812500,0.4928125,11.748759269714355,5.4795637130737305,-0.8662018179893494
1790267271199065300,0.5100654296875,12.256037712097168,5.98444938659668,-0.8422735929489136
1790267271216318200,0.527318115234375,12.153145790100098,6.58265495300293,0.16510476171970367
1790267271233571000,0.544571044921875,12.282358169555664,6.819544315338135,0.7393822073936462
1790267271250824000,0.561823974609375,12.961919784545898,5.874379634857178,0.4498506486415863
1790267271268076500,0.57907666015625,12.533604621887207,4.790431022644043,0.8590233325958252
1790267271285329400,0.596329345703125,11.992827415466309,4.2209391593933105,1.825723648071289
1790267271302582300,0.613582275390625,10.626524925231934,3.218346357345581,1.7874385118484497
1790267271319835100,0.630835205078125,10.482955932617188,1.97407865524292,1.100698471069336
1790267271337088000,0.648087890625,9.956535339355469,1.435693621635437,0.8997012972831726
1790267271354340600,0.665340576171875,8.72183895111084,1.7491533756256104,1.9645073413848877
1790267271371593500,0.682593505859375,7.221538543701172,1.7611174583435059,2.651247501373291
1790267271388846300,0.699846435546875,7.915457248687744,1.8113667964935303,2.60339093208313
1790267271406099200,0.71709912109375,9.384650230407715,1.2299108505249023,2.4765713214874268
1790267271423352000,0.73435205078125,9.69093132019043,1.2849457263946533,2.311466693878174
1790267271440605000,0.75160498046875,8.793622970581055,1.2729816436767578,1.9812572002410889
1790267271457857500,0.768857421875,7.3675007820129395,2.0099709033966064,1.2586246728897095
1790267271475110400,0.7861103515625,6.845865726470947,2.447857618331909,1.9381862878799438
1790267271492363300,0.80336328125,8.023134231567383,2.280359983444214,2.6608188152313232
1790267271509616000,0.8206162109375,8.865407943725586,2.03629207611084,2.581855535507202
1790267271526869000,0.837868896484375,9.726823806762695,1.4859428405761719,2.2061824798583984
1790267271544121600,0.85512158203125,11.164910316467285,1.9262222051620483,2.9934210777282715
1790267271561374500,0.87237451171875,10.28195858001709,2.68953275680542,3.5605201721191406
1790267271578627300,0.88962744140625,8.86062240600586,3.084348440170288,2.809173822402954
1790267271595880200,0.906880126953125,8.951549530029297,2.6560330390930176,1.2203395366668701
1790267271613133000,0.924133056640625,9.578469276428223,2.2851455211639404,0.9403793215751648
1790267271630385700,0.9413857421875,9.966106414794922,1.9884356260299683,1.246660590171814
1790267271647638500,0.958638427734375,8.812766075134277,1.8759729862213135,1.093519926071167
1790267271664891400,0.975891357421875,7.791030406951904,1.672582983970642,1.373480200767517
1790267271682144300,0.993144287109375,8.204988479614258,2.1104695796966553,0.7202396392822266
1790267271699397000,1.010397216796875,8.863015174865723,1.557727575302124,1.25144624710083
1790267271716650000,1.02764990234375,9.370293617248535,0.9690931439399719,1.0145567655563354
1790267271733902600,1.044902587890625,9.734002113342285,0.8638089895248413,1.28255295753479
1790267271751155500,1.062155517578125,9.841679573059082,0.8015955686569214,2.280359983444214
1790267271768408300,1.079408203125,10.138389587402344,0.8303094506263733,2.1894326210021973
1790267271785661200,1.0966611328125,10.961520195007324,0.7034898400306702,1.94297194480896
1790267271802914000,1.1139140625,10.224531173706055,-0.20338992774486542,2.3784656524658203
1790267271820166700,1.131166748046875,9.578469276428223,-0.4378865361213684,2.1296122074127197
1790267271837419500,1.14841943359375,7.582854747772217,0.07657032459974289,0.9810572862625122
1790267271854672400,1.16567236328125,5.000999450683594,-1.4213366508483887,2.172683000564575
1790267271871925200,1.18292529296875,4.249652862548828,-2.5603201389312744,2.6727828979492188
1790267271889178000,1.20017822265625,4.237689018249512,-3.218346357345581,2.7565317153930664
1790267271906431000,1.217430908203125,2.744567632675171,-3.445664644241333,2.5387847423553467
1790267271923683600,1.23468359375,1.4452649354934692,-2.6967110633850098,2.038684844970703
1790267271940936400,1.2519365234375,0.6269195079803467,-4.878965377807617,6.561119556427002
1790267271958189300,1.269189208984375,2.9072794914245605,-3.5126636028289795,7.542177200317383
1790267271975442200,1.286442138671875,2.9288148880004883,-2.1200408935546875,9.915857315063477
1790267271992695000,1.303695068359375,1.6199408769607544,-1.3782658576965332,12.591032981872559
1790267272009947600,1.32094775390625,2.1415762901306152,2.045863389968872,12.772887229919434
1790267272027200500,1.338200439453125,2.132004976272583,1.3208380937576294,17.302499771118164
1790267272044453400,1.355453369140625,3.046063184738159,1.3902299404144287,19.444076538085938
1790267272061706200,1.372706298828125,5.424529075622559,0.17706887423992157,18.611373901367188
1790267272078959000,1.389958984375,8.927620887756348,0.4450650215148926,14.210973739624023
1790267272096212000,1.4072119140625,8.413164138793945,0.638883650302887,10.045069694519043
1790267272113464600,1.424464599609375,5.173282623291016,-0.8709874153137207,6.364908218383789
1790267272130717400,1.441717529296875,5.091926574707031,-2.2923240661621094,5.663811206817627
1790267272147970300,1.45897021484375,3.7232320308685303,-2.1439690589904785,6.192625045776367
1790267272165223200,1.47622314453125,2.806781053543091,-2.809173822402954,4.955535888671875
1790267272182476000,1.49347607421875,3.656233072280884,-4.9435715675354,4.12761926651001
1790267272199729000,1.51072900390625,4.402793884277344,-5.682953834533691,4.204189300537109
1790267272216981500,1.5279814453125,3.665804386138916,-6.680760860443115,4.575077056884766
1790267272234234400,1.545234375,2.967100143432617,-7.537391185760498,4.321437835693359
1790267272251487200,1.5624873046875,1.6295121908187866,-8.439485549926758,5.826523303985596
1790267272268740000,1.579739990234375,2.6608188152313232,-10.241280555725098,10.88016414642334
1790267272285993000,1.596992919921875,2.2612173557281494,-11.392229080200195,16.46022605895996
1790267272303245800,1.614245849609375,1.057627558708191,-6.302694797515869,17.63031768798828
1790267272320498700,1.631498779296875,-1.7826528549194336,-5.099104881286621,22.79881477355957
1790267272337751300,1.648751220703125,-2.9862427711486816,-3.483949661254883,22.327428817749023
1790267272355004200,1.666004150390625,-2.4526431560516357,-2.5674986839294434,19.06122589111328
1790267272372257000,1.683257080078125,-4.807180881500244,-1.1485549211502075,20.757736206054688
1790267272389510000,1.700510009765625,-8.367700576782227,0.20338992774486542,20.906091690063477
1790267272406762800,1.7177626953125,-10.470992088317871,0.42831525206565857,16.369298934936523
1790267272424015600,1.735015625,-7.5637125968933105,-0.6532405614852905,10.06421184539795
1790267272441268500,1.7522685546875,-3.38105845451355,-0.2991028428077698,6.553941249847412
1790267272458521000,1.76952099609375,-3.8356947898864746,0.20099709928035736,8.72901725769043
1790267272475774000,1.78677392578125,-4.4482574462890625,0.2727817893028259,7.073183536529541
1790267272493026800,1.80402685546875,-3.9912281036376953,-1.8783657550811768,0.25363919138908386
1790267272510279700,1.82127978515625,-4.761716842651367,-3.728017568588257,-2.5076780319213867
1790267272527532500,1.838532470703125,-3.1178479194641113,-4.151547431945801,3.105883836746216
1790267272544785400,1.855785400390625,-1.2969099283218384,-2.029113531112671,8.94676399230957
1790267272562038300,1.873038330078125,-2.5746772289276123,-4.185046672821045,5.115854740142822
1790267272579291100,1.890291015625,-10.171889305114746,1.454836130142212,1.459621787071228
1790267272596543700,1.907543701171875,1.4476577043533325,-5.1876397132873535,6.711867332458496
1790267272613796600,1.924796630859375,-0.4905286431312561,-1.4452649354934692,12.835101127624512
1790267272631049500,1.942049560546875,-9.023334503173828,1.9405791759490967,13.031311988830566
1790267272648302300,1.95930224609375,-8.757730484008789,1.368694543838501,8.609375953674316
1790267272665555200,1.97655517578125,-4.180261135101318,-2.6153552532196045,5.565705299377441
1790267272682808000,1.99380810546875,-6.137589931488037,-3.050848960876465,6.317051887512207
1790267272700061000,2.01106103515625,-6.455835342407227,-4.534399032592773,6.991827964782715
1790267272717313500,2.0283134765625,-4.316651821136475,-7.714460372924805,8.535198211669922
1790267272734566400,2.04556640625,-0.2871387302875519,-8.791230201721191,11.37069320678711
1790267272751819300,2.0628193359375,-0.09571290761232376,-12.799208641052246,10.329814910888672
1790267272769072000,2.080072021484375,-3.297309637069702,-11.389835357666016,10.437492370605469
1790267272786325000,2.097324951171875,-6.616154670715332,-10.116853713989258,4.972285270690918
1790267272803577900,2.114577880859375,-9.501898765563965,-5.828916072845459,3.232703447341919
1790267272820830700,2.131830810546875,-11.167303085327148,-2.837887763977051,6.221338748931885
1790267272838083600,2.14908349609375,-5.726024627685547,-3.871587038040161,6.226124286651611
1790267272855336200,2.166336181640625,-1.8616160154342651,-5.606383323669434,5.168497085571289
1790267272872589000,2.183589111328125,-0.763310432434082,-6.7621169090271,6.7310099601745605
1790267272889842000,2.200842041015625,-4.993820667266846,-4.232903480529785,9.987641334533691
1790267272907094800,2.2180947265625,-5.800201892852783,-1.3639088869094849,12.229716300964355
1790267272924347600,2.23534765625,-4.077369689941406,-0.7202396392822266,9.399007797241211
1790267272941600500,2.2526005859375,-4.146761417388916,-2.108076810836792,5.254638671875
1790267272958853400,2.269853271484375,-3.5270206928253174,-2.572284460067749,3.730410575866699
1790267272976106200,2.287106201171875,-5.917450428009033,-5.85284423828125,7.635497093200684
1790267272993358800,2.30435888671875,-9.516255378723145,-7.417750358581543,7.850851058959961
1790267273010611700,2.32161181640625,-6.417550563812256,-6.585047721862793,6.38165807723999
1790267273027864600,2.338864501953125,-3.9529430866241455,-4.761716842651367,4.864608287811279
1790267273045117400,2.356117431640625,-3.445664644241333,-4.122833251953125,5.036891460418701
1790267273062370300,2.373370361328125,-1.3160524368286133,-4.264009952545166,4.711467742919922
1790267273079623200,2.390623046875,-0.08135596662759781,-6.082555294036865,1.7587246894836426
1790267273096875800,2.407875732421875,-3.0580272674560547,-7.216753005981445,1.8065811395645142
1790267273114128600,2.425128662109375,-5.257031440734863,-8.214560508728027,3.0939197540283203
1790267273131381500,2.442381591796875,-5.13739013671875,-8.918049812316895,4.146761417388916
1790267273148634400,2.45963427734375,-3.2709884643554688,-9.279366493225098,4.577469825744629
1790267273165887200,2.47688720703125,-1.8137595653533936,-8.769695281982422,3.4121651649475098
1790267273183140000,2.49414013671875,-1.0456634759902954,-4.945964336395264,1.954936146736145
1790267273200393000,2.51139306640625,-0.8901300430297852,3.4169507026672363,1.9932212829589844
1790267273217645600,2.5286455078125,2.9862427711486816,-6.9104719161987305,4.0319061279296875
1790267273234898700,2.545898681640625,-0.8805587291717529,-9.20279598236084,3.1178479194641113
1790267273252151600,2.563151611328125,-7.3914289474487305,-10.64088249206543,1.0456634759902954
1790267273269404200,2.580404052734375,-5.431707382202148,-12.112467765808105,1.2370892763137817
1790267273286657000,2.597656982421875,3.321237802505493,-14.017154693603516,3.160918712615967
1790267273303910000,2.614909912109375,3.0005996227264404,-12.933206558227539,5.319244861602783
1790267273321162800,2.632162841796875,-2.328216314315796,-13.476377487182617,7.293323516845703
1790267273338415600,2.64941552734375,-0.9786644577980042,-14.490934371948242,7.190432071685791
1790267273355668500,2.66666845703125,-3.462414264678955,-14.031512260437012,3.8261234760284424
1790267273372921300,2.68392138671875,-3.6849467754364014,-13.383056640625,1.9022940397262573
1790267273390174000,2.701174072265625,-2.0793628692626953,-12.739387512207031,0.10767702013254166
1790267273407426800,2.7184267578125,-1.4644074440002441,-11.23908805847168,-1.3232308626174927
1790267273424679700,2.7356796875,-1.8089739084243774,-11.717652320861816,0.7752745151519775
1790267273441932500,2.7529326171875,-1.0456634759902954,-10.96869945526123,2.251646041870117
1790267273459185400,2.770185302734375,-1.1748759746551514,-8.989834785461426,2.3784656524658203
1790267273476438300,2.787438232421875,-2.3952155113220215,-7.728816986083984,4.7401814460754395
1790267273493691100,2.804691162109375,-1.0193424224853516,-8.449056625366211,5.376672267913818
1790267273510944000,2.821944091796875,0.007178467698395252,-8.520841598510742,2.641676187515259
1790267273528196900,2.83919677734375,-1.552941918373108,-9.846465110778809,2.115255117416382
1790267273545449700,2.85644970703125,-2.6009981632232666,-10.176674842834473,2.0482561588287354
1790267273562702600,2.87370263671875,-2.7565317153930664,-9.657432556152344,1.7515461444854736
1790267273579955200,2.890955078125,-2.6057839393615723,-8.685946464538574,1.887937068939209
1790267273597208000,2.9082080078125,-2.416750907897949,-8.188239097595215,2.2923240661621094
1790267273614461000,2.9254609375,-0.11724831163883209,-7.250252723693848,3.1728827953338623
1790267273631713800,2.9427138671875,0.28953152894973755,-5.580062389373779,4.18983268737793
1790267273648966700,2.959966552734375,-0.38763725757598877,-10.29153060913086,4.706682205200195
1790267273666219500,2.977219482421875,-2.455035924911499,-9.123832702636719,3.9314076900482178
1790267273683472400,2.994472412109375,-1.2897313833236694,-7.898707389831543,4.498506546020508
1790267273700725200,3.011725341796875,-1.153340458869934,-7.989634990692139,3.5509488582611084
1790267273717978000,3.02897802734375,-0.33020952343940735,-7.9250288009643555,2.9838497638702393
1790267273735231000,3.04623095703125,-2.9144580364227295,-9.585647583007812,2.3808584213256836
1790267273752483800,3.06348388671875,-0.28953152894973755,-9.791430473327637,4.089334011077881
1790267273769736700,3.08073681640625,-0.6484549641609192,-10.169496536254883,2.6368906497955322
1790267273786989300,3.0979892578125,-0.2153540402650833,-9.174081802368164,1.6965112686157227
1790267273804242400,3.115242431640625,-0.062213387340307236,-9.45164966583252,1.2035897970199585
1790267273821495300,3.132495361328125,1.0648061037063599,-10.820343971252441,1.1772687435150146
1790267273838748000,3.149747802734375,-2.321038007736206,-12.181859970092773,1.911865234375
1790267273856000800,3.167000732421875,-4.95074987411499,-13.179667472839355,-0.9212366938591003
1790267273873253600,3.184253662109375,-4.07258415222168,-12.626925468444824,-0.32303106784820557
1790267273890506500,3.201506591796875,-2.6703901290893555,-11.49512004852295,0.23449662327766418
1790267273907759400,3.21875927734375,-0.48095735907554626,-10.17428207397461,0.29431718587875366
1790267273925012200,3.23601220703125,1.0193424224853516,-8.707481384277344,2.1511476039886475
1790267273942265000,3.25326513671875,1.6414763927459717,-8.09970474243164,3.2709884643554688
1790267273959518000,3.27051806640625,-0.05024927482008934,-8.291130065917969,3.1896326541900635
1790267273976770800,3.287770751953125,0.2919243574142456,-9.533005714416504,2.2205393314361572
1790267273994023700,3.305023681640625,1.3208380937576294,-9.257830619812012,2.014756679534912
1790267274011276500,3.322276611328125,0.727418065071106,-7.386643409729004,3.94097900390625
1790267274028529400,3.339529296875,-0.8781659007072449,-7.599604606628418,3.8189449310302734
1790267274045782000,3.356781982421875,-0.4378865361213684,-8.865407943725586,3.4002010822296143
1790267274063035100,3.37403515625,0.4737788736820221,-8.693124771118164,3.538984775543213
1790267274080288000,3.3912880859375,-0.2919243574142456,-9.080761909484863,2.4335005283355713
1790267274097540900,3.408540771484375,-0.33499518036842346,-8.647661209106445,2.6177480220794678
1790267274114793500,3.42579345703125,-0.1986042857170105,-8.870193481445312,2.2851455211639404
1790267274132046600,3.443046630859375,0.363709032535553,-11.2247314453125,0.9284151792526245
1790267274149299500,3.460299560546875,-3.9840497970581055,-10.832307815551758,0.9954141974449158
1790267274166552000,3.477552001953125,-1.6007983684539795,-11.351551055908203,2.344966173171997
1790267274183805000,3.494804931640625,-0.7154539823532104,-7.606783390045166,3.1752755641937256
1790267274201057800,3.512057861328125,-0.40677985548973083,-5.718846321105957,4.895715236663818
1790267274218310700,3.529310546875,-0.7800601720809937,-6.6113691329956055,5.615954875946045
1790267274235563500,3.5465634765625,0.16271193325519562,-11.997612953186035,4.517649173736572
1790267274252816400,3.56381640625,-3.8668015003204346,-12.720245361328125,2.6608188152313232
1790267274270069200,3.5810693359375,-2.4574289321899414,-12.66042423248291,-1.6247265338897705
1790267274287322000,3.598322021484375,0.3924229145050049,-11.23190975189209,-3.0580272674560547
1790267274304575000,3.615574951171875,-0.22971096634864807,-9.32722282409668,-0.9188438653945923
1790267274321827800,3.632827880859375,-0.6556333899497986,-9.037691116333008,1.4189438819885254
1790267274339080700,3.650080810546875,-0.39481574296951294,-9.219545364379883,2.3401806354522705
1790267274356333600,3.66733349609375,-0.3445664644241333,-8.740981101989746,2.7517459392547607
1790267274373586400,3.68458642578125,-1.5481562614440918,-7.255038261413574,4.046263217926025
1790267274390839300,3.70183935546875,-2.225325107574463,-7.788637638092041,4.177868366241455
1790267274408092200,3.719092041015625,-2.7110681533813477,-9.686145782470703,3.460021495819092
1790267274425345000,3.736344970703125,-2.7565317153930664,-10.461421012878418,3.5270206928253174
1790267274442598000,3.753597900390625,-1.1318050622940063,-9.91825008392334,3.2303106784820557
1790267274459850800,3.770850830078125,-1.892722725868225,-9.253045082092285,2.9862427711486816
1790267274477103600,3.788103515625,-2.4119651317596436,-8.396414756774902,0.9308080077171326
1790267274494356500,3.8053564453125,0,-8.774480819702148,2.7589244842529297
1790267274511609300,3.822609375,0.97148597240448,-9.748359680175781,2.715853691101074
1790267274528862200,3.8398623046875,-1.3806586265563965,-9.269794464111328,2.761317253112793
1790267274546115000,3.857114990234375,-1.7467604875564575,-8.437092781066895,3.0484559535980225
1790267274563368000,3.874367919921875,-1.3639088869094849,-8.609375953674316,2.754138946533203
1790267274580620800,3.891620849609375,-1.5385849475860596,-8.874979019165039,2.730210542678833
1790267274597873700,3.908873779296875,-2.4717857837677,-8.654839515686035,2.9527430534362793
1790267274615126500,3.92612646484375,1.1581261157989502,-8.422736167907715,3.25663161277771
1790267274632379400,3.94337939453125,1.2299108505249023,-7.288537979125977,5.249852657318115
1790267274649632300,3.96063232421875,0.30628129839897156,-9.274580955505371,5.907878875732422
1790267274666885000,3.977885009765625,-4.522434711456299,-13.339985847473145,2.1367905139923096
1790267274684138000,3.995137939453125,-4.902893543243408,-9.870393753051758,1.0528420209884644
1790267274701390800,4.012390869140625,-0.7992027401924133,-6.439085960388184,2.837887763977051
1790267274718643700,4.029643798828125,2.4047868251800537,-9.030512809753418,2.438286304473877
1790267274735896600,4.046896484375,-2.2157537937164307,-11.466405868530273,2.557927370071411
1790267274753149400,4.0641494140625,-2.9790642261505127,-13.36870002746582,2.7732813358306885
1790267274770402300,4.08140234375,-1.887937068939209,-12.425928115844727,2.0482561588287354
1790267274787655200,4.0986552734375,-1.1413763761520386,-12.351750373840332,1.6342978477478027
1790267274804908000,4.115907958984375,-0.5694918036460876,-10.047462463378906,0.23210379481315613
1790267274822161000,4.133160888671875,-0.04546362906694412,-8.841479301452637,3.352344512939453
1790267274839413800,4.150413818359375,-0.8111668825149536,-9.229117393493652,3.1034910678863525
1790267274856666600,4.16766650390625,-0.7920243144035339,-8.831908226013184,2.6153552532196045
1790267274873919500,4.18491943359375,0.26560330390930176,-9.580862045288086,2.9958138465881348
1790267274891172400,4.20217236328125,-1.2897313833236694,-8.252845764160156,3.665804386138916
1790267274908425200,4.21942529296875,0.2512463629245758,-9.774680137634277,2.321038007736206
1790267274925678000,4.236677978515625,2.9072794914245605,-6.434299945831299,-0.3278166949748993
1790267274942931000,4.253930908203125,1.5290136337280273,-8.413164138793945,0.7369893789291382
1790267274960183800,4.271183837890625,0.10767702013254166,-7.6498541831970215,1.6558332443237305
1790267274977436700,4.288436767578125,-0.9810572862625122,-8.769695281982422,2.3306093215942383
1790267274994689500,4.305689453125,0.1339980661869049,-9.241081237792969,3.328416347503662
1790267275011942400,4.3229423828125,1.8544375896453857,-9.944570541381836,3.414557933807373
1790267275029195300,4.3401953125,0.02392822690308094,-9.497113227844238,4.249652862548828
1790267275046448000,4.3574482421875,-1.8089739084243774,-9.722038269042969,3.2446675300598145
1790267275063701000,4.374700927734375,-3.1585259437561035,-9.652647018432617,2.03629207611084
1790267275080953900,4.391953857421875,-2.7421748638153076,-10.088140487670898,3.5988051891326904
1790267275098206700,4.409206787109375,-1.6342978477478027,-8.772088050842285,4.1970109939575195
1790267275115459600,4.42645947265625,-0.9284151792526245,-7.6043901443481445,5.441278457641602
1790267275132712400,4.44371240234375,-0.7896314859390259,-8.717052459716797,4.541577339172363
1790267275149965300,4.46096533203125,-1.4452649354934692,-8.93240737915039,4.481756687164307
1790267275167218200,4.47821826171875,-2.122433662414551,-8.731410026550293,5.570491313934326
1790267275184471000,4.495470947265625,-2.806781053543091,-8.554341316223145,5.661418437957764
1790267275201724000,4.512723876953125,-3.2542388439178467,-8.606983184814453,5.548955917358398
1790267275218976800,4.529976806640625,-4.584648132324219,-9.899106979370117,6.003592014312744
1790267275236229600,4.547229736328125,-4.618147850036621,-13.852049827575684,2.7876384258270264
1790267275253482500,4.564482421875,-1.2538390159606934,-13.947763442993164,-2.4717857837677
1790267275270735400,4.5817353515625,1.5170495510101318,-10.224531173706055,-3.1968109607696533
1790267275287988200,4.59898828125,0.8973084688186646,-8.070990562438965,-1.581655740737915
1790267275305241000,4.616240966796875,-3.8213376998901367,-8.81515884399414,0.8350951075553894
1790267275322494000,4.633493896484375,-5.850451469421387,-9.927821159362793,3.4887354373931885
1790267275339746800,4.650746826171875,-4.524827480316162,-10.308279991149902,5.98444938659668
1790267275356999700,4.667999755859375,-3.4337005615234375,-10.191031455993652,7.255038261413574
1790267275374252500,4.68525244140625,-4.874179840087891,-10.152746200561523,5.711667537689209
1790267275391505400,4.70250537109375,-7.554141044616699,-9.635896682739258,4.429114818572998
1790267275408758300,4.71975830078125,-8.102097511291504,-10.198209762573242,5.570491313934326
1790267275426011100,4.73701123046875,-7.326822757720947,-9.667003631591797,7.463213920593262
1790267275443264000,4.754263916015625,-6.98704195022583,-8.401200294494629,8.24566650390625
1790267275460516900,4.771516845703125,-9.32004451751709,-8.087740898132324,7.331608772277832
1790267275477769700,4.788769775390625,-9.791430473327637,-8.212167739868164,7.3914289474487305
1790267275495022600,4.806022705078125,-8.571090698242188,-8.858229637145996,8.733802795410156
1790267275512275500,4.823275390625,-7.539783954620361,-8.884550094604492,9.382257461547852
1790267275529528000,4.840528076171875,-5.802595138549805,-7.88913631439209,8.250452041625977
1790267275546781200,4.85778125,-3.407379388809204,-6.735795974731445,4.809573650360107
1790267275564034000,4.875033935546875,-3.799802303314209,-6.654439926147461,1.581655740737915
1790267275581287000,4.892286865234375,-5.376672267913818,-4.53200626373291,1.9884356260299683
1790267275598539500,4.90953955078125,-5.72123908996582,-2.00518536567688,2.7182464599609375
1790267275615792600,4.926792724609375,-4.039084434509277,-1.124626636505127,2.179861545562744
1790267275633045500,4.94404541015625,-2.03629207611084,-0.02871387079358101,1.8640087842941284
1790267275650298400,4.96129833984375,-3.136990547180176,0.2225325107574463,2.3736801147460938
1790267275667551000,4.978551025390625,-4.7712883949279785,-0.7250252366065979,1.6199408769607544
1790267275684804000,4.99580419921875,-5.862415313720703,-1.0911271572113037,0.10289137065410614
1790267275702057000,5.013056884765625,-7.109076023101807,-1.337587833404541,-0.14835500717163086
1790267275719309800,5.030309814453125,-6.503692150115967,-0.9284151792526245,1.246660590171814
1790267275736562400,5.0475625,-7.637889862060547,-1.4428720474243164,2.8498518466949463
1790267275753815600,5.064815673828125,-7.506284713745117,-1.4524433612823486,5.288137912750244
1790267275771068400,5.082068359375,-6.652047157287598,-0.8087740540504456,4.855037212371826
1790267275788321000,5.099321044921875,-8.061419486999512,-0.5000999569892883,3.751945972442627
1790267275805574000,5.116573974609375,-6.809973239898682,-0.9092726111412048,3.022135019302368
1790267275822827000,5.133826904296875,-5.867201328277588,-1.404586911201477,1.8352949619293213
1790267275840080000,5.151079833984375,-5.230710506439209,-1.7324036359786987,-0.0526420995593071
1790267275857332500,5.16833251953125,-5.0703911781311035,-1.4093725681304932,0.0933200865983963
1790267275874585300,5.18558544921875,-4.804787635803223,-0.27038896083831787,0.18903298676013947
1790267275891838500,5.20283837890625,-5.635097503662109,0.8111668825149536,1.2921242713928223
1790267275909091300,5.22009130859375,-5.173282623291016,0.8949156403541565,2.132004976272583
1790267275926344000,5.237343994140625,-5.536991596221924,-0.4953143000602722,2.280359983444214
1790267275943596800,5.2545966796875,-5.434100151062012,-1.7611174583435059,2.5746772289276123
1790267275960849700,5.271849609375,-5.706881999969482,-2.6799614429473877,3.06999135017395
1790267275978102500,5.2891025390625,-6.094519138336182,-3.438486099243164,3.5748770236968994
1790267275995355400,5.30635546875,-6.092126369476318,-3.9433717727661133,3.9912281036376953
1790267276012608300,5.323608154296875,-6.482156753540039,-4.563112735748291,4.488935470581055
1790267276029861000,5.340861083984375,-6.5180487632751465,-5.307280540466309,5.163711071014404
1790267276047114000,5.358114013671875,-6.147161483764648,-6.178267955780029,5.367101192474365
1790267276064366800,5.375366943359375,-6.314659118652344,-7.137789726257324,5.709274768829346
1790267276081619700,5.39261962890625,-6.546762943267822,-7.4225358963012695,5.505885124206543
1790267276098872600,5.40987255859375,-8.542376518249512,-7.877171993255615,5.651846885681152
1790267276116125400,5.42712548828125,-8.784051895141602,-8.563912391662598,6.57547664642334
1790267276133378300,5.44437841796875,-8.197810173034668,-9.643074989318848,7.245467185974121
1790267276150631200,5.461631103515625,-8.252845764160156,-10.317851066589355,7.781459331512451
1790267276167884000,5.478884033203125,-7.860422611236572,-10.030712127685547,7.240681171417236
1790267276185137000,5.496136962890625,-7.259823799133301,-8.685946464538574,6.015556335449219
1790267276202389800,5.5133896484375,-6.309873104095459,-7.128218650817871,4.948357105255127
1790267276219642600,5.530642578125,-5.711667537689209,-5.9437713623046875,4.156332969665527
1790267276236895500,5.5478955078125,-6.32662296295166,-5.649454116821289,3.864408493041992
1790267276254148400,5.5651484375,-6.984649181365967,-6.3601226806640625,3.9529430866241455
1790267276271401200,5.582401123046875,-6.0370917320251465,-7.733603000640869,4.742574691772461
1790267276288654000,5.599654052734375,-5.587240695953369,-8.865407943725586,5.388636589050293
1790267276305907000,5.616906982421875,-5.912664890289307,-9.789037704467773,5.359922885894775
1790267276323159800,5.634159912109375,-6.075376510620117,-10.301101684570312,5.13739013671875
1790267276340412700,5.65141259765625,-6.628118515014648,-9.968499183654785,4.709074974060059
1790267276357665500,5.66866552734375,-6.893722057342529,-9.272188186645508,4.589433670043945
1790267276374918400,5.68591845703125,-6.321837425231934,-8.60459041595459,4.651647090911865
1790267276392171300,5.703171142578125,-5.886343479156494,-8.104490280151367,4.867001056671143
1790267276409510400,5.720510498046875,-5.898307800292969,-7.554141044616699,5.271388053894043
1790267276427107800,5.73810791015625,-5.8097734451293945,-6.838686943054199,5.290530681610107
1790267276444705500,5.75570556640625,-5.548955917358398,-6.551548480987549,4.984249591827393
1790267276462303000,5.773302978515625,-5.405386447906494,-6.900900363922119,4.941178798675537
1790267276479900700,5.790900634765625,-5.747560024261475,-7.530212879180908,5.197210788726807
1790267276497498400,5.808498291015625,-5.663811206817627,-8.02791976928711,5.154139995574951
1790267276515096000,5.826095947265625,-6.065805435180664,-8.09970474243164,4.749752998352051
1790267276532693800,5.84369384765625,-6.364908218383789,-8.288737297058105,4.938786029815674
1790267276550291500,5.86129150390625,-6.199803352355957,-8.382058143615723,5.024927616119385
1790267276567889200,5.87888916015625,-6.348158359527588,-8.087740898132324,4.273581027984619
1790267276585461000,5.8964609375,-7.001399040222168,-7.750352382659912,4.041477680206299
1790267276603006500,5.91400634765625,-7.704888820648193,-7.719245910644531,4.838287353515625
1790267276620552200,5.93155224609375,-7.781459331512451,-7.886743545532227,5.565705299377441
1790267276638024400,5.9490244140625,-7.494320392608643,-7.618747234344482,5.737988471984863
1790267276655277300,5.96627734375,-7.613961696624756,-7.008577346801758,5.79780912399292
1790267276672530000,5.983530029296875,-7.204789161682129,-6.498906135559082,5.623133182525635
1790267276689782500,6.000782470703125,-7.238288402557373,-6.128018856048584,5.3216376304626465
1790267276707035600,6.01803564453125,-7.781459331512451,-5.821737289428711,5.223531723022461
1790267276724288500,6.03528857421875,-11.782258987426758,-5.757131099700928,5.946164131164551
1790267276741541400,6.052541259765625,-9.190832138061523,-6.405586242675781,6.984649181365967
1790267276758794200,6.069794189453125,-7.020541667938232,-6.618547439575195,5.893522262573242
1790267276776047400,6.08704736328125,-9.229117393493652,-6.2189459800720215,5.529813289642334
1790267276793300200,6.10430029296875,-8.831908226013184,-5.97727108001709,5.034498691558838
1790267276810553000,6.121552978515625,-6.783652305603027,-5.9509501457214355,4.280759811401367
1790267276827805700,6.1388056640625,-5.838487148284912,-5.424529075622559,2.4909284114837646
1790267276845058300,6.156058349609375,-4.742574691772461,-3.460021495819092,1.1341979503631592
1790267276862311200,6.173311279296875,-3.2231321334838867,-0.8303094506263733,0.17706887423992157
1790267276879564000,6.19056396484375,-2.1774685382843018,1.0121639966964722,0.03349951654672623
1790267276896817000,6.20781689453125,-2.730210542678833,1.2346965074539185,-0.34217363595962524
1790267276914070000,6.225070068359375,-2.8977081775665283,0.6628118753433228,-0.6125625967979431
1790267276931323000,6.242322998046875,-4.01037073135376,0.3852444589138031,-0.6149554252624512
1790267276948575700,6.25957568359375,-4.364508628845215,0.6915257573127747,0.30149564146995544
1790267276965828600,6.27682861328125,-4.3788652420043945,1.0839486122131348,0.7872386574745178
1790267276983081500,6.29408154296875,-4.890929698944092,1.2945170402526855,1.1126625537872314
1790267277000334600,6.31133447265625,-5.426921844482422,0.9690931439399719,1.7132610082626343
1790267277017587500,6.32858740234375,-6.075376510620117,0.4331009089946747,1.8376877307891846
1790267277034840300,6.34584033203125,-6.183053493499756,-0.0933200865983963,2.4023938179016113
1790267277052093000,6.363093017578125,-6.56829833984375,-0.8207381963729858,2.933600664138794
1790267277069345500,6.380345458984375,-7.5565338134765625,-1.5625132322311401,3.586841106414795
1790267277086598400,6.397598388671875,-8.72901725769043,-2.0338993072509766,4.302295207977295
1790267277103851000,6.41485107421875,-9.025727272033691,-2.5292134284973145,5.223531723022461
1790267277121104000,6.432103759765625,-8.86780071258545,-3.2997024059295654,5.938985824584961
1790267277138356700,6.449356689453125,-8.874979019165039,-4.204189300537109,6.0777692794799805
1790267277155609900,6.46660986328125,-8.796015739440918,-4.859822750091553,5.292923450469971
1790267277172862700,6.48386279296875,-9.269794464111328,-5.039284706115723,4.342973232269287
1790267277190115600,6.501115478515625,-8.884550094604492,-4.756931304931641,4.194618225097656
1790267277207368400,6.518368408203125,-7.88913631439209,-4.302295207977295,4.0079779624938965
1790267277224621300,6.535621337890625,-7.015756130218506,-4.216153621673584,3.5150563716888428
1790267277241874400,6.55287451171875,-6.616154670715332,-4.3549370765686035,3.2207393646240234
1790267277259127300,6.570127197265625,-6.903293132781982,-4.587040901184082,3.263810157775879
1790267277276380200,6.587380126953125,-6.52044153213501,-4.821537494659424,3.6059837341308594
1790267277293633000,6.604633056640625,-6.565905570983887,-5.213960647583008,4.024727821350098
1790267277310886000,6.621885986328125,-6.69990348815918,-5.79780912399292,4.249652862548828
1790267277328138800,6.639138671875,-6.4319071769714355,-6.5252275466918945,4.864608287811279
1790267277345391600,6.6563916015625,-5.888736724853516,-7.133004188537598,5.38624382019043
1790267277362644200,6.673644287109375,-6.168696880340576,-7.518248558044434,5.400600910186768
1790267277379897000,6.69089697265625,-6.453442573547363,-7.197610378265381,4.893322467803955
1790267277397150000,6.70814990234375,-5.905486106872559,-6.39601469039917,4.553541660308838
1790267277414402800,6.72540283203125,-5.699703693389893,-6.041877269744873,4.481756687164307
1790267277431655700,6.74265576171875,-6.183053493499756,-6.412764549255371,4.627718925476074
1790267277448908500,6.759908447265625,-6.3840508460998535,-7.054041385650635,4.510470867156982
1790267277466161700,6.77716162109375,-6.1399827003479,-7.621140003204346,4.40757942199707
1790267277483414500,6.79441455078125,-5.7164530754089355,-8.051848411560059,4.627718925476074
1790267277500667400,6.81166748046875,-6.008377552032471,-8.420342445373535,4.898108005523682
1790267277517920300,6.828920166015625,-6.764509677886963,-8.724231719970703,5.170889854431152
1790267277535173000,6.846173095703125,-7.597211837768555,-9.150154113769531,5.407779216766357
1790267277552426000,6.863426025390625,-7.898707389831543,-9.504291534423828,5.8719868659973145
1790267277569678800,6.880678955078125,-7.946564197540283,-9.480362892150879,6.211767673492432
1790267277586931500,6.897931396484375,-7.824530124664307,-9.17886734008789,5.994020938873291
1790267277604184300,6.915184326171875,-8.47298526763916,-8.810373306274414,5.78345251083374
1790267277621437200,6.932437255859375,-8.482556343078613,-8.597412109375,6.082555294036865
1790267277638690000,6.94968994140625,-8.257631301879883,-8.638090133666992,5.936593055725098
1790267277655943000,6.96694287109375,-6.723831653594971,-8.427521705627441,5.781059741973877
1790267277673195800,6.98419580078125,-5.266602516174316,-7.427321434020996,5.01296329498291
1790267277690449000,7.001448974609375,-4.340580463409424,-6.417550563812256,4.199403762817383
1790267277707701800,7.01870166015625,-3.376272678375244,-5.515456199645996,3.177668571472168
1790267277724954400,7.035954345703125,-3.90987229347229,-5.414957523345947,3.0340991020202637
1790267277742207200,7.053207275390625,-3.160918712615967,-6.5180487632751465,3.8835511207580566
1790267277759459800,7.0704599609375,-3.9122650623321533,-7.738388538360596,4.47697114944458
1790267277776712700,7.087712646484375,-5.994020938873291,-8.851051330566406,5.635097503662109
1790267277793965600,7.104965576171875,-6.908079147338867,-10.01874828338623,6.845865726470947
1790267277811218400,7.122218505859375,-6.740581512451172,-10.451848983764648,7.152146816253662
1790267277828471600,7.139471435546875,-4.680361270904541,-9.190832138061523,6.786045074462891
1790267277845724400,7.156724365234375,-3.6442689895629883,-7.17368221282959,4.809573650360107
1790267277862977300,7.173977294921875,-2.988635540008545,-5.517848968505859,3.2590243816375732
1790267277880230100,7.191230224609375,-4.015156269073486,-4.548755645751953,2.3569302558898926
1790267277897483000,7.20848291015625,-5.056034088134766,-4.194618225097656,1.9262222051620483
1790267277914736000,7.225736083984375,-6.460621356964111,-4.804787635803223,2.2612173557281494
1790267277931989000,7.242989013671875,-6.400800704956055,-5.910272121429443,3.2279176712036133
1790267277949241600,7.26024169921875,-7.025327205657959,-7.066005229949951,4.689932346343994
1790267277966494500,7.277494384765625,-6.867401123046875,-7.9489569664001465,6.903293132781982
1790267277983747000,7.2947470703125,-6.144768714904785,-7.910671710968018,6.015556335449219
1790267278001000000,7.312,-5.86002254486084,-6.888936519622803,4.319045066833496
1790267278018252800,7.329252685546875,-5.836094379425049,-5.831308841705322,3.3882367610931396
1790267278035505700,7.346505615234375,-6.123233318328857,-4.955535888671875,2.8115665912628174
1790267278052758800,7.3637587890625,-6.6113691329956055,-4.553541660308838,2.888136863708496
1790267278070011600,7.38101171875,-7.618747234344482,-4.898108005523682,3.845266103744507
1790267278087264500,7.398264404296875,-8.865407943725586,-5.592026710510254,5.044070243835449
1790267278104517400,7.415517333984375,-8.575876235961914,-6.094519138336182,5.3312087059021
1790267278121770200,7.432770263671875,-8.228917121887207,-6.111268997192383,5.2737812995910645
1790267278139023400,7.4500234375,-8.243273735046387,-5.843272686004639,4.969892501831055
1790267278156276200,7.467276123046875,-8.58066177368164,-5.630311489105225,4.6995038986206055
1790267278173528800,7.48452880859375,-9.238688468933105,-5.271388053894043,4.488935470581055
1790267278190781700,7.50178173828125,-9.403793334960938,-4.878965377807617,4.67078971862793
1790267278208034300,7.519034423828125,-8.980263710021973,-4.649254322052002,5.221138954162598
1790267278225287200,7.536287109375,-8.762516975402832,-4.900500774383545,4.924428939819336
1790267278242540000,7.5535400390625,-7.95134973526001,-4.989035129547119,3.8045880794525146
1790267278259793000,7.57079296875,-7.252645492553711,-4.144368648529053,2.799602508544922
1790267278277046000,7.5880458984375,-7.10429048538208,-2.823530673980713,2.03629207611084
1790267278294299000,7.605298828125,-7.310073375701904,-1.6103696823120117,1.9166508913040161
1790267278311551700,7.6225517578125,-7.310073375701904,-1.2179467678070068,2.3952155113220215
1790267278328804600,7.6398046875,-6.97986364364624,-1.6295121908187866,2.3712873458862305
1790267278346057500,7.657057373046875,-6.69990348815918,-2.2755744457244873,2.1894326210021973
1790267278363310600,7.674310546875,-6.419943332672119,-2.581855535507202,1.7778671979904175
1790267278380563500,7.6915634765625,-6.489335060119629,-2.1846470832824707,1.2729816436767578
1790267278397816300,7.70881640625,-7.518248558044434,-1.5792629718780518,1.0600204467773438
1790267278415069000,7.72606884765625,-8.35573673248291,-1.428515076637268,1.5026925802230835
1790267278432321500,7.743321533203125,-7.905886173248291,-1.6534404754638672,2.1774685382843018
1790267278449574400,7.760574462890625,-6.891329288482666,-1.6151553392410278,2.3018953800201416
1790267278466827300,7.7778271484375,-6.532405853271484,-1.3112667798995972,1.8448662757873535
1790267278484080400,7.795080322265625,-6.285944938659668,0.038285162299871445,1.5337992906570435
1790267278501333200,7.812333251953125,-7.219145774841309,1.7539390325546265,1.5625132322311401
1790267278518586000,7.829586181640625,-7.81974458694458,0.7465606927871704,2.0554347038269043
1790267278535839000,7.8468388671875,-8.226524353027344,-1.2610175609588623,2.500499725341797
1790267278553091800,7.864091796875,-8.695517539978027,-2.2085752487182617,3.4672000408172607
1790267278570344700,7.8813447265625,-7.929814338684082,-2.1990039348602295,4.235296249389648
1790267278587597300,7.898597412109375,-7.211967468261719,-1.789831280708313,3.548556089401245
1790267278604850000,7.915849853515625,-7.334001541137695,-1.3471591472625732,2.4646072387695312
1790267278622103000,7.93310302734375,-7.621140003204346,-0.5814558863639832,1.7539390325546265
1790267278639356000,7.95035595703125,-6.515655994415283,0.09571290761232376,1.9214365482330322
1790267278656608800,7.96760888671875,-6.589833736419678,-0.2679961323738098,2.0506489276885986
1790267278673861600,7.984861572265625,-6.355337142944336,-1.399801254272461,2.837887763977051
1790267278691114500,8.002114501953125,-6.807580471038818,-2.4909284114837646,3.2757742404937744
1790267278708367600,8.01936767578125,-6.915257453918457,-3.201596736907959,3.964907169342041
1790267278725620500,8.036620361328126,-5.730810165405273,-3.649054527282715,4.735395908355713
1790267278742873300,8.053873291015625,-6.400800704956055,-4.261617183685303,5.350351333618164
1790267278760126200,8.071126220703125,-7.142575740814209,-5.06082010269165,5.92223596572876
1790267278777379000,8.088379150390624,-7.322037220001221,-5.79063081741333,5.737988471984863
1790267278794632000,8.1056318359375,-6.278766632080078,-6.1328043937683105,5.307280540466309
1790267278811884500,8.122884521484375,-6.0538411140441895,-6.297909259796143,4.922036170959473
1790267278829137400,8.140137451171874,-7.183253765106201,-6.434299945831299,4.977071285247803
1790267278846390300,8.157390380859376,-7.597211837768555,-6.369693756103516,4.8502516746521
1790267278863643100,8.17464306640625,-6.376872539520264,-6.226124286651611,4.572684288024902
1790267278880896000,8.19189599609375,-6.192625045776367,-6.343372821807861,4.505684852600098
1790267278898148900,8.20914892578125,-6.577869415283203,-6.728617191314697,4.7401814460754395
1790267278915401700,8.226401611328125,-7.262216567993164,-7.379465103149414,4.955535888671875
1790267278932654800,8.24365478515625,-7.168896675109863,-7.869993686676025,5.051248550415039
1790267278949907700,8.26090771484375,-7.073183536529541,-8.228917121887207,4.967499732971191
1790267278967160600,8.27816064453125,-6.948757171630859,-8.312665939331055,4.984249591827393
1790267278984413400,8.295413330078125,-6.809973239898682,-8.293522834777832,4.625326156616211
1790267279001666300,8.312666259765624,-6.25723123550415,-8.288737297058105,4.522434711456299
1790267279018919200,8.329919189453125,-5.54177713394165,-7.960920810699463,4.170690059661865
1790267279036171800,8.347171875,-5.800201892852783,-7.389036178588867,3.5461630821228027
1790267279053424600,8.364424560546874,-6.6831536293029785,-7.2813591957092285,3.4025938510894775
1790267279070677500,8.381677490234376,-6.376872539520264,-8.298309326171875,4.199403762817383
1790267279087930400,8.398930419921875,-5.544169902801514,-9.643074989318848,5.1876397132873535
1790267279105183200,8.416183349609375,-5.67338228225708,-10.06421184539795,5.630311489105225
1790267279122436000,8.43343603515625,-5.551348686218262,-9.45882797241211,5.589633464813232
1790267279139689000,8.45068896484375,-5.474778175354004,-8.82233715057373,4.807180881500244
1790267279156942000,8.467942138671875,-5.1182475090026855,-8.24566650390625,4.1970109939575195
1790267279174195000,8.48519482421875,-5.32403039932251,-7.82692289352417,3.5533416271209717
1790267279191447800,8.50244775390625,-5.898307800292969,-7.537391185760498,3.304488182067871
1790267279208700700,8.51970068359375,-6.355337142944336,-7.728816986083984,4.108476638793945
1790267279225953500,8.53695361328125,-6.422336101531982,-8.286344528198242,4.7234320640563965
1790267279243206400,8.554206298828126,-5.910272121429443,-8.360522270202637,4.0558342933654785
1790267279260459000,8.571458984375,-5.61116886138916,-7.905886173248291,3.311666488647461
1790267279277712000,8.5887119140625,-5.388636589050293,-7.714460372924805,3.19441819190979
1790267279294964700,8.60596484375,-5.0943193435668945,-8.0350980758667,3.6442689895629883
1790267279312217600,8.623217529296875,-4.761716842651367,-8.336593627929688,4.060619831085205
1790267279329470500,8.640470458984375,-4.790431022644043,-8.391629219055176,4.182653903961182
1790267279346723300,8.657723388671876,-5.529813289642334,-8.410771369934082,4.168296813964844
1790267279363976200,8.67497607421875,-6.178267955780029,-8.518448829650879,4.551148891448975
1790267279381229300,8.692229248046875,-6.297909259796143,-8.554341316223145,5.410171985626221
1790267279398482200,8.709482177734374,-6.300302028656006,-8.226524353027344,6.175875186920166
1790267279415735000,8.726735107421876,-6.034698486328125,-7.613961696624756,5.893522262573242
1790267279432988000,8.74398779296875,-5.850451469421387,-6.8554368019104,5.422136306762695
1790267279450240800,8.76124072265625,-6.113661766052246,-6.379265308380127,4.941178798675537
1790267279467493600,8.77849365234375,-6.8865437507629395,-6.3840508460998535,4.429114818572998
1790267279484746200,8.795746337890625,-7.058826923370361,-7.29093074798584,4.591826438903809
1790267279501999000,8.8129990234375,-5.974878311157227,-7.77188777923584,5.429314613342285
1790267279519252000,8.830251953125,-6.697510719299316,-7.70249605178833,5.6685967445373535
1790267279536504800,8.8475048828125,-6.577869415283203,-7.671389579772949,5.467599868774414
1790267279553757700,8.8647578125,-5.556134223937988,-7.015756130218506,4.7712883949279785
1790267279571010600,8.882010498046874,-5.319244861602783,-5.697310924530029,4.120440483093262
1790267279588263400,8.899263427734375,-5.491528034210205,-4.656432628631592,3.8811583518981934
1790267279605516500,8.9165166015625,-6.010770320892334,-4.4721856117248535,3.7232320308685303
1790267279622769400,8.933769287109374,-6.16391134262085,-4.754538536071777,3.728017568588257
1790267279640022300,8.951022216796876,-6.300302028656006,-4.948357105255127,3.562912940979004
1790267279657275100,8.968275146484375,-6.757331371307373,-4.651647090911865,3.153740167617798
1790267279674528000,8.985528076171875,-7.63310432434082,-4.000799655914307,3.3164522647857666
1790267279691780600,9.002780517578126,-8.097311973571777,-3.5437703132629395,4.024727821350098
1790267279709033500,9.020033447265625,-8.516056060791016,-3.864408493041992,4.677968502044678
1790267279726286300,9.037286376953125,-8.169096946716309,-4.555934429168701,5.5106706619262695
1790267279743539200,9.054539306640624,-7.922635555267334,-4.864608287811279,5.78345251083374
1790267279760792000,9.0717919921875,-7.546962738037109,-4.718646049499512,5.328815937042236
1790267279778045200,9.089045166015625,-6.57547664642334,-4.240081787109375,3.9792640209198
1790267279795298000,9.106298095703124,-6.515655994415283,-3.3858439922332764,3.0269205570220947
1790267279812551000,9.123551025390626,-7.331608772277832,-2.7014968395233154,2.825923442840576
1790267279829803800,9.1408037109375,-7.566105365753174,-2.038684844970703,2.63449764251709
1790267279847056600,9.158056640625,-6.340980052947998,-1.526620864868164,1.3806586265563965
1790267279864309800,9.175309814453126,-5.8719868659973145,-0.9355936646461487,0.5000999569892883
1790267279881562400,9.192562255859375,-7.3292155265808105,-0.2153540402650833,0.16271193325519562
1790267279898815000,9.20981494140625,-6.534798622131348,-0.2105683982372284,0.6580262184143066
1790267279916067800,9.22706787109375,-7.135396957397461,-0.6149554252624512,1.8041882514953613
1790267279933320700,9.24432080078125,-6.996613502502441,-1.28255295753479,2.6297121047973633
1790267279950573600,9.261573486328125,-8.178668022155762,-1.7012969255447388,2.6608188152313232
1790267279967826400,9.278826416015624,-7.759923934936523,-1.9525432586669922,3.263810157775879
1790267279985079300,9.296079345703125,-7.8317084312438965,-2.124826431274414,4.237689018249512
1790267280002332400,9.31333251953125,-7.467999458312988,-1.7467604875564575,3.957728624343872
1790267280019585300,9.330585205078124,-7.592426300048828,-1.098305583000183,3.5509488582611084
1790267280036838100,9.347838134765626,-6.908079147338867,-0.914058268070221,2.9623143672943115
1790267280054091000,9.365091064453125,-5.955735683441162,-1.0408778190612793,2.4741785526275635
1790267280071344000,9.38234423828125,-6.075376510620117,-1.0265209674835205,1.734796404838562
1790267280088597000,9.399596923828126,-6.97268533706665,-0.9475577473640442,1.6941183805465698
1790267280105849600,9.416849609375,-6.376872539520264,-1.1509476900100708,2.0171494483947754
1790267280123102500,9.4341025390625,-6.321837425231934,-1.576870083808899,2.5674986839294434
1790267280140355000,9.45135498046875,-6.8554368019104,-2.1655044555664062,3.342773199081421
1790267280157608000,9.46860791015625,-7.058826923370361,-2.63449764251709,3.838087558746338
1790267280174860800,9.48586083984375,-6.943971157073975,-2.888136863708496,4.2831525802612305
1790267280192113700,9.50311376953125,-6.745367050170898,-3.115455150604248,4.776073932647705
1790267280209366800,9.52036669921875,-7.377072334289551,-3.562912940979004,5.048855781555176
1790267280226619600,9.53761962890625,-7.226324558258057,-4.369294166564941,5.19960355758667
1790267280243872500,9.55487255859375,-7.283751964569092,-5.402993679046631,5.257031440734863
1790267280261125400,9.57212548828125,-7.917850017547607,-6.419943332672119,5.3694939613342285
1790267280278378200,9.589378173828125,-7.417750358581543,-7.118647575378418,5.508277893066406
1790267280295631400,9.60663134765625,-6.56829833984375,-7.223931789398193,5.01296329498291
1790267280312884200,9.62388427734375,-6.788437843322754,-7.032505512237549,4.759324073791504
1790267280330136800,9.64113671875,-6.570691108703613,-6.546762943267822,4.864608287811279
1790267280347389700,9.6583896484375,-6.39601469039917,-5.84566593170166,4.811966419219971
1790267280364642300,9.675642333984374,-5.759523868560791,-5.429314613342285,4.563112735748291
1790267280381895200,9.692895263671875,-5.867201328277588,-5.927021503448486,4.761716842651367
1790267280399148000,9.71014794921875,-5.733202934265137,-7.09711217880249,5.843272686004639
1790267280416401000,9.72740087890625,-5.663811206817627,-8.257631301879883,5.828916072845459
1790267280433654000,9.744654052734376,-6.302694797515869,-9.477970123291016,6.032305717468262
1790267280450907000,9.761906982421875,-5.9437713623046875,-9.614361763000488,4.393222332000732
1790267280468159700,9.77915966796875,-5.986842155456543,-10.85862922668457,5.709274768829346
1790267280485412600,9.79641259765625,-6.671189308166504,-11.251051902770996,5.98444938659668
1790267280502665500,9.81366552734375,-6.245266914367676,-10.650453567504883,5.4867424964904785
1790267280519918600,9.830918701171875,-5.769095420837402,-9.58325481414795,5.434100151062012
1790267280537171500,9.84817138671875,-5.5034918785095215,-8.528019905090332,5.19242525100708
1790267280554424000,9.865424072265625,-5.144568920135498,-7.728816986083984,4.730610370635986
1790267280571677000,9.882677001953125,-5.757131099700928,-8.157132148742676,4.890929698944092
1790267280588929500,9.899929443359374,-5.5728840827941895,-9.518648147583008,5.489135265350342
1790267280606182400,9.917182373046876,-5.103890895843506,-10.238887786865234,5.489135265350342
1790267280623435300,9.934435302734375,-5.087141036987305,-9.619147300720215,4.855037212371826
1790267280640688000,9.951688232421875,-6.302694797515869,-8.726624488830566,4.070191383361816
1790267280657941200,9.968941162109376,-5.637490272521973,-8.523234367370605,4.646861553192139
1790267280675194000,9.986194091796875,-5.182853698730469,-8.719446182250977,4.455435752868652
1790267280692447000,10.003447021484375,-4.716253280639648,-8.882157325744629,4.381258487701416
1790267280709699800,10.020699951171874,-4.417150497436523,-8.554341316223145,4.73300313949585
1790267280726952700,10.03795263671875,-3.957728624343872,-8.054241180419922,4.632504463195801
1790267280744205800,10.055205810546875,-4.077369689941406,-8.090133666992188,4.54636287689209
1790267280761458700,10.072458740234374,-5.015356063842773,-9.001798629760742,4.610969066619873
1790267280778711300,10.089711181640626,-5.520241737365723,-10.217352867126465,4.917250633239746
1790267280795964200,10.106964111328125,-4.922036170959473,-10.310672760009766,4.486542224884033
1790267280813216800,10.124216796875,-5.599205017089844,-9.193224906921387,3.651447296142578
1790267280830469600,10.1414697265625,-8.015955924987793,-8.549555778503418,4.07258415222168
1790267280847722500,10.158722412109375,-8.930013656616211,-8.922835350036621,5.613562107086182
1790267280864975400,10.175975341796875,-6.049055576324463,-8.951549530029297,5.936593055725098
1790267280882228500,10.193228515625,-4.342973232269287,-7.944170951843262,4.144368648529053
1790267280899481300,10.2104814453125,-4.981856822967529,-6.951149940490723,3.7184464931488037
1790267280916734200,10.227734130859375,-5.795416355133057,-6.075376510620117,4.187439441680908
1790267280933987000,10.244987060546874,-5.355136871337891,-5.103890895843506,4.713860511779785
1790267280951240000,10.262239990234375,-5.352744102478027,-4.505684852600098,4.66361141204834
1790267280968493000,10.2794931640625,-7.051648139953613,-4.610969066619873,5.312066078186035
1790267280985746000,10.296745849609374,-7.968099594116211,-5.737988471984863,6.9104719161987305
1790267281002998500,10.31399853515625,-6.91765022277832,-7.082755088806152,7.542177200317383
1790267281020251400,10.33125146484375,-7.731209754943848,-7.762316703796387,7.642675399780273
1790267281037504000,10.34850390625,-8.051848411560059,-8.307880401611328,7.635497093200684
1790267281054756900,10.3657568359375,-6.726224422454834,-7.781459331512451,7.044469833374023
1790267281072009700,10.383009765625,-5.302495002746582,-5.893522262573242,5.630311489105225
1790267281089262600,10.4002626953125,-4.388436794281006,-4.292723655700684,3.8739798069000244
1790267281106515700,10.417515625,-5.814558982849121,-3.105883836746216,2.4023938179016113
1790267281123768600,10.4347685546875,-5.398207664489746,-2.4430718421936035,1.6917256116867065
1790267281141021400,10.452021484375,-5.017749309539795,-1.832902193069458,1.9573289155960083
1790267281158274300,10.4692744140625,-5.910272121429443,-1.8687944412231445,1.7922241687774658
1790267281175527200,10.486527099609376,-7.762316703796387,-2.4526431560516357,2.1296122074127197
1790267281192780300,10.5037802734375,-7.302894592285156,-2.9048867225646973,2.644068956375122
1790267281210033200,10.521033203125,-7.197610378265381,-2.4023938179016113,3.2590243816375732
1790267281227285800,10.53828564453125,-8.116454124450684,-2.2683959007263184,3.900300979614258
1790267281244538600,10.55553857421875,-8.475378036499023,-2.4837498664855957,3.4672000408172607
1790267281261791200,10.572791259765625,-7.994420528411865,-2.888136863708496,2.8043880462646484
1790267281279044000,10.590044189453126,-7.8317084312438965,-3.0867412090301514,2.8594231605529785
1790267281296297000,10.607296875,-7.436892986297607,-2.287538528442383,2.8139593601226807
1790267281313549800,10.6245498046875,-7.379465103149414,-1.734796404838562,2.0482561588287354
1790267281330803000,10.641802978515624,-6.4510498046875,-1.4739787578582764,1.3184453248977661
1790267281348055800,10.659055908203126,-5.647061347961426,-0.8949156403541565,1.2921242713928223
1790267281365308700,10.67630859375,-5.008177757263184,0.4307080805301666,1.4691931009292603
1790267281382561500,10.6935615234375,-4.668396949768066,0.5694918036460876,1.2323036193847656
1790267281399814400,10.710814453125,-5.2283172607421875,-0.1698904037475586,1.373480200767517
1790267281417067500,10.728067626953125,-6.580262184143066,-0.4043870270252228,1.4883357286453247
1790267281434320400,10.7453203125,-7.161718368530273,-0.4618147611618042,2.5435705184936523
1790267281451573000,10.762572998046876,-6.738188743591309,-1.1437692642211914,3.2757742404937744
1790267281468826000,10.779826171875,-8.049455642700195,-1.552941918373108,3.452843189239502
1790267281486079000,10.797078857421875,-8.767302513122559,-1.8352949619293213,3.759124279022217
1790267281503331800,10.814331787109374,-8.149953842163086,-2.50289249420166,3.9864425659179688
1790267281520584400,10.83158447265625,-6.565905570983887,-3.201596736907959,3.924229145050049
1790267281537837600,10.848837646484375,-6.527620315551758,-3.730410575866699,4.359723091125488
1790267281555090400,10.86609033203125,-6.640082836151123,-3.981656789779663,4.311866283416748
1790267281572343300,10.88334326171875,-5.821737289428711,-4.0797624588012695,3.6634113788604736
1790267281589596000,10.900595947265625,-5.173282623291016,-3.689732551574707,2.9048867225646973
1790267281606849000,10.91784912109375,-7.245467185974121,-3.1345977783203125,3.510270833969116
1790267281624102000,10.935101806640626,-8.003992080688477,-3.050848960876465,4.783252239227295
1790267281641354800,10.952354736328125,-6.774080753326416,-3.88594388961792,5.190032482147217
1790267281658607400,10.969607421875,-6.7621169090271,-5.5968122482299805,6.130411624908447
1790267281675860500,10.986860595703124,-8.597412109375,-8.118846893310547,6.829115867614746
1790267281693113300,11.00411328125,-8.331808090209961,-10.712666511535645,7.09711217880249
1790267281710366200,11.0213662109375,-7.1473612785339355,-11.767901420593262,5.936593055725098
1790267281727618800,11.038618896484374,-6.766902446746826,-10.937592506408691,5.556134223937988
1790267281744872000,11.055871826171876,-6.649653911590576,-8.824729919433594,4.922036170959473
1790267281762124800,11.073124755859375,-5.501099109649658,-6.857829570770264,4.053441524505615
1790267281779377700,11.090377685546875,-4.721039295196533,-5.38624382019043,3.3020951747894287
1790267281796630300,11.10763037109375,-5.2737812995910645,-4.575077056884766,3.2925238609313965
1790267281813883400,11.12488330078125,-5.4867424964904785,-4.780859470367432,4.599005222320557
1790267281831136300,11.14213623046875,-6.4510498046875,-6.833901405334473,5.886343479156494
1790267281848389000,11.15938916015625,-6.307480335235596,-9.951749801635742,7.003791809082031
1790267281865641700,11.176641845703125,-5.793023586273193,-12.602996826171875,7.499105930328369
1790267281882894800,11.193894775390625,-5.78345251083374,-13.01934814453125,7.144968509674072
1790267281900147700,11.211147705078124,-6.269195556640625,-11.298908233642578,6.300302028656006
1790267281917400600,11.228400634765626,-6.853044033050537,-9.762716293334961,5.029713153839111
1790267281934653200,11.245653076171875,-5.706881999969482,-9.09990406036377,4.390829563140869
1790267281951906300,11.26290625,-4.9292144775390625,-8.999405860900879,4.180261135101318
1790267281969159200,11.2801591796875,-4.816751956939697,-8.432307243347168,3.4432718753814697
1790267281986412000,11.297412109375,-4.661218643188477,-7.341179847717285,2.4837498664855957
1790267282003664600,11.31466455078125,-4.680361270904541,-6.173482418060303,2.3162522315979004
1790267282020917800,11.331917724609376,-4.783252239227295,-5.936593055725098,2.871387243270874
1790267282038170600,11.349170654296875,-5.697310924530029,-7.403393268585205,3.9074792861938477
1790267282055423200,11.36642333984375,-6.092126369476318,-9.286544799804688,4.5200419425964355
1790267282072676000,11.383676025390624,-5.465207099914551,-10.061819076538086,3.8835511207580566
1790267282089929200,11.40092919921875,-6.369693756103516,-9.839286804199219,2.943171739578247
1790267282107182000,11.41818212890625,-7.183253765106201,-9.8871431350708,3.2997024059295654
1790267282124434700,11.4354345703125,-5.8719868659973145,-9.999606132507324,4.811966419219971
1790267282141687600,11.4526875,-5.115854740142822,-9.554540634155273,4.981856822967529
1790267282158940700,11.469940673828125,-6.008377552032471,-8.901300430297852,4.692325115203857
1790267282176193500,11.487193603515625,-5.477170944213867,-8.408378601074219,4.917250633239746
1790267282193446100,11.504446044921876,-4.859822750091553,-7.6474609375,4.7401814460754395
1790267282210699000,11.521698974609375,-6.441478729248047,-7.039684295654297,5.051248550415039
1790267282227952000,11.5389521484375,-7.671389579772949,-7.494320392608643,6.503692150115967
1790267282245205000,11.556205078125,-5.623133182525635,-7.95134973526001,7.2335028648376465
1790267282262457600,11.57345751953125,-5.546562671661377,-7.094718933105469,6.563512325286865
1790267282279710500,11.59071044921875,-7.252645492553711,-6.455835342407227,6.5491557121276855
1790267282296963600,11.607963623046874,-7.616354465484619,-7.039684295654297,7.054041385650635
1790267282314216400,11.625216552734376,-6.214160442352295,-7.568498134613037,6.281159400939941
1790267282331469000,11.642468994140625,-6.1950178146362305,-6.891329288482666,4.934000492095947
1790267282348722000,11.659721923828124,-7.176074981689453,-6.099305152893066,4.244867324829102
1790267282365975000,11.67697509765625,-7.714460372924805,-6.211767673492432,4.761716842651367
1790267282383228000,11.694227783203125,-7.372286796569824,-6.190232276916504,5.0464630126953125
1790267282400480500,11.71148046875,-7.953742504119873,-5.472385406494141,5.06082010269165
1790267282417733400,11.7287333984375,-7.3746795654296875,-4.694717884063721,4.886143684387207
1790267282434986500,11.745986572265625,-6.960721015930176,-4.086941242218018,4.376472473144531
1790267282452239000,11.763239013671875,-7.156932353973389,-3.8739798069000244,3.7016966342926025
1790267282469492000,11.780491943359374,-5.960521221160889,-3.8883368968963623,3.4265220165252686
1790267282486744800,11.797744873046875,-5.881557941436768,-3.510270833969116,2.878565549850464
1790267282503998000,11.814998046875,-6.807580471038818,-2.912065267562866,2.5076780319213867
1790267282521250600,11.83225048828125,-6.496513366699219,-3.1824541091918945,2.3808584213256836
1790267282538503400,11.84950341796875,-5.747560024261475,-2.5914268493652344,3.10109806060791
1790267282555756300,11.86675634765625,-6.872186660766602,-2.794816732406616,2.792423963546753
1790267282573009400,11.884009521484375,-8.0350980758667,-1.8711873292922974,2.108076810836792
1790267282590262000,11.901261962890626,-7.070790767669678,-1.0791629552841187,2.5052852630615234
1790267282607515000,11.918514892578125,-7.489534854888916,-1.2370892763137817,2.6847469806671143
1790267282624767700,11.935767822265625,-7.846065521240234,-1.6342978477478027,2.6727828979492188
1790267282642020900,11.953020751953124,-6.599404811859131,-0.9475577473640442,1.9884356260299683
1790267282659273500,11.9702734375,-6.467799663543701,-0.3517449200153351,1.2251251935958862
1790267282676526300,11.9875263671875,-5.72123908996582,-0.05024927482008934,0.9116654396057129
1790267282693779200,12.004779296875,-4.694717884063721,0.5862415432929993,0.7489534616470337
1790267282711032000,12.022031982421876,-5.651846885681152,1.1341979503631592,1.1078768968582153
1790267282728285000,12.039284912109375,-5.627918720245361,0.9068797826766968,1.8305093050003052
1790267282745537800,12.056537841796874,-5.675775527954102,0.22013968229293823,2.9838497638702393
1790267282762790700,12.073790771484376,-5.639883041381836,-0.6628118753433228,3.0029923915863037
1790267282780043500,12.09104345703125,-6.764509677886963,-1.2299108505249023,3.404986619949341
1790267282797296400,12.10829638671875,-6.156732559204102,-1.6151553392410278,3.704089403152466
1790267282814549200,12.12554931640625,-7.2813591957092285,-1.9621145725250244,4.252045631408691
1790267282831802000,12.142802001953125,-6.553941249847412,-2.4191436767578125,4.934000492095947
1790267282849055000,12.160054931640625,-6.333801746368408,-2.9048867225646973,4.728217601776123
1790267282866307800,12.177307861328124,-6.695117950439453,-3.19441819190979,5.029713153839111
1790267282883560700,12.194560791015626,-6.240481376647949,-3.31884503364563,5.084748268127441
1790267282900813600,12.2118134765625,-5.819344520568848,-3.3475589752197266,4.811966419219971
1790267282918066400,12.22906640625,-6.558726787567139,-3.806980848312378,4.4961137771606445
1790267282935319300,12.2463193359375,-6.3361945152282715,-4.393222332000732,4.522434711456299
1790267282952572200,12.263572265625,-6.3529438972473145,-4.8502516746521,4.642076015472412
1790267282969825000,12.280824951171875,-6.348158359527588,-5.498706340789795,4.838287353515625
1790267282987078000,12.298077880859376,-7.338787078857422,-6.333801746368408,4.680361270904541
1790267283004330800,12.315330810546875,-7.018148899078369,-7.09711217880249,4.797609329223633
1790267283021583600,12.33258349609375,-8.176275253295898,-7.786244869232178,4.680361270904541
1790267283038836500,12.34983642578125,-8.233702659606934,-7.984848976135254,4.704289436340332
1790267283056089300,12.36708935546875,-7.11146879196167,-8.21695327758789,4.223331928253174
1790267283073342200,12.38434228515625,-6.752545356750488,-8.394021987915039,4.2592244148254395
1790267283090595000,12.401594970703124,-7.1162543296813965,-8.695517539978027,4.120440483093262
1790267283107848000,12.418847900390626,-7.087540626525879,-8.870193481445312,3.775874137878418
1790267283125100800,12.436100830078125,-6.463014125823975,-9.162117958068848,4.285545349121094
1790267283142353700,12.453353759765625,-6.175875186920166,-9.628718376159668,5.0464630126953125
1790267283159606500,12.4706064453125,-5.936593055725098,-10.090533256530762,5.649454116821289
1790267283176859400,12.487859375,-5.1804609298706055,-10.112068176269531,5.900700569152832
1790267283194112300,12.5051123046875,-4.7234320640563965,-9.42054271697998,5.781059741973877
1790267283211365000,12.522365234375,-5.161318302154541,-8.47298526763916,5.410171985626221
1790267283228618000,12.539617919921875,-5.407779216766357,-7.5637125968933105,4.957928657531738
1790267283245870800,12.556870849609375,-5.546562671661377,-7.3292155265808105,4.768895626068115
1790267283263123700,12.574123779296874,-5.493920803070068,-7.88913631439209,4.692325115203857
1790267283280376300,12.591376220703125,-5.405386447906494,-8.523234367370605,4.256831645965576
1790267283297629400,12.60862939453125,-5.891129493713379,-8.791230201721191,3.840480327606201
1790267283314882300,12.62588232421875,-6.293123722076416,-9.06401252746582,4.512863636016846
1790267283332135200,12.64313525390625,-5.98444938659668,-9.729216575622559,4.972285270690918
1790267283349387800,12.6603876953125,-5.441278457641602,-10.494919776916504,4.125226020812988
1790267283366641000,12.677640869140625,-4.977071285247803,-10.325029373168945,3.570091485977173
1790267283383893800,12.694893798828126,-5.5106706619262695,-9.166903495788574,3.78544545173645
1790267283401146600,12.712146728515625,-5.989234924316406,-8.204988479614258,4.567898273468018
1790267283418399200,12.729399169921875,-5.163711071014404,-7.908278942108154,5.254638671875
1790267283435652400,12.74665234375,-4.230510234832764,-7.8795647621154785,5.429314613342285
1790267283452905200,12.7639052734375,-5.20678186416626,-7.786244869232178,5.314459323883057
1790267283470157800,12.78115771484375,-5.381458282470703,-7.448856830596924,5.398207664489746
1790267283487410700,12.79841064453125,-5.529813289642334,-6.941578388214111,5.876772403717041
1790267283504663800,12.815663818359376,-6.632904529571533,-6.860222339630127,6.685546398162842
1790267283521916700,12.832916748046875,-6.386443614959717,-7.920242786407471,7.381857872009277
1790267283539169300,12.850169189453124,-4.541577339172363,-8.831908226013184,6.774080753326416
1790267283556422100,12.867422119140626,-5.091926574707031,-8.075776100158691,5.484349727630615
1790267283573675300,12.88467529296875,-6.69990348815918,-6.991827964782715,5.5034918785095215
1790267283590928000,12.901927978515625,-6.884150981903076,-6.9583282470703125,6.206982135772705
1790267283608180700,12.9191806640625,-7.487142086029053,-7.223931789398193,6.546762943267822
1790267283625433600,12.93643359375,-6.482156753540039,-7.051648139953613,6.142375946044922
1790267283642686700,12.953686767578125,-4.6372904777526855,-6.0610198974609375,4.926821708679199
1790267283659939300,12.970939208984374,-5.338387489318848,-4.895715236663818,4.5583271980285645
1790267283677192200,12.988192138671875,-7.810173034667969,-4.584648132324219,4.474578380584717
1790267283694445000,13.005445068359375,-7.798209190368652,-5.000999450683594,4.60857629776001
1790267283711698000,13.022697998046874,-5.831308841705322,-4.981856822967529,4.807180881500244
1790267283728950800,13.03995068359375,-7.077969551086426,-4.163511276245117,4.7952165603637695
1790267283746203600,13.05720361328125,-8.353343963623047,-4.175475597381592,4.831109046936035
1790267283763456500,13.07445654296875,-7.36032247543335,-4.563112735748291,4.6540398597717285
1790267283780709400,13.09170947265625,-6.781259536743164,-4.570291042327881,4.000799655914307
1790267283797962200,13.108962158203125,-6.965506553649902,-4.242474555969238,3.675375461578369
1790267283815215000,13.126215087890625,-6.405586242675781,-3.7974095344543457,3.1513473987579346
1790267283832468000,13.143468017578124,-5.924628734588623,-3.146561861038208,2.6967110633850098
1790267283849720800,13.160720947265625,-6.850651264190674,-2.9144580364227295,2.201396942138672
1790267283866973700,13.1779736328125,-6.6831536293029785,-2.4023938179016113,2.091326951980591
1790267283884226600,13.1952265625,-6.154339790344238,-1.6366907358169556,2.053041934967041
1790267283901479400,13.2124794921875,-6.975078105926514,-1.2442678213119507,2.1511476039886475
1790267283918732300,13.229732177734375,-5.735595703125,-1.2275179624557495,2.0243279933929443
1790267283935985200,13.246985107421875,-5.874379634857178,-1.0671988725662231,1.9692929983139038
1790267283953237800,13.26423779296875,-6.534798622131348,-0.42352959513664246,1.1653046607971191
1790267283970491000,13.281490966796875,-7.295716285705566,0.22013968229293823,1.306481122970581
1790267283987743700,13.29874365234375,-7.4225358963012695,0.22971096634864807,1.954936146736145
1790267284004996600,13.31599658203125,-5.625525951385498,-0.1579262912273407,1.7994025945663452
1790267284022249200,13.333249267578125,-6.666403770446777,-0.004785645287483931,1.3351950645446777
1790267284039502300,13.35050244140625,-6.151947021484375,-0.3086741268634796,2.1918256282806396
1790267284056755200,13.367755126953124,-6.853044033050537,-1.31365966796875,3.2614171504974365
1790267284074008000,13.385008056640626,-6.305087566375732,-2.0171494483947754,3.421736478805542
1790267284091433200,13.40243310546875,-6.3122663497924805,-1.856830358505249,2.8498518466949463
1790267284109030700,13.42003076171875,-6.673582553863525,-1.5098711252212524,2.785245656967163
1790267284126628600,13.437628662109375,-6.546762943267822,-1.3040883541107178,3.187239646911621
1790267284144226300,13.455226318359376,-6.563512325286865,-1.545763373374939,3.3643085956573486
1790267284161824000,13.472823974609375,-6.534798622131348,-2.297109842300415,3.9194436073303223
1790267284179421700,13.490421630859375,-5.173282623291016,-3.0628130435943604,3.8572301864624023
1790267284197019400,13.508019287109375,-5.864808082580566,-3.5916268825531006,3.996013879776001
1790267284214617300,13.525617431640624,-7.082755088806152,-3.761517286300659,4.591826438903809
1790267284232215000,13.543215087890625,-7.968099594116211,-3.9672999382019043,5.1182475090026855
1790267284249812700,13.560812744140625,-6.963113784790039,-4.4243292808532715,5.371886730194092
1790267284267410400,13.578410400390625,-6.589833736419678,-5.1182475090026855,5.536991596221924
1790267284285008100,13.596008056640626,-6.829115867614746,-5.876772403717041,5.85284423828125
1790267284302520800,13.613520751953125,-7.278966426849365,-6.704689025878906,5.79063081741333
1790267284319861000,13.630861083984374,-7.530212879180908,-7.192824840545654,5.292923450469971
1790267284337114000,13.648114013671876,-7.884350776672363,-7.176074981689453,5.438885688781738
1790267284354367000,13.665366943359375,-6.070590972900391,-7.231110095977783,5.441278457641602
1790267284371619800,13.682619873046875,-5.769095420837402,-7.523034572601318,5.230710506439209
1790267284388872400,13.69987255859375,-5.67338228225708,-7.759923934936523,4.907679080963135
1790267284406125600,13.71712548828125,-6.151947021484375,-7.922635555267334,4.871787071228027
1790267284423378200,13.734378173828125,-6.558726787567139,-8.140382766723633,5.352744102478027
1790267284440631000,13.751631103515624,-6.752545356750488,-8.571090698242188,5.4867424964904785
1790267284457884000,13.7688837890625,-5.529813289642334,-9.052047729492188,5.764309883117676
1790267284475137000,13.786136962890625,-5.154139995574951,-9.432506561279297,5.953342914581299
1790267284492389600,13.8033896484375,-5.484349727630615,-9.260223388671875,6.149554252624512
1790267284509642500,13.820642578125,-5.72123908996582,-8.657232284545898,6.0849480628967285
1790267284526895400,13.837895263671875,-5.91505765914917,-8.425128936767578,5.781059741973877
1790267284544148200,13.855148193359375,-5.039284706115723,-8.566305160522461,5.458028316497803
1790267284561401000,13.872401123046876,-4.802394866943359,-8.537590980529785,4.778466701507568
1790267284578654000,13.889654052734375,-5.362315654754639,-8.468199729919434,4.275974273681641
1790267284595906800,13.90690673828125,-6.2428741455078125,-8.669196128845215,4.125226020812988
1790267284613159700,13.92415966796875,-6.434299945831299,-9.06401252746582,4.144368648529053
1790267284630412500,13.94141259765625,-5.927021503448486,-9.152546882629395,4.8191447257995605
1790267284647665400,13.95866552734375,-5.795416355133057,-8.776873588562012,4.9124650955200195
1790267284664918300,13.975918212890624,-5.161318302154541,-8.422736167907715,4.201796531677246
1790267284682171100,13.993171142578126,-4.151547431945801,-7.865208148956299,3.658625841140747
1790267284699424000,14.010424072265625,-4.60139799118042,-7.630711555480957,3.431307554244995
1790267284716676900,14.0276767578125,-5.237888813018799,-8.236095428466797,4.036691665649414
1790267284733929700,14.0449296875,-4.60857629776001,-8.671588897705078,4.244867324829102
1790267284751182600,14.0621826171875,-4.213760852813721,-8.4562349319458,3.5270206928253174
1790267284768435500,14.079435546875,-5.680561065673828,-8.233702659606934,3.728017568588257
1790267284785688000,14.09668798828125,-6.994220733642578,-8.523234367370605,5.398207664489746
1790267284802940700,14.113940673828125,-6.393621921539307,-8.786444664001465,6.419943332672119
1790267284820193500,14.131193603515625,-5.575276851654053,-8.343772888183594,6.4510498046875
1790267284837446400,14.1484462890625,-6.716653347015381,-7.726424217224121,6.735795974731445
1790267284854699300,14.16569921875,-7.247859954833984,-7.685746192932129,6.953542709350586
1790267284871952400,14.182952392578125,-5.697310924530029,-7.6498541831970215,6.03948450088501
1790267284889205200,14.200205322265624,-5.888736724853516,-7.286144733428955,5.376672267913818
1790267284906458000,14.2174580078125,-6.7932233810424805,-6.953542709350586,5.285745143890381
1790267284923711000,14.2347109375,-6.3840508460998535,-7.010970115661621,5.230710506439209
1790267284940963600,14.251963623046874,-6.376872539520264,-6.812366008758545,5.010570526123047
1790267284958216400,14.269216552734376,-7.207181930541992,-6.477370738983154,5.201996326446533
1790267284975469300,14.28646923828125,-6.623332977294922,-6.364908218383789,5.556134223937988
1790267284992722200,14.30372216796875,-6.920042991638184,-6.345765590667725,5.134997367858887
1790267285009975000,14.32097509765625,-6.814758777618408,-6.149554252624512,4.46979284286499
1790267285027228000,14.338227783203125,-7.087540626525879,-5.7164530754089355,4.680361270904541
1790267285044481000,14.35548095703125,-8.504091262817383,-5.0225348472595215,5.175675392150879
1790267285061734000,14.37273388671875,-9.018548965454102,-4.768895626068115,5.2354960441589355
1790267285078986500,14.389986572265625,-6.805187702178955,-4.666004180908203,5.194818019866943
1790267285096239400,14.4072392578125,-6.345765590667725,-4.381258487701416,4.766502857208252
1790267285113492000,14.424491943359374,-6.960721015930176,-3.517449378967285,3.94097900390625
1790267285130744800,14.441744873046876,-7.046862602233887,-2.7110681533813477,3.211168050765991
1790267285147997700,14.458997802734375,-6.415157318115234,-2.335394859313965,3.029313564300537
1790267285165250600,14.47625048828125,-5.469992637634277,-2.0673987865448,3.160918712615967
1790267285182503700,14.493503662109376,-5.333601474761963,-1.2634103298187256,2.967100143432617
1790267285199756500,14.510756591796875,-6.25723123550415,-0.763310432434082,1.8903298377990723
1790267285217009400,14.528009521484375,-5.84566593170166,-0.40677985548973083,1.6701902151107788
1790267285234262300,14.54526220703125,-6.8004021644592285,0.4618147611618042,1.160519003868103
1790267285251515000,14.562514892578125,-5.917450428009033,0.6939185857772827,1.0528420209884644
1790267285268767700,14.579767822265625,-5.259424209594727,0.22492532432079315,1.3782658576965332
1790267285286020400,14.597020263671874,-5.3455657958984375,-0.7441678643226624,2.2325034141540527
1790267285303273200,14.614273193359375,-6.594619274139404,-1.4021940231323242,1.7156537771224976
1790267285320526300,14.6315263671875,-6.716653347015381,-0.46420758962631226,1.6199408769607544
1790267285337779200,14.648779296875,-5.881557941436768,0.973878800868988,2.5698914527893066
1790267285355032000,14.666031982421876,-6.247660160064697,0.7896314859390259,3.404986619949341
1790267285372285000,14.683284912109375,-5.7619171142578125,-0.02153540402650833,2.462214469909668
1790267285389537800,14.700537841796875,-5.654240131378174,-0.8709874153137207,2.1846470832824707
1790267285406791000,14.717791015625,-6.254838466644287,-1.246660590171814,2.4358935356140137
1790267285424043800,14.735043701171875,-6.491727828979492,-1.5792629718780518,2.854637384414673
1790267285441296600,14.752296630859375,-5.5034918785095215,-1.4691931009292603,2.6560330390930176
1790267285458549500,14.769549560546874,-6.4701924324035645,-1.8233308792114258,3.445664644241333
1790267285475802000,14.786802001953125,-6.5180487632751465,-2.4358935356140137,4.122833251953125
1790267285493055000,14.804054931640625,-6.156732559204102,-2.878565549850464,4.34536600112915
1790267285510307600,14.8213076171875,-5.891129493713379,-3.2709884643554688,4.311866283416748
1790267285527560400,14.838560546875,-5.625525951385498,-4.070191383361816,4.412364959716797
1790267285544813600,14.8558134765625,-6.496513366699219,-4.890929698944092,4.5200419425964355
1790267285562066400,14.87306640625,-6.2189459800720215,-5.651846885681152,5.127819061279297
1790267285579319300,14.8903193359375,-6.331408500671387,-6.185446739196777,5.178068161010742
1790267285596572200,14.907572265625,-6.498906135559082,-6.620940208435059,5.458028316497803
1790267285613825000,14.924824951171875,-6.096911907196045,-7.197610378265381,5.280959606170654
1790267285631078000,14.942077880859374,-5.3455657958984375,-7.759923934936523,4.922036170959473
1790267285648330800,14.959330810546875,-4.991427898406982,-7.848458290100098,4.536791801452637
1790267285665583400,14.976583251953125,-4.792823791503906,-7.441678524017334,4.761716842651367
1790267285682836200,14.993836181640624,-5.994020938873291,-7.537391185760498,4.945964336395264
1790267285700089000,15.011089111328126,-5.946164131164551,-8.135597229003906,5.034498691558838
1790267285717342000,15.028342041015625,-5.6446685791015625,-9.372686386108398,5.575276851654053
1790267285734594800,15.0455947265625,-5.592026710510254,-10.679167747497559,6.099305152893066
1790267285751848000,15.062847900390626,-5.649454116821289,-11.052447319030762,5.996413707733154
1790267285769100800,15.080100830078125,-5.766702651977539,-10.504491806030273,5.529813289642334
1790267285786353700,15.097353759765625,-6.0610198974609375,-9.872786521911621,4.8574299812316895
1790267285803606500,15.1146064453125,-5.903093338012695,-9.521040916442871,5.144568920135498
1790267285820859100,15.131859130859375,-5.134997367858887,-9.394221305847168,5.982056617736816
1790267285838111700,15.14911181640625,-5.084748268127441,-9.578469276428223,6.0466628074646
1790267285855364600,15.166364501953124,-4.450650215148926,-9.56889820098877,5.350351333618164
1790267285872617500,15.183617431640625,-4.01754903793335,-9.233902931213379,4.960321426391602
1790267285889870600,15.20087060546875,-3.8668015003204346,-8.894122123718262,4.694717884063721
1790267285907123500,15.21812353515625,-4.187439441680908,-9.066405296325684,4.398007869720459
1790267285924376300,15.235376220703126,-4.986642360687256,-9.482755661010742,4.1347975730896
1790267285941629200,15.252629150390625,-5.726024627685547,-9.755537986755371,4.488935470581055
1790267285958882000,15.269882080078125,-6.238088607788086,-9.614361763000488,4.922036170959473
1790267285976135000,15.287135009765626,-6.599404811859131,-9.22433090209961,5.142175674438477
1790267285993387500,15.304387451171875,-6.400800704956055,-9.214759826660156,5.359922885894775
1790267286010640400,15.321640380859375,-5.946164131164551,-9.748359680175781,5.32403039932251
1790267286027893200,15.338893310546876,-5.505885124206543,-10.145567893981934,4.969892501831055
1790267286045146000,15.35614599609375,-4.677968502044678,-10.021141052246094,4.40757942199707
1790267286062399000,15.37339892578125,-3.641875982284546,-9.779465675354004,3.682554006576538
1790267286079651800,15.39065185546875,-3.3092737197875977,-9.7938232421875,2.9216363430023193
1790267286096904700,15.40790478515625,-3.397808074951172,-9.798608779907227,2.3880369663238525
1790267286114157800,15.42515771484375,-3.7950167655944824,-9.757930755615234,2.9001009464263916
1790267286131410700,15.44241064453125,-4.206582069396973,-9.650253295898438,4.089334011077881
1790267286148663300,15.459663330078126,-4.376472473144531,-9.07119083404541,4.814359188079834
1790267286165916000,15.476916015625,-4.689932346343994,-8.173882484436035,4.713860511779785
1790267286183168800,15.494168701171875,-5.362315654754639,-7.511070251464844,4.7473602294921875
1790267286200421600,15.511421630859376,-4.934000492095947,-7.310073375701904,5.544169902801514
1790267286217674500,15.528674560546875,-4.780859470367432,-7.259823799133301,5.989234924316406
1790267286234927400,15.54592724609375,-5.718846321105957,-7.211967468261719,5.66620397567749
1790267286252180500,15.563180419921874,-6.628118515014648,-7.226324558258057,5.539384365081787
1790267286269433300,15.580433349609375,-6.771687984466553,-7.252645492553711,5.740381717681885
1790267286286686200,15.597686279296875,-6.558726787567139,-7.058826923370361,5.747560024261475
1790267286303939000,15.61493896484375,-6.455835342407227,-6.628118515014648,5.546562671661377
1790267286321191700,15.632191650390626,-6.8171515464782715,-6.211767673492432,5.340780258178711
1790267286338444500,15.649444580078125,-7.051648139953613,-5.927021503448486,5.26181697845459
1790267286355697200,15.666697265625,-6.881757736206055,-5.776273727416992,5.103890895843506
1790267286372950000,15.683949951171876,-6.64486837387085,-5.563312530517578,4.668396949768066
1790267286390203100,15.701203125,-7.204789161682129,-5.254638671875,4.752145767211914
1790267286407456000,15.7184560546875,-7.491927623748779,-5.082355499267578,4.876572608947754
1790267286424708900,15.735708984375,-7.499105930328369,-4.809573650360107,4.493721008300781
1790267286441961700,15.752961669921875,-7.657032489776611,-4.474578380584717,4.1036906242370605
1790267286459214600,15.770214599609375,-7.609176158905029,-4.122833251953125,3.9936211109161377
1790267286476467500,15.787467529296874,-6.6831536293029785,-3.649054527282715,3.933800458908081
1790267286493720000,15.804719970703125,-5.965306758880615,-3.239881753921509,3.5844483375549316
1790267286510973000,15.821972900390625,-5.84566593170166,-2.8211379051208496,2.6297121047973633
1790267286528225800,15.839225830078124,-6.065805435180664,-1.9381862878799438,1.6366907358169556
1790267286545478700,15.856478759765626,-6.183053493499756,-0.6843472719192505,1.4069796800613403
1790267286562731500,15.8737314453125,-6.240481376647949,0.040677983313798904,1.919043779373169
1790267286579984400,15.890984375,-6.4319071769714355,-0.24167509377002716,2.218146562576294
1790267286597237200,15.9082373046875,-6.5874409675598145,-0.38285163044929504,1.9166508913040161
1790267286614490400,15.925490478515625,-6.702296257019043,-0.16510476171970367,1.7012969255447388
1790267286631743200,15.9427431640625,-6.754938125610352,-0.07657032459974289,1.7611174583435059
1790267286648995800,15.959995849609374,-6.723831653594971,-0.062213387340307236,1.9932212829589844
1790267286666248700,15.977248779296875,-6.675975322723389,-0.13160525262355804,1.8975083827972412
1790267286683501300,15.994501220703125,-6.362515449523926,-0.1818545162677765,1.8065811395645142
1790267286700754200,16.011754150390626,-5.625525951385498,-0.10767702013254166,1.794616937637329
1790267286718007000,16.029007080078124,-5.347958564758301,-0.04546362906694412,2.0482561588287354
1790267286735260000,16.046260009765625,-5.804987907409668,-0.12203395366668701,2.5076780319213867
1790267286752513000,16.063512939453126,-5.891129493713379,-0.33020952343940735,3.0317063331604004
1790267286769766000,16.080765869140624,-5.254638671875,-0.5742774605751038,3.2039895057678223
1790267286787018800,16.098018798828125,-5.529813289642334,-0.760917603969574,3.160918712615967
1790267286804271600,16.115271728515626,-6.690331935882568,-1.2993026971817017,3.208775281906128
1790267286821524200,16.132524169921876,-6.546762943267822,-2.1272194385528564,3.5916268825531006
1790267286838777000,16.149777099609373,-6.608976364135742,-2.857030153274536,4.47697114944458
1790267286856029700,16.16702978515625,-7.176074981689453,-3.7112679481506348,4.962714195251465
1790267286873282600,16.184282470703124,-6.331408500671387,-4.823930263519287,4.388436794281006
1790267286890535700,16.20153564453125,-6.147161483764648,-5.893522262573242,3.900300979614258
1790267286907788500,16.21878857421875,-7.204789161682129,-6.364908218383789,3.5150563716888428
1790267286925041400,16.23604150390625,-7.022934436798096,-6.087340831756592,4.113262176513672
1790267286942294300,16.253294189453126,-5.422136306762695,-5.675775527954102,4.383651256561279
1790267286959547100,16.270547119140623,-5.601597785949707,-5.917450428009033,4.376472473144531
1790267286976800000,16.287800048828124,-6.080162525177002,-6.6113691329956055,4.60139799118042
1790267286994052900,16.305052978515626,-5.242674350738525,-7.357929706573486,4.7952165603637695
1790267287011305500,16.322305419921875,-4.721039295196533,-7.860422611236572,4.668396949768066
1790267287028558300,16.339558349609376,-5.2737812995910645,-8.578269004821777,4.843072891235352
1790267287045811200,16.356811279296874,-4.735395908355713,-8.997013092041016,4.6301116943359375
1790267287063064000,16.37406396484375,-5.213960647583008,-9.57607650756836,4.4410786628723145
1790267287080317000,16.39131689453125,-5.319244861602783,-10.16710376739502,4.388436794281006
1790267287097569800,16.40856982421875,-5.37906551361084,-10.138389587402344,3.7974095344543457
1790267287114823000,16.425822998046876,-5.477170944213867,-9.710074424743652,3.5748770236968994
1790267287132075800,16.44307568359375,-5.048855781555176,-9.540184020996094,4.242474555969238
1790267287149328400,16.460328369140626,-5.383851051330566,-9.619147300720215,4.575077056884766
1790267287166581200,16.477581298828124,-5.4556355476379395,-10.162318229675293,5.170889854431152
1790267287183833900,16.494833740234377,-4.989035129547119,-10.944770812988281,5.998806476593018
1790267287201086700,16.512086669921874,-5.821737289428711,-11.349157333374023,7.389036178588867
1790267287218339600,16.529339599609376,-7.214360237121582,-10.839486122131348,8.087740898132324
1790267287235592400,16.546592529296873,-6.422336101531982,-10.332208633422852,6.8171515464782715
1790267287252845300,16.56384521484375,-4.6061835289001465,-10.226923942565918,5.032105922698975
1790267287270098200,16.58109814453125,-5.216353416442871,-10.023533821105957,3.153740167617798
1790267287287350800,16.598350830078125,-6.26440954208374,-10.01874828338623,3.6394832134246826
1790267287304603600,16.615603759765627,-6.843472957611084,-10.112068176269531,4.823930263519287
1790267287321856500,16.6328564453125,-6.7070817947387695,-10.284351348876953,5.051248550415039
1790267287339109400,16.650109375,-5.213960647583008,-10.435099601745605,4.668396949768066
1790267287356362200,16.6673623046875,-3.5820555686950684,-10.124032974243164,3.436093330383301
1790267287373615000,16.684614990234376,-2.342573404312134,-9.674181938171387,2.4526431560516357
1790267287390868200,16.7018681640625,-1.5314065217971802,-9.068798065185547,1.672582983970642
1790267287408121000,16.71912109375,-1.0408778190612793,-8.48016357421875,1.1748759746551514
1790267287425374000,16.7363740234375,-1.0408778190612793,-7.908278942108154,1.6007983684539795
1790267287442626600,16.75362646484375,-2.5292134284973145,-7.525427341461182,3.0005996227264404
1790267287459879200,16.770879150390623,-4.651647090911865,-7.582854747772217,4.668396949768066
1790267287477132000,16.788132080078125,-5.759523868560791,-8.183453559875488,6.008377552032471
1790267287494385000,16.805385009765626,-6.410371780395508,-8.879764556884766,6.8410797119140625
1790267287511637800,16.8226376953125,-6.4701924324035645,-9.33440113067627,7.061219692230225
1790267287528891000,16.839890869140625,-6.515655994415283,-9.408578872680664,6.453442573547363
1790267287546143700,16.857143798828126,-6.486942291259766,-8.685946464538574,5.970092296600342
1790267287563396600,16.874396728515624,-6.908079147338867,-8.331808090209961,5.938985824584961
1790267287580649500,16.8916494140625,-6.52044153213501,-8.444271087646484,5.1876397132873535
1790267287597902300,16.90890234375,-6.393621921539307,-7.877171993255615,3.926621913909912
1790267287615155000,16.926155029296876,-6.86261510848999,-7.066005229949951,3.696911096572876
1790267287632407800,16.94340771484375,-6.996613502502441,-6.6592254638671875,4.47697114944458
1790267287649660400,16.960660400390626,-6.6592254638671875,-6.412764549255371,5.108676433563232
1790267287666913500,16.97791357421875,-7.539783954620361,-5.84566593170166,5.515456199645996
1790267287684166400,16.99516650390625,-6.8243303298950195,-5.520241737365723,5.812166213989258
1790267287701419300,17.012419189453126,-6.393621921539307,-5.26181697845459,6.151947021484375
1790267287718672100,17.029672119140624,-7.269395351409912,-5.194818019866943,6.230910301208496
1790267287735925000,17.046925048828125,-7.393822193145752,-5.20678186416626,6.709474563598633
1790267287753178000,17.06417822265625,-6.7310099601745605,-5.247459888458252,6.833901405334473
1790267287770430700,17.0814306640625,-6.551548480987549,-5.338387489318848,6.20219612121582
1790267287787683300,17.098683349609374,-6.197410583496094,-4.8502516746521,4.831109046936035
1790267287804936200,17.115936279296875,-7.262216567993164,-3.751945972442627,3.586841106414795
1790267287822189000,17.13318896484375,-6.252445697784424,-2.806781053543091,2.9216363430023193
1790267287839442000,17.15044189453125,-5.656632900238037,-1.9525432586669922,2.3234307765960693
1790267287856694800,17.16769482421875,-5.625525951385498,-1.4835500717163086,1.8735800981521606
1790267287873947600,17.18494775390625,-5.127819061279297,-1.612762451171875,1.2705888748168945
1790267287891200300,17.2022001953125,-5.685346603393555,-1.552941918373108,1.2610175609588623
1790267287908453000,17.219453125,-7.106683254241943,-0.9188438653945923,1.3591232299804688
1790267287925705700,17.236705810546876,-6.50608491897583,0.17228323221206665,1.2945170402526855
1790267287942958800,17.253958740234374,-5.879165172576904,0.9978070259094238,2.3545374870300293
1790267287960211700,17.271211669921875,-6.144768714904785,1.007378339767456,2.0027925968170166
1790267287977464600,17.288464599609377,-6.206982135772705,0.31106695532798767,1.2849457263946533
1790267287994717400,17.305717529296874,-5.675775527954102,0.08853443711996078,1.1868400573730469
1790267288011970300,17.32297021484375,-5.6685967445373535,0.4331009089946747,0.2991028428077698
1790267288029223400,17.340223388671873,-6.865008354187012,0.8159525394439697,0.26560330390930176
1790267288046476000,17.35747607421875,-6.290730953216553,0.41874396800994873,1.765903115272522
1790267288063729000,17.37472900390625,-5.8337016105651855,-0.31106695532798767,2.014756679534912
1790267288080981500,17.3919814453125,-6.446264266967773,-0.7824530005455017,2.359323024749756
1790267288098234400,17.409234375,-6.948757171630859,-0.9786644577980042,2.950350284576416
1790267288115487200,17.4264873046875,-5.888736724853516,-1.1653046607971191,3.5365917682647705
1790267288132740000,17.443739990234373,-5.563312530517578,-1.28255295753479,3.1968109607696533
1790267288149993000,17.460992919921875,-6.307480335235596,-1.710868239402771,2.861815929412842
1790267288167246000,17.47824609375,-7.403393268585205,-2.3186452388763428,2.8283164501190186
1790267288184499000,17.4954990234375,-7.247859954833984,-2.926422119140625,3.4576287269592285
1790267288201751800,17.512751708984375,-6.666403770446777,-3.541377544403076,4.3788652420043945
1790267288219004400,17.53000439453125,-6.355337142944336,-4.232903480529785,4.955535888671875
1790267288236257300,17.54725732421875,-6.130411624908447,-5.1876397132873535,4.534399032592773
1790267288253510000,17.564510009765623,-5.37906551361084,-5.970092296600342,4.063013076782227
1790267288270762800,17.5817626953125,-5.257031440734863,-6.183053493499756,3.5844483375549316
1790267288288015600,17.599015625,-5.917450428009033,-5.824130535125732,4.237689018249512
1790267288305268700,17.616268798828123,-5.558526992797852,-5.290530681610107,4.993820667266846
1790267288322521600,17.633521484375,-5.359922885894775,-5.343173027038574,5.422136306762695
1790267288339774500,17.6507744140625,-5.029713153839111,-5.974878311157227,5.558526992797852
1790267288357027300,17.66802734375,-5.469992637634277,-7.020541667938232,5.3216376304626465
1790267288374280200,17.6852802734375,-5.496313571929932,-8.159524917602539,5.032105922698975
1790267288391533000,17.702532958984374,-4.493721008300781,-8.872586250305176,4.527220249176025
1790267288408785700,17.71978564453125,-4.106083869934082,-9.456435203552246,4.493721008300781
1790267288426038300,17.737038330078125,-4.898108005523682,-10.303494453430176,4.831109046936035
1790267288443291400,17.75429150390625,-5.886343479156494,-11.078768730163574,5.264209747314453
1790267288460544300,17.771544189453124,-7.527820110321045,-11.60279655456543,4.761716842651367
1790267288477797000,17.788797119140625,-8.34138011932373,-11.523834228515625,4.086941242218018
1790267288495050000,17.806050048828126,-6.45822811126709,-11.109875679016113,3.5054850578308105
1790267288512302600,17.823302490234376,-4.5822553634643555,-10.918449401855469,3.2470602989196777
1790267288529555200,17.84055517578125,-5.536991596221924,-11.085947036743164,4.041477680206299
1790267288546808000,17.85780810546875,-6.113661766052246,-11.155339241027832,6.051448345184326
1790267288564061000,17.87506103515625,-7.707281589508057,-10.317851066589355,7.04207706451416
1790267288581314000,17.89231396484375,-7.661818027496338,-8.908478736877441,7.429714202880859
1790267288598567000,17.90956689453125,-5.881557941436768,-8.094919204711914,7.0995049476623535
1790267288615819800,17.92681982421875,-4.730610370635986,-8.575876235961914,5.807380676269531
1790267288633072600,17.94407275390625,-5.07517671585083,-9.305686950683594,2.8977081775665283
1790267288650325500,17.961325439453127,-4.704289436340332,-9.097511291503906,2.0673987865448
1790267288667578400,17.978578369140624,-4.488935470581055,-8.662017822265625,3.0556344985961914
1790267288684831000,17.9958310546875,-3.658625841140747,-8.81515884399414,4.1491546630859375
1790267288702083800,18.013083740234375,-3.9361932277679443,-9.872786521911621,5.051248550415039
1790267288719336700,18.030336669921876,-3.840480327606201,-11.097911834716797,5.163711071014404
1790267288736589600,18.047589599609374,-4.299902439117432,-11.827722549438477,4.2281174659729
1790267288753842400,18.064842529296875,-4.342973232269287,-11.24626636505127,2.768495798110962
1790267288771095300,18.08209521484375,-4.512863636016846,-9.497113227844238,2.1272194385528564
1790267288788348000,18.099347900390626,-4.807180881500244,-7.960920810699463,2.445464849472046
1790267288805600800,18.116600830078124,-4.673182487487793,-7.137789726257324,4.417150497436523
1790267288822853400,18.133853271484377,-4.587040901184082,-6.561119556427002,5.522634506225586
1790267288840106200,18.151106201171874,-4.666004180908203,-6.400800704956055,5.225924491882324
1790267288857359400,18.168359375,-4.749752998352051,-6.687939167022705,4.572684288024902
1790267288874612200,18.1856123046875,-5.201996326446533,-7.133004188537598,4.72582483291626
1790267288891865000,18.202864990234374,-6.9583282470703125,-7.6498541831970215,5.450850009918213
1790267288909118000,18.220117919921876,-7.054041385650635,-8.511270523071289,6.0777692794799805
1790267288926370800,18.237370849609373,-6.027520179748535,-8.872586250305176,6.601797580718994
1790267288943623700,18.254623779296875,-6.963113784790039,-8.087740898132324,6.1710896492004395
1790267288960876300,18.271876220703124,-7.903493404388428,-7.843672752380371,6.795616149902344
1790267288978129200,18.289129150390625,-6.130411624908447,-8.080561637878418,6.32662296295166
1790267288995382000,18.306382080078127,-6.120840549468994,-7.1856465339660645,5.017749309539795
1790267289012635000,18.323634765625,-7.4847493171691895,-6.5491557121276855,4.161118507385254
1790267289029887700,18.3408876953125,-6.745367050170898,-6.515655994415283,4.180261135101318
1790267289047140600,18.358140625,-5.98444938659668,-5.891129493713379,3.862015724182129
1790267289064393200,18.375393310546876,-7.767102241516113,-4.785645484924316,3.78544545173645
1790267289081646000,18.39264599609375,-7.613961696624756,-4.922036170959473,3.9122650623321533
1790267289098898700,18.409898681640627,-6.695117950439453,-5.37906551361084,4.175475597381592
1790267289116151600,18.427151611328124,-6.845865726470947,-5.041677474975586,3.7950167655944824
1790267289133404700,18.44440478515625,-7.3986077308654785,-4.914857864379883,3.3858439922332764
1790267289150657500,18.461657470703123,-7.36032247543335,-4.9531426429748535,3.1680972576141357
1790267289167910400,18.478910400390625,-8.21695327758789,-4.517649173736572,3.1202406883239746
1790267289185163300,18.496163330078126,-7.9728851318359375,-3.510270833969116,3.6777684688568115
1790267289202416000,18.513416015625,-6.786045074462891,-2.8139593601226807,3.7471601963043213
1790267289219669000,18.5306689453125,-6.221338748931885,-2.9001009464263916,2.770888566970825
1790267289236921900,18.547921875,-6.137589931488037,-2.4813570976257324,1.9573289155960083
1790267289254174500,18.565174560546875,-5.821737289428711,-1.7060825824737549,1.2705888748168945
1790267289271427300,18.58242724609375,-6.034698486328125,-0.20578274130821228,1.4739787578582764
1790267289288680200,18.59968017578125,-5.948556900024414,1.1820544004440308,1.9764715433120728
1790267289305933000,18.61693310546875,-5.7547383308410645,1.5553346872329712,2.084148406982422
1790267289323186000,18.63418603515625,-5.718846321105957,0.9116654396057129,2.0554347038269043
1790267289340438800,18.651438720703126,-5.938985824584961,0.5096712112426758,2.4358935356140137
1790267289357692000,18.66869189453125,-5.994020938873291,0.7728816866874695,2.280359983444214
1790267289374944800,18.68594482421875,-6.903293132781982,0.01196411345154047,2.179861545562744
1790267289392197400,18.703197265625,-7.336394309997559,-0.7178468108177185,1.5649060010910034
1790267289409450200,18.7204501953125,-5.711667537689209,-0.10289137065410614,1.7132610082626343
1790267289426702800,18.737702880859374,-5.678168296813965,0.851844847202301,1.4141582250595093
1790267289443955700,18.754955810546875,-7.350750923156738,1.2610175609588623,2.359323024749756
1790267289461208600,18.77220849609375,-6.376872539520264,0.6508477330207825,3.88594388961792
1790267289478461400,18.78946142578125,-4.974678039550781,-0.41156548261642456,4.1659040451049805
1790267289495714300,18.80671435546875,-5.759523868560791,-1.373480200767517,3.067598581314087
1790267289512967200,18.82396728515625,-6.465406894683838,-2.328216314315796,2.895315408706665
1790267289530219800,18.8412197265625,-5.678168296813965,-2.7397818565368652,2.7972097396850586
1790267289547472600,18.85847265625,-6.276373863220215,-2.6560330390930176,2.9790642261505127
1790267289564725500,18.8757255859375,-6.608976364135742,-2.3473589420318604,3.924229145050049
1790267289581978400,18.892978271484374,-5.998806476593018,-2.3090739250183105,4.302295207977295
1790267289599231200,18.910231201171875,-5.912664890289307,-2.66560435295105,3.6131622791290283
1790267289616484000,18.927484130859376,-6.580262184143066,-3.3858439922332764,2.799602508544922
1790267289633736700,18.94473681640625,-8.207381248474121,-4.639683246612549,3.517449378967285
1790267289650989600,18.961989501953123,-8.147561073303223,-6.240481376647949,4.716253280639648
1790267289668242200,18.9792421875,-7.154539585113525,-7.7455668449401855,5.288137912750244
1790267289685495300,18.996495361328126,-7.348358154296875,-9.1716890335083,4.709074974060059
1790267289702748200,19.013748046875,-7.113861560821533,-9.884750366210938,4.886143684387207
1790267289720001000,19.0310009765625,-5.793023586273193,-9.410971641540527,5.029713153839111
1790267289737254000,19.04825390625,-5.347958564758301,-8.149953842163086,4.993820667266846
1790267289754506800,19.0655068359375,-4.761716842651367,-6.714260101318359,4.785645484924316
1790267289771759900,19.082759765625,-4.108476638793945,-5.831308841705322,4.338187217712402
1790267289789012500,19.100012451171875,-4.06540584564209,-5.883950710296631,3.900300979614258
1790267289806265000,19.11726513671875,-4.481756687164307,-6.771687984466553,4.254438877105713
1790267289823518000,19.13451806640625,-3.933800458908081,-8.11406135559082,5.173282623291016
1790267289840770800,19.151770751953126,-4.053441524505615,-9.884750366210938,6.123233318328857
1790267289858023700,19.169023681640624,-4.941178798675537,-12.335000991821289,7.101897716522217
1790267289875276500,19.186276611328125,-4.843072891235352,-14.58903980255127,7.712067604064941
1790267289892529400,19.203529296875,-4.548755645751953,-14.864213943481445,6.577869415283203
1790267289909782000,19.220781982421876,-6.211767673492432,-12.43549919128418,5.084748268127441
1790267289927035000,19.238034912109374,-7.9657063484191895,-9.377471923828125,3.3332018852233887
1790267289944287500,19.25528759765625,-7.8628153800964355,-8.116454124450684,2.864208698272705
1790267289961540600,19.27254052734375,-5.831308841705322,-8.652446746826172,3.053241729736328
1790267289978793500,19.28979345703125,-6.281159400939941,-8.908478736877441,3.053241729736328
1790267289996046300,19.30704638671875,-6.453442573547363,-8.831908226013184,4.644468784332275
1790267290013299200,19.32429931640625,-4.8191447257995605,-8.609375953674316,6.927221775054932
1790267290030552000,19.341552001953126,-3.3930225372314453,-7.884350776672363,7.451249599456787
1790267290047805200,19.35880517578125,-3.436093330383301,-7.944170951843262,7.066005229949951
1790267290065057800,19.376057861328125,-3.9194436073303223,-8.599804878234863,6.0466628074646
1790267290082310700,19.393310546875,-3.16331148147583,-9.430113792419434,3.9864425659179688
1790267290099563300,19.410563232421875,-2.5052852630615234,-9.664610862731934,1.7682958841323853
1790267290116816100,19.427816162109377,-2.6321048736572266,-9.233902931213379,1.222732424736023
1790267290134069000,19.445069091796874,-3.407379388809204,-8.673981666564941,1.710868239402771
1790267290151321900,19.46232177734375,-4.3310089111328125,-9.008976936340332,1.9094724655151367
1790267290168574700,19.47957470703125,-5.19242525100708,-10.076175689697266,1.5170495510101318
1790267290185827600,19.49682763671875,-5.357530117034912,-10.853843688964844,1.5290136337280273
1790267290203080200,19.514080078125,-4.721039295196533,-10.77966594696045,3.2709884643554688
1790267290220332800,19.531332763671877,-4.60857629776001,-10.348958015441895,5.3934221267700195
1790267290237586000,19.5485859375,-5.036891460418701,-10.162318229675293,6.604190349578857
1790267290254838800,19.5658388671875,-4.4243292808532715,-9.748359680175781,6.778866767883301
1790267290272091600,19.583091552734373,-5.132604598999023,-9.109476089477539,6.661618232727051
1790267290289344500,19.600344482421875,-6.276373863220215,-8.391629219055176,5.443671703338623
1790267290306597400,19.617597412109376,-5.00578498840332,-7.573283672332764,4.697110652923584
1790267290323850500,19.6348505859375,-4.694717884063721,-6.608976364135742,4.42193603515625
1790267290341103000,19.65210302734375,-6.329015731811523,-5.867201328277588,4.555934429168701
1790267290358356000,19.66935595703125,-7.293323516845703,-5.793023586273193,5.3934221267700195
1790267290375608600,19.686608642578125,-6.970292568206787,-6.005984783172607,5.764309883117676
1790267290392861400,19.703861328125,-6.8004021644592285,-5.706881999969482,5.161318302154541
1790267290410114300,19.7211142578125,-8.13081169128418,-5.431707382202148,5.934200286865234
1790267290427367200,19.7383671875,-7.8628153800964355,-5.821737289428711,7.211967468261719
1790267290444620000,19.7556201171875,-6.7070817947387695,-5.85284423828125,7.121040344238281
1790267290461873000,19.772872802734376,-6.929614543914795,-5.804987907409668,6.606583118438721
1790267290479125500,19.79012548828125,-7.7838521003723145,-6.0610198974609375,6.309873104095459
1790267290496378400,19.80737841796875,-7.204789161682129,-6.10169792175293,6.324230194091797
1790267290513631200,19.82463134765625,-5.934200286865234,-5.501099109649658,5.78345251083374
1790267290530884000,19.841884033203126,-6.410371780395508,-4.658825874328613,4.9052863121032715
1790267290548137000,19.859136962890624,-5.527420520782471,-3.87876558303833,3.9146578311920166
1790267290565389800,19.876389892578125,-5.304887771606445,-2.9479575157165527,3.1896326541900635
1790267290582642400,19.893642333984374,-4.996213912963867,-2.3976082801818848,1.9357935190200806
1790267290599895300,19.910895263671875,-5.793023586273193,-1.9764715433120728,1.423729419708252
1790267290617148000,19.92814794921875,-6.752545356750488,-1.552941918373108,1.8424733877182007
1790267290634400800,19.94540087890625,-6.546762943267822,-1.1700903177261353,1.9381862878799438
1790267290651654000,19.96265380859375,-7.03489875793457,-1.031306505203247,2.196611166000366
1790267290668906800,19.97990673828125,-7.087540626525879,-1.4572290182113647,2.3497519493103027
1790267290686159600,19.99715966796875,-7.135396957397461,-1.5337992906570435,1.703689694404602
1790267290703412500,20.01441259765625,-7.542177200317383,-0.9667003750801086,1.5122638940811157
1790267290720665300,20.031665283203125,-7.927421569824219,-0.33499518036842346,1.892722725868225
1790267290737918200,20.048918212890626,-7.087540626525879,-0.09810572862625122,2.0745773315429688
1790267290755170800,20.0661708984375,-6.963113784790039,-0.11964113265275955,2.2444677352905273
1790267290772423700,20.083423583984374,-6.503692150115967,-0.06699903309345245,1.552941918373108
1790267290789676500,20.100676513671875,-5.867201328277588,0.44027936458587646,1.4859428405761719
1790267290806929400,20.117929443359376,-6.766902446746826,0.5551348328590393,1.947757601737976
1790267290824182300,20.135182373046874,-5.9437713623046875,0.23688943684101105,2.170290231704712
1790267290841435100,20.15243505859375,-5.651846885681152,-0.1052841991186142,2.414358139038086
1790267290858687700,20.169687744140624,-6.022734642028809,-0.44027936458587646,2.6057839393615723
1790267290875940600,20.186940673828126,-6.374479293823242,-0.7250252366065979,2.6488547325134277
1790267290893193200,20.204193115234375,-6.295516490936279,-0.8757730722427368,3.5270206928253174
1790267290910446000,20.221446044921876,-5.000999450683594,-0.8733802437782288,3.352344512939453
1790267290927699200,20.23869921875,-5.484349727630615,-1.1653046607971191,2.974278450012207
1790267290944952000,20.2559521484375,-6.221338748931885,-2.1200408935546875,4.541577339172363
1790267290962204700,20.27320458984375,-5.082355499267578,-2.9838497638702393,5.352744102478027
1790267290979457500,20.29045751953125,-5.405386447906494,-3.601198196411133,5.661418437957764
1790267290996710100,20.307710205078124,-6.3361945152282715,-4.371686935424805,5.912664890289307
1790267291013963000,20.324962890625,-6.455835342407227,-5.048855781555176,5.568098068237305
1790267291031215900,20.3422158203125,-6.128018856048584,-5.5345988273620605,5.398207664489746
1790267291048468700,20.35946875,-5.67338228225708,-5.680561065673828,5.082355499267578
1790267291065721900,20.376721923828125,-6.372086524963379,-6.056233882904053,5.309673309326172
1790267291082974700,20.393974609375,-6.111268997192383,-6.128018856048584,5.053641319274902
1790267291100227600,20.4112275390625,-6.620940208435059,-6.2500529289245605,4.302295207977295
1790267291117480400,20.42848046875,-6.417550563812256,-6.606583118438721,4.153940200805664
1790267291134733300,20.4457333984375,-5.996413707733154,-7.142575740814209,4.01037073135376
1790267291151986000,20.46298583984375,-7.2813591957092285,-8.513663291931152,4.4243292808532715
1790267291169238500,20.480238525390625,-6.936792850494385,-9.796216011047363,4.6540398597717285
1790267291186491400,20.497491455078126,-6.0610198974609375,-10.74138069152832,5.0943193435668945
1790267291203744500,20.51474462890625,-5.407779216766357,-10.832307815551758,5.66620397567749
1790267291220997400,20.531997314453125,-5.410171985626221,-9.4660062789917,4.945964336395264
1790267291238250200,20.549250244140627,-5.608776092529297,-8.271987915039062,4.800002098083496
1790267291255502800,20.5665029296875,-5.422136306762695,-7.738388538360596,5.359922885894775
1790267291272755500,20.58375537109375,-4.603790760040283,-7.932207107543945,5.5968122482299805
1790267291290008300,20.60100830078125,-4.7401814460754395,-8.468199729919434,5.637490272521973
1790267291307261200,20.61826123046875,-6.106483459472656,-9.298508644104004,5.546562671661377
1790267291324514000,20.63551416015625,-5.661418437957764,-9.664610862731934,5.170889854431152
1790267291341767200,20.65276708984375,-5.295316696166992,-9.91107177734375,4.491328239440918
1790267291359019800,20.670019775390625,-6.180660724639893,-10.552348136901855,4.570291042327881
1790267291376272400,20.6872724609375,-5.697310924530029,-11.097911834716797,5.443671703338623
1790267291393525200,20.704525146484375,-5.19242525100708,-10.75813102722168,5.06799840927124
1790267291410778000,20.721778076171876,-5.216353416442871,-9.248259544372559,4.132404804229736
1790267291428031000,20.739031005859374,-4.646861553192139,-7.503891944885254,3.761517286300659
1790267291445283800,20.756283935546875,-3.9290146827697754,-6.649653911590576,4.2281174659729
1790267291462536700,20.77353662109375,-4.271188259124756,-7.128218650817871,4.46979284286499
1790267291479789800,20.790789794921874,-5.4556355476379395,-8.312665939331055,3.8668015003204346
1790267291497042700,20.808042724609376,-5.874379634857178,-8.906085968017578,3.5461630821228027
1790267291514295600,20.825295654296873,-5.924628734588623,-9.42054271697998,4.216153621673584
1790267291531548200,20.842548095703126,-5.905486106872559,-10.255638122558594,4.577469825744629
1790267291548801000,20.859801025390624,-5.426921844482422,-10.703095436096191,4.232903480529785
1790267291566053600,20.8770537109375,-4.46979284286499,-9.7005033493042,3.768695592880249
1790267291583306500,20.894306396484374,-3.4408788681030273,-8.00638484954834,3.90987229347229
1790267291600559400,20.911559326171876,-3.4480574131011963,-6.723831653594971,4.039084434509277
1790267291617812500,20.9288125,-4.450650215148926,-6.3840508460998535,3.792623996734619
1790267291635065000,20.946065185546875,-5.4795637130737305,-7.149754047393799,4.132404804229736
1790267291652318000,20.96331787109375,-5.498706340789795,-8.185846328735352,5.436492919921875
1790267291669570600,20.980570556640625,-5.898307800292969,-9.008976936340332,6.1399827003479
1790267291686823400,20.997823486328127,-6.527620315551758,-9.078369140625,6.240481376647949
1790267291704076300,21.015076171875,-6.589833736419678,-8.757730484008789,5.9509501457214355
1790267291721329200,21.0323291015625,-6.539584159851074,-8.214560508728027,5.888736724853516
1790267291738582000,21.04958203125,-6.116054534912109,-7.609176158905029,5.690132141113281
1790267291755835000,21.0668349609375,-5.795416355133057,-7.082755088806152,5.407779216766357
1790267291773087500,21.08408740234375,-5.723631858825684,-6.695117950439453,4.938786029815674
1790267291790340000,21.101340087890627,-6.486942291259766,-6.532405853271484,5.058426856994629
1790267291807593200,21.11859326171875,-7.066005229949951,-6.742974281311035,5.335994720458984
1790267291824846000,21.13584619140625,-7.140182971954346,-6.898507595062256,5.056034088134766
1790267291842099000,21.153098876953123,-6.893722057342529,-6.283552169799805,4.919643402099609
1790267291859351800,21.170351806640625,-6.932007312774658,-5.383851051330566,4.704289436340332
1790267291876604400,21.1876044921875,-7.6666035652160645,-4.922036170959473,4.371686935424805
1790267291893857000,21.20485693359375,-7.934599876403809,-4.709074974060059,4.479363918304443
1790267291911110000,21.22210986328125,-7.592426300048828,-4.572684288024902,4.438685894012451
1790267291928362800,21.23936279296875,-7.970492362976074,-4.680361270904541,4.651647090911865
1790267291945616000,21.256615966796875,-8.793622970581055,-5.371886730194092,4.438685894012451
1790267291962868700,21.27386865234375,-7.448856830596924,-5.335994720458984,4.101297855377197
1790267291980121600,21.29112158203125,-6.503692150115967,-3.7184464931488037,3.9840497970581055
1790267291997374500,21.30837451171875,-6.661618232727051,-2.7828526496887207,4.175475597381592
1790267292014627300,21.32562744140625,-6.776473522186279,-2.3856441974639893,3.809373617172241
1790267292031880200,21.342880126953126,-5.726024627685547,-1.9692929983139038,2.9288148880004883
1790267292049132800,21.3601328125,-5.941378593444824,-1.7324036359786987,2.2444677352905273
1790267292066385700,21.3773857421875,-6.0777692794799805,-1.6845471858978271,1.667797327041626
1790267292083638500,21.394638427734375,-5.690132141113281,-1.4189438819885254,1.6055840253829956
1790267292100891400,21.411891357421876,-5.816951751708984,-0.8279166221618652,1.3519448041915894
1790267292118144300,21.429144287109374,-7.010970115661621,-0.6125625967979431,1.2275179624557495
1790267292135397000,21.446397216796875,-6.601797580718994,-0.1986042857170105,1.825723648071289
1790267292152649700,21.463649658203124,-6.501298904418945,-0.1986042857170105,1.9884356260299683
1790267292169902600,21.480902587890625,-7.238288402557373,-0.8901300430297852,2.014756679534912
1790267292187155200,21.4981552734375,-6.7070817947387695,-1.6606189012527466,2.139183521270752
1790267292204408000,21.515407958984376,-6.530013084411621,-1.5146567821502686,2.1200408935546875
1790267292221661200,21.5326611328125,-6.283552169799805,-0.2273181527853012,2.478964328765869
1790267292238914000,21.5499140625,-6.467799663543701,-0.02153540402650833,2.5220351219177246
1790267292256166700,21.567166748046876,-5.972485542297363,-0.35892340540885925,3.077169895172119
1790267292273419500,21.58441943359375,-5.630311489105225,-0.607776939868927,3.0891339778900146
1790267292290672000,21.601672119140623,-6.850651264190674,-0.7513462901115417,3.548556089401245
1790267292307925000,21.618925048828125,-7.202396392822266,-1.1676974296569824,4.450650215148926
1790267292325177900,21.636177734375,-6.965506553649902,-1.8807586431503296,5.010570526123047
1790267292342430700,21.6534306640625,-6.120840549468994,-2.667997360229492,5.027320384979248
1790267292359683600,21.67068359375,-6.2189459800720215,-3.1824541091918945,5.194818019866943
1790267292376936400,21.6879365234375,-6.393621921539307,-3.5270206928253174,5.252245903015137
1790267292394189000,21.70518896484375,-6.178267955780029,-3.9792640209198,5.170889854431152
1790267292411442000,21.72244189453125,-5.733202934265137,-4.450650215148926,5.223531723022461
1790267292428694800,21.73969482421875,-6.209374904632568,-4.835894584655762,5.5345988273620605
1790267292445947600,21.75694775390625,-6.441478729248047,-5.000999450683594,5.376672267913818
1790267292463200500,21.774200439453125,-5.955735683441162,-5.044070243835449,5.06082010269165
1790267292480453400,21.791453369140626,-5.553741455078125,-5.13021183013916,4.809573650360107
1790267292497706000,21.8087060546875,-5.723631858825684,-5.551348686218262,4.493721008300781
1790267292514958600,21.82595849609375,-7.142575740814209,-6.269195556640625,5.101497650146484
1790267292532211500,21.84321142578125,-7.18086051940918,-6.991827964782715,5.410171985626221
1790267292549464600,21.860464599609376,-7.3292155265808105,-7.609176158905029,4.9435715675354
1790267292566717400,21.877717529296874,-7.386643409729004,-8.188239097595215,4.34536600112915
1790267292583970300,21.89497021484375,-7.401000499725342,-8.685946464538574,4.053441524505615
1790267292601223000,21.912222900390624,-6.953542709350586,-9.387042999267578,4.886143684387207
1790267292618475500,21.9294755859375,-6.096911907196045,-10.155138969421387,4.9124650955200195
1790267292635728400,21.946728271484375,-5.60399055480957,-10.604990005493164,4.555934429168701
1790267292652981200,21.963981201171876,-5.831308841705322,-10.449456214904785,4.1036906242370605
1790267292670234000,21.981234130859374,-5.6590256690979,-9.535398483276367,3.9146578311920166
1790267292687487200,21.9984873046875,-5.656632900238037,-8.72901725769043,4.225724697113037
1790267292704740000,22.015739990234376,-5.264209747314453,-8.461020469665527,5.034498691558838
1790267292721993000,22.032992919921874,-5.6925249099731445,-8.86780071258545,6.465406894683838
1790267292739245800,22.050245849609375,-6.1328043937683105,-9.241081237792969,6.680760860443115
