time,seconds_elapsed,z,y,x
1790267270760566000,0.07156591796875,9.11892032623291,2.347747325897217,-2.7393033504486084
1790267270770566100,0.081566162109375,9.071718215942383,2.370978832244873,-2.872764825820923
1790267270780566000,0.09156591796875,8.968023300170898,2.448462724685669,-3.1224958896636963
1790267270790566100,0.101566162109375,8.821873664855957,2.5542240142822266,-3.438148021697998
1790267270800566000,0.11156591796875,8.68536376953125,2.651766538619995,-3.7017529010772705
1790267270810566100,0.121566162109375,8.585220336914062,2.7106404304504395,-3.8880326747894287
1790267270820566000,0.13156591796875,8.457834243774414,2.7454826831817627,-4.134942054748535
1790267270830566100,0.141566162109375,8.27838134765625,2.730137586593628,-4.492788314819336
1790267270840566000,0.15156591796875,8.078710556030273,2.632199287414551,-4.896565914154053
1790267270850566100,0.161566162109375,7.843992233276367,2.4322636127471924,-5.3596882820129395
1790267270860566000,0.17156591796875,7.568045616149902,2.3426387310028076,-5.779890060424805
1790267270870566100,0.181566162109375,7.406979560852051,2.321099281311035,-5.993290901184082
1790267270880566000,0.19156591796875,7.306482791900635,2.2939419746398926,-6.125645160675049
1790267270890566100,0.201566162109375,7.252377986907959,2.247288703918457,-6.206697940826416
1790267270900566000,0.21156591796875,7.229487419128418,2.1885123252868652,-6.254223346710205
1790267270910566100,0.221566162109375,7.240418434143066,2.1284873485565186,-6.2622904777526855
1790267270920566000,0.23156591796875,7.322389602661133,2.092597246170044,-6.178513526916504
1790267270930566100,0.241566162109375,7.491306781768799,2.1070289611816406,-5.9675068855285645
1790267270940566000,0.25156591796875,7.730288982391357,2.139084577560425,-5.642458438873291
1790267270950566100,0.261566162109375,7.984064102172852,2.2135818004608154,-5.24644136428833
1790267270960566000,0.27156591796875,8.134683609008789,2.382402181625366,-4.9316792488098145
1790267270970566100,0.281566162109375,8.242389678955078,2.583643674850464,-4.64307975769043
1790267270980566000,0.29156591796875,8.367276191711426,2.772576332092285,-4.2978949546813965
1790267270990566100,0.301566162109375,8.507367134094238,2.9487173557281494,-3.8858911991119385
1790267271000566000,0.31156591796875,8.643239974975586,3.107377052307129,-3.4364233016967773
1790267271010566100,0.321566162109375,8.758831977844238,3.2472586631774902,-2.9847211837768555
1790267271020566000,0.33156591796875,8.825382232666016,3.3548271656036377,-2.651066780090332
1790267271030566100,0.341566162109375,8.862627029418945,3.4032294750213623,-2.458098888397217
1790267271040566000,0.35156591796875,8.902105331420898,3.390942096710205,-2.3290371894836426
1790267271050566100,0.361566162109375,8.938864707946777,3.3417561054229736,-2.258260726928711
1790267271060566000,0.37156591796875,8.977690696716309,3.284095525741577,-2.187730073928833
1790267271070566100,0.381566162109375,9.01683235168457,3.2289793491363525,-2.1073238849639893
1790267271080566000,0.39156591796875,9.058939933776855,3.1742818355560303,-2.007472276687622
1790267271090566100,0.401566162109375,9.108124732971191,3.11799955368042,-1.8682972192764282
1790267271100566000,0.41156591796875,9.160816192626953,3.066228151321411,-1.6876269578933716
1790267271110566100,0.421566162109375,9.205727577209473,3.0308713912963867,-1.4962575435638428
1790267271120566000,0.43156591796875,9.240118026733398,3.016371726989746,-1.3008111715316772
1790267271130566100,0.441566162109375,9.273853302001953,3.00138783454895,-1.0759718418121338
1790267271140566000,0.45156591796875,9.297345161437988,3.002706527709961,-0.8446995615959167
1790267271150566100,0.461566162109375,9.301605224609375,3.0510473251342773,-0.5845027565956116
1790267271160566000,0.47156591796875,9.295465469360352,3.111910104751587,-0.284130722284317
1790267271170566100,0.481566162109375,9.284708976745605,3.156630039215088,-0.01574758067727089
1790267271180566000,0.49156591796875,9.275751113891602,3.177449941635132,0.1861453354358673
1790267271190566100,0.501566162109375,9.270661354064941,3.1802680492401123,0.33333706855773926
1790267271200566000,0.51156591796875,9.26794719696045,3.176130771636963,0.43328651785850525
1790267271210566100,0.521566162109375,9.267589569091797,3.1679022312164307,0.4965502917766571
1790267271220566000,0.53156591796875,9.270343780517578,3.1536128520965576,0.534637987613678
1790267271230566100,0.541566162109375,9.277585983276367,3.1304569244384766,0.5449966788291931
1790267271240566000,0.55156591796875,9.290868759155273,3.0947046279907227,0.5224584937095642
1790267271250566100,0.561566162109375,9.309633255004883,3.0452167987823486,0.47725939750671387
1790267271260566000,0.57156591796875,9.330236434936523,2.9890735149383545,0.4272159934043884
1790267271270566100,0.581566162109375,9.349221229553223,2.9338858127593994,0.393391877412796
1790267271280566000,0.59156591796875,9.364005088806152,2.8872885704040527,0.3864802122116089
1790267271290566100,0.601566162109375,9.374300956726074,2.8519515991210938,0.39904990792274475
1790267271300566000,0.61156591796875,9.381722450256348,2.825448989868164,0.412941575050354
1790267271310566100,0.621566162109375,9.389137268066406,2.7991786003112793,0.4231697916984558
1790267271320566000,0.63156591796875,9.397313117980957,2.7711429595947266,0.42622220516204834
1790267271330566100,0.641566162109375,9.403926849365234,2.7490646839141846,0.4233338534832001
1790267271340566000,0.65156591796875,9.40627670288086,2.7400574684143066,0.4294564127922058
1790267271350566100,0.661566162109375,9.403617858886719,2.7448840141296387,0.4560370445251465
1790267271360566000,0.67156591796875,9.39653491973877,2.760673999786377,0.5041972398757935
1790267271370566100,0.681566162109375,9.389272689819336,2.774456262588501,0.5606629252433777
1790267271380566000,0.69156591796875,9.386428833007812,2.7740676403045654,0.6081929802894592
1790267271390566100,0.701566162109375,9.388256072998047,2.761950969696045,0.6345651745796204
1790267271400566000,0.71156591796875,9.393871307373047,2.7416930198669434,0.6392843127250671
1790267271410566100,0.721566162109375,9.400849342346191,2.7175512313842773,0.6397877931594849
1790267271420566000,0.73156591796875,9.405299186706543,2.7007594108581543,0.6454584002494812
1790267271430566100,0.741566162109375,9.405034065246582,2.699185371398926,0.6558244228363037
1790267271440566000,0.75156591796875,9.40142822265625,2.7090089321136475,0.6669380068778992
1790267271450566100,0.761566162109375,9.395153999328613,2.7292046546936035,0.6729856729507446
1790267271460566000,0.77156591796875,9.387110710144043,2.753598213195801,0.6857379078865051
1790267271470566100,0.781566162109375,9.379636764526367,2.7687699794769287,0.7257524132728577
1790267271480566000,0.79156591796875,9.374390602111816,2.7672767639160156,0.7958480715751648
1790267271490566100,0.801566162109375,9.371543884277344,2.7486400604248047,0.8885546326637268
1790267271500566000,0.81156591796875,9.370856285095215,2.7138776779174805,0.9961389303207397
1790267271510566100,0.821566162109375,9.37397575378418,2.6670265197753906,1.0890040397644043
1790267271520566000,0.83156591796875,9.38388729095459,2.6075546741485596,1.1461669206619263
1790267271530566100,0.841566162109375,9.400429725646973,2.535552501678467,1.171870231628418
1790267271540566000,0.85156591796875,9.418594360351562,2.4625844955444336,1.1815837621688843
1790267271550566100,0.861566162109375,9.433126449584961,2.4054293632507324,1.1833975315093994
1790267271560566000,0.87156591796875,9.443421363830566,2.3693289756774902,1.1740777492523193
1790267271570566100,0.881566162109375,9.450934410095215,2.348001718521118,1.1563327312469482
1790267271580566000,0.89156591796875,9.457698822021484,2.3321754932403564,1.132812261581421
1790267271590566100,0.901566162109375,9.465816497802734,2.3125979900360107,1.1048070192337036
1790267271600566000,0.91156591796875,9.475066184997559,2.286881685256958,1.0787394046783447
1790267271610566100,0.921566162109375,9.483613014221191,2.259235143661499,1.061760425567627
1790267271620566000,0.93156591796875,9.490009307861328,2.234325885772705,1.0573045015335083
1790267271630566100,0.941566162109375,9.493492126464844,2.218769073486328,1.0587986707687378
1790267271640566000,0.95156591796875,9.493736267089844,2.2154595851898193,1.0635265111923218
1790267271650566100,0.961566162109375,9.49235725402832,2.2190144062042236,1.0684232711791992
1790267271660566000,0.97156591796875,9.490887641906738,2.220907211303711,1.0775038003921509
1790267271670566100,0.981566162109375,9.489874839782715,2.2157444953918457,1.0968787670135498
1790267271680566000,0.99156591796875,9.489513397216797,2.2042324542999268,1.1228903532028198
1790267271690566100,1.001566162109375,9.489924430847168,2.1874594688415527,1.1518417596817017
1790267271700566000,1.01156591796875,9.49174976348877,2.1613550186157227,1.1855841875076294
1790267271710566100,1.021566162109375,9.495436668395996,2.125450849533081,1.2204581499099731
1790267271720566000,1.03156591796875,9.500179290771484,2.0832598209381104,1.2557835578918457
1790267271730566100,1.041566162109375,9.504314422607422,2.0382015705108643,1.2977347373962402
1790267271740566000,1.05156591796875,9.506734848022461,1.9922873973846436,1.3502490520477295
1790267271750566100,1.061566162109375,9.506490707397461,1.9474443197250366,1.415802240371704
1790267271760566000,1.07156591796875,9.502984046936035,1.9061485528945923,1.4934067726135254
1790267271770566100,1.081566162109375,9.496292114257812,1.871561884880066,1.5773671865463257
1790267271780566000,1.09156591796875,9.485612869262695,1.848392128944397,1.6664303541183472
1790267271790566100,1.101566162109375,9.469558715820312,1.841780662536621,1.7622952461242676
1790267271800566000,1.11156591796875,9.447102546691895,1.854134440422058,1.8667702674865723
1790267271810566100,1.121566162109375,9.41882038116455,1.8811216354370117,1.97929048538208
1790267271820566000,1.13156591796875,9.383858680725098,1.931092381477356,2.0939149856567383
1790267271830566100,1.141566162109375,9.335643768310547,2.0073156356811523,2.233123779296875
1790267271840566000,1.15156591796875,9.26988410949707,2.104383945465088,2.410645008087158
1790267271850566100,1.161566162109375,9.182379722595215,2.205034017562866,2.644260883331299
1790267271860566000,1.17156591796875,9.067499160766602,2.2967944145202637,2.94543194770813
1790267271870566100,1.181566162109375,8.919358253479004,2.3786120414733887,3.3102314472198486
1790267271880566000,1.19156591796875,8.731459617614746,2.4526784420013428,3.7304654121398926
1790267271890566100,1.201566162109375,8.497758865356445,2.5189058780670166,4.196855068206787
1790267271900566000,1.21156591796875,8.214356422424316,2.5677406787872314,4.701218128204346
1790267271910566100,1.221566162109375,7.884498119354248,2.5877010822296143,5.2257914543151855
1790267271920566000,1.23156591796875,7.519756317138672,2.5651848316192627,5.748344898223877
1790267271930566100,1.241566162109375,7.1336750984191895,2.483402729034424,6.254101753234863
1790267271940566000,1.25156591796875,6.739853858947754,2.3321235179901123,6.7309699058532715
1790267271950566100,1.261566162109375,6.356538772583008,2.1294262409210205,7.157537460327148
1790267271960566000,1.27156591796875,5.98134708404541,1.901587724685669,7.535107135772705
1790267271970566100,1.281566162109375,5.599155902862549,1.6486366987228394,7.880472183227539
1790267271980566000,1.29156591796875,5.206411361694336,1.3711625337600708,8.196558952331543
1790267271990566100,1.301566162109375,4.801180839538574,1.0724397897720337,8.48344898223877
1790267272000566000,1.31156591796875,4.397519588470459,0.7624160051345825,8.732177734375
1790267272010566100,1.321566162109375,4.019677639007568,0.45020776987075806,8.933638572692871
1790267272020566000,1.33156591796875,3.6848068237304688,0.13560818135738373,9.087035179138184
1790267272030566100,1.341566162109375,3.397634506225586,-0.17160694301128387,9.197664260864258
1790267272040566000,1.35156591796875,3.1724493503570557,-0.4380636513233185,9.268982887268066
1790267272050566100,1.361566162109375,3.019960403442383,-0.6473949551582336,9.30758285522461
1790267272060566000,1.37156591796875,2.9450788497924805,-0.8079588413238525,9.319018363952637
1790267272070566100,1.381566162109375,2.9475936889648438,-0.9227104187011719,9.307560920715332
1790267272080566000,1.39156591796875,3.019894599914551,-0.9906719326972961,9.277348518371582
1790267272090566100,1.401566162109375,3.1302449703216553,-1.0306262969970703,9.236329078674316
1790267272100566000,1.41156591796875,3.2255711555480957,-1.0656510591506958,9.199482917785645
1790267272110566100,1.421566162109375,3.2753233909606934,-1.116828203201294,9.175801277160645
1790267272120566000,1.43156591796875,3.2682178020477295,-1.1960737705230713,9.16834545135498
1790267272130566100,1.441566162109375,3.205350160598755,-1.2941395044326782,9.177217483520508
1790267272140566000,1.45156591796875,3.08943510055542,-1.397093415260315,9.20184326171875
1790267272150566100,1.461566162109375,2.9099020957946777,-1.500783920288086,9.24394416809082
1790267272160566000,1.47156591796875,2.6708176136016846,-1.606068730354309,9.298260688781738
1790267272170566100,1.481566162109375,2.389608860015869,-1.7292104959487915,9.352540016174316
1790267272180566000,1.49156591796875,2.086714029312134,-1.880460262298584,9.395736694335938
1790267272190566100,1.501566162109375,1.7794339656829834,-2.0562009811401367,9.422103881835938
1790267272200566000,1.51156591796875,1.4562649726867676,-2.2519936561584473,9.432825088500977
1790267272210566100,1.521566162109375,1.0925683975219727,-2.462796688079834,9.429279327392578
1790267272220566000,1.53156591796875,0.6802709102630615,-2.687877655029297,9.406536102294922
1790267272230566100,1.541566162109375,0.22261476516723633,-2.9384214878082275,9.353421211242676
1790267272240566000,1.55156591796875,-0.25604885816574097,-3.2296411991119385,9.256037712097168
1790267272250566100,1.561566162109375,-0.7066535949707031,-3.5681090354919434,9.1071195602417
1790267272260566000,1.57156591796875,-1.0772920846939087,-3.9493157863616943,8.911382675170898
1790267272270566100,1.581566162109375,-1.333299160003662,-4.355118274688721,8.684794425964355
1790267272280566000,1.59156591796875,-1.4567992687225342,-4.7533416748046875,8.453039169311523
1790267272290566100,1.601566162109375,-1.460885763168335,-5.1160888671875,8.237829208374023
1790267272300566000,1.61156591796875,-1.3881726264953613,-5.439797401428223,8.040644645690918
1790267272310566100,1.621566162109375,-1.2822250127792358,-5.714055061340332,7.866121292114258
1790267272320566000,1.63156591796875,-1.165408968925476,-5.919580459594727,7.731155872344971
1790267272330566100,1.641566162109375,-1.0540862083435059,-6.050950527191162,7.644952774047852
1790267272340566000,1.65156591796875,-0.9565080404281616,-6.121102809906006,7.601813793182373
1790267272350566100,1.661566162109375,-0.8660223484039307,-6.150365352630615,7.589031219482422
1790267272360566000,1.67156591796875,-0.7777791619300842,-6.149552822113037,7.599238872528076
1790267272370566100,1.681566162109375,-0.6991938352584839,-6.1052350997924805,7.642487049102783
1790267272380566000,1.69156591796875,-0.6444427371025085,-5.992961406707764,7.735599040985107
1790267272390566100,1.701566162109375,-0.6266000270843506,-5.809864521026611,7.87548303604126
1790267272400566000,1.71156591796875,-0.6496134996414185,-5.561922550201416,8.050677299499512
1790267272410566100,1.721566162109375,-0.707615852355957,-5.272186756134033,8.238550186157227
1790267272420566000,1.73156591796875,-0.7850664854049683,-4.972747802734375,8.41580867767334
1790267272430566100,1.741566162109375,-0.8678686618804932,-4.680732727050781,8.573677062988281
1790267272440566000,1.75156591796875,-0.9538081884384155,-4.4048566818237305,8.70964241027832
1790267272450566100,1.761566162109375,-1.0456868410110474,-4.138320446014404,8.828999519348145
1790267272460566000,1.77156591796875,-1.1482164859771729,-3.8566339015960693,8.943061828613281
1790267272470566100,1.781566162109375,-1.2607372999191284,-3.545402765274048,9.055994987487793
1790267272480566000,1.79156591796875,-1.3852601051330566,-3.22109317779541,9.158384323120117
1790267272490566100,1.801566162109375,-1.516562819480896,-2.918637752532959,9.238614082336426
1790267272500566000,1.81156591796875,-1.6559789180755615,-2.6774866580963135,9.287582397460938
1790267272510566100,1.821566162109375,-1.812336802482605,-2.5013673305511475,9.307469367980957
1790267272520566000,1.83156591796875,-1.9959009885787964,-2.3731563091278076,9.303488731384277
1790267272530566100,1.841566162109375,-2.2247817516326904,-2.2601125240325928,9.279688835144043
1790267272540566000,1.85156591796875,-2.495126485824585,-2.1152827739715576,9.245015144348145
1790267272550566100,1.861566162109375,-2.7582783699035645,-1.9381341934204102,9.209012985229492
1790267272560566000,1.87156591796875,-2.985382080078125,-1.7813326120376587,9.16977310180664
1790267272570566100,1.881566162109375,-3.183898448944092,-1.6255306005477905,9.131856918334961
1790267272580566000,1.89156591796875,-3.39723539352417,-1.4609779119491577,9.082660675048828
1790267272590566100,1.901566162109375,-3.585615634918213,-1.342545986175537,9.028361320495605
1790267272600566000,1.91156591796875,-3.7281713485717773,-1.3169888257980347,8.974222183227539
1790267272610566100,1.921566162109375,-3.8868749141693115,-1.2981935739517212,8.909392356872559
1790267272620566000,1.93156591796875,-4.110172748565674,-1.2425298690795898,8.816631317138672
1790267272630566100,1.941566162109375,-4.335154056549072,-1.1252992153167725,8.72413444519043
1790267272640566000,1.95156591796875,-4.5121331214904785,-0.9789577126502991,8.651744842529297
1790267272650566100,1.961566162109375,-4.64296817779541,-0.8401405215263367,8.596941947937012
1790267272660566000,1.97156591796875,-4.746985912322998,-0.7605456709861755,8.547402381896973
1790267272670566100,1.981566162109375,-4.844753742218018,-0.7643579244613647,8.492026329040527
1790267272680566000,1.99156591796875,-4.964595794677734,-0.8211542367935181,8.4171781539917
1790267272690566100,2.001566162109375,-5.11287784576416,-0.918160617351532,8.317803382873535
1790267272700566000,2.01156591796875,-5.257565021514893,-1.0580480098724365,8.210294723510742
1790267272710566100,2.021566162109375,-5.368010520935059,-1.249616265296936,8.111307144165039
1790267272720566000,2.03156591796875,-5.443149089813232,-1.4914754629135132,8.019850730895996
1790267272730566100,2.041566162109375,-5.438405990600586,-1.751646876335144,7.970311164855957
1790267272740566000,2.05156591796875,-5.3706183433532715,-2.016761302947998,7.953585147857666
1790267272750566100,2.061566162109375,-5.30553674697876,-2.3137242794036865,7.91633415222168
1790267272760566000,2.07156591796875,-5.257863998413086,-2.6264121532440186,7.850301265716553
1790267272770566100,2.081566162109375,-5.218780040740967,-2.9062511920928955,7.777430057525635
1790267272780566000,2.09156591796875,-5.178090572357178,-3.15600323677063,7.706970691680908
1790267272790566100,2.101566162109375,-5.147486686706543,-3.383589506149292,7.6305365562438965
1790267272800566000,2.11156591796875,-5.1605753898620605,-3.6060752868652344,7.518980026245117
1790267272810566100,2.121566162109375,-5.239630222320557,-3.793666362762451,7.370534420013428
1790267272820566000,2.13156591796875,-5.365293025970459,-3.913388252258301,7.215913772583008
1790267272830566100,2.141566162109375,-5.4988532066345215,-3.978147506713867,7.078652858734131
1790267272840566000,2.15156591796875,-5.6255927085876465,-4.016915321350098,6.956111431121826
1790267272850566100,2.161566162109375,-5.750308513641357,-4.066656589508057,6.823976516723633
1790267272860566000,2.17156591796875,-5.873064994812012,-4.166849136352539,6.6569414138793945
1790267272870566100,2.181566162109375,-5.963751316070557,-4.337003231048584,6.464863300323486
1790267272880566000,2.19156591796875,-5.993957042694092,-4.56062126159668,6.280413627624512
1790267272890566100,2.201566162109375,-5.977323055267334,-4.793643951416016,6.120699405670166
1790267272900566000,2.21156591796875,-5.919638156890869,-4.998571395874023,6.011868476867676
1790267272910566100,2.221566162109375,-5.831320285797119,-5.155479907989502,5.965493679046631
1790267272920566000,2.23156591796875,-5.731376647949219,-5.29006814956665,5.944483757019043
1790267272930566100,2.241566162109375,-5.626862049102783,-5.432374000549316,5.915920734405518
1790267272940566000,2.25156591796875,-5.5074849128723145,-5.597325325012207,5.874345779418945
1790267272950566100,2.261566162109375,-5.372883319854736,-5.795680046081543,5.80625581741333
1790267272960566000,2.27156591796875,-5.223808765411377,-6.023059844970703,5.710074424743652
1790267272970566100,2.281566162109375,-5.0775861740112305,-6.252769470214844,5.593869686126709
1790267272980566000,2.29156591796875,-4.984349250793457,-6.436600685119629,5.467798233032227
1790267272990566100,2.301566162109375,-4.947094917297363,-6.569157123565674,5.342547416687012
1790267273000566000,2.31156591796875,-4.960606575012207,-6.645407676696777,5.234627723693848
1790267273010566100,2.321566162109375,-5.023482799530029,-6.6772613525390625,5.133147239685059
1790267273020566000,2.33156591796875,-5.125175476074219,-6.685357570648193,5.020851135253906
1790267273030566100,2.341566162109375,-5.248184680938721,-6.6875505447387695,4.889131546020508
1790267273040566000,2.35156591796875,-5.3485307693481445,-6.69359016418457,4.770687580108643
1790267273050566100,2.361566162109375,-5.371541976928711,-6.715066432952881,4.714318752288818
1790267273060566000,2.37156591796875,-5.290685653686523,-6.761826992034912,4.7388529777526855
1790267273070566100,2.381566162109375,-5.1203718185424805,-6.842681884765625,4.809354305267334
1790267273080566000,2.39156591796875,-4.894771575927734,-6.968934059143066,4.862670421600342
1790267273090566100,2.401566162109375,-4.64743185043335,-7.140262126922607,4.856791019439697
1790267273100566000,2.41156591796875,-4.398148536682129,-7.32972526550293,4.806432723999023
1790267273110566100,2.421566162109375,-4.150573253631592,-7.510871410369873,4.746571063995361
1790267273120566000,2.43156591796875,-3.9118916988372803,-7.672986030578613,4.6896443367004395
1790267273130566100,2.441566162109375,-3.7121291160583496,-7.803955554962158,4.635598182678223
1790267273140566000,2.45156591796875,-3.57892107963562,-7.900368690490723,4.576666355133057
1790267273150566100,2.461566162109375,-3.5215914249420166,-7.96441125869751,4.509648323059082
1790267273160566000,2.47156591796875,-3.5234227180480957,-8.005105018615723,4.435558795928955
1790267273170566100,2.481566162109375,-3.5524165630340576,-8.03591537475586,4.356007099151611
1790267273180566000,2.49156591796875,-3.5711965560913086,-8.070791244506836,4.275425434112549
1790267273190566100,2.501566162109375,-3.5546581745147705,-8.121965408325195,4.191477298736572
1790267273200566000,2.51156591796875,-3.504686117172241,-8.192069053649902,4.096043109893799
1790267273210566100,2.521566162109375,-3.3525636196136475,-8.289012908935547,4.027773380279541
1790267273220566000,2.53156591796875,-3.115581512451172,-8.394058227539062,4.000415802001953
1790267273230566100,2.541566162109375,-2.8442163467407227,-8.4894437789917,4.001272201538086
1790267273240566000,2.55156591796875,-2.5981032848358154,-8.562959671020508,4.011977195739746
1790267273250566100,2.561566162109375,-2.4248404502868652,-8.616186141967773,4.0064778327941895
1790267273260566000,2.57156591796875,-2.349853277206421,-8.656518936157227,3.963993787765503
1790267273270566100,2.581566162109375,-2.352234363555908,-8.691500663757324,3.8852550983428955
1790267273280566000,2.59156591796875,-2.3759536743164062,-8.730374336242676,3.782299280166626
1790267273290566100,2.601566162109375,-2.342984676361084,-8.785850524902344,3.672823190689087
1790267273300566000,2.61156591796875,-2.230349540710449,-8.856805801391602,3.571122407913208
1790267273310566100,2.621566162109375,-2.086841106414795,-8.93240737915039,3.468081474304199
1790267273320566000,2.63156591796875,-1.9575976133346558,-9.000879287719727,3.364875078201294
1790267273330566100,2.641566162109375,-1.8700952529907227,-9.052390098571777,3.2752645015716553
1790267273340566000,2.65156591796875,-1.8020154237747192,-9.090417861938477,3.2074015140533447
1790267273350566100,2.661566162109375,-1.741655945777893,-9.120710372924805,3.1543080806732178
1790267273360566000,2.67156591796875,-1.699680209159851,-9.143841743469238,3.1099276542663574
1790267273370566100,2.681566162109375,-1.671038269996643,-9.16297721862793,3.068855047225952
1790267273380566000,2.69156591796875,-1.6539030075073242,-9.177946090698242,3.033198356628418
1790267273390566100,2.701566162109375,-1.6461471319198608,-9.188578605651855,3.0050957202911377
1790267273400566000,2.71156591796875,-1.6487526893615723,-9.194998741149902,2.9839558601379395
1790267273410566100,2.721566162109375,-1.6635558605194092,-9.197460174560547,2.9681143760681152
1790267273420566000,2.73156591796875,-1.6910327672958374,-9.194602012634277,2.9614317417144775
1790267273430566100,2.741566162109375,-1.721811294555664,-9.188153266906738,2.9637115001678467
1790267273440566000,2.75156591796875,-1.748030662536621,-9.181764602661133,2.968160390853882
1790267273450566100,2.761566162109375,-1.773264765739441,-9.177749633789062,2.965606927871704
1790267273460566000,2.77156591796875,-1.8065297603607178,-9.1785249710083,2.9430456161499023
1790267273470566100,2.781566162109375,-1.8583738803863525,-9.179801940917969,2.906555652618408
1790267273480566000,2.79156591796875,-1.9160027503967285,-9.173256874084473,2.8897576332092285
1790267273490566100,2.801566162109375,-1.9561856985092163,-9.155684471130371,2.91841983795166
1790267273500566000,2.81156591796875,-1.9734482765197754,-9.133817672729492,2.974768877029419
1790267273510566100,2.821566162109375,-1.975190281867981,-9.121076583862305,3.0124711990356445
1790267273520566000,2.83156591796875,-1.9747231006622314,-9.124247550964355,3.003161668777466
1790267273530566100,2.841566162109375,-1.9853814840316772,-9.136695861816406,2.9579436779022217
1790267273540566000,2.85156591796875,-2.006828546524048,-9.146540641784668,2.9127023220062256
1790267273550566100,2.861566162109375,-2.0321719646453857,-9.14854907989502,2.888723850250244
1790267273560566000,2.87156591796875,-2.059467315673828,-9.142176628112793,2.8895673751831055
1790267273570566100,2.881566162109375,-2.0923268795013428,-9.12726879119873,2.912991762161255
1790267273580566000,2.89156591796875,-2.1282503604888916,-9.105460166931152,2.9549150466918945
1790267273590566100,2.901566162109375,-2.164487600326538,-9.076805114746094,3.0161213874816895
1790267273600566000,2.91156591796875,-2.1950161457061768,-9.043153762817383,3.094132900238037
1790267273610566100,2.921566162109375,-2.207296848297119,-9.00959587097168,3.1820461750030518
1790267273620566000,2.93156591796875,-2.1909265518188477,-8.982830047607422,3.267873525619507
1790267273630566100,2.941566162109375,-2.155893564224243,-8.969408988952637,3.3274924755096436
1790267273640566000,2.95156591796875,-2.109596014022827,-8.965900421142578,3.3663930892944336
1790267273650566100,2.961566162109375,-2.0655758380889893,-8.962441444396973,3.402707576751709
1790267273660566000,2.97156591796875,-2.0421788692474365,-8.962935447692871,3.415504217147827
1790267273670566100,2.981566162109375,-2.033494710922241,-8.966007232666016,3.4126269817352295
1790267273680566000,2.99156591796875,-2.0223653316497803,-8.9658203125,3.419719934463501
1790267273690566100,3.001566162109375,-2.0112736225128174,-8.960453987121582,3.4402642250061035
1790267273700566000,3.01156591796875,-2.0134871006011963,-8.951175689697266,3.4630496501922607
1790267273710566100,3.021566162109375,-2.0286097526550293,-8.941489219665527,3.4792089462280273
1790267273720566000,3.03156591796875,-2.0522384643554688,-8.934864044189453,3.482372283935547
1790267273730566100,3.041566162109375,-2.075035810470581,-8.933717727661133,3.471785306930542
1790267273740566000,3.05156591796875,-2.072063446044922,-8.93895435333252,3.460062026977539
1790267273750566100,3.061566162109375,-2.0235037803649902,-8.953863143920898,3.450237274169922
1790267273760566000,3.07156591796875,-1.9656116962432861,-8.975313186645508,3.427903413772583
1790267273770566100,3.081566162109375,-1.9187079668045044,-9.001703262329102,3.3850085735321045
1790267273780566000,3.09156591796875,-1.887355089187622,-9.03067684173584,3.324930429458618
1790267273790566100,3.101566162109375,-1.8624261617660522,-9.062143325805664,3.2525861263275146
1790267273800566000,3.11156591796875,-1.832064151763916,-9.09830093383789,3.1677823066711426
1790267273810566100,3.121566162109375,-1.7974933385849,-9.137795448303223,3.0724732875823975
1790267273820566000,3.13156591796875,-1.7632194757461548,-9.179573059082031,2.965951919555664
1790267273830566100,3.141566162109375,-1.7226536273956299,-9.22535514831543,2.8452892303466797
1790267273840566000,3.15156591796875,-1.692471981048584,-9.269423484802246,2.717298984527588
1790267273850566100,3.161566162109375,-1.6604268550872803,-9.317564964294434,2.5683352947235107
1790267273860566000,3.17156591796875,-1.6025668382644653,-9.371514320373535,2.4035167694091797
1790267273870566100,3.181566162109375,-1.5061079263687134,-9.428590774536133,2.2368953227996826
1790267273880566000,3.19156591796875,-1.3765348196029663,-9.485513687133789,2.073777914047241
1790267273890566100,3.201566162109375,-1.236464500427246,-9.538466453552246,1.9129019975662231
1790267273900566000,3.21156591796875,-1.0984901189804077,-9.5869722366333,1.7474781274795532
1790267273910566100,3.221566162109375,-0.977281391620636,-9.630365371704102,1.5720601081848145
1790267273920566000,3.23156591796875,-0.8794484734535217,-9.66679859161377,1.3964134454727173
1790267273930566100,3.241566162109375,-0.8059202432632446,-9.695015907287598,1.23594069480896
1790267273940566000,3.25156591796875,-0.7491259574890137,-9.71481704711914,1.1097434759140015
1790267273950566100,3.261566162109375,-0.705459713935852,-9.728789329528809,1.011610507965088
1790267273960566000,3.27156591796875,-0.6776153445243835,-9.737836837768555,0.9411440491676331
1790267273970566100,3.281566162109375,-0.660186231136322,-9.743090629577637,0.898181140422821
1790267273980566000,3.29156591796875,-0.651743471622467,-9.745768547058105,0.8749889135360718
1790267273990566100,3.301566162109375,-0.647664487361908,-9.747523307800293,0.8583230376243591
1790267274000566000,3.31156591796875,-0.6489226818084717,-9.748292922973633,0.8485679626464844
1790267274010566100,3.321566162109375,-0.6530883312225342,-9.746981620788574,0.8603515028953552
1790267274020566000,3.33156591796875,-0.6626707315444946,-9.742581367492676,0.9018580317497253
1790267274030566100,3.341566162109375,-0.6878962516784668,-9.735272407531738,0.9600245952606201
1790267274040566000,3.35156591796875,-0.736490786075592,-9.726110458374023,1.0152546167373657
1790267274050566100,3.361566162109375,-0.8013041615486145,-9.715373039245605,1.0676286220550537
1790267274060566000,3.37156591796875,-0.8654912710189819,-9.702646255493164,1.1313602924346924
1790267274070566100,3.381566162109375,-0.9254792928695679,-9.687945365905762,1.2073019742965698
1790267274080566000,3.39156591796875,-0.9888108968734741,-9.67109489440918,1.2894059419631958
1790267274090566100,3.401566162109375,-1.0586010217666626,-9.65119457244873,1.379928469657898
1790267274100566000,3.41156591796875,-1.1382478475570679,-9.626687049865723,1.483799934387207
1790267274110566100,3.421566162109375,-1.234669804573059,-9.596076011657715,1.6004061698913574
1790267274120566000,3.43156591796875,-1.3522613048553467,-9.558589935302734,1.7248574495315552
1790267274130566100,3.441566162109375,-1.4938956499099731,-9.514495849609375,1.847442626953125
1790267274140566000,3.45156591796875,-1.6578282117843628,-9.46527099609375,1.9572010040283203
1790267274150566100,3.461566162109375,-1.83016836643219,-9.412407875061035,2.056074380874634
1790267274160566000,3.47156591796875,-1.9581371545791626,-9.364287376403809,2.1555070877075195
1790267274170566100,3.481566162109375,-2.0222232341766357,-9.329060554504395,2.247140884399414
1790267274180566000,3.49156591796875,-2.046811819076538,-9.305088996887207,2.322984218597412
1790267274190566100,3.501566162109375,-2.0609259605407715,-9.287406921386719,2.3805556297302246
1790267274200566000,3.51156591796875,-2.0781514644622803,-9.270825386047363,2.4297080039978027
1790267274210566100,3.521566162109375,-2.0882396697998047,-9.256839752197266,2.4739747047424316
1790267274220566000,3.53156591796875,-2.092257022857666,-9.246403694152832,2.509355306625366
1790267274230566100,3.541566162109375,-2.0918588638305664,-9.240885734558105,2.5299274921417236
1790267274240566000,3.55156591796875,-2.08332896232605,-9.240042686462402,2.5400266647338867
1790267274250566100,3.561566162109375,-2.1001696586608887,-9.226560592651367,2.574927568435669
1790267274260566000,3.57156591796875,-2.1371567249298096,-9.199227333068848,2.641432285308838
1790267274270566100,3.581566162109375,-2.1758790016174316,-9.164730072021484,2.728306531906128
1790267274280566000,3.59156591796875,-2.2002506256103516,-9.136582374572754,2.8021693229675293
1790267274290566100,3.601566162109375,-2.2082440853118896,-9.123346328735352,2.8387646675109863
1790267274300566000,3.61156591796875,-2.214276075363159,-9.125328063964844,2.8276755809783936
1790267274310566100,3.621566162109375,-2.2213783264160156,-9.135974884033203,2.7874388694763184
1790267274320566000,3.63156591796875,-2.228105306625366,-9.150106430053711,2.7352302074432373
1790267274330566100,3.641566162109375,-2.2342758178710938,-9.165751457214355,2.6772003173828125
1790267274340566000,3.65156591796875,-2.2365686893463135,-9.183625221252441,2.6132702827453613
1790267274350566100,3.661566162109375,-2.2311341762542725,-9.20538330078125,2.540344715118408
1790267274360566000,3.67156591796875,-2.2174112796783447,-9.230910301208496,2.4584057331085205
1790267274370566100,3.681566162109375,-2.1978838443756104,-9.255434036254883,2.382566452026367
1790267274380566000,3.69156591796875,-2.1810462474823,-9.273436546325684,2.3274035453796387
1790267274390566100,3.701566162109375,-2.170058012008667,-9.283062934875488,2.2991228103637695
1790267274400566000,3.71156591796875,-2.1635689735412598,-9.285141944885254,2.2968478202819824
1790267274410566100,3.721566162109375,-2.164681911468506,-9.281222343444824,2.3115878105163574
1790267274420566000,3.73156591796875,-2.1792256832122803,-9.271056175231934,2.338564157485962
1790267274430566100,3.741566162109375,-2.204813241958618,-9.25423812866211,2.380807876586914
1790267274440566000,3.75156591796875,-2.22774600982666,-9.234099388122559,2.4369964599609375
1790267274450566100,3.761566162109375,-2.2416937351226807,-9.21164608001709,2.5081400871276855
1790267274460566000,3.77156591796875,-2.257282018661499,-9.182148933410645,2.600616931915283
1790267274470566100,3.781566162109375,-2.284813642501831,-9.150428771972656,2.686944007873535
1790267274480566000,3.79156591796875,-2.330014705657959,-9.124544143676758,2.7357096672058105
1790267274490566100,3.801566162109375,-2.3843841552734375,-9.104122161865234,2.756821632385254
1790267274500566000,3.81156591796875,-2.4333391189575195,-9.088215827941895,2.7665092945098877
1790267274510566100,3.821566162109375,-2.444826364517212,-9.082793235778809,2.774177312850952
1790267274520566000,3.83156591796875,-2.4505774974823,-9.081987380981445,2.771743059158325
1790267274530566100,3.841566162109375,-2.4715077877044678,-9.07923412322998,2.762164354324341
1790267274540566000,3.85156591796875,-2.5002706050872803,-9.072366714477539,2.758836269378662
1790267274550566100,3.861566162109375,-2.526094675064087,-9.062705993652344,2.76705265045166
1790267274560566000,3.87156591796875,-2.5420479774475098,-9.052694320678711,2.7851572036743164
1790267274570566100,3.881566162109375,-2.546978712081909,-9.044282913208008,2.8078856468200684
1790267274580566000,3.89156591796875,-2.5468924045562744,-9.037345886230469,2.8302135467529297
1790267274590566100,3.901566162109375,-2.5500781536102295,-9.030820846557617,2.848114013671875
1790267274600566000,3.91156591796875,-2.5641112327575684,-9.023140907287598,2.859835386276245
1790267274610566100,3.921566162109375,-2.5940470695495605,-9.01502513885498,2.858429431915283
1790267274620566000,3.93156591796875,-2.6080620288848877,-9.012174606323242,2.8546626567840576
1790267274630566100,3.941566162109375,-2.5756382942199707,-9.021503448486328,2.8546338081359863
1790267274640566000,3.95156591796875,-2.5188889503479004,-9.04030704498291,2.8457775115966797
1790267274650566100,3.961566162109375,-2.4417314529418945,-9.062982559204102,2.8408970832824707
1790267274660566000,3.97156591796875,-2.357304096221924,-9.085273742675781,2.8410048484802246
1790267274670566100,3.981566162109375,-2.293001413345337,-9.101771354675293,2.8408243656158447
1790267274680566000,3.99156591796875,-2.266080141067505,-9.107584953308105,2.8437933921813965
1790267274690566100,4.001566162109375,-2.263993501663208,-9.106145858764648,2.8500568866729736
1790267274700566000,4.01156591796875,-2.2689144611358643,-9.100770950317383,2.863281726837158
1790267274710566100,4.021566162109375,-2.2376670837402344,-9.100542068481445,2.888490915298462
1790267274720566000,4.03156591796875,-2.1507363319396973,-9.11790943145752,2.899733066558838
1790267274730566100,4.041566162109375,-2.049424171447754,-9.148889541625977,2.8754241466522217
1790267274740566000,4.05156591796875,-1.9533309936523438,-9.182770729064941,2.834007740020752
1790267274750566100,4.061566162109375,-1.8775898218154907,-9.212109565734863,2.789638042449951
1790267274760566000,4.07156591796875,-1.8239820003509521,-9.233306884765625,2.7549099922180176
1790267274770566100,4.081566162109375,-1.7723209857940674,-9.250866889953613,2.7296016216278076
1790267274780566000,4.09156591796875,-1.7062667608261108,-9.26897144317627,2.7102057933807373
1790267274790566100,4.101566162109375,-1.623040795326233,-9.289891242980957,2.689619541168213
1790267274800566000,4.11156591796875,-1.5425410270690918,-9.315613746643066,2.6476950645446777
1790267274810566100,4.121566162109375,-1.4550775289535522,-9.351903915405273,2.5680806636810303
1790267274820566000,4.13156591796875,-1.3527140617370605,-9.39329719543457,2.471137285232544
1790267274830566100,4.141566162109375,-1.2502765655517578,-9.431265830993652,2.3787450790405273
1790267274840566000,4.15156591796875,-1.160815715789795,-9.465383529663086,2.2867915630340576
1790267274850566100,4.161566162109375,-1.0766868591308594,-9.49809741973877,2.1902661323547363
1790267274860566000,4.17156591796875,-0.9922569394111633,-9.528472900390625,2.0961902141571045
1790267274870566100,4.181566162109375,-0.8918154239654541,-9.555355072021484,2.017481565475464
1790267274880566000,4.19156591796875,-0.7841365933418274,-9.578169822692871,1.952994704246521
1790267274890566100,4.201566162109375,-0.6965364813804626,-9.594226837158203,1.9068373441696167
1790267274900566000,4.21156591796875,-0.6323612928390503,-9.601945877075195,1.890275478363037
1790267274910566100,4.221566162109375,-0.586359441280365,-9.601542472839355,1.907077670097351
1790267274920566000,4.23156591796875,-0.5598383545875549,-9.600387573242188,1.9208135604858398
1790267274930566100,4.241566162109375,-0.5464306473731995,-9.603525161743164,1.9089561700820923
1790267274940566000,4.25156591796875,-0.540006160736084,-9.608430862426758,1.8859584331512451
1790267274950566100,4.261566162109375,-0.5519058704376221,-9.613358497619629,1.8571853637695312
1790267274960566000,4.27156591796875,-0.5759705901145935,-9.617951393127441,1.8258323669433594
1790267274970566100,4.281566162109375,-0.6121035218238831,-9.620190620422363,1.8021255731582642
1790267274980566000,4.29156591796875,-0.6609107255935669,-9.6201810836792,1.7848507165908813
1790267274990566100,4.301566162109375,-0.7124415040016174,-9.619296073913574,1.769731879234314
1790267275000566000,4.31156591796875,-0.7494463324546814,-9.618349075317383,1.759570837020874
1790267275010566100,4.321566162109375,-0.7565352916717529,-9.618699073791504,1.7546137571334839
1790267275020566000,4.33156591796875,-0.7459525465965271,-9.61890697479248,1.7580018043518066
1790267275030566100,4.341566162109375,-0.7426095604896545,-9.616302490234375,1.773590326309204
1790267275040566000,4.35156591796875,-0.7574446201324463,-9.609060287475586,1.8062728643417358
1790267275050566100,4.361566162109375,-0.7870264649391174,-9.599041938781738,1.8464477062225342
1790267275060566000,4.37156591796875,-0.8301803469657898,-9.587529182434082,1.8869187831878662
1790267275070566100,4.381566162109375,-0.8743099570274353,-9.577841758728027,1.9159603118896484
1790267275080566000,4.39156591796875,-0.9125088453292847,-9.569400787353516,1.9401769638061523
1790267275090566100,4.401566162109375,-0.9512770771980286,-9.559367179870605,1.970776081085205
1790267275100566000,4.41156591796875,-0.9907557964324951,-9.54824161529541,2.0049610137939453
1790267275110566100,4.421566162109375,-1.0368858575820923,-9.534943580627441,2.04453444480896
1790267275120566000,4.43156591796875,-1.0868932008743286,-9.515449523925781,2.1083803176879883
1790267275130566100,4.441566162109375,-1.141803503036499,-9.491856575012207,2.1843392848968506
1790267275140566000,4.45156591796875,-1.216709852218628,-9.465831756591797,2.255668878555298
1790267275150566100,4.461566162109375,-1.3121531009674072,-9.437854766845703,2.318519115447998
1790267275160566000,4.47156591796875,-1.4213284254074097,-9.407061576843262,2.378530740737915
1790267275170566100,4.481566162109375,-1.5462654829025269,-9.371002197265625,2.4420833587646484
1790267275180566000,4.49156591796875,-1.6918094158172607,-9.328567504882812,2.507190704345703
1790267275190566100,4.501566162109375,-1.8673111200332642,-9.277569770812988,2.5710370540618896
1790267275200566000,4.51156591796875,-2.073692798614502,-9.214351654052734,2.6393017768859863
1790267275210566100,4.521566162109375,-2.3142635822296143,-9.130935668945312,2.7277448177337646
1790267275220566000,4.53156591796875,-2.585916042327881,-9.019197463989258,2.852630615234375
1790267275230566100,4.541566162109375,-2.875948667526245,-8.876836776733398,3.0167980194091797
1790267275240566000,4.55156591796875,-3.1906192302703857,-8.70615005493164,3.1926932334899902
1790267275250566100,4.561566162109375,-3.517146348953247,-8.52298355102539,3.3404812812805176
1790267275260566000,4.57156591796875,-3.8137190341949463,-8.358247756958008,3.430104970932007
1790267275270566100,4.581566162109375,-4.053844451904297,-8.237347602844238,3.4471490383148193
1790267275280566000,4.59156591796875,-4.233623504638672,-8.1637544631958,3.4058682918548584
1790267275290566100,4.601566162109375,-4.365993499755859,-8.12231731414795,3.337132692337036
1790267275300566000,4.61156591796875,-4.475043296813965,-8.091645240783691,3.2664430141448975
1790267275310566100,4.621566162109375,-4.580666542053223,-8.053833961486816,3.213040351867676
1790267275320566000,4.63156591796875,-4.6879563331604,-8.002511024475098,3.1864194869995117
1790267275330566100,4.641566162109375,-4.797702312469482,-7.936162948608398,3.18900728225708
1790267275340566000,4.65156591796875,-4.902126789093018,-7.858939170837402,3.2212750911712646
1790267275350566100,4.661566162109375,-4.9959564208984375,-7.774051666259766,3.282520055770874
1790267275360566000,4.67156591796875,-5.08615255355835,-7.680439472198486,3.363375425338745
1790267275370566100,4.681566162109375,-5.1890339851379395,-7.575784683227539,3.4426462650299072
1790267275380566000,4.69156591796875,-5.313091278076172,-7.456700801849365,3.5127012729644775
1790267275390566100,4.701566162109375,-5.4567341804504395,-7.320687770843506,3.577986001968384
1790267275400566000,4.71156591796875,-5.613775730133057,-7.165277481079102,3.648933172225952
1790267275410566100,4.721566162109375,-5.776896953582764,-6.988954067230225,3.735285997390747
1790267275420566000,4.73156591796875,-5.937142848968506,-6.7960309982299805,3.8385791778564453
1790267275430566100,4.741566162109375,-6.058707237243652,-6.610449314117432,3.97044038772583
1790267275440566000,4.75156591796875,-6.159034729003906,-6.44145393371582,4.091985702514648
1790267275450566100,4.761566162109375,-6.25676965713501,-6.283939361572266,4.187520980834961
1790267275460566000,4.77156591796875,-6.365875720977783,-6.125704765319824,4.256966590881348
1790267275470566100,4.781566162109375,-6.491063594818115,-5.958053112030029,4.305588245391846
1790267275480566000,4.79156591796875,-6.636873245239258,-5.7763447761535645,4.330835342407227
1790267275490566100,4.801566162109375,-6.800519943237305,-5.580538749694824,4.333693504333496
1790267275500566000,4.81156591796875,-6.969242572784424,-5.375080585479736,4.325339317321777
1790267275510566100,4.821566162109375,-7.1375532150268555,-5.162531852722168,4.309754848480225
1790267275520566000,4.83156591796875,-7.308464050292969,-4.9400105476379395,4.28404426574707
1790267275530566100,4.841566162109375,-7.473505020141602,-4.696369171142578,4.273316860198975
1790267275540566000,4.85156591796875,-7.6363959312438965,-4.456785202026367,4.241805076599121
1790267275550566100,4.861566162109375,-7.7929158210754395,-4.231366157531738,4.187648296356201
1790267275560566000,4.87156591796875,-7.945448875427246,-4.01369047164917,4.114673137664795
1790267275570566100,4.881566162109375,-8.103760719299316,-3.800920248031616,4.006552219390869
1790267275580566000,4.89156591796875,-8.263235092163086,-3.5827887058258057,3.8798139095306396
1790267275590566100,4.901566162109375,-8.416053771972656,-3.347913980484009,3.7592427730560303
1790267275600566000,4.91156591796875,-8.562494277954102,-3.0943076610565186,3.6440846920013428
1790267275610566100,4.921566162109375,-8.704312324523926,-2.8312013149261475,3.5198922157287598
1790267275620566000,4.93156591796875,-8.837373733520508,-2.575056314468384,3.3823511600494385
1790267275630566100,4.941566162109375,-8.95534610748291,-2.3430120944976807,3.237661838531494
1790267275640566000,4.95156591796875,-9.053667068481445,-2.1466312408447266,3.097334384918213
1790267275650566100,4.961566162109375,-9.134371757507324,-1.980315923690796,2.968499183654785
1790267275660566000,4.97156591796875,-9.19945240020752,-1.8313413858413696,2.8612325191497803
1790267275670566100,4.981566162109375,-9.249800682067871,-1.691376805305481,2.7840309143066406
1790267275680566000,4.99156591796875,-9.28696060180664,-1.5556129217147827,2.739126205444336
1790267275690566100,5.001566162109375,-9.311331748962402,-1.429307222366333,2.7251718044281006
1790267275700566000,5.01156591796875,-9.325427055358887,-1.3131439685821533,2.7354061603546143
1790267275710566100,5.021566162109375,-9.331879615783691,-1.2048368453979492,2.763110399246216
1790267275720566000,5.03156591796875,-9.332220077514648,-1.1054328680038452,2.8032240867614746
1790267275730566100,5.041566162109375,-9.32744026184082,-1.0143218040466309,2.8531363010406494
1790267275740566000,5.05156591796875,-9.315018653869629,-0.9319062829017639,2.9210214614868164
1790267275750566100,5.061566162109375,-9.290462493896484,-0.8654413819313049,3.018061876296997
1790267275760566000,5.07156591796875,-9.255879402160645,-0.819439172744751,3.1349024772644043
1790267275770566100,5.081566162109375,-9.218334197998047,-0.7937964797019958,3.2500126361846924
1790267275780566000,5.09156591796875,-9.183938980102539,-0.7825320363044739,3.348625659942627
1790267275790566100,5.101566162109375,-9.155011177062988,-0.7800931334495544,3.4274778366088867
1790267275800566000,5.11156591796875,-9.132936477661133,-0.7905240654945374,3.4835236072540283
1790267275810566100,5.121566162109375,-9.115500450134277,-0.8186267614364624,3.5224835872650146
1790267275820566000,5.13156591796875,-9.101099967956543,-0.8625711798667908,3.5491321086883545
1790267275830566100,5.141566162109375,-9.089249610900879,-0.9232711791992188,3.564197063446045
1790267275840566000,5.15156591796875,-9.078591346740723,-1.0005457401275635,3.570499897003174
1790267275850566100,5.161566162109375,-9.064208984375,-1.0885355472564697,3.5812835693359375
1790267275860566000,5.17156591796875,-9.0421781539917,-1.1826311349868774,3.6070470809936523
1790267275870566100,5.181566162109375,-9.01278305053711,-1.2854275703430176,3.6452462673187256
1790267275880566000,5.19156591796875,-8.977152824401855,-1.4006656408309937,3.6904265880584717
1790267275890566100,5.201566162109375,-8.932554244995117,-1.5307095050811768,3.746570110321045
1790267275900566000,5.21156591796875,-8.875955581665039,-1.6780401468276978,3.8173255920410156
1790267275910566100,5.221566162109375,-8.807579040527344,-1.8428127765655518,3.8988430500030518
1790267275920566000,5.23156591796875,-8.73054313659668,-2.019733428955078,3.9835526943206787
1790267275930566100,5.241566162109375,-8.650345802307129,-2.2036664485931396,4.060266494750977
1790267275940566000,5.25156591796875,-8.570287704467773,-2.3938043117523193,4.121923923492432
1790267275950566100,5.261566162109375,-8.487826347351074,-2.589146852493286,4.174148082733154
1790267275960566000,5.27156591796875,-8.396981239318848,-2.7913670539855957,4.227218151092529
1790267275970566100,5.281566162109375,-8.294815063476562,-3.0008397102355957,4.2850189208984375
1790267275980566000,5.29156591796875,-8.18210220336914,-3.2163376808166504,4.344970703125
1790267275990566100,5.301566162109375,-8.059414863586426,-3.438957452774048,4.403385162353516
1790267276000566000,5.31156591796875,-7.928068161010742,-3.667029857635498,4.457468509674072
1790267276010566100,5.321566162109375,-7.790164470672607,-3.8962013721466064,4.505923271179199
1790267276020566000,5.33156591796875,-7.646051406860352,-4.122172832489014,4.551480293273926
1790267276030566100,5.341566162109375,-7.494576930999756,-4.3429107666015625,4.5979156494140625
1790267276040566000,5.35156591796875,-7.335818290710449,-4.557857513427734,4.645653247833252
1790267276050566100,5.361566162109375,-7.171557426452637,-4.76672887802124,4.692275524139404
1790267276060566000,5.37156591796875,-7.0032267570495605,-4.966423988342285,4.7391815185546875
1790267276070566100,5.381566162109375,-6.832972049713135,-5.156827926635742,4.784142017364502
1790267276080566000,5.39156591796875,-6.663617134094238,-5.341074466705322,4.820738792419434
1790267276090566100,5.401566162109375,-6.498441696166992,-5.519628047943115,4.845033168792725
1790267276100566000,5.41156591796875,-6.341632843017578,-5.68910026550293,4.856769561767578
1790267276110566100,5.421566162109375,-6.191115856170654,-5.84883451461792,4.86123514175415
1790267276120566000,5.43156591796875,-6.045654773712158,-6.001116752624512,4.858708381652832
1790267276130566100,5.441566162109375,-5.909909248352051,-6.147557258605957,4.842612266540527
1790267276140566000,5.45156591796875,-5.790055751800537,-6.286752700805664,4.808573246002197
1790267276150566100,5.461566162109375,-5.689023971557617,-6.414844989776611,4.7597432136535645
1790267276160566000,5.47156591796875,-5.606969833374023,-6.5296525955200195,4.700630187988281
1790267276170566100,5.481566162109375,-5.5410075187683105,-6.6328301429748535,4.63391637802124
1790267276180566000,5.49156591796875,-5.485326290130615,-6.727822303771973,4.5626726150512695
1790267276190566100,5.501566162109375,-5.435020446777344,-6.816648006439209,4.490461826324463
1790267276200566000,5.51156591796875,-5.387054443359375,-6.900394439697266,4.419795513153076
1790267276210566100,5.521566162109375,-5.340333938598633,-6.98089599609375,4.349519729614258
1790267276220566000,5.53156591796875,-5.296473026275635,-7.058277606964111,4.27767276763916
1790267276230566100,5.541566162109375,-5.257452964782715,-7.1302924156188965,4.205770969390869
1790267276240566000,5.55156591796875,-5.223995685577393,-7.194008827209473,4.1384172439575195
1790267276250566100,5.561566162109375,-5.19319486618042,-7.248758792877197,4.08125114440918
1790267276260566000,5.57156591796875,-5.157524108886719,-7.298055648803711,4.038404941558838
1790267276270566100,5.581566162109375,-5.107987880706787,-7.348114013671875,4.010495662689209
1790267276280566000,5.59156591796875,-5.043122291564941,-7.401619911193848,3.994159698486328
1790267276290566100,5.601566162109375,-4.971610069274902,-7.456643581390381,3.981449842453003
1790267276300566000,5.61156591796875,-4.9055962562561035,-7.509462833404541,3.9640233516693115
1790267276310566100,5.621566162109375,-4.856491565704346,-7.554541110992432,3.938753843307495
1790267276320566000,5.63156591796875,-4.82738733291626,-7.588589668273926,3.908965826034546
1790267276330566100,5.641566162109375,-4.8140974044799805,-7.611217021942139,3.881267547607422
1790267276340566000,5.65156591796875,-4.812654495239258,-7.622779369354248,3.860308885574341
1790267276350566100,5.661566162109375,-4.821047782897949,-7.623784065246582,3.847829818725586
1790267276360566000,5.67156591796875,-4.837499618530273,-7.6152873039245605,3.844006061553955
1790267276370566100,5.681566162109375,-4.860843658447266,-7.599100589752197,3.8465893268585205
1790267276380566000,5.69156591796875,-4.891841411590576,-7.577250003814697,3.850397825241089
1790267276390566100,5.701566162109375,-4.928612232208252,-7.5517473220825195,3.8536055088043213
1790267276400566000,5.71156591796875,-4.967852592468262,-7.5243330001831055,3.8568408489227295
1790267276410566100,5.721566162109375,-5.004367351531982,-7.494742393493652,3.8672401905059814
1790267276420566000,5.73156591796875,-5.0369954109191895,-7.461421966552734,3.8892459869384766
1790267276430566100,5.741566162109375,-5.069347858428955,-7.4230265617370605,3.9205567836761475
1790267276440566000,5.75156591796875,-5.106189727783203,-7.378992557525635,3.9557158946990967
1790267276450566100,5.761566162109375,-5.151638031005859,-7.329938888549805,3.9878573417663574
1790267276460566000,5.77156591796875,-5.206656455993652,-7.277072429656982,4.013144493103027
1790267276470566100,5.781566162109375,-5.270298957824707,-7.220583438873291,4.032060146331787
1790267276480566000,5.79156591796875,-5.341275691986084,-7.159570217132568,4.047433853149414
1790267276490566100,5.801566162109375,-5.417276382446289,-7.094034671783447,4.061792373657227
1790267276500566000,5.81156591796875,-5.496874809265137,-7.024734020233154,4.07527494430542
1790267276510566100,5.821566162109375,-5.579407691955566,-6.952149868011475,4.087568759918213
1790267276520566000,5.83156591796875,-5.663819313049316,-6.87581729888916,4.100569248199463
1790267276530566100,5.841566162109375,-5.748371124267578,-6.795198917388916,4.117267608642578
1790267276540566000,5.85156591796875,-5.829996109008789,-6.710481643676758,4.141373157501221
1790267276550566100,5.861566162109375,-5.90623140335083,-6.622987747192383,4.174069881439209
1790267276560566000,5.87156591796875,-5.977598667144775,-6.534505844116211,4.2117600440979
1790267276570566100,5.881566162109375,-6.048595428466797,-6.4455885887146,4.24726676940918
1790267276580566000,5.89156591796875,-6.1252570152282715,-6.354422569274902,4.274684429168701
1790267276590566100,5.901566162109375,-6.209897994995117,-6.2580485343933105,4.29469108581543
1790267276600566000,5.91156591796875,-6.300255298614502,-6.152808666229248,4.315104007720947
1790267276610566100,5.921566162109375,-6.3927531242370605,-6.0358147621154785,4.344196319580078
1790267276620566000,5.93156591796875,-6.484167098999023,-5.907139301300049,4.385392665863037
1790267276630566100,5.941566162109375,-6.572017669677734,-5.770911693572998,4.435713291168213
1790267276640566000,5.95156591796875,-6.657680034637451,-5.630916595458984,4.48759126663208
1790267276650566100,5.961566162109375,-6.74433708190918,-5.489455223083496,4.533231258392334
1790267276660566000,5.97156591796875,-6.835145950317383,-5.347776889801025,4.566447734832764
1790267276670566100,5.981566162109375,-6.931177616119385,-5.208148002624512,4.583052158355713
1790267276680566000,5.99156591796875,-7.033284664154053,-5.071054458618164,4.581233501434326
1790267276690566100,6.001566162109375,-7.141679286956787,-4.934077739715576,4.5630784034729
1790267276700566000,6.01156591796875,-7.2547831535339355,-4.794793128967285,4.5330424308776855
1790267276710566100,6.021566162109375,-7.3715949058532715,-4.648540496826172,4.4967803955078125
1790267276720566000,6.03156591796875,-7.494085311889648,-4.482550144195557,4.462714672088623
1790267276730566100,6.041566162109375,-7.620765209197998,-4.286256313323975,4.440984725952148
1790267276740566000,6.05156591796875,-7.742860317230225,-4.07226037979126,4.431163787841797
1790267276750566100,6.061566162109375,-7.859232425689697,-3.863337278366089,4.413329124450684
1790267276760566000,6.07156591796875,-7.978463649749756,-3.673405885696411,4.361259937286377
1790267276770566100,6.081566162109375,-8.104073524475098,-3.498044967651367,4.272945880889893
1790267276780566000,6.09156591796875,-8.231968879699707,-3.32377290725708,4.1662468910217285
1790267276790566100,6.101566162109375,-8.361742973327637,-3.140184164047241,4.048565864562988
1790267276800566000,6.11156591796875,-8.492711067199707,-2.9433693885803223,3.921839952468872
1790267276810566100,6.121566162109375,-8.619794845581055,-2.7345633506774902,3.793637275695801
1790267276820566000,6.13156591796875,-8.737597465515137,-2.5178887844085693,3.6721951961517334
1790267276830566100,6.141566162109375,-8.842916488647461,-2.3006691932678223,3.560917615890503
1790267276840566000,6.15156591796875,-8.93559455871582,-2.0916566848754883,3.4569504261016846
1790267276850566100,6.161566162109375,-9.018692970275879,-1.897705316543579,3.351459264755249
1790267276860566000,6.17156591796875,-9.094843864440918,-1.7223066091537476,3.2384979724884033
1790267276870566100,6.181566162109375,-9.162752151489258,-1.5661189556121826,3.124361515045166
1790267276880566000,6.19156591796875,-9.218642234802246,-1.4273533821105957,3.0248453617095947
1790267276890566100,6.201566162109375,-9.259660720825195,-1.3033636808395386,2.954709768295288
1790267276900566000,6.21156591796875,-9.286609649658203,-1.1889816522598267,2.918147563934326
1790267276910566100,6.221566162109375,-9.301008224487305,-1.083452820777893,2.913374423980713
1790267276920566000,6.23156591796875,-9.305200576782227,-0.994246780872345,2.9317378997802734
1790267276930566100,6.241566162109375,-9.303037643432617,-0.9232856631278992,2.9616572856903076
1790267276940566000,6.25156591796875,-9.297286033630371,-0.8682101368904114,2.99617600440979
1790267276950566100,6.261566162109375,-9.289337158203125,-0.8310520648956299,3.0311622619628906
1790267276960566000,6.27156591796875,-9.279821395874023,-0.8146712779998779,3.064572811126709
1790267276970566100,6.281566162109375,-9.268439292907715,-0.8195433020591736,3.0975427627563477
1790267276980566000,6.29156591796875,-9.253678321838379,-0.8434695601463318,3.1350255012512207
1790267276990566100,6.301566162109375,-9.235067367553711,-0.8851689100265503,3.178114414215088
1790267277000566000,6.31156591796875,-9.211274147033691,-0.942714512348175,3.2301838397979736
1790267277010566100,6.321566162109375,-9.181511878967285,-1.0143680572509766,3.2926113605499268
1790267277020566000,6.33156591796875,-9.144558906555176,-1.1003756523132324,3.36698842048645
1790267277030566100,6.341566162109375,-9.099899291992188,-1.2014775276184082,3.4523417949676514
1790267277040566000,6.35156591796875,-9.04761791229248,-1.317679762840271,3.546086549758911
1790267277050566100,6.361566162109375,-8.988568305969238,-1.4474520683288574,3.644296884536743
1790267277060566000,6.37156591796875,-8.923964500427246,-1.5866749286651611,3.743755340576172
1790267277070566100,6.381566162109375,-8.85427188873291,-1.7306745052337646,3.8440918922424316
1790267277080566000,6.39156591796875,-8.779586791992188,-1.8753303289413452,3.9461851119995117
1790267277090566100,6.401566162109375,-8.699789047241211,-2.01833438873291,4.0509724617004395
1790267277100566000,6.41156591796875,-8.615782737731934,-2.159416437149048,4.156393527984619
1790267277110566100,6.421566162109375,-8.53003978729248,-2.300065279006958,4.256584167480469
1790267277120566000,6.43156591796875,-8.444286346435547,-2.442408800125122,4.347304344177246
1790267277130566100,6.441566162109375,-8.359262466430664,-2.5856223106384277,4.428055286407471
1790267277140566000,6.45156591796875,-8.276427268981934,-2.727121114730835,4.498216152191162
1790267277150566100,6.461566162109375,-8.196159362792969,-2.8663442134857178,4.5582275390625
1790267277160566000,6.47156591796875,-8.116846084594727,-3.0022823810577393,4.612319469451904
1790267277170566100,6.481566162109375,-8.03684139251709,-3.134232997894287,4.6643476486206055
1790267277180566000,6.49156591796875,-7.956679344177246,-3.2615222930908203,4.714245796203613
1790267277190566100,6.501566162109375,-7.8781867027282715,-3.385197639465332,4.7586774826049805
1790267277200566000,6.51156591796875,-7.801889896392822,-3.5087146759033203,4.794769287109375
1790267277210566100,6.521566162109375,-7.728322505950928,-3.6347975730895996,4.819921970367432
1790267277220566000,6.53156591796875,-7.6578168869018555,-3.7634294033050537,4.833718776702881
1790267277230566100,6.541566162109375,-7.589724063873291,-3.8937668800354004,4.837876796722412
1790267277240566000,6.55156591796875,-7.522447109222412,-4.024513244628906,4.835956573486328
1790267277250566100,6.561566162109375,-7.452997207641602,-4.153534889221191,4.83439302444458
1790267277260566000,6.57156591796875,-7.378298282623291,-4.279500961303711,4.839109420776367
1790267277270566100,6.581566162109375,-7.296098709106445,-4.403890609741211,4.852119445800781
1790267277280566000,6.59156591796875,-7.205357551574707,-4.528604030609131,4.872879981994629
1790267277290566100,6.601566162109375,-7.106597423553467,-4.653823375701904,4.899857044219971
1790267277300566000,6.61156591796875,-7.001978397369385,-4.780053615570068,4.928872108459473
1790267277310566100,6.621566162109375,-6.89404296875,-4.9073333740234375,4.955867767333984
1790267277320566000,6.63156591796875,-6.785120010375977,-5.033797740936279,4.979299068450928
1790267277330566100,6.641566162109375,-6.67551851272583,-5.158740997314453,4.999522686004639
1790267277340566000,6.65156591796875,-6.566856384277344,-5.28150749206543,5.015224456787109
1790267277350566100,6.661566162109375,-6.4621901512146,-5.401363372802734,5.0235209465026855
1790267277360566000,6.67156591796875,-6.362584590911865,-5.518247604370117,5.023629188537598
1790267277370566100,6.681566162109375,-6.266072750091553,-5.63331937789917,5.017214298248291
1790267277380566000,6.69156591796875,-6.170027256011963,-5.749701499938965,5.004206657409668
1790267277390566100,6.701566162109375,-6.073453426361084,-5.869688510894775,4.983002185821533
1790267277400566000,6.71156591796875,-5.976837635040283,-5.9940505027771,4.951681613922119
1790267277410566100,6.721566162109375,-5.882400035858154,-6.121021270751953,4.9092631340026855
1790267277420566000,6.73156591796875,-5.793169021606445,-6.246609210968018,4.856897830963135
1790267277430566100,6.741566162109375,-5.710209369659424,-6.366733551025391,4.798811435699463
1790267277440566000,6.75156591796875,-5.631575107574463,-6.480167388916016,4.739532947540283
1790267277450566100,6.761566162109375,-5.555728435516357,-6.5884199142456055,4.679421901702881
1790267277460566000,6.77156591796875,-5.483157634735107,-6.693935871124268,4.614823341369629
1790267277470566100,6.781566162109375,-5.412604331970215,-6.79922342300415,4.543640613555908
1790267277480566000,6.79156591796875,-5.3420491218566895,-6.905677795410156,4.465928554534912
1790267277490566100,6.801566162109375,-5.272210597991943,-7.012437343597412,4.38176965713501
1790267277500566000,6.81156591796875,-5.20670223236084,-7.1161885261535645,4.291911602020264
1790267277510566100,6.821566162109375,-5.1481099128723145,-7.213382244110107,4.1993408203125
1790267277520566000,6.83156591796875,-5.097468852996826,-7.300803184509277,4.109071731567383
1790267277530566100,6.841566162109375,-5.05422830581665,-7.376424312591553,4.0266032218933105
1790267277540566000,6.85156591796875,-5.013611316680908,-7.441277503967285,3.9574570655822754
1790267277550566100,6.861566162109375,-4.9733662605285645,-7.496276378631592,3.9040822982788086
1790267277560566000,6.87156591796875,-4.9357452392578125,-7.542030334472656,3.863495349884033
1790267277570566100,6.881566162109375,-4.903712272644043,-7.578536510467529,3.8327252864837646
1790267277580566000,6.89156591796875,-4.878459453582764,-7.606438159942627,3.8096086978912354
1790267277590566100,6.901566162109375,-4.862148284912109,-7.625575065612793,3.7921645641326904
1790267277600566000,6.91156591796875,-4.858963966369629,-7.633918762207031,3.779435396194458
1790267277610566100,6.921566162109375,-4.868320465087891,-7.630771636962891,3.7737483978271484
1790267277620566000,6.93156591796875,-4.886298179626465,-7.61748743057251,3.777348279953003
1790267277630566100,6.941566162109375,-4.9119157791137695,-7.595706462860107,3.787968873977661
1790267277640566000,6.95156591796875,-4.944765567779541,-7.568161964416504,3.800342082977295
1790267277650566100,6.961566162109375,-4.982062816619873,-7.5376667976379395,3.8122200965881348
1790267277660566000,6.97156591796875,-5.021843910217285,-7.505551338195801,3.8233704566955566
1790267277670566100,6.981566162109375,-5.064188480377197,-7.472058296203613,3.8331105709075928
1790267277680566000,6.99156591796875,-5.1127190589904785,-7.436147212982178,3.838517665863037
1790267277690566100,7.001566162109375,-5.170301914215088,-7.396984100341797,3.837054967880249
1790267277700566000,7.01156591796875,-5.2361345291137695,-7.355857849121094,3.8268303871154785
1790267277710566100,7.021566162109375,-5.308187961578369,-7.314806938171387,3.8061952590942383
1790267277720566000,7.03156591796875,-5.382452011108398,-7.274439334869385,3.779169797897339
1790267277730566100,7.041566162109375,-5.455348491668701,-7.233645439147949,3.7528562545776367
1790267277740566000,7.05156591796875,-5.522451877593994,-7.194454669952393,3.72997784614563
1790267277750566100,7.061566162109375,-5.58278751373291,-7.158461570739746,3.709352970123291
1790267277760566000,7.07156591796875,-5.636563777923584,-7.124216556549072,3.693923234939575
1790267277770566100,7.081566162109375,-5.684115409851074,-7.088586330413818,3.689603567123413
1790267277780566000,7.09156591796875,-5.728143215179443,-7.045445442199707,3.704115152359009
1790267277790566100,7.101566162109375,-5.771636962890625,-6.990705966949463,3.7401363849639893
1790267277800566000,7.11156591796875,-5.821579933166504,-6.923053741455078,3.7882604598999023
1790267277810566100,7.121566162109375,-5.881267547607422,-6.843963146209717,3.8394341468811035
1790267277820566000,7.13156591796875,-5.945115089416504,-6.760711669921875,3.888286590576172
1790267277830566100,7.141566162109375,-6.013157367706299,-6.679247856140137,3.9242801666259766
1790267277840566000,7.15156591796875,-6.089334964752197,-6.601597785949707,3.9381837844848633
1790267277850566100,7.161566162109375,-6.169571876525879,-6.531074047088623,3.930884599685669
1790267277860566000,7.17156591796875,-6.250922679901123,-6.467903137207031,3.9067342281341553
1790267277870566100,7.181566162109375,-6.332735538482666,-6.409016132354736,3.871868371963501
1790267277880566000,7.19156591796875,-6.413694381713867,-6.349841117858887,3.835939645767212
1790267277890566100,7.201566162109375,-6.490052700042725,-6.286828994750977,3.81121826171875
1790267277900566000,7.21156591796875,-6.5578742027282715,-6.219750881195068,3.805175542831421
1790267277910566100,7.221566162109375,-6.616661071777344,-6.147639274597168,3.820566177368164
1790267277920566000,7.23156591796875,-6.667600631713867,-6.071340560913086,3.8538687229156494
1790267277930566100,7.241566162109375,-6.7104105949401855,-5.995449066162109,3.8981235027313232
1790267277940566000,7.25156591796875,-6.74690055847168,-5.922628402709961,3.9461612701416016
1790267277950566100,7.261566162109375,-6.780548095703125,-5.852364540100098,3.9930410385131836
1790267277960566000,7.27156591796875,-6.811640739440918,-5.782963752746582,4.040949821472168
1790267277970566100,7.281566162109375,-6.836923599243164,-5.716442108154297,4.09257173538208
1790267277980566000,7.29156591796875,-6.863945484161377,-5.654242992401123,4.133543014526367
1790267277990566100,7.301566162109375,-6.901638507843018,-5.59555196762085,4.150611877441406
1790267278000566000,7.31156591796875,-6.95005989074707,-5.539149761199951,4.145463466644287
1790267278010566100,7.321566162109375,-7.005504131317139,-5.483454704284668,4.126138210296631
1790267278020566000,7.33156591796875,-7.064516067504883,-5.427305698394775,4.0996785163879395
1790267278030566100,7.341566162109375,-7.124245643615723,-5.369894027709961,4.071823596954346
1790267278040566000,7.35156591796875,-7.183383464813232,-5.3105244636535645,4.0457024574279785
1790267278050566100,7.361566162109375,-7.242924213409424,-5.248281478881836,4.020692825317383
1790267278060566000,7.37156591796875,-7.306550025939941,-5.17929220199585,3.9949522018432617
1790267278070566100,7.381566162109375,-7.375534534454346,-5.100817680358887,3.969072103500366
1790267278080566000,7.39156591796875,-7.446928977966309,-5.0125837326049805,3.94811749458313
1790267278090566100,7.401566162109375,-7.515225887298584,-4.916959762573242,3.93894100189209
1790267278100566000,7.41156591796875,-7.577663421630859,-4.819469451904297,3.939812183380127
1790267278110566100,7.421566162109375,-7.63822603225708,-4.726147174835205,3.9359138011932373
1790267278120566000,7.43156591796875,-7.704037666320801,-4.636463165283203,3.914255380630493
1790267278130566100,7.441566162109375,-7.778480052947998,-4.544790744781494,3.874342441558838
1790267278140566000,7.45156591796875,-7.860743522644043,-4.446274757385254,3.822269916534424
1790267278150566100,7.461566162109375,-7.948014259338379,-4.338836669921875,3.764831304550171
1790267278160566000,7.47156591796875,-8.036430358886719,-4.221059322357178,3.710637331008911
1790267278170566100,7.481566162109375,-8.121830940246582,-4.094055652618408,3.6667375564575195
1790267278180566000,7.49156591796875,-8.200960159301758,-3.9614686965942383,3.636124849319458
1790267278190566100,7.501566162109375,-8.273536682128906,-3.8273096084594727,3.6153385639190674
1790267278200566000,7.51156591796875,-8.34101390838623,-3.6953024864196777,3.597583770751953
1790267278210566100,7.521566162109375,-8.406357765197754,-3.565908670425415,3.5760059356689453
1790267278220566000,7.53156591796875,-8.471680641174316,-3.4362080097198486,3.5487325191497803
1790267278230566100,7.541566162109375,-8.53711986541748,-3.3046512603759766,3.516709804534912
1790267278240566000,7.55156591796875,-8.603780746459961,-3.171699285507202,3.476443290710449
1790267278250566100,7.561566162109375,-8.673028945922852,-3.0374317169189453,3.423882007598877
1790267278260566000,7.57156591796875,-8.742910385131836,-2.902050495147705,3.36303448677063
1790267278270566100,7.581566162109375,-8.809389114379883,-2.7659718990325928,3.3037028312683105
1790267278280566000,7.59156591796875,-8.869659423828125,-2.629335880279541,3.2536323070526123
1790267278290566100,7.601566162109375,-8.922516822814941,-2.4920809268951416,3.2169272899627686
1790267278300566000,7.61156591796875,-8.96757984161377,-2.355499744415283,3.194450616836548
1790267278310566100,7.621566162109375,-9.005182266235352,-2.223334312438965,3.183372735977173
1790267278320566000,7.63156591796875,-9.036361694335938,-2.0996484756469727,3.1789979934692383
1790267278330566100,7.641566162109375,-9.062480926513672,-1.9869215488433838,3.1771016120910645
1790267278340566000,7.65156591796875,-9.085214614868164,-1.8849257230758667,3.1743195056915283
1790267278350566100,7.661566162109375,-9.105682373046875,-1.79007089138031,3.1705799102783203
1790267278360566000,7.67156591796875,-9.124014854431152,-1.6990940570831299,3.1679351329803467
1790267278370566100,7.681566162109375,-9.139784812927246,-1.611607313156128,3.1681923866271973
1790267278380566000,7.69156591796875,-9.152668952941895,-1.5292714834213257,3.171806812286377
1790267278390566100,7.701566162109375,-9.161351203918457,-1.4532631635665894,3.1824610233306885
1790267278400566000,7.71156591796875,-9.165343284606934,-1.3825966119766235,3.202388286590576
1790267278410566100,7.721566162109375,-9.164921760559082,-1.3156208992004395,3.231678009033203
1790267278420566000,7.73156591796875,-9.160005569458008,-1.2532005310058594,3.2701926231384277
1790267278430566100,7.741566162109375,-9.152593612670898,-1.1980798244476318,3.3113467693328857
1790267278440566000,7.75156591796875,-9.144696235656738,-1.1542586088180542,3.3485219478607178
1790267278450566100,7.761566162109375,-9.136163711547852,-1.1240583658218384,3.381923198699951
1790267278460566000,7.77156591796875,-9.126553535461426,-1.1055781841278076,3.413811206817627
1790267278470566100,7.781566162109375,-9.115836143493652,-1.096047043800354,3.4453749656677246
1790267278480566000,7.79156591796875,-9.103851318359375,-1.0936704874038696,3.4776666164398193
1790267278490566100,7.801566162109375,-9.089522361755371,-1.0976788997650146,3.5136983394622803
1790267278500566000,7.81156591796875,-9.072152137756348,-1.1070870161056519,3.5553879737854004
1790267278510566100,7.821566162109375,-9.052054405212402,-1.123935580253601,3.6010379791259766
1790267278520566000,7.83156591796875,-9.029181480407715,-1.1523106098175049,3.649171829223633
1790267278530566100,7.841566162109375,-9.002116203308105,-1.1954493522644043,3.7017822265625
1790267278540566000,7.85156591796875,-8.970870971679688,-1.2522865533828735,3.7584073543548584
1790267278550566100,7.861566162109375,-8.937668800354004,-1.3183590173721313,3.814499855041504
1790267278560566000,7.87156591796875,-8.904923439025879,-1.3898146152496338,3.8653769493103027
1790267278570566100,7.881566162109375,-8.872926712036133,-1.4665759801864624,3.9103357791900635
1790267278580566000,7.89156591796875,-8.841580390930176,-1.5509883165359497,3.948579788208008
1790267278590566100,7.901566162109375,-8.810198783874512,-1.6451935768127441,3.9804673194885254
1790267278600566000,7.91156591796875,-8.777510643005371,-1.7507129907608032,4.0075812339782715
1790267278610566100,7.921566162109375,-8.74212646484375,-1.8664865493774414,4.032598495483398
1790267278620566000,7.93156591796875,-8.702034950256348,-1.9896855354309082,4.060310363769531
1790267278630566100,7.941566162109375,-8.65557861328125,-2.120924472808838,4.09304666519165
1790267278640566000,7.95156591796875,-8.60222053527832,-2.262432098388672,4.129598140716553
1790267278650566100,7.961566162109375,-8.542055130004883,-2.4150044918060303,4.167905807495117
1790267278660566000,7.97156591796875,-8.476205825805664,-2.5728201866149902,4.207721710205078
1790267278670566100,7.981566162109375,-8.406074523925781,-2.729036569595337,4.249783039093018
1790267278680566000,7.99156591796875,-8.331475257873535,-2.8806569576263428,4.296360969543457
1790267278690566100,8.001566162109375,-8.250582695007324,-3.0272982120513916,4.351291179656982
1790267278700566000,8.01156591796875,-8.159879684448242,-3.1724939346313477,4.418375015258789
1790267278710566100,8.021566162109375,-8.056800842285156,-3.3225696086883545,4.4965410232543945
1790267278720566000,8.03156591796875,-7.943749904632568,-3.4824259281158447,4.576016426086426
1790267278730566100,8.041566162109374,-7.827399730682373,-3.652583599090576,4.643365383148193
1790267278740566000,8.05156591796875,-7.712657928466797,-3.826470375061035,4.695041179656982
1790267278750566100,8.061566162109376,-7.599696159362793,-3.9953935146331787,4.738337516784668
1790267278760566000,8.07156591796875,-7.486652851104736,-4.155040740966797,4.780801296234131
1790267278770566100,8.081566162109375,-7.373571395874023,-4.305538654327393,4.823190212249756
1790267278780566000,8.09156591796875,-7.258222579956055,-4.451364994049072,4.8655877113342285
1790267278790566100,8.101566162109375,-7.139406204223633,-4.5990729331970215,4.903854846954346
1790267278800566000,8.11156591796875,-7.01999568939209,-4.752154350280762,4.930220127105713
1790267278810566100,8.121566162109374,-6.902806282043457,-4.90920352935791,4.941797256469727
1790267278820566000,8.13156591796875,-6.789539337158203,-5.064958095550537,4.941532135009766
1790267278830566100,8.141566162109376,-6.679668426513672,-5.213391304016113,4.936899185180664
1790267278840566000,8.15156591796875,-6.5706586837768555,-5.3517680168151855,4.935121059417725
1790267278850566100,8.161566162109375,-6.458268642425537,-5.484163761138916,4.938126087188721
1790267278860566000,8.17156591796875,-6.340022563934326,-5.617481708526611,4.941497325897217
1790267278870566100,8.181566162109375,-6.2171549797058105,-5.754350662231445,4.940123558044434
1790267278880566000,8.19156591796875,-6.093599319458008,-5.892292499542236,4.931463241577148
1790267278890566100,8.201566162109375,-5.971599578857422,-6.027925491333008,4.916757583618164
1790267278900566000,8.21156591796875,-5.852004051208496,-6.158533573150635,4.898662567138672
1790267278910566100,8.221566162109376,-5.735063552856445,-6.2827043533325195,4.879247665405273
1790267278920566000,8.23156591796875,-5.619532585144043,-6.400457382202148,4.860595226287842
1790267278930566100,8.241566162109375,-5.504611015319824,-6.513192176818848,4.842310905456543
1790267278940566000,8.25156591796875,-5.394672393798828,-6.621891975402832,4.818552494049072
1790267278950566100,8.261566162109375,-5.293432712554932,-6.726679801940918,4.785575866699219
1790267278960566000,8.27156591796875,-5.201470375061035,-6.827790260314941,4.743034839630127
1790267278970566100,8.281566162109375,-5.117979049682617,-6.925161361694336,4.692423343658447
1790267278980566000,8.29156591796875,-5.041828632354736,-7.0193023681640625,4.634624481201172
1790267278990566100,8.301566162109374,-4.972930431365967,-7.1099534034729,4.570437431335449
1790267279000566000,8.31156591796875,-4.911259651184082,-7.196347236633301,4.501389503479004
1790267279010566100,8.321566162109375,-4.855123996734619,-7.278770923614502,4.429182052612305
1790267279020566000,8.33156591796875,-4.802938938140869,-7.357683181762695,4.355071544647217
1790267279030566100,8.341566162109375,-4.753586292266846,-7.433305263519287,4.280161380767822
1790267279040566000,8.35156591796875,-4.7058844566345215,-7.505321979522705,4.206563949584961
1790267279050566100,8.361566162109375,-4.66123104095459,-7.572387218475342,4.135488510131836
1790267279060566000,8.37156591796875,-4.62114143371582,-7.6336212158203125,4.067341327667236
1790267279070566100,8.381566162109374,-4.5850653648376465,-7.6892595291137695,4.002853870391846
1790267279080566000,8.39156591796875,-4.55104923248291,-7.740349292755127,3.9427578449249268
1790267279090566100,8.401566162109376,-4.5190205574035645,-7.787316799163818,3.886713981628418
1790267279100566000,8.41156591796875,-4.491101264953613,-7.828459739685059,3.8360936641693115
1790267279110566100,8.421566162109375,-4.468377590179443,-7.861889839172363,3.7940311431884766
1790267279120566000,8.43156591796875,-4.451630592346191,-7.886799335479736,3.7618844509124756
1790267279130566100,8.441566162109375,-4.443027496337891,-7.903547763824463,3.7368178367614746
1790267279140566000,8.45156591796875,-4.444072723388672,-7.91342306137085,3.7146122455596924
1790267279150566100,8.461566162109374,-4.453969478607178,-7.9178290367126465,3.6933088302612305
1790267279160566000,8.47156591796875,-4.469877243041992,-7.918294906616211,3.673035144805908
1790267279170566100,8.481566162109376,-4.490814208984375,-7.915374755859375,3.6537375450134277
1790267279180566000,8.49156591796875,-4.518622398376465,-7.909028053283691,3.633141040802002
1790267279190566100,8.501566162109375,-4.5551862716674805,-7.899106979370117,3.608985424041748
1790267279200566000,8.51156591796875,-4.5993242263793945,-7.885653495788574,3.5823278427124023
1790267279210566100,8.521566162109375,-4.647841930389404,-7.868657112121582,3.5569913387298584
1790267279220566000,8.53156591796875,-4.696919918060303,-7.848381996154785,3.537261724472046
1790267279230566100,8.541566162109374,-4.7421064376831055,-7.8262739181518555,3.5259387493133545
1790267279240566000,8.55156591796875,-4.780946731567383,-7.8041510581970215,3.5225231647491455
1790267279250566100,8.561566162109376,-4.8139262199401855,-7.783039093017578,3.524315118789673
1790267279260566000,8.57156591796875,-4.845151424407959,-7.762043476104736,3.5278286933898926
1790267279270566100,8.581566162109375,-4.879223346710205,-7.739616870880127,3.5301401615142822
1790267279280566000,8.59156591796875,-4.9177327156066895,-7.714934825897217,3.5307326316833496
1790267279290566100,8.601566162109375,-4.959836959838867,-7.687623023986816,3.5314083099365234
1790267279300566000,8.61156591796875,-5.004857063293457,-7.657200336456299,3.5339884757995605
1790267279310566100,8.621566162109374,-5.0516533851623535,-7.623873233795166,3.5394535064697266
1790267279320566000,8.63156591796875,-5.097592353820801,-7.588799953460693,3.548949718475342
1790267279330566100,8.641566162109376,-5.1410088539123535,-7.552217483520508,3.564328193664551
1790267279340566000,8.65156591796875,-5.181828022003174,-7.512795925140381,3.5884456634521484
1790267279350566100,8.661566162109375,-5.219244480133057,-7.469542980194092,3.6243348121643066
1790267279360566000,8.67156591796875,-5.253111839294434,-7.421595573425293,3.673571825027466
1790267279370566100,8.681566162109375,-5.285550117492676,-7.368271827697754,3.7338883876800537
1790267279380566000,8.69156591796875,-5.319240570068359,-7.309731960296631,3.8005120754241943
1790267279390566100,8.701566162109375,-5.3548078536987305,-7.24718713760376,3.8697147369384766
1790267279400566000,8.71156591796875,-5.393555641174316,-7.181238651275635,3.938242197036743
1790267279410566100,8.721566162109376,-5.4387288093566895,-7.11176872253418,4.001671314239502
1790267279420566000,8.73156591796875,-5.492793083190918,-7.038623332977295,4.056772232055664
1790267279430566100,8.741566162109375,-5.555354118347168,-6.961477756500244,4.104418754577637
1790267279440566000,8.75156591796875,-5.625564098358154,-6.880233287811279,4.145576000213623
1790267279450566100,8.761566162109375,-5.702639579772949,-6.794839382171631,4.180961608886719
1790267279460566000,8.77156591796875,-5.786517143249512,-6.704083442687988,4.212110996246338
1790267279470566100,8.781566162109375,-5.876545429229736,-6.606578826904297,4.241429805755615
1790267279480566000,8.79156591796875,-5.971439838409424,-6.501662731170654,4.270911693572998
1790267279490566100,8.801566162109374,-6.065332412719727,-6.3927154541015625,4.302943229675293
1790267279500566000,8.81156591796875,-6.150475025177002,-6.285173416137695,4.34035062789917
1790267279510566100,8.821566162109375,-6.224977493286133,-6.1824493408203125,4.381479263305664
1790267279520566000,8.83156591796875,-6.293846130371094,-6.08254861831665,4.422724723815918
1790267279530566100,8.841566162109375,-6.361836910247803,-5.982414722442627,4.461854934692383
1790267279540566000,8.85156591796875,-6.432474136352539,-5.880758762359619,4.495591163635254
1790267279550566100,8.861566162109375,-6.510097026824951,-5.776869773864746,4.518495559692383
1790267279560566000,8.87156591796875,-6.597382545471191,-5.670412063598633,4.526739597320557
1790267279570566100,8.881566162109374,-6.692309856414795,-5.561995506286621,4.521899700164795
1790267279580566000,8.89156591796875,-6.788218021392822,-5.452800750732422,4.511922359466553
1790267279590566100,8.901566162109376,-6.877098083496094,-5.344091415405273,4.507394790649414
1790267279600566000,8.91156591796875,-6.955874919891357,-5.235935688018799,4.513444423675537
1790267279610566100,8.921566162109375,-7.029008865356445,-5.126697540283203,4.525526523590088
1790267279620566000,8.93156591796875,-7.101755142211914,-5.015580654144287,4.536453723907471
1790267279630566100,8.941566162109375,-7.177250862121582,-4.902816295623779,4.540907859802246
1790267279640566000,8.95156591796875,-7.256123065948486,-4.788847923278809,4.537179946899414
1790267279650566100,8.961566162109374,-7.334527969360352,-4.674736499786377,4.530112266540527
1790267279660566000,8.97156591796875,-7.410070419311523,-4.560211658477783,4.523904800415039
1790267279670566100,8.981566162109376,-7.481923580169678,-4.442904949188232,4.522366046905518
1790267279680566000,8.99156591796875,-7.549008846282959,-4.321945667266846,4.528092861175537
1790267279690566100,9.001566162109375,-7.612356185913086,-4.196633338928223,4.539901256561279
1790267279700566000,9.01156591796875,-7.673971652984619,-4.066028118133545,4.554991245269775
1790267279710566100,9.021566162109375,-7.73441743850708,-3.9298226833343506,4.572272300720215
1790267279720566000,9.03156591796875,-7.791690826416016,-3.790128707885742,4.592913627624512
1790267279730566100,9.041566162109374,-7.844241619110107,-3.650691509246826,4.616352081298828
1790267279740566000,9.05156591796875,-7.89467191696167,-3.513852119445801,4.636527061462402
1790267279750566100,9.061566162109376,-7.947488307952881,-3.3805296421051025,4.645410060882568
1790267279760566000,9.07156591796875,-8.007391929626465,-3.2473630905151367,4.637528896331787
1790267279770566100,9.081566162109375,-8.077178001403809,-3.110443592071533,4.610284328460693
1790267279780566000,9.09156591796875,-8.15475082397461,-2.9700469970703125,4.566096305847168
1790267279790566100,9.101566162109375,-8.233235359191895,-2.830467462539673,4.513609409332275
1790267279800566000,9.11156591796875,-8.308873176574707,-2.6935789585113525,4.458433628082275
1790267279810566100,9.121566162109374,-8.381803512573242,-2.557929039001465,4.401449203491211
1790267279820566000,9.13156591796875,-8.446115493774414,-2.426429271697998,4.352694988250732
1790267279830566100,9.141566162109376,-8.497607231140137,-2.3025400638580322,4.3196492195129395
1790267279840566000,9.15156591796875,-8.541116714477539,-2.1875176429748535,4.293540000915527
1790267279850566100,9.161566162109375,-8.578978538513184,-2.084535598754883,4.269218921661377
1790267279860566000,9.17156591796875,-8.607054710388184,-1.9968239068984985,4.254608631134033
1790267279870566100,9.181566162109375,-8.61966323852539,-1.9266568422317505,4.2614312171936035
1790267279880566000,9.19156591796875,-8.613441467285156,-1.8735800981521606,4.2975239753723145
1790267279890566100,9.201566162109375,-8.591789245605469,-1.8338507413864136,4.357583045959473
1790267279900566000,9.21156591796875,-8.565959930419922,-1.8030771017074585,4.420816898345947
1790267279910566100,9.221566162109376,-8.544196128845215,-1.7748093605041504,4.474053382873535
1790267279920566000,9.23156591796875,-8.524503707885742,-1.7421597242355347,4.524168968200684
1790267279930566100,9.241566162109375,-8.500713348388672,-1.7089778184890747,4.581228256225586
1790267279940566000,9.25156591796875,-8.471749305725098,-1.6827207803726196,4.644169330596924
1790267279950566100,9.261566162109375,-8.439842224121094,-1.6651502847671509,4.708155632019043
1790267279960566000,9.27156591796875,-8.407525062561035,-1.6564828157424927,4.768643856048584
1790267279970566100,9.281566162109375,-8.37549114227295,-1.6585386991500854,4.82397985458374
1790267279980566000,9.29156591796875,-8.345128059387207,-1.669288992881775,4.872649192810059
1790267279990566100,9.301566162109374,-8.314980506896973,-1.6856482028961182,4.918339252471924
1790267280000566000,9.31156591796875,-8.284760475158691,-1.7088714838027954,4.9611382484436035
1790267280010566100,9.321566162109375,-8.255738258361816,-1.7392867803573608,4.998805046081543
1790267280020566000,9.33156591796875,-8.227149963378906,-1.7763569355010986,5.032787799835205
1790267280030566100,9.341566162109375,-8.197575569152832,-1.821601152420044,5.064772129058838
1790267280040566000,9.35156591796875,-8.168933868408203,-1.8774958848953247,5.090569019317627
1790267280050566100,9.361566162109375,-8.141308784484863,-1.9445512294769287,5.109617710113525
1790267280060566000,9.37156591796875,-8.112162590026855,-2.023104429244995,5.125451564788818
1790267280070566100,9.381566162109374,-8.079604148864746,-2.111447811126709,5.14122200012207
1790267280080566000,9.39156591796875,-8.041138648986816,-2.2036845684051514,5.162775993347168
1790267280090566100,9.401566162109376,-7.994401454925537,-2.2969086170196533,5.1946258544921875
1790267280100566000,9.41156591796875,-7.9389495849609375,-2.393190860748291,5.236040115356445
1790267280110566100,9.421566162109375,-7.874717712402344,-2.4984564781188965,5.283646583557129
1790267280120566000,9.43156591796875,-7.802868843078613,-2.6129150390625,5.334632396697998
1790267280130566100,9.441566162109375,-7.7243170738220215,-2.732306957244873,5.388859272003174
1790267280140566000,9.45156591796875,-7.6391282081604,-2.8518285751342773,5.448042869567871
1790267280150566100,9.461566162109374,-7.5461745262146,-2.970057249069214,5.514018535614014
1790267280160566000,9.47156591796875,-7.444793224334717,-3.0893378257751465,5.585824012756348
1790267280170566100,9.481566162109376,-7.33538293838501,-3.213143825531006,5.6602349281311035
1790267280180566000,9.49156591796875,-7.220867156982422,-3.343393325805664,5.731595039367676
1790267280190566100,9.501566162109375,-7.102985858917236,-3.4799225330352783,5.797250747680664
1790267280200566000,9.51156591796875,-6.981694221496582,-3.621729850769043,5.857422828674316
1790267280210566100,9.521566162109375,-6.858783721923828,-3.7659382820129395,5.9114460945129395
1790267280220566000,9.53156591796875,-6.7359113693237305,-3.9110164642333984,5.958341598510742
1790267280230566100,9.541566162109374,-6.611891746520996,-4.057634353637695,5.9990739822387695
1790267280240566000,9.55156591796875,-6.4862380027771,-4.206007480621338,6.033955097198486
1790267280250566100,9.561566162109376,-6.360677242279053,-4.354183197021484,6.0624470710754395
1790267280260566000,9.57156591796875,-6.2354912757873535,-4.500082015991211,6.085909366607666
1790267280270566100,9.581566162109375,-6.106364727020264,-4.643105506896973,6.109358310699463
1790267280280566000,9.59156591796875,-5.968708515167236,-4.786549091339111,6.134643077850342
1790267280290566100,9.601566162109375,-5.826932907104492,-4.932297229766846,6.155459880828857
1790267280300566000,9.61156591796875,-5.691380023956299,-5.079349040985107,6.162693977355957
1790267280310566100,9.621566162109374,-5.567588806152344,-5.224611282348633,6.154330253601074
1790267280320566000,9.63156591796875,-5.454026222229004,-5.366218090057373,6.134140968322754
1790267280330566100,9.641566162109376,-5.34305477142334,-5.505723476409912,6.108122825622559
1790267280340566000,9.65156591796875,-5.226100921630859,-5.645293235778809,6.081851959228516
1790267280350566100,9.661566162109375,-5.10061502456665,-5.787320613861084,6.054836273193359
1790267280360566000,9.67156591796875,-4.972001075744629,-5.93228816986084,6.02142333984375
1790267280370566100,9.681566162109375,-4.844420433044434,-6.080301284790039,5.977618217468262
1790267280380566000,9.69156591796875,-4.719364166259766,-6.229018688201904,5.924299240112305
1790267280390566100,9.701566162109375,-4.598776340484619,-6.373101711273193,5.865596294403076
1790267280400566000,9.71156591796875,-4.4788737297058105,-6.510168552398682,5.807563304901123
1790267280410566100,9.721566162109376,-4.358296871185303,-6.640902519226074,5.751005172729492
1790267280420566000,9.73156591796875,-4.2412428855896,-6.765621185302734,5.692856311798096
1790267280430566100,9.741566162109375,-4.1290507316589355,-6.88346004486084,5.63376522064209
1790267280440566000,9.75156591796875,-4.021723747253418,-6.993754863739014,5.575260162353516
1790267280450566100,9.761566162109375,-3.9205234050750732,-7.101546764373779,5.510709285736084
1790267280460566000,9.77156591796875,-3.8240084648132324,-7.21258020401001,5.433786392211914
1790267280470566100,9.781566162109375,-3.730645179748535,-7.322144508361816,5.351529598236084
1790267280480566000,9.79156591796875,-3.6445794105529785,-7.424340724945068,5.2694010734558105
1790267280490566100,9.801566162109374,-3.5705180168151855,-7.516206741333008,5.1892619132995605
1790267280500566000,9.81156591796875,-3.505730152130127,-7.598438739776611,5.113117694854736
1790267280510566100,9.821566162109375,-3.44838547706604,-7.671229362487793,5.042942047119141
1790267280520566000,9.83156591796875,-3.3997962474823,-7.7345871925354,4.978749752044678
1790267280530566100,9.841566162109375,-3.3638951778411865,-7.78804349899292,4.919449329376221
1790267280540566000,9.85156591796875,-3.34356427192688,-7.8315935134887695,4.863856792449951
1790267280550566100,9.861566162109375,-3.3335609436035156,-7.868858337402344,4.81028413772583
1790267280560566000,9.87156591796875,-3.3281619548797607,-7.903310298919678,4.757246971130371
1790267280570566100,9.881566162109374,-3.3264334201812744,-7.935318470001221,4.704885482788086
1790267280580566000,9.89156591796875,-3.328366279602051,-7.963570594787598,4.655525207519531
1790267280590566100,9.901566162109376,-3.336308002471924,-7.98712158203125,4.609263896942139
1790267280600566000,9.91156591796875,-3.351997137069702,-8.005659103393555,4.565515041351318
1790267280610566100,9.921566162109375,-3.377582550048828,-8.018231391906738,4.524411201477051
1790267280620566000,9.93156591796875,-3.4139273166656494,-8.022636413574219,4.4891862869262695
1790267280630566100,9.941566162109375,-3.460129737854004,-8.01729965209961,4.463271617889404
1790267280640566000,9.95156591796875,-3.5115768909454346,-8.002921104431152,4.4488725662231445
1790267280650566100,9.961566162109374,-3.5540225505828857,-7.984658241271973,4.447981357574463
1790267280660566000,9.97156591796875,-3.580263376235962,-7.967662811279297,4.4574055671691895
1790267280670566100,9.981566162109376,-3.596675395965576,-7.95457649230957,4.46755313873291
1790267280680566000,9.99156591796875,-3.609130859375,-7.944828987121582,4.474846363067627
1790267280690566100,10.001566162109375,-3.62422776222229,-7.935561180114746,4.479089736938477
1790267280700566000,10.01156591796875,-3.6465883255004883,-7.922918319702148,4.483319282531738
1790267280710566100,10.021566162109375,-3.6794891357421875,-7.902935981750488,4.491698741912842
1790267280720566000,10.03156591796875,-3.722707748413086,-7.874839782714844,4.505411148071289
1790267280730566100,10.041566162109374,-3.774693250656128,-7.83983850479126,4.523162841796875
1790267280740566000,10.05156591796875,-3.8350796699523926,-7.799307346343994,4.542396545410156
1790267280750566100,10.061566162109376,-3.9037423133850098,-7.755105972290039,4.5595526695251465
1790267280760566000,10.07156591796875,-3.9786617755889893,-7.708937168121338,4.573065757751465
1790267280770566100,10.081566162109375,-4.057310581207275,-7.6620941162109375,4.582677841186523
1790267280780566000,10.09156591796875,-4.137363433837891,-7.614678382873535,4.590129375457764
1790267280790566100,10.101566162109375,-4.217529773712158,-7.566959857940674,4.5960798263549805
1790267280800566000,10.11156591796875,-4.297362804412842,-7.520786762237549,4.597917079925537
1790267280810566100,10.121566162109374,-4.377773761749268,-7.476349830627441,4.594527244567871
1790267280820566000,10.13156591796875,-4.461191654205322,-7.429483890533447,4.590308666229248
1790267280830566100,10.141566162109376,-4.5525102615356445,-7.371287822723389,4.594468593597412
1790267280840566000,10.15156591796875,-4.6560163497924805,-7.2927093505859375,4.616089820861816
1790267280850566100,10.161566162109375,-4.77061128616333,-7.190289497375488,4.659549713134766
1790267280860566000,10.17156591796875,-4.8881120681762695,-7.070957183837891,4.719991207122803
1790267280870566100,10.181566162109375,-5.001008033752441,-6.949431896209717,4.781808376312256
1790267280880566000,10.19156591796875,-5.1087260246276855,-6.8386125564575195,4.827491760253906
1790267280890566100,10.201566162109375,-5.2163004875183105,-6.742053985595703,4.848226547241211
1790267280900566000,10.21156591796875,-5.330448150634766,-6.654117584228516,4.845557689666748
1790267280910566100,10.221566162109376,-5.451536655426025,-6.566182613372803,4.830774784088135
1790267280920566000,10.23156591796875,-5.577147960662842,-6.469804286956787,4.817410469055176
1790267280930566100,10.241566162109375,-5.704458713531494,-6.360854625701904,4.813426494598389
1790267280940566000,10.25156591796875,-5.832927703857422,-6.240314483642578,4.817241668701172
1790267280950566100,10.261566162109375,-5.963241100311279,-6.112266540527344,4.821860313415527
1790267280960566000,10.27156591796875,-6.095605373382568,-5.981401443481445,4.82045841217041
1790267280970566100,10.281566162109375,-6.228168487548828,-5.849333763122559,4.8130645751953125
1790267280980566000,10.29156591796875,-6.358092308044434,-5.716413974761963,4.8028788566589355
1790267280990566100,10.301566162109374,-6.480099678039551,-5.586227893829346,4.792990207672119
1790267281000566000,10.31156591796875,-6.592108726501465,-5.46368932723999,4.7814836502075195
1790267281010566100,10.321566162109375,-6.698522567749023,-5.348916053771973,4.763326644897461
1790267281020566000,10.33156591796875,-6.808648586273193,-5.234433650970459,4.734279155731201
1790267281030566100,10.341566162109375,-6.9293599128723145,-5.1109161376953125,4.693921089172363
1790267281040566000,10.35156591796875,-7.059451103210449,-4.976369857788086,4.644381046295166
1790267281050566100,10.361566162109375,-7.1950225830078125,-4.8344221115112305,4.585890293121338
1790267281060566000,10.37156591796875,-7.334800720214844,-4.6888580322265625,4.515052795410156
1790267281070566100,10.381566162109374,-7.478152751922607,-4.5431599617004395,4.428013324737549
1790267281080566000,10.39156591796875,-7.6225457191467285,-4.401219367980957,4.323939323425293
1790267281090566100,10.401566162109376,-7.763942241668701,-4.263334274291992,4.208986759185791
1790267281100566000,10.41156591796875,-7.899934768676758,-4.122014045715332,4.095170021057129
1790267281110566100,10.421566162109375,-8.02990436553955,-3.9687297344207764,3.9925172328948975
1790267281120566000,10.43156591796875,-8.152210235595703,-3.804591417312622,3.903454303741455
1790267281130566100,10.441566162109375,-8.26346492767334,-3.6379501819610596,3.827643394470215
1790267281140566000,10.45156591796875,-8.361274719238281,-3.475184202194214,3.7659754753112793
1790267281150566100,10.461566162109374,-8.446484565734863,-3.317443609237671,3.717775344848633
1790267281160566000,10.47156591796875,-8.522187232971191,-3.1611320972442627,3.6810262203216553
1790267281170566100,10.481566162109376,-8.589597702026367,-2.9998440742492676,3.6592512130737305
1790267281180566000,10.49156591796875,-8.644185066223145,-2.8297488689422607,3.666193723678589
1790267281190566100,10.501566162109375,-8.683958053588867,-2.6583669185638428,3.700315237045288
1790267281200566000,10.51156591796875,-8.715002059936523,-2.498492479324341,3.738537311553955
1790267281210566100,10.521566162109375,-8.74328899383545,-2.3586204051971436,3.7632689476013184
1790267281220566000,10.53156591796875,-8.769020080566406,-2.239241600036621,3.7763030529022217
1790267281230566100,10.541566162109374,-8.79034423828125,-2.133530616760254,3.7879130840301514
1790267281240566000,10.55156591796875,-8.807299613952637,-2.033533811569214,3.803499221801758
1790267281250566100,10.561566162109376,-8.821819305419922,-1.9359914064407349,3.820711612701416
1790267281260566000,10.57156591796875,-8.836187362670898,-1.8427218198776245,3.8336098194122314
1790267281270566100,10.581566162109375,-8.8504638671875,-1.755812406539917,3.8414599895477295
1790267281280566000,10.59156591796875,-8.860989570617676,-1.6773693561553955,3.8522300720214844
1790267281290566100,10.601566162109375,-8.866212844848633,-1.6072241067886353,3.870074510574341
1790267281300566000,10.61156591796875,-8.867785453796387,-1.5417660474777222,3.893035411834717
1790267281310566100,10.621566162109374,-8.864596366882324,-1.4821950197219849,3.923316478729248
1790267281320566000,10.63156591796875,-8.856795310974121,-1.4299360513687134,3.960158348083496
1790267281330566100,10.641566162109376,-8.847164154052734,-1.3878674507141113,3.996485471725464
1790267281340566000,10.65156591796875,-8.83675765991211,-1.3595644235610962,4.029103755950928
1790267281350566100,10.661566162109375,-8.825666427612305,-1.3433892726898193,4.058732032775879
1790267281360566000,10.67156591796875,-8.81352710723877,-1.3393248319625854,4.08635950088501
1790267281370566100,10.681566162109375,-8.800762176513672,-1.3484892845153809,4.110785484313965
1790267281380566000,10.69156591796875,-8.78541374206543,-1.3732975721359253,4.135330677032471
1790267281390566100,10.701566162109375,-8.76528549194336,-1.4117741584777832,4.164978504180908
1790267281400566000,10.71156591796875,-8.737257957458496,-1.4611659049987793,4.206625938415527
1790267281410566100,10.721566162109376,-8.69942569732666,-1.5200647115707397,4.263774871826172
1790267281420566000,10.73156591796875,-8.653017044067383,-1.5868263244628906,4.333320617675781
1790267281430566100,10.741566162109375,-8.601593971252441,-1.6637461185455322,4.4062371253967285
1790267281440566000,10.75156591796875,-8.54787826538086,-1.7531474828720093,4.475560188293457
1790267281450566100,10.761566162109375,-8.492557525634766,-1.854713797569275,4.539481163024902
1790267281460566000,10.77156591796875,-8.43493366241455,-1.964023232460022,4.600532054901123
1790267281470566100,10.781566162109375,-8.371235847473145,-2.076141119003296,4.667165756225586
1790267281480566000,10.79156591796875,-8.29993724822998,-2.192506790161133,4.7407121658325195
1790267281490566100,10.801566162109374,-8.222147941589355,-2.31493878364563,4.81743860244751
1790267281500566000,10.81156591796875,-8.139957427978516,-2.444347620010376,4.8925089836120605
1790267281510566100,10.821566162109375,-8.056856155395508,-2.5824520587921143,4.958667755126953
1790267281520566000,10.83156591796875,-7.972504138946533,-2.730156660079956,5.015557765960693
1790267281530566100,10.841566162109375,-7.885507583618164,-2.8832225799560547,5.06716775894165
1790267281540566000,10.85156591796875,-7.793293476104736,-3.0349233150482178,5.120957851409912
1790267281550566100,10.861566162109375,-7.693789005279541,-3.182278633117676,5.181612491607666
1790267281560566000,10.87156591796875,-7.588293552398682,-3.326599359512329,5.246133327484131
1790267281570566100,10.881566162109374,-7.476570129394531,-3.472182512283325,5.311802387237549
1790267281580566000,10.89156591796875,-7.358996868133545,-3.625093936920166,5.373477458953857
1790267281590566100,10.901566162109376,-7.238091945648193,-3.78788423538208,5.4251580238342285
1790267281600566000,10.91156591796875,-7.114030838012695,-3.956693649291992,5.468594074249268
1790267281610566100,10.921566162109375,-6.982436180114746,-4.125185012817383,5.513513088226318
1790267281620566000,10.93156591796875,-6.83627462387085,-4.2909698486328125,5.569858074188232
1790267281630566100,10.941566162109375,-6.675821304321289,-4.459721565246582,5.631579399108887
1790267281640566000,10.95156591796875,-6.509523391723633,-4.636349678039551,5.683375358581543
1790267281650566100,10.961566162109374,-6.3472113609313965,-4.819197177886963,5.714773654937744
1790267281660566000,10.97156591796875,-6.194803237915039,-5.001317501068115,5.725523471832275
1790267281670566100,10.981566162109376,-6.052450656890869,-5.175373077392578,5.723088264465332
1790267281680566000,10.99156591796875,-5.916255474090576,-5.338362693786621,5.715785026550293
1790267281690566100,11.001566162109375,-5.78350830078125,-5.492903232574463,5.705212116241455
1790267281700566000,11.01156591796875,-5.656613826751709,-5.642539024353027,5.686374187469482
1790267281710566100,11.021566162109375,-5.541991710662842,-5.789943218231201,5.65095329284668
1790267281720566000,11.03156591796875,-5.443857192993164,-5.934699058532715,5.595905303955078
1790267281730566100,11.041566162109374,-5.360673427581787,-6.073990821838379,5.52631950378418
1790267281740566000,11.05156591796875,-5.2873215675354,-6.206384658813477,5.449348449707031
1790267281750566100,11.061566162109376,-5.217462062835693,-6.333325386047363,5.370053291320801
1790267281760566000,11.07156591796875,-5.146380424499512,-6.457099914550781,5.290653228759766
1790267281770566100,11.081566162109375,-5.072296142578125,-6.5791192054748535,5.211274147033691
1790267281780566000,11.09156591796875,-4.995045185089111,-6.700107574462891,5.131129264831543
1790267281790566100,11.101566162109375,-4.912887096405029,-6.8204522132873535,5.051272869110107
1790267281800566000,11.11156591796875,-4.82222843170166,-6.940152645111084,4.975015163421631
1790267281810566100,11.121566162109374,-4.718889236450195,-7.058578968048096,4.9070281982421875
1790267281820566000,11.13156591796875,-4.602818012237549,-7.17370080947876,4.849997043609619
1790267281830566100,11.141566162109376,-4.481042861938477,-7.282513618469238,4.801628589630127
1790267281840566000,11.15156591796875,-4.362151145935059,-7.384269714355469,4.755478858947754
1790267281850566100,11.161566162109375,-4.2520222663879395,-7.4792914390563965,4.706474304199219
1790267281860566000,11.17156591796875,-4.153107643127441,-7.567524433135986,4.653457164764404
1790267281870566100,11.181566162109375,-4.067635536193848,-7.648336887359619,4.596484661102295
1790267281880566000,11.19156591796875,-3.9982261657714844,-7.719385623931885,4.538243293762207
1790267281890566100,11.201566162109375,-3.9465279579162598,-7.777920722961426,4.483219623565674
1790267281900566000,11.21156591796875,-3.910320281982422,-7.823206901550293,4.435901641845703
1790267281910566100,11.221566162109376,-3.887289047241211,-7.856257438659668,4.397566318511963
1790267281920566000,11.23156591796875,-3.876559257507324,-7.879368782043457,4.365571975708008
1790267281930566100,11.241566162109375,-3.875526189804077,-7.89615535736084,4.336061000823975
1790267281940566000,11.25156591796875,-3.879851818084717,-7.9100775718688965,4.306716442108154
1790267281950566100,11.261566162109375,-3.8884122371673584,-7.92133903503418,4.27820348739624
1790267281960566000,11.27156591796875,-3.902261734008789,-7.928417205810547,4.252405643463135
1790267281970566100,11.281566162109375,-3.9236741065979004,-7.930088520050049,4.229522705078125
1790267281980566000,11.29156591796875,-3.95355486869812,-7.926309108734131,4.208730697631836
1790267281990566100,11.301566162109374,-3.9913547039031982,-7.918013572692871,4.188619613647461
1790267282000566000,11.31156591796875,-4.035247325897217,-7.90626859664917,4.168702125549316
1790267282010566100,11.321566162109375,-4.083520889282227,-7.89177942276001,4.14910364151001
1790267282020566000,11.33156591796875,-4.134175777435303,-7.875650405883789,4.129541397094727
1790267282030566100,11.341566162109375,-4.185894012451172,-7.8578033447265625,4.111399173736572
1790267282040566000,11.35156591796875,-4.239246845245361,-7.835873603820801,4.098568439483643
1790267282050566100,11.361566162109375,-4.293526649475098,-7.807466983795166,4.096275329589844
1790267282060566000,11.37156591796875,-4.346012592315674,-7.772230625152588,4.107919216156006
1790267282070566100,11.381566162109374,-4.3958420753479,-7.732377052307129,4.130049228668213
1790267282080566000,11.39156591796875,-4.444690227508545,-7.690471172332764,4.155930042266846
1790267282090566100,11.401566162109376,-4.496895790100098,-7.645812511444092,4.182089805603027
1790267282100566000,11.41156591796875,-4.553642749786377,-7.596447467803955,4.210546493530273
1790267282110566100,11.421566162109375,-4.614431381225586,-7.539591312408447,4.2464070320129395
1790267282120566000,11.43156591796875,-4.676277160644531,-7.474192142486572,4.294098377227783
1790267282130566100,11.441566162109375,-4.734354019165039,-7.40371561050415,4.3521575927734375
1790267282140566000,11.45156591796875,-4.78852653503418,-7.332639694213867,4.412798881530762
1790267282150566100,11.461566162109374,-4.841185569763184,-7.264927864074707,4.46700382232666
1790267282160566000,11.47156591796875,-4.89818000793457,-7.198780536651611,4.51173734664917
1790267282170566100,11.481566162109376,-4.96298360824585,-7.130370140075684,4.549395561218262
1790267282180566000,11.49156591796875,-5.033281326293945,-7.058488368988037,4.584126949310303
1790267282190566100,11.501566162109375,-5.1058669090271,-6.98335599899292,4.6187944412231445
1790267282200566000,11.51156591796875,-5.179488658905029,-6.904987335205078,4.654506683349609
1790267282210566100,11.521566162109375,-5.257829666137695,-6.819762229919434,4.692171096801758
1790267282220566000,11.53156591796875,-5.346393585205078,-6.721107006072998,4.734255790710449
1790267282230566100,11.541566162109374,-5.445497512817383,-6.605779647827148,4.783369064331055
1790267282240566000,11.55156591796875,-5.551832675933838,-6.478182315826416,4.835358142852783
1790267282250566100,11.561566162109376,-5.664668083190918,-6.347679615020752,4.877385139465332
1790267282260566000,11.57156591796875,-5.784033298492432,-6.221035957336426,4.900412559509277
1790267282270566100,11.581566162109375,-5.909048080444336,-6.098338603973389,4.905486106872559
1790267282280566000,11.59156591796875,-6.04057502746582,-5.972569465637207,4.900025844573975
1790267282290566100,11.601566162109375,-6.181037425994873,-5.836399555206299,4.888926982879639
1790267282300566000,11.61156591796875,-6.330058574676514,-5.686645984649658,4.874709606170654
1790267282310566100,11.621566162109374,-6.481193542480469,-5.528326511383057,4.8582024574279785
1790267282320566000,11.63156591796875,-6.625974178314209,-5.370151042938232,4.840282440185547
1790267282330566100,11.641566162109376,-6.760823726654053,-5.217371463775635,4.820859909057617
1790267282340566000,11.65156591796875,-6.887821197509766,-5.07085657119751,4.797366619110107
1790267282350566100,11.661566162109375,-7.011882781982422,-4.925878524780273,4.768606662750244
1790267282360566000,11.67156591796875,-7.138166427612305,-4.774893283843994,4.734698295593262
1790267282370566100,11.681566162109375,-7.267179489135742,-4.614554405212402,4.697273254394531
1790267282380566000,11.69156591796875,-7.396517276763916,-4.446288585662842,4.6575140953063965
1790267282390566100,11.701566162109375,-7.523263931274414,-4.269393444061279,4.619867324829102
1790267282400566000,11.71156591796875,-7.647106647491455,-4.0835771560668945,4.584381103515625
1790267282410566100,11.721566162109376,-7.7667036056518555,-3.892890691757202,4.549077987670898
1790267282420566000,11.73156591796875,-7.8792266845703125,-3.704072952270508,4.5130934715271
1790267282430566100,11.741566162109375,-7.98412561416626,-3.5216705799102783,4.474590301513672
1790267282440566000,11.75156591796875,-8.085411071777344,-3.3464083671569824,4.426969528198242
1790267282450566100,11.761566162109375,-8.186015129089355,-3.174431324005127,4.368356227874756
1790267282460566000,11.77156591796875,-8.285923957824707,-3.002446174621582,4.3010663986206055
1790267282470566100,11.781566162109375,-8.38044548034668,-2.8339202404022217,4.231716156005859
1790267282480566000,11.79156591796875,-8.468961715698242,-2.669994354248047,4.161512851715088
1790267282490566100,11.801566162109374,-8.5541353225708,-2.5075221061706543,4.087723731994629
1790267282500566000,11.81156591796875,-8.632987976074219,-2.344892740249634,4.01788330078125
1790267282510566100,11.821566162109375,-8.699652671813965,-2.1841413974761963,3.96433687210083
1790267282520566000,11.83156591796875,-8.754090309143066,-2.0256247520446777,3.928501844406128
1790267282530566100,11.841566162109375,-8.798871994018555,-1.8673442602157593,3.9068236351013184
1790267282540566000,11.85156591796875,-8.837279319763184,-1.7210497856140137,3.8872692584991455
1790267282550566100,11.861566162109375,-8.875082015991211,-1.5885754823684692,3.8574256896972656
1790267282560566000,11.87156591796875,-8.909429550170898,-1.4577558040618896,3.8298027515411377
1790267282570566100,11.881566162109374,-8.938796997070312,-1.324436068534851,3.809743642807007
1790267282580566000,11.89156591796875,-8.96045207977295,-1.198825478553772,3.800462245941162
1790267282590566100,11.901566162109376,-8.97456169128418,-1.0905259847640991,3.7997887134552
1790267282600566000,11.91156591796875,-8.98631763458252,-0.9993726015090942,3.7970690727233887
1790267282610566100,11.921566162109375,-8.996971130371094,-0.9224076271057129,3.7913155555725098
1790267282620566000,11.93156591796875,-9.0048189163208,-0.8551779985427856,3.788440704345703
1790267282630566100,11.941566162109375,-9.009597778320312,-0.8006956577301025,3.7889881134033203
1790267282640566000,11.95156591796875,-9.013872146606445,-0.7625585198402405,3.7866861820220947
1790267282650566100,11.961566162109374,-9.018195152282715,-0.7354778051376343,3.7817466259002686
1790267282660566000,11.97156591796875,-9.0205659866333,-0.7120292782783508,3.7805795669555664
1790267282670566100,11.981566162109376,-9.020578384399414,-0.6957991123199463,3.7835705280303955
1790267282680566000,11.99156591796875,-9.017937660217285,-0.6961752772331238,3.789794683456421
1790267282690566100,12.001566162109375,-9.011549949645996,-0.7184454798698425,3.800816059112549
1790267282700566000,12.01156591796875,-9.002042770385742,-0.7612530589103699,3.8149850368499756
1790267282710566100,12.021566162109375,-8.985821723937988,-0.8186509609222412,3.8412511348724365
1790267282720566000,12.03156591796875,-8.959260940551758,-0.8875784873962402,3.8877031803131104
1790267282730566100,12.041566162109374,-8.922616958618164,-0.971835732460022,3.9513068199157715
1790267282740566000,12.05156591796875,-8.879202842712402,-1.0729849338531494,4.022294521331787
1790267282750566100,12.061566162109376,-8.8300199508667,-1.189956545829773,4.096966743469238
1790267282760566000,12.07156591796875,-8.775101661682129,-1.3220514059066772,4.1737446784973145
1790267282770566100,12.081566162109375,-8.715333938598633,-1.4653664827346802,4.250415802001953
1790267282780566000,12.09156591796875,-8.650754928588867,-1.6119495630264282,4.328560829162598
1790267282790566100,12.101566162109375,-8.58043098449707,-1.7628982067108154,4.408942699432373
1790267282800566000,12.11156591796875,-8.50644302368164,-1.9226820468902588,4.484874725341797
1790267282810566100,12.121566162109374,-8.429855346679688,-2.0885324478149414,4.55477237701416
1790267282820566000,12.13156591796875,-8.348006248474121,-2.255357503890991,4.625424385070801
1790267282830566100,12.141566162109376,-8.2599458694458,-2.4228055477142334,4.698264122009277
1790267282840566000,12.15156591796875,-8.168633460998535,-2.59464955329895,4.765669822692871
1790267282850566100,12.161566162109375,-8.076766014099121,-2.7682509422302246,4.82421350479126
1790267282860566000,12.17156591796875,-7.983678340911865,-2.9408295154571533,4.876761436462402
1790267282870566100,12.181566162109375,-7.88464879989624,-3.1137397289276123,4.9302473068237305
1790267282880566000,12.19156591796875,-7.7763166427612305,-3.2908976078033447,4.986911773681641
1790267282890566100,12.201566162109375,-7.6625871658325195,-3.4708685874938965,5.040656566619873
1790267282900566000,12.21156591796875,-7.548126697540283,-3.65079665184021,5.0860443115234375
1790267282910566100,12.221566162109376,-7.435980319976807,-3.829455614089966,5.119751453399658
1790267282920566000,12.23156591796875,-7.325852870941162,-4.004970073699951,5.144168853759766
1790267282930566100,12.241566162109375,-7.214828968048096,-4.179577350616455,5.162147521972656
1790267282940566000,12.25156591796875,-7.101278305053711,-4.357588291168213,5.172392845153809
1790267282950566100,12.261566162109375,-6.986865043640137,-4.538482189178467,5.1726484298706055
1790267282960566000,12.27156591796875,-6.872618198394775,-4.718596458435059,5.1645283699035645
1790267282970566100,12.281566162109375,-6.758136749267578,-4.896557331085205,5.149921417236328
1790267282980566000,12.29156591796875,-6.642788887023926,-5.070857048034668,5.131290912628174
1790267282990566100,12.301566162109374,-6.527172565460205,-5.23873233795166,5.110977649688721
1790267283000566000,12.31156591796875,-6.409832954406738,-5.4003214836120605,5.0912628173828125
1790267283010566100,12.321566162109375,-6.290466785430908,-5.556866645812988,5.071651458740234
1790267283020566000,12.33156591796875,-6.169826030731201,-5.707918643951416,5.052057266235352
1790267283030566100,12.341566162109375,-6.049674034118652,-5.851651191711426,5.032892227172852
1790267283040566000,12.35156591796875,-5.9315972328186035,-5.990470886230469,5.010068893432617
1790267283050566100,12.361566162109375,-5.818694591522217,-6.12790060043335,4.976145267486572
1790267283060566000,12.37156591796875,-5.714632034301758,-6.265963077545166,4.9245381355285645
1790267283070566100,12.381566162109374,-5.619411945343018,-6.404034614562988,4.856020927429199
1790267283080566000,12.39156591796875,-5.530229091644287,-6.540140151977539,4.776351451873779
1790267283090566100,12.401566162109376,-5.447441577911377,-6.670504570007324,4.690429210662842
1790267283100566000,12.41156591796875,-5.373669624328613,-6.791997909545898,4.600307464599609
1790267283110566100,12.421566162109375,-5.306153774261475,-6.9052581787109375,4.50916051864624
1790267283120566000,12.43156591796875,-5.239658355712891,-7.012293815612793,4.420869827270508
1790267283130566100,12.441566162109375,-5.169643878936768,-7.11481237411499,4.338735103607178
1790267283140566000,12.45156591796875,-5.095651149749756,-7.212523460388184,4.264297962188721
1790267283150566100,12.461566162109374,-5.022916793823242,-7.304374694824219,4.193662166595459
1790267283160566000,12.47156591796875,-4.957633972167969,-7.38911247253418,4.122289180755615
1790267283170566100,12.481566162109376,-4.905167102813721,-7.465606689453125,4.046534061431885
1790267283180566000,12.49156591796875,-4.868252277374268,-7.53410005569458,3.963310956954956
1790267283190566100,12.501566162109375,-4.846853733062744,-7.594980239868164,3.8722949028015137
1790267283200566000,12.51156591796875,-4.835738182067871,-7.648467540740967,3.779810667037964
1790267283210566100,12.521566162109375,-4.830112934112549,-7.693377494812012,3.69490647315979
1790267283220566000,12.53156591796875,-4.8278703689575195,-7.728857040405273,3.6230955123901367
1790267283230566100,12.541566162109374,-4.828179836273193,-7.756925582885742,3.5621871948242188
1790267283240566000,12.55156591796875,-4.83165168762207,-7.778334140777588,3.510418176651001
1790267283250566100,12.561566162109376,-4.839927673339844,-7.79256010055542,3.4672048091888428
1790267283260566000,12.57156591796875,-4.854860782623291,-7.799505710601807,3.430514335632324
1790267283270566100,12.581566162109375,-4.876222610473633,-7.799910545349121,3.3991520404815674
1790267283280566000,12.59156591796875,-4.902376651763916,-7.795045852661133,3.372589349746704
1790267283290566100,12.601566162109375,-4.934026718139648,-7.784976005554199,3.3496127128601074
1790267283300566000,12.61156591796875,-4.973454475402832,-7.769040584564209,3.328235626220703
1790267283310566100,12.621566162109374,-5.022433757781982,-7.74569845199585,3.309033155441284
1790267283320566000,12.63156591796875,-5.078677654266357,-7.7152099609375,3.294384479522705
1790267283330566100,12.641566162109376,-5.136916637420654,-7.679041385650635,3.2885847091674805
1790267283340566000,12.65156591796875,-5.190523147583008,-7.640113353729248,3.295074224472046
1790267283350566100,12.661566162109375,-5.235462665557861,-7.602218151092529,3.3115856647491455
1790267283360566000,12.67156591796875,-5.270937442779541,-7.5682196617126465,3.333116292953491
1790267283370566100,12.681566162109375,-5.298722743988037,-7.538218021392822,3.356961965560913
1790267283380566000,12.69156591796875,-5.322525978088379,-7.508815288543701,3.3850820064544678
1790267283390566100,12.701566162109375,-5.347792625427246,-7.474750518798828,3.4204695224761963
1790267283400566000,12.71156591796875,-5.376778602600098,-7.432302474975586,3.467205762863159
1790267283410566100,12.721566162109376,-5.408542633056641,-7.380675792694092,3.527560234069824
1790267283420566000,12.73156591796875,-5.442961692810059,-7.321715354919434,3.596811294555664
1790267283430566100,12.741566162109375,-5.4798054695129395,-7.259558200836182,3.6661875247955322
1790267283440566000,12.75156591796875,-5.518640041351318,-7.198572635650635,3.7276716232299805
1790267283450566100,12.761566162109375,-5.5616631507873535,-7.138560771942139,3.778787136077881
1790267283460566000,12.77156591796875,-5.611702919006348,-7.076164245605469,3.8219196796417236
1790267283470566100,12.781566162109375,-5.6686577796936035,-7.009194374084473,3.861074924468994
1790267283480566000,12.79156591796875,-5.731218338012695,-6.936797618865967,3.8992772102355957
1790267283490566100,12.801566162109374,-5.799688339233398,-6.856625556945801,3.9396307468414307
