time,seconds_elapsed,z,y,x
1790107748260609500,0.070609619140625,0.12826222277581692,-0.4655582411319017,-1.3035044183976947
1790107748270553600,0.0805537109375,-0.4976017311245203,-0.33465222584903237,-1.2497586535543204
1790107748280498400,0.09049853515625,-0.5847843400150537,-0.23140344829857348,-1.069993768686801
1790107748290442500,0.1004423828125,-0.19355390237569808,-0.15213292770683765,-0.7632208258230239
1790107748300386600,0.110386474609375,0.3796434602200985,-0.1680769312918186,-0.4682935113146901
1790107748310331600,0.12033154296875,0.8384609949201345,-0.27840894510149955,-0.2822991940056905
1790107748320275500,0.130275390625,1.5140554866731166,-0.15086860685944556,-0.4068010778672993
1790107748330220500,0.140220458984375,2.2829472708046437,0.2658785493522882,-0.4731056608367711
1790107748340164600,0.15016455078125,2.3765759870946406,-0.33091654645204543,-0.3148213343607262
1790107748350108700,0.160108642578125,2.0553098970413206,-0.33600714758932587,-0.18934866923820226
1790107748360053500,0.170053466796875,1.4538509010791778,-0.5813853452265262,0.05138067967984825
1790107748369997600,0.17999755859375,0.8373264379322528,-0.8923620964556932,0.27410463550370184
1790107748379941400,0.18994140625,0.2525122873008251,-0.5581874249905348,-0.04686338491849601
1790107748389886700,0.19988671875,-0.47059740434288977,-0.15666823304891586,-0.49511188707016407
1790107748399830500,0.20983056640625,-1.1128571972489356,-0.037732641544938085,-0.590430054284446
1790107748409774600,0.219774658203125,-1.6983178290903567,0.20394553253054618,-0.5570165545802563
1790107748419719400,0.229719482421875,-2.240072005674243,0.5050187293827534,-0.5162869231764227
1790107748429663700,0.239663818359375,-2.3396447250604626,0.6906359935402869,-0.3881644011322409
1790107748439607600,0.249607666015625,-1.8646242435783147,0.8064180894494056,-0.24090119835361837
1790107748449552600,0.259552734375,-1.0843249302476643,0.7985165225446224,0.06257621009610594
1790107748459496400,0.269496337890625,-0.1879939301609993,0.5614274298250674,0.3082367318060249
1790107748469440500,0.2794404296875,0.816389448365569,0.06607727701961993,0.38984731271788475
1790107748479385600,0.289385498046875,1.3377853120535612,-0.31546880195140836,0.3290565977990627
1790107748489329700,0.29932958984375,0.9542226325631141,-0.5235954195588827,0.2437448973469436
1790107748499274500,0.3092744140625,0.17833996663093565,-0.3989414504081011,-0.02821026850529015
1790107748509218600,0.319218505859375,-0.30397943968772884,0.05797229649722576,-0.3995101902067661
1790107748519162600,0.32916259765625,-0.41226971853673455,0.6296382117420435,-0.5701040727555752
1790107748529107500,0.339107421875,-0.33440438856780524,0.8848205950349569,-0.5260195779658854
1790107748539051500,0.349051513671875,0.08710252939164638,0.7032710187077522,-0.3974402520649135
1790107748548995600,0.35899560546875,0.9371651147782802,0.302330503436923,-0.30871224036328493
1790107748558940400,0.3689404296875,1.6765578327029942,0.03204524355828762,-0.2925083437331021
1790107748568884700,0.378884765625,2.014226776024699,-0.024178747966885565,-0.2585452838547528
1790107748578828500,0.38882861328125,1.8264333368718624,0.14805764109194278,-0.17497070939354598
1790107748588773400,0.3987734375,1.1550386348962782,0.5384668254762888,-0.08319083584062754
1790107748598717400,0.408717529296875,0.4684744208395481,0.9514993450790643,0.012140373518317937
1790107748608661500,0.41866162109375,0.03798573952317238,1.1976526187419891,0.07332089147232472
1790107748618606600,0.428606689453125,-0.21390987718403337,1.2118138305634258,0.1901306499287486
1790107748628550700,0.438550537109375,-0.1723170530796051,1.0426099410682916,0.3128670219551772
1790107748638495500,0.44849560546875,0.1931049895644188,0.7806769144713878,0.3896510594934225
1790107748648439600,0.458439453125,0.5394949994802475,0.42846214392483234,0.37795550713315607
1790107748658383600,0.468383544921875,0.6738175452083349,0.12415069580376148,0.2618952518697828
1790107748668328400,0.478328369140625,0.6873211699038744,-0.01884206311404705,0.22469204102642834
1790107748678272500,0.4882724609375,0.47512394185662266,-0.14016425749361514,0.22361491331420838
1790107748688216300,0.49821630859375,0.03809095346331596,-0.1563134282618761,0.1378686573697254
1790107748698161700,0.50816162109375,-0.48646132842898365,-0.04541676630675792,-0.01557166314125061
1790107748708105500,0.51810546875,-1.0600964979201555,0.16584873384833335,-0.08353036999329924
1790107748718049500,0.528049560546875,-1.50713007132411,0.3388350644916296,-0.07835066580045968
1790107748727994400,0.537994384765625,-1.8181974234461784,0.4413678027272224,-0.02953559882491827
1790107748737938700,0.547938720703125,-1.9961212104916572,0.553744474107027,0.007503361367434263
1790107748747882500,0.557882568359375,-2.3300667493760585,0.7187088263362645,-0.06151417035516351
1790107748757827600,0.56782763671875,-2.589557058995962,0.8091758637249469,-0.2528132795413956
1790107748767771400,0.577771484375,-2.1525258241683245,0.8189870636433363,-0.31112266250588
1790107748777715500,0.587715576171875,-0.9363269103884696,0.7927934687227011,-0.19400562819857148
1790107748787660500,0.59766064453125,0.7615075190991163,0.7916337772935629,-0.0062828796617686745
1790107748797604600,0.6076044921875,2.171038801458478,0.9607920740813016,0.19866956488899887
1790107748807549400,0.617549560546875,3.307093918943405,2.031146931165457,-0.45427886835709214
1790107748817493500,0.627493408203125,3.2485797706544397,1.5901502998381851,-0.7171810322470963
1790107748827437600,0.6374375,2.4273972427934405,0.7342138539820909,-1.000010570269823
1790107748837382700,0.647382568359375,2.3233581916481256,0.5218038599669933,-1.5306358884654938
1790107748847326500,0.657326416015625,3.0528403409332037,0.6547913576990365,-2.007333070988208
1790107748857270500,0.6672705078125,4.09822033123672,1.0694868420779704,-2.257791202238202
1790107748867215600,0.677215576171875,4.397341809499263,1.0665846908956766,-2.110728417402506
1790107748877159700,0.68715966796875,3.5002708047002553,0.4493114552080631,-1.3484522520184516
1790107748887103500,0.697103515625,1.6956255212664604,-0.361247971829772,-0.005366313376944163
1790107748897048600,0.707048583984375,0.778942053502798,-0.5122691389024258,0.783519882812351
1790107748906992400,0.716992431640625,1.1783978831738233,0.2821931398153305,0.4854334101533517
1790107748916936700,0.726936767578125,1.332869482961297,1.101851234588027,0.22359931388627735
1790107748926881500,0.736881591796875,0.9787298818320035,1.6266145288825034,0.09856083892993628
1790107748936825600,0.74682568359375,0.7806862668216228,1.6830612232476472,0.04184022299423813
1790107748946770400,0.7567705078125,0.9798469031631946,1.8879951822936534,-0.11272579534472897
1790107748956714800,0.76671484375,0.7567085943847894,1.8124141638696192,0.008714289793465287
1790107748966658600,0.776658447265625,0.38642859031558036,1.3632248737365007,0.43094606969505544
1790107748976603400,0.786603271484375,-0.11390636516511439,0.7385486683160066,0.7310080436781048
1790107748986547500,0.79654736328125,-0.587118920442462,0.4025257386356592,1.009137148924917
1790107748996491500,0.806491455078125,-0.8387690379559993,0.5582219117820263,1.1732001684002578
1790107749006436600,0.8164365234375,-0.41544133431017394,0.7232412090688943,1.1704783422209322
1790107749016380700,0.826380615234375,0.18240180924236774,1.147584811758995,1.247795244526863
1790107749026324500,0.836324462890625,0.12636895637512205,1.8394325191766023,1.458815245488286
1790107749036269300,0.846269287109375,-0.0763572634935379,2.885318705436587,1.0035111257366836
1790107749046213600,0.856213623046875,0.26433131991028785,3.88253233846426,-0.12702435154393316
1790107749056157700,0.86615771484375,1.3184499124646185,4.2796512496203185,-1.6730844575040043
1790107749066102500,0.8761025390625,2.606521053278446,4.1917479252398016,-1.8954823231786488
1790107749076046600,0.886046630859375,3.1519583022892474,3.423266475474834,1.2968318087659776
1790107749085990400,0.895990478515625,3.729482880434394,4.217680823397636,2.9229113539889453
1790107749095935500,0.905935546875,4.829418636789917,6.622414398962259,2.2768261575758455
1790107749105879600,0.915879638671875,5.376074613940715,7.168516249361634,1.9833318715453148
1790107749115823600,0.92582373046875,5.865922077676654,7.532991951066255,1.2364660412609576
1790107749125768400,0.9357685546875,5.761799439901113,8.744307768979668,0.9473562539249658
1790107749135712500,0.94571240234375,5.249571802052855,9.828398890471458,0.9592109423696994
1790107749145657600,0.95565771484375,4.942433021551371,10.276306324100494,1.0750579202085733
1790107749155601400,0.965601318359375,4.6788089731276035,10.670231992173195,1.5207067612558602
1790107749165545500,0.97554541015625,4.346651486703753,11.277211212861538,1.8544418722599745
1790107749175490600,0.985490478515625,4.433351865035295,11.754107425087689,1.8774691121041773
1790107749185434600,0.9954345703125,5.358120439577102,12.23292554528713,1.7883967439442872
1790107749195378400,1.00537841796875,6.072527184805273,12.755806094574927,0.4161006750017404
1790107749205323500,1.015323486328125,6.30776743478775,13.126407001161574,-0.49890053876340384
1790107749215267300,1.025267333984375,5.009949975985288,13.373768481570481,-0.9739151750266551
1790107749225211600,1.035211669921875,2.274003501370549,12.869421952360868,-1.8939158045142888
1790107749235156500,1.045156494140625,-0.850406795714423,12.508844427138566,-3.3502848258942364
1790107749245100500,1.0551005859375,-2.7799136266350746,12.407180872952937,-4.805717443206906
1790107749255044400,1.06504443359375,-4.195002543121576,11.448854896724223,-7.1239686671048394
1790107749264989700,1.07498974609375,-3.97141824414134,9.6671480058074,-10.710260051178931
1790107749274933500,1.08493359375,-1.7833751163899898,7.816397389280795,-13.881225836277007
1790107749284877600,1.094877685546875,-0.2911550294280052,5.4552340753734105,-15.233737008297442
1790107749294822400,1.104822509765625,0.39954504232443866,3.4567402905315157,-15.391543889987467
1790107749304766500,1.114766357421875,0.3146459412612021,2.253777874943614,-15.35123759856224
1790107749314710500,1.12471044921875,-0.3191429604195058,1.5967993824638425,-15.900644920247792
1790107749324655600,1.134655517578125,-1.7485795512102544,-0.6017939270049333,-17.220281412148474
1790107749334599400,1.144599365234375,-3.4103415274500843,-2.7006471976965662,-18.76154873087406
1790107749344544500,1.15454443359375,-4.0804035195171835,-4.36134549022764,-20.175128411841392
1790107749354488600,1.164488525390625,-3.055343848186731,-6.971979531782865,-21.64356430311203
1790107749364432600,1.1744326171875,-1.005514428383112,-9.564557984426617,-22.116849339103698
1790107749374377500,1.18437744140625,1.7256396973885595,-11.298360383874178,-19.990674346244333
1790107749384321500,1.194321533203125,3.956751420885324,-11.807215914940834,-16.046078642576934
1790107749394265300,1.204265380859375,3.04098565248847,-11.562343328738212,-11.126506272131204
1790107749404210700,1.214210693359375,1.9363082545638084,-10.506999578303098,-6.616296792864799
1790107749414154500,1.224154541015625,2.327204930204153,-9.86302830530405,-2.856366751718521
1790107749424098600,1.2340986328125,3.21853417648077,-9.792444949036836,-1.1752508173197507
1790107749434043600,1.244043701171875,6.457607283121347,-10.730194585704803,-1.7095377267628906
1790107749443987700,1.25398779296875,0.03945062444396317,-11.022247440755367,-2.146806277477741
1790107749453931500,1.263931640625,1.8213643630445002,-11.483804629552363,-2.2925801915466786
1790107749463876600,1.273876708984375,5.533934102600813,-12.245109319555759,-2.5615163749039174
1790107749473820400,1.2838203125,7.867915979593992,-13.063603631246089,-0.7512035672277212
1790107749483764500,1.293764404296875,10.713436343127489,-12.128399002885818,0.7458627907216548
1790107749493709600,1.30370947265625,8.460681966012716,-12.231300574433803,-0.33129882376790043
1790107749503653600,1.313653564453125,4.214344372451305,-11.419321343725919,-1.5728946291327475
1790107749513597400,1.323597412109375,5.281171639931202,-9.011350101414322,1.5232278041660785
1790107749523542500,1.33354248046875,6.70188014986515,-7.672885574924945,4.086200807619095
1790107749533487000,1.343487060546875,6.2182806406080715,-6.86197251214385,3.5619127296209334
1790107749543432000,1.353431884765625,3.4699358721911904,-6.571778436702489,0.9947276614308357
1790107749553376000,1.3633759765625,2.1571394554436205,-4.204220453321933,0.595013473084569
1790107749563319800,1.37331982421875,2.7387545177727937,-1.9287308050468563,0.36435879732668397
1790107749573265200,1.38326513671875,0.4242117930039763,-2.0078132557205857,0.004589081355929375
1790107749583209000,1.393208984375,-3.207331229943037,-3.726063719640672,-0.7567711382269859
1790107749593153000,1.403153076171875,0.0868143601000309,-3.522637534809112,-2.9893519113630056
1790107749603097900,1.413097900390625,-2.538778765656054,-2.2362745130874213,0.39070670602619645
1790107749613042200,1.423042236328125,-2.385313128040731,-0.4644159392289817,0.3450087846904993
1790107749622986000,1.432986083984375,0.39186318258494135,1.3272000590227544,-0.0919072993248701
1790107749632931000,1.44293115234375,1.2069611298352478,-1.0386344615660608,0.8492232119530438
1790107749642875000,1.452875,-0.5357520135596394,2.0296208906419575,-1.2876216434806584
1790107749652819000,1.46281884765625,-0.5003787946224212,5.3248301643937825,-0.5958966856598854
1790107749662764000,1.472763916015625,-3.231982856118679,5.93366524208188,3.5767876426696774
1790107749672708000,1.4827080078125,-3.798847216300666,7.904484838056564,4.397492616146803
1790107749682652000,1.49265185546875,-0.7038143318042158,8.190748003789782,5.407426030015945
1790107749692597000,1.502596923828125,-1.3767372662603854,10.356893187987804,6.071932726043462
1790107749702541000,1.512541015625,-0.8294342233777046,11.553473793584107,5.790993385681509
1790107749712486100,1.522486083984375,2.8842136668041345,11.110312677699326,4.8660699128389355
1790107749722430000,1.532429931640625,3.2897710282206534,10.133429300516843,2.747624052926898
1790107749732374000,1.5423740234375,1.9273384739056227,9.915293914592265,2.0886720684170723
1790107749742319000,1.552319091796875,1.8871841581717133,10.847254446464776,3.9242385598152874
1790107749752263200,1.56226318359375,-1.6423174171879886,9.58667220107913,6.837943401780724
1790107749762207000,1.57220703125,-4.99021534794569,6.256235400471091,13.370678698861598
1790107749772152000,1.582152099609375,-2.692028422433138,11.331333263671398,6.191318983924389
1790107749782096000,1.592095947265625,0.36359526560828087,10.318955379259586,-0.9165835145205259
1790107749792040200,1.602040283203125,1.6099349044993518,4.610896881896257,-1.5539298164218662
1790107749801985000,1.611985107421875,0.8326552312508225,1.9025965390980242,-4.515779972875118
1790107749811929000,1.62192919921875,-1.4584557645261287,-0.8666904795825481,-7.536380424460768
1790107749821873000,1.631872802734375,-2.9309844780683516,-2.76878783698678,-8.619844938486814
1790107749831818000,1.64181787109375,-4.012070572525262,-3.5744396182388063,-8.352479365447163
1790107749841762000,1.651761962890625,-5.268519079107046,-5.212257678180933,-10.113428130495548
1790107749851706000,1.6617060546875,-5.429467181432247,-5.883865730646252,-10.349584326279162
1790107749861651000,1.67165087890625,-3.783728265362978,-5.81063098308742,-9.453142851555347
1790107749871595300,1.68159521484375,-1.416121182143688,-4.7716263730347155,-8.858022995486856
1790107749881539000,1.6915390625,-0.48132111599631605,-5.0155420969039195,-9.516184706401825
1790107749891484000,1.70148388671875,0.16357830469831824,-5.840090886327624,-11.463304277837276
1790107749901428000,1.711427978515625,0.7184766980808228,-4.764461888232827,-11.721879226177931
1790107749911372000,1.7213720703125,0.04341353672556579,-3.1421459333270785,-9.812848270118236
1790107749921317000,1.731317138671875,-0.9731729052919894,-1.4082465032458304,-5.551726948922872
1790107749931261200,1.74126123046875,-1.9941829359054564,-0.03277589592039585,-1.6772604280143975
1790107749941205000,1.751205078125,-1.7757798389554023,2.159404477766156,-2.1566794367164372
1790107749951149800,1.76114990234375,-0.04064646489871666,3.0876281611979004,-3.7555186544448134
1790107749961094100,1.77109423828125,2.4887282020688057,2.7045640788793563,-3.6276667660355564
1790107749971038200,1.7810380859375,3.576795825976133,1.9966724146336317,-1.840865182328224
1790107749980983000,1.790983154296875,2.7960996222823855,4.51415324845612,2.628410813525319
1790107749990927000,1.800927001953125,1.8884008404850958,4.136912173202633,5.251411292439699
1790107750000872200,1.8108720703125,0.9661275898903607,-0.2927607110589742,5.014855868205427
1790107750010816000,1.82081591796875,0.08251224245931953,-4.499111746668816,3.5599423063307998
1790107750020760000,1.830760009765625,-0.9625514849692582,-9.700293319562077,1.977816322994232
1790107750030705000,1.840704833984375,-1.406589383688569,-8.859613479548692,4.353973207893968
1790107750040649000,1.85064892578125,-2.7460318152993914,-7.268737203523516,7.487953370422124
1790107750050593000,1.860593017578125,-2.129361221680045,-9.981447763979434,10.291744716250896
1790107750060538000,1.8705380859375,-1.7184136916577815,-6.8241597911000245,11.335400366979837
1790107750070482000,1.88048193359375,0.2253250051677227,-2.6897861964643,8.895624704128503
1790107750080426000,1.890426025390625,4.614264897024631,3.4920331377089022,10.505345381355285
1790107750090371000,1.90037109375,4.914691612666845,0.37409693200886246,7.699476644730567
1790107750100315100,1.910315185546875,1.8200515268802642,-3.4971892052978277,5.088990779474377
1790107750110259000,1.920259033203125,0.16954276606068014,-3.387694226834178,4.662432715605199
1790107750120204000,1.9302041015625,-0.2730361660219729,-3.456358013215661,3.9058436559468506
1790107750130147800,1.94014794921875,-0.17681655645594,-3.658113926747441,2.864431107969582
1790107750140092200,1.950092041015625,-0.2248585566997528,-4.4027036287933585,1.6976359843060373
1790107750150037000,1.960037109375,-0.5174792747661471,-5.261668482559919,1.2945711703576146
1790107750159981000,1.96998095703125,-1.808811170941591,-5.051829800337552,0.9318705155014991
1790107750169924900,1.9799248046875,3.810604581850767,-0.7113637242704629,0.9549321690719574
1790107750179870200,1.9898701171875,7.125886483424901,6.385190281686186,1.6621629582561552
1790107750189814000,1.99981396484375,1.616361722676456,19.171615386408565,-1.1932136133812368
1790107750199758000,2.009758056640625,3.0353453085139392,34.75699491832256,2.282544096831232
1790107750209703000,2.019702880859375,-1.6156766630217432,28.157845659613606,11.555990744841099
1790107750219647000,2.02964697265625,-4.5204649158209556,7.451565129223465,7.964408853143453
1790107750229591000,2.039591064453125,-0.9255983033642172,-0.7848474781543016,2.5586028255447744
1790107750239536000,2.0495361328125,2.2934452839434147,-3.5394594902724026,0.7804096418373286
1790107750249480000,2.05947998046875,2.8718206336989995,-3.4847219379127026,0.6647246496271342
1790107750259424000,2.069424072265625,2.3853531677901745,-1.2778800016671419,0.5149765712302178
1790107750269369000,2.079369140625,1.1515949241831898,0.4944722009271383,-0.3397682536885142
1790107750279313200,2.089313232421875,-0.8793126452684402,0.5057026199936866,-0.537184238319844
1790107750289257000,2.099257080078125,-1.7237360557243226,-0.540655859953165,-0.9133571728851646
1790107750299202000,2.1092021484375,-1.4873825838029384,-3.8339644146502017,-4.738409163087606
1790107750309145900,2.119145751953125,-2.6926640899881717,-6.134726743608713,-10.815582712393999
1790107750319090200,2.129090087890625,-2.428843934470415,2.609856335180998,-7.823436201876402
1790107750329035000,2.139034912109375,1.2104738141313194,2.5599901882499454,-2.9231273348271847
1790107750338979000,2.14897900390625,5.68798835375905,3.556055235764384,0.5469589056201278
1790107750348924000,2.158923828125,3.4004102082833647,-1.491081438320875,0.4878090897761285
1790107750358868200,2.1688681640625,-1.0757380114272237,-5.7457087213218205,-0.44160657991915936
1790107750368812000,2.17881201171875,-3.4635797811627387,-6.206869019755721,1.2164056883983314
1790107750378757000,2.188757080078125,-2.846498853176832,-5.833938793438673,1.5200805921815335
1790107750388701000,2.198700927734375,0.4656615553759038,-1.572817472243309,1.0407456085011362
1790107750398645000,2.20864501953125,2.36726133852154,3.7372114288598297,2.924638323912024
1790107750408590000,2.218590087890625,1.5288900677114725,6.616992958435416,4.730805117824674
1790107750418534100,2.2285341796875,0.7029705744564533,7.255407766351103,4.575010745000839
1790107750428478000,2.23847802734375,1.2799006938397883,5.968035129195451,3.8392256961792706
1790107750438423000,2.248423095703125,3.0366984766885636,4.000495870065689,2.4366120842538774
1790107750448367000,2.2583671875,3.46661695690155,2.9268799653589723,2.3922870587065814
1790107750458311200,2.268311279296875,2.1391548859417435,2.5246166770517826,3.311528686520457
1790107750468256000,2.278256103515625,1.3156570668756962,3.2542782745569943,3.4491464744016525
1790107750478200000,2.288199951171875,1.8557374650284646,4.2184377792447805,2.0252337615989147
1790107750488144000,2.298143798828125,2.0821704314380884,4.661753208908438,0.7871914109319448
1790107750498089000,2.3080888671875,2.110051541054249,4.1617245428979395,-0.4566605027966201
1790107750508033000,2.318032958984375,0.34396979703158137,3.3495074117809533,0.10538929671049117
1790107750517977000,2.32797705078125,-2.7991718693345784,3.423934583994746,0.5791415118224919
1790107750527921700,2.337921630859375,-2.5930814337298274,2.6720342666745185,-0.1884232614889741
1790107750537865700,2.34786572265625,-2.2743407705008982,0.6750701756179333,-1.5147285636290908
1790107750547809500,2.3578095703125,-1.865392013080418,-1.4871674797475336,-2.14753093849048
1790107750557755000,2.3677548828125,-1.337397481779754,-4.270548490232229,-3.0162527777701613
1790107750567698700,2.37769873046875,-0.420758437679708,-5.872739940997958,-3.430424530535936
1790107750577642800,2.387642822265625,0.980318027806282,-6.816497878170013,-3.140443805584311
1790107750587587600,2.397587646484375,2.8950685305565593,-6.535564383026957,-2.914948412285745
1790107750597531600,2.40753173828125,2.8635689381822944,-5.137751595512032,-2.760392349085212
1790107750607475700,2.417475830078125,1.1882590597137808,-5.374992663922906,-1.9664364124543963
1790107750617420800,2.4274208984375,-0.790827721607685,-4.483860986045003,-1.227424802801758
1790107750627364600,2.437364501953125,-1.597711382742226,-1.8679793992251157,-0.4873695293150842
1790107750637308700,2.44730859375,-1.2309233124420047,0.2218091060012579,0.3076457071103155
1790107750647253800,2.457253662109375,-0.3536128007762134,2.446287236702442,0.021580840428173542
1790107750657197800,2.46719775390625,1.9968879570804534,5.270941337817907,-0.656127866999805
1790107750667141600,2.4771416015625,3.5402465489968655,7.141209724763035,-0.7338529117152094
1790107750677086500,2.48708642578125,3.620327216927707,6.243414497342705,-0.4387395000502467
1790107750687030500,2.497030517578125,3.176422004677355,2.345737781238556,-1.8276444662272928
1790107750696974800,2.506974853515625,2.400816402120888,0.21869126624166965,-2.6082065221473574
1790107750706919700,2.516919677734375,1.8535867167353628,-0.20095278045535087,-2.801905093690753
1790107750716863700,2.52686376953125,0.9773235221654176,-0.1158148291349411,-3.0376369265824557
1790107750726807600,2.5368076171875,-0.38047348130345343,0.2300684003025293,-2.1528417582497
1790107750736752600,2.546752685546875,-1.2362605818167327,0.7166402033686637,0.7362547121599317
1790107750746696700,2.55669677734375,-1.961404409636557,1.0862117669075726,2.852674326941371
1790107750756640800,2.566640869140625,-2.307043893446028,0.6430453903257847,2.731896322441101
1790107750766585600,2.576585693359375,-2.90130625590235,0.6810229465425014,2.666984582069516
1790107750776529700,2.58652978515625,-2.2753403029322623,0.5808750576168299,2.281859183306992
1790107750786473700,2.5964736328125,-0.41350042937546966,0.6200386087477207,1.8236255859747528
1790107750796418600,2.60641845703125,0.5722057212099433,1.0963409467339515,2.1861305721282958
1790107750806362600,2.616362548828125,0.45428456744551654,1.543409591451287,2.027507113358378
1790107750816306700,2.626306640625,0.18602818304598331,1.6856360421717167,0.8624693547561765
1790107750826251800,2.636251708984375,0.45742637260258195,1.733521244418621,-0.5242570983380079
1790107750836195600,2.646195556640625,0.7450368612915277,2.0736825890779493,-1.9921923466101288
1790107750846139600,2.6561396484375,0.9440028518438338,2.4720856948256493,-3.1072134438946843
1790107750856084500,2.66608447265625,1.186363747486472,3.016969986128807,-3.4287542592361566
1790107750866028500,2.676028564453125,1.2032447396606205,3.4277626178503033,-3.387174879135191
1790107750875972900,2.685972900390625,0.841110340385139,3.5691298213928935,-2.6386633274704216
1790107750885917700,2.695917724609375,0.3823521346569061,3.07177709659338,-0.7651759784787893
1790107750895861500,2.705861572265625,0.21843349208831786,1.4387275662273167,0.6771756234645843
1790107750905805600,2.7158056640625,-0.1831704555273056,0.26322014379799363,1.687144108647108
1790107750915750700,2.725750732421875,-0.7728881602913141,-0.3020049247443676,2.1523656651705503
1790107750925694700,2.73569482421875,-1.2115502111911773,-0.45415831071734425,2.1728613407105204
1790107750935638800,2.745638671875,-1.6590005487024784,-0.5747913537889718,1.7735802830845115
1790107750945583600,2.75558349609375,-1.7545535110533237,-0.6008791502475738,1.9899720402121543
1790107750955527400,2.76552734375,-4.984700383916497,-1.036786349481344,1.9493197118282317
1790107750965471700,2.7754716796875,-23.264843316185473,-5.015269125181436,-2.149229120710492
1790107750975416600,2.78541650390625,-7.785159370452165,-5.486939127191901,5.219049822539091
1790107750985360600,2.795360595703125,4.921296125498413,-6.4748196992069476,3.8713042574852703
1790107750995304700,2.8053046875,12.29967794508934,-4.353935213971138,3.860056302762031
1790107751005249800,2.815249755859375,8.387555355003476,-2.0027064341008662,3.827286836582422
1790107751015193600,2.825193603515625,-1.9158768764317033,-0.7454343361765146,3.065456661400199
1790107751025137700,2.8351376953125,-8.16716079197526,-1.2016349663764239,3.610640227910876
1790107751035082500,2.84508251953125,-5.191744466984272,-0.7880681937664746,2.5066841299980878
1790107751045026600,2.855026611328125,-1.6126999852985142,0.06679740798771382,0.20388824938535688
1790107751054970600,2.864970703125,-1.5622326576039194,0.44246378127038477,0.380196417927742
1790107751064915700,2.874915771484375,-0.8747089508652687,0.0028811083942651746,0.7026216148883104
1790107751074859500,2.884859619140625,-0.07368424489200115,-0.46850306241214273,0.7323615041136741
1790107751084803600,2.894803466796875,-1.1786702703744172,-0.9766133280694484,0.46162616237998005
1790107751094748700,2.904748779296875,-2.3858947273209687,-1.202334054556489,0.7074632097005844
1790107751104692700,2.914692626953125,-2.3287568358212707,-1.2445844657868146,0.9212252028465271
1790107751114636500,2.924636474609375,-1.8827274710237978,-1.3059247774124145,0.902853095331788
1790107751124581600,2.93458154296875,-1.2772440418511628,-1.2447808651417493,0.9525713582247495
1790107751134525400,2.944525390625,-0.428140072363615,-1.1506167268007994,0.6538093609243631
1790107751144469800,2.9544697265625,-0.2779787369906902,-0.9843588276296853,0.34735330199003217
1790107751154414600,2.96441455078125,-0.6766366942822932,-1.0670236668348312,0.3225011848062277
1790107751164358700,2.974358642578125,-0.4386787097737193,-0.9090893593728542,0.645696781617403
1790107751174302500,2.984302490234375,-0.511136627741158,-0.4098842847049236,0.4335995068132877
1790107751184247800,2.994247802734375,-1.2101809686645866,-0.06539864710569382,0.16193594431877134
1790107751194191600,3.004191650390625,-1.401947403101623,-0.06929565454423427,0.650275341579318
1790107751204135700,3.0141357421875,-0.9195935099914669,-0.15043138448596,1.5475105970293284
1790107751214080500,3.02408056640625,-0.26707272757291795,-0.2984399257391691,1.9397575182348488
1790107751224024600,3.034024658203125,0.35242724425345656,-0.5573164873749017,1.8800754952102898
1790107751233968600,3.04396875,0.30864158627986904,-0.8419739714771509,1.5632979487478733
1790107751243913700,3.053913818359375,0.11695260099321603,-0.9173732035934925,0.8854454489350319
1790107751253857500,3.063857421875,0.34530426050573587,-0.8366782031565904,0.32393384795784946
1790107751263801600,3.073801513671875,0.655042409850657,-0.6770867761373519,0.33543110126703973
1790107751273746700,3.08374658203125,0.7189964111059903,-0.6597025106161832,0.7852373542547225
1790107751283690800,3.093690673828125,0.9368982805356383,-0.6971756244421005,1.23860656042099
1790107751293634600,3.103634521484375,1.167453003050387,-0.8989742080718278,1.3405185364097356
1790107751303579600,3.11357958984375,1.0439701235055923,-1.2506512184798717,1.560248790310323
1790107751313523700,3.123523681640625,0.839013221975416,-1.193269873613119,1.6643860411331057
1790107751323467800,3.1334677734375,1.0702733162805438,-0.6575783580690622,1.512653803181648
1790107751333412600,3.14341259765625,1.535789471836388,-0.12670447193980217,1.2694929893329738
1790107751343356700,3.153356689453125,1.6782082302585244,-0.08702654154598713,0.679000208543241
1790107751353300500,3.163300537109375,1.4095252910099922,-0.039325463694334026,-0.2079489229530096
1790107751363245800,3.173245849609375,1.548629956448078,0.49650049188435075,-1.2836895647287367
1790107751373189600,3.183189697265625,1.798110036446154,1.1411644233226776,-2.287732459254563
1790107751383133700,3.1931337890625,1.7924319908097386,1.7614643133550882,-3.2154128295898436
1790107751393078500,3.20307861328125,1.873204440397024,2.4188912802547216,-3.8452497787743805
1790107751403022800,3.21302294921875,1.7893030451342462,3.0904923184573647,-4.750142270979285
1790107751412966700,3.222966552734375,1.1434069415524601,3.041957127869129,-5.735401846840977
1790107751422911700,3.232911865234375,0.3657619421228766,2.5762095016449686,-5.160692910638451
1790107751432855600,3.24285546875,-1.348888013087213,1.7352490911245344,-4.486892024303972
1790107751442799600,3.252799560546875,-2.9119769952595234,1.1450281130135058,-4.224519729506969
1790107751452744700,3.26274462890625,-3.7051100712001324,1.637681866341829,-3.117862848202884
1790107751462688800,3.272688720703125,-3.055338295228779,2.3638567907750607,-2.277833434922248
1790107751472632600,3.282632568359375,-0.6287437471203505,2.845564787197113,-1.0279033703237772
1790107751482577700,3.29257763671875,1.194209784811735,2.5671687015771862,-0.07607698524743318
1790107751492521700,3.302521728515625,1.5659164606831968,2.098077610144019,-0.015378332526236771
1790107751502465800,3.3124658203125,-0.1987932643339038,1.4610247382313013,0.5259706242576241
1790107751512410600,3.32241064453125,-3.175450237035751,1.7540712804943321,0.5465689564544707
1790107751522354700,3.332354736328125,-3.573386894315481,1.5593728842586279,-0.4144093609139323
1790107751532298500,3.342298583984375,0.2574523740515113,1.2356734295785425,-1.2223418004490434
1790107751542243600,3.35224365234375,2.2137553688958285,1.2698995243072508,-0.7116681140445172
1790107751552187400,3.3621875,0.681545801372826,1.19664373396039,-1.2562255114808678
1790107751562131700,3.372131591796875,-0.9904830095984041,0.7710890019148587,-1.592259108685702
1790107751572076500,3.38207666015625,-0.8037598300255835,0.6822557032078505,-1.2485505929388105
1790107751582020600,3.3920205078125,-0.903039557814598,0.9648036478102207,-0.2830901982529089
1790107751591964400,3.40196435546875,-1.1746186568960546,1.1612895119845867,1.5966095589801668
1790107751601909800,3.41190966796875,-0.2821253352761268,0.8174380806356668,2.597303727599978
1790107751611853600,3.421853515625,1.214764204801619,0.06704407622516155,2.699916545334458
1790107751621797600,3.431797607421875,4.204219284278154,-0.7257020462244749,-0.3090758860439062
1790107751631742500,3.441742431640625,4.243289896428585,-1.4690806189149617,-3.975196885897219
1790107751641686500,3.4516865234375,-0.3291013137236237,-2.449780924037099,-2.137963776461035
1790107751651630600,3.461630615234375,-4.257350278224051,-2.1853344533145425,0.47214795825313777
1790107751661575700,3.47157568359375,-3.8665222839057445,-2.6549592132329938,1.1166911493886262
1790107751671519500,3.48151953125,0.3459012034855783,-3.389005309432745,-1.4285586389124392
1790107751681463600,3.491463623046875,0.6696858522310852,-3.2224165708720682,-2.8309564161300655
1790107751691408600,3.50140869140625,0.9545935117021203,-3.0732103442668914,-1.813521686720103
1790107751701352700,3.511352783203125,-0.2863160649642348,-2.1571265959620476,0.34778460607938466
1790107751711296500,3.521296630859375,-3.353017465728521,-0.41223464722335335,2.0680112654432654
1790107751721241600,3.53124169921875,-2.2558508818253875,0.7616618328779935,2.014139828393608
1790107751731185400,3.541185302734375,1.3441747208297252,1.5879840617150067,0.24310250779017806
1790107751741129700,3.551129638671875,2.7234266002595424,3.070137512692809,-1.5760102769352495
1790107751751074600,3.561074462890625,1.9045359827280044,3.066626289701462,-1.6513874433502553
1790107751761018600,3.5710185546875,0.23744331298470495,2.368044890114665,-0.32642800286114215
1790107751770962400,3.58096240234375,-0.6863046863377094,2.6377877136796712,0.6459642003819346
1790107751780906500,3.590906494140625,-0.5336930352032184,3.827466284802556,-1.0899823714874683
1790107751790851600,3.6008515625,0.3395090182304382,4.911663789278268,-3.718156015256047
1790107751800795600,3.610795654296875,1.3067770103275775,4.593648809975385,-4.9190468852669
1790107751810739500,3.620739501953125,1.732215714778006,4.007944432505965,-4.668149047425389
1790107751820684500,3.6306845703125,0.5048597394287586,4.370665399497748,-3.010045447562635
1790107751830628600,3.640628662109375,-0.9452433534242212,5.129820802512764,-1.6796552141964434
1790107751840572700,3.65057275390625,-1.2157236974835395,5.060301276084781,-0.47680619585514067
1790107751850517500,3.660517578125,-0.8822384695872664,4.349422120460868,0.47845191723555325
1790107751860461600,3.670461669921875,-0.5935875319346785,4.291784170484543,1.1143827993810176
1790107751870405400,3.6804052734375,-0.005537468121945857,3.585105973681807,1.7271739212185144
1790107751880350500,3.6903505859375,0.13525222779363394,2.2977748375803233,2.7998022761926054
1790107751890294500,3.70029443359375,-0.20727277725711463,1.53861125125885,4.190763882638514
1790107751900238600,3.710238525390625,-1.0028943090125917,0.47342590576708315,5.279740145823359
1790107751910183400,3.720183349609375,-1.5984624933704732,-1.4484814830005168,5.0000341466486455
1790107751920127700,3.730127685546875,-1.6573393374919891,-2.7884797949284312,2.2193296618968246
1790107751930071600,3.740071533203125,-1.8657580699138343,-3.1663468931257723,-1.405734812685847
1790107751940016400,3.750016357421875,-1.3403604232385753,-3.6522464960187673,-3.091773590439558
1790107751949960400,3.75996044921875,-0.38910336248278615,-4.830211832994222,-2.4330413861602542
1790107751959904500,3.769904541015625,-0.06111424778476357,-5.789807975289225,-0.7143518001705408
1790107751969849600,3.779849609375,-0.6261269887506962,-6.366764982679486,0.7387783854186535
1790107751979793700,3.789793701171875,-0.8545477679766714,-5.951571485650539,1.3731792815178632
1790107751989737500,3.799737548828125,-0.47946781627982854,-4.597136067569256,0.9645511343538761
1790107751999682300,3.809682373046875,0.34928923848867416,-3.1090158171415325,0.011623802298307418
1790107752009626600,3.819626708984375,0.9580627952478825,-1.953832805338502,-0.792428142541647
1790107752019570700,3.82957080078125,0.8267842933908104,-0.41370822690725323,-1.2436930699050426
1790107752029515500,3.839515625,0.3376283190503716,1.2925094155222177,-0.9146551768064498
1790107752039459600,3.84945947265625,-0.37488603655993935,1.9178221652805805,-0.555613190588355
1790107752049403400,3.8594033203125,-0.9380541725724935,1.542889366969466,-0.35934769116640086
1790107752059348500,3.869348388671875,-1.6159128098651765,0.7824234658777713,-0.4217266981899738
1790107752069292500,3.87929248046875,-1.7548434339106083,0.16016893464624882,0.07339899820983409
1790107752079236600,3.889236572265625,-2.671896611769497,0.6381997038602829,-0.7034791085004806
1790107752089181400,3.899181396484375,-2.2963072492457925,1.435358966577053,-0.9544476734906434
1790107752099125500,3.90912548828125,-0.5240566073298454,0.9536468785017729,-0.5308855765670538
1790107752109069600,3.919069580078125,0.3617429157398641,0.8639607623577117,-2.1121540662914513
1790107752119014400,3.929014404296875,1.135749412536621,1.2938380337774753,-4.045373122668266
1790107752128958500,3.93895849609375,2.6601228796064853,1.9546984822571276,-5.851609474685787
1790107752138902500,3.948902587890625,4.366193807041645,2.75576994998157,-6.862908331689238
1790107752148846600,3.9588466796875,5.06063854521513,4.278531305679679,-8.00859695443809
1790107752158791400,3.96879150390625,4.820404724729061,5.519249743688106,-7.416547007334232
1790107752168735500,3.978735595703125,2.7842788361072537,5.013973240152001,-5.320735004034638
1790107752178679600,3.988679443359375,-0.026402561496198174,3.0288772815436125,-2.2642145132839677
1790107752188624600,3.998624755859375,-3.8636107803732154,1.6798767479926346,-0.5863403372853994
1790107752198568700,4.008568603515625,-6.817068371534347,-0.3920435075879097,2.249881452026963
1790107752208512500,4.018512451171875,-4.8522939009428026,0.7293401104658842,5.258451274079084
1790107752218457300,4.028457275390625,-1.3447650879383086,2.179283482712507,6.359615695446729
1790107752228401400,4.0384013671875,0.6761401429370045,1.4871131192117928,5.560426388207078
1790107752238345700,4.048345703125,0.003497778987884521,0.1695493419319391,4.9221769999861715
1790107752248290600,4.05829052734375,-1.7350421703755854,-0.851917857864499,3.9305589950084685
1790107752258234600,4.068234619140625,-2.8048203966155647,-1.4381681787788867,4.854747723835707
1790107752268178400,4.078178466796875,-2.063981279274821,-1.7805115436524153,6.647625412586331
1790107752278123500,4.08812353515625,-1.2924001099288462,-1.7132418419778346,7.53604198628664
1790107752288067600,4.098067626953125,-1.5946135628573594,-1.8794880507111549,6.972866836011409
1790107752298011600,4.10801171875,-1.6684429153084754,-1.787110211265087,5.77935497033596
1790107752307956500,4.11795654296875,-3.062679305641353,-0.2824795555412769,5.4489165627896785
1790107752317900500,4.127900634765625,-3.2352339668691155,-1.294189331433177,5.457415511065721
1790107752327844600,4.1378447265625,-1.3339607853293418,-1.4489227970272303,3.3771161341965197
1790107752337789400,4.14778955078125,-0.7225741234622896,-0.7717612020879984,3.3383208318561315
1790107752347733500,4.1577333984375,-0.8644340789578855,-0.5118687414079904,2.730699221611023
1790107752357677600,4.167677490234375,-1.5010847998104988,0.33703298350572586,1.7512644063800573
1790107752367622700,4.17762255859375,-1.4503272569976746,1.1019511878311634,1.6785294250369072
1790107752377566500,4.18756640625,-0.40868959502764046,0.22355331932008266,2.828082321998477
1790107752387510500,4.197510498046875,1.6232358462296426,-0.5632400322049855,2.615292388755083
1790107752397454600,4.20745458984375,2.5083038401544093,0.9931301631063222,0.8079992211610079
1790107752407399400,4.2173994140625,1.7892274956800043,1.3051286585986615,2.018324858993292
1790107752417343700,4.22734375,1.4554817171514034,1.6922154205620288,2.207225382605195
1790107752427287600,4.23728759765625,1.0434066444039345,1.277374390232563,1.3662369150340556
1790107752437232400,4.247232421875,1.6788965047836302,1.2754331930369138,0.17321254061460495
1790107752447176400,4.257176513671875,1.887343440386653,1.6304904935330151,-1.3404045546412466
1790107752457120500,4.26712060546875,1.9231781393557785,1.5617472121745346,-1.439290460807085
1790107752467065600,4.277065673828125,1.765299361473322,1.5621692369788884,-1.625319228374958
1790107752477009400,4.287009521484375,2.1599112582445144,1.0203156916737557,-0.8280407231926917
1790107752486953500,4.296953369140625,2.604691499763727,0.4383937553524971,-0.5580670134812593
1790107752496898300,4.306898193359375,2.924914802765846,0.2635229261368513,-0.43699674803614613
1790107752506842600,4.316842529296875,3.0082939277201888,0.6003098259270191,-0.41937984280288215
1790107752516786700,4.32678662109375,3.4927895090341567,0.21138824975192547,-0.5989613339275122
1790107752526731500,4.3367314453125,4.247687839126587,-0.4544312824398279,-0.24232757789492607
1790107752536675300,4.34667529296875,3.9708524269521233,-0.3153635880112648,0.46779228379428384
1790107752546619600,4.35661962890625,3.0655729812562464,0.24026421562433242,1.6557938616156578
1790107752556564500,4.366564453125,1.1190870315492152,1.0082377158671616,0.849569833433628
1790107752566508500,4.376508544921875,-1.014540615403652,0.8628577695518732,-0.11287409950792789
1790107752576452600,4.38645263671875,-1.909139677131176,1.2182511701345442,-1.643303213354945
1790107752586397700,4.396397705078125,-2.0727029303908346,1.5934534330368042,-2.67550048148036
1790107752596341500,4.406341552734375,-1.4667758491039276,-0.07653437362611293,-0.13343874863088132
1790107752606285600,4.41628564453125,-0.4267453666022047,-0.9738789346694946,0.8459522274583577
1790107752616229600,4.426229736328125,0.11165770945549011,-1.1474258218050002,0.0981686978071928
1790107752626174500,4.436174560546875,0.18878767435457555,-1.7088099970102308,-0.43311026199162006
1790107752636118500,4.446118408203125,0.1783457753172144,-1.9467495690792798,-0.6234738438934088
1790107752646062600,4.4560625,-0.02872340565919876,-1.9425310746014117,-0.01794306844770908
1790107752656007400,4.46600732421875,0.6547112782001495,-1.4591051683455705,-0.5629243903845549
1790107752665951500,4.475951416015625,1.1768377942502497,-1.2579817074984312,-0.43022915359735486
1790107752675895600,4.4858955078125,0.6759785226345062,-0.37055882101058957,-0.919101050299406
1790107752685840600,4.495840576171875,0.09670445220721885,0.5575614020466804,-1.5140373664945364
1790107752695784400,4.505784423828125,0.3531155187785625,0.7357423787236214,-2.8753049686834213
1790107752705728500,4.515728515625,0.2642763748526573,1.727114884507656,-5.177122067391872
1790107752715673600,4.525673583984375,1.4440484689891337,1.0592565399646758,-4.217441169422865
1790107752725617700,4.53561767578125,1.7121698288321494,0.5114584070414304,-1.4628031460806727
1790107752735561700,4.545561767578125,0.9033236354529857,2.0133067385703325,-1.4935668253958225
1790107752745506600,4.555506591796875,-0.18120295484662055,2.2179759092003106,-1.9946669200301168
1790107752755450400,4.565450439453125,-0.8631015151798724,2.1618542090058326,-2.467563541226089
1790107752765394700,4.575394775390625,-0.7590706473410129,2.496480715891719,-2.8068960338458417
1790107752775339500,4.585339599609375,-0.3652209305813536,2.187258699375391,-2.4032120650857687
1790107752785283600,4.59528369140625,0.3628898938179016,1.86034320525825,-1.9050147061556577
1790107752795227600,4.6052275390625,0.3372738065242767,1.1271598633676767,-2.0374653205320237
1790107752805171500,4.61517138671875,0.6275695887744427,1.0974018539637327,-2.0401818860143424
1790107752815116500,4.625116455078125,0.8237409801721572,1.0312351450949906,-2.1278306511119007
1790107752825060600,4.635060546875,1.0491746333461254,0.802388980063796,-2.2933166891276837
1790107752835004700,4.645004638671875,1.3328794198334217,0.4100315842211246,-2.2508915058523415
1790107752844949500,4.654949462890625,0.8847884463310242,-0.11029168179929255,-2.1826564662769434
1790107752854893600,4.6648935546875,0.21482107374481857,-0.6405278545469045,-1.5357143607735633
1790107752864837600,4.674837646484375,0.18588731327056884,-0.7480757905960083,-0.7094844863951206
1790107752874782500,4.684782470703125,0.2807399818649515,-0.5573901371330022,0.2252536934971809
1790107752884726500,4.6947265625,-0.006408661465905606,-0.4070914391160011,0.6539359099134803
1790107752894670600,4.704670654296875,0.49044309154152865,-0.5785036523103714,0.521685202023387
1790107752904615700,4.71461572265625,0.9355179320931434,-0.8952017037957907,0.13187369127124549
1790107752914559500,4.7245595703125,0.23530392633583394,-0.6526169362694024,0.3919727804392576
1790107752924503600,4.734503662109375,-0.4413982343981042,-0.31653263179063795,0.8565522396668791
1790107752934448400,4.744448486328125,-0.6315548590183258,-0.04066635690927505,1.2367977574333548
1790107752944392700,4.754392822265625,-0.353618207603693,0.06818681651949882,1.4303499062433838
1790107752954336800,4.764336669921875,0.1372948030045256,0.09023673576414584,1.1310343667134641
1790107752964280600,4.774280517578125,-1.0453554403841494,0.9408154539793729,1.8425374994546173
1790107752974225400,4.784225341796875,-2.9427310299634932,1.6202449938505887,3.7743724079966543
1790107752984169500,4.79416943359375,-0.9428291318893433,0.7745102085351944,1.8245958923116326
1790107752994113800,4.80411376953125,1.0840613108754158,1.345842361781001,0.297474003316462
1790107753004058600,4.81405859375,1.4795160882115364,1.0367834268718956,0.7437199334740638
1790107753014002700,4.824002685546875,1.105155463765189,0.110803722974658,0.4321089759945869
1790107753023946500,4.833946533203125,0.7798200053811073,-0.2637450444549322,0.24868892962038516
1790107753033891600,4.8438916015625,0.5999287907201797,0.10284195031523703,-0.3548410273969173
1790107753043835600,4.853835693359375,0.5386754997909069,0.7248866381883621,-0.9978811570256948
1790107753053779700,4.86377978515625,0.5343173776466399,0.7885691290259361,-1.007023079380393
1790107753063724500,4.873724609375,0.373567903166078,0.6404629726171494,-1.1373358049452305
1790107753073668400,4.88366845703125,0.15743158210422842,0.5171984119981528,-1.5497428861260414
1790107753083612700,4.89361279296875,-0.0657914458155632,0.49418520067930216,-1.3418863176316023
1790107753093557500,4.9035576171875,-0.2631974205095321,1.0336673406779766,-1.4867220740675926
1790107753103501600,4.91350146484375,-0.5187234661409631,0.9113573043048381,-1.0282067371845245
1790107753113445600,4.923445556640625,-0.5602782597899436,0.11221943499147892,-0.8540612996339797
1790107753123390700,4.933390625,-0.14690554844737053,-0.30831133141219613,-1.0445254193007945
1790107753133334500,4.94333447265625,0.37528413249943404,-0.36457331686019895,-2.1141735894203184
1790107753143278600,4.953278564453125,0.7905787152826785,-0.48020869777500624,-2.2616396943598986
1790107753153222700,4.96322265625,0.8979986410379409,-0.6639280193567275,-2.0990841568380594
1790107753163167500,4.97316748046875,0.8630547534286975,-0.5036217220664024,-2.275543716549873
1790107753173111600,4.983111572265625,1.1709621802151202,-0.528496051082015,-2.0659610549151894
1790107753183055600,4.9930556640625,1.0192448475718499,-0.7730927429527044,-1.8536188654392955
1790107753193000400,5.00300048828125,0.5204126978695393,-0.5167489146649837,-1.8229963481605052
1790107753202944500,5.012944580078125,0.0652209524512291,-0.15488953293859958,-2.051866478589177
1790107753212888600,5.022888671875,-0.25412326616141945,-0.1318307289123535,-2.1403923187822103
1790107753222833700,5.032833740234375,-0.20146252007577567,0.09082476478517056,-1.5543202770441769
1790107753232777500,5.042777587890625,0.0037187282621860504,0.3445511040508747,-0.7593757677674293
1790107753242721500,5.052721435546875,0.27009119861125946,0.4656956037759781,-0.22655659278929233
1790107753252666400,5.062666259765625,0.5284581302244216,0.13283376847505568,-0.20827859329879284
1790107753262610700,5.072610595703125,1.0013900419294834,-0.14274725972414015,-0.361814958062768
1790107753272554800,5.0825546875,1.0816635290186851,-0.35805823587775226,-0.6054097794145346
1790107753282498600,5.09249853515625,0.5774071623105556,-0.04292085783779621,-0.16900573657453058
1790107753292443400,5.102443359375,0.13544322032108902,0.4008861547350883,0.4034136273860931
1790107753302387500,5.112387451171875,-0.05257409071549773,0.5112053090631962,0.547481906580925
1790107753312331800,5.122331787109375,-0.07789689415097237,0.34522739587724205,0.5575654936999083
1790107753322276600,5.132276611328125,0.12697320587858557,0.2828326067626476,0.5769903251379728
1790107753332220700,5.142220703125,-0.04813084757104516,0.6245376737326384,0.6197907714664935
1790107753342164500,5.15216455078125,-0.5007226396240294,1.135846443170309,0.6024941842287779
1790107753352109600,5.162109619140625,-0.4138989271737635,1.9696219106227157,0.408742128932476
1790107753362053600,5.1720537109375,-0.4786602992892265,2.6576047593057153,0.3608142565876245
1790107753371997700,5.181997802734375,-0.5697030907392502,2.9291350508093834,0.7112076569259166
1790107753381942500,5.191942626953125,-0.22806889704838393,3.019302228468656,0.8754571388840675
1790107753391886600,5.201886474609375,0.4285701343439519,3.2283348550051447,0.9337287105888128
1790107753401830700,5.21183056640625,0.20889862489327787,3.176026575618982,1.3648141887545584
1790107753411775500,5.221775390625,-0.9524271274484694,2.4363369205743073,0.5371007978200912
1790107753421719600,5.231719482421875,-1.7085387788534163,2.1258131738096475,0.48290159012079237
1790107753431663600,5.24166357421875,-1.7777099302351473,1.7973557109475136,1.3108686635553837
1790107753441607400,5.251607421875,-2.2768483694076536,0.8034896347820758,1.5210808552652597
1790107753451552500,5.261552490234375,-2.4124273449376226,0.3117436439484358,2.508835755074024
1790107753461496600,5.27149658203125,-2.354944877783954,-0.06855331174433231,3.858486861488223
1790107753471440600,5.281440673828125,-2.34163589887768,-0.7705792988270521,4.600785237726569
1790107753481385500,5.291385498046875,-1.9658266099929809,-1.2821809137314557,4.3647453617990015
1790107753491329800,5.301329833984375,-1.2217042331978678,-1.5749708508849143,3.2650182797580953
1790107753501273600,5.311273681640625,-0.9180161776721477,-1.3792331747293471,2.450796238559484
1790107753511218400,5.321218505859375,-0.34252748926877974,-0.48496144526004786,3.23595351331532
1790107753521162500,5.33116259765625,-0.2178910557746887,-0.03477145365178585,4.500754253178835
1790107753531106600,5.3411064453125,-0.543171642166376,-0.3876040638357401,4.6493660210222005
1790107753541051600,5.3510517578125,-0.6615162820398807,-0.9271721285521983,3.5226860501259565
1790107753550995700,5.36099560546875,-0.6772644707918166,-1.3109119181752205,3.0876895359963177
1790107753560939500,5.370939453125,-0.7543135159417986,-1.5900754810363054,3.633340720018744
1790107753570883600,5.380883544921875,-0.771849464893341,-2.011435684001446,4.393588009923696
1790107753580828400,5.390828369140625,-0.6555847000338136,-2.349976149460673,5.157344184732437
1790107753590772700,5.400772705078125,-0.4110191339537501,-2.513820557749271,5.149348509803414
1790107753600716500,5.410716552734375,0.09422025244235992,-2.631201321026683,4.562389163836836
1790107753610661600,5.42066162109375,0.33973683563694357,-2.7572429451435805,3.4789661508649585
1790107753620605400,5.43060546875,0.17881226031780242,-2.8059961623966694,2.5196073244571684
1790107753630549500,5.440549560546875,-0.04367898272871971,-2.6196049912571904,1.8296639893561601
1790107753640494600,5.45049462890625,-0.06591726415231823,-2.1310387995034454,1.2005144379138946
1790107753650438700,5.460438720703125,0.015911854881048203,-1.5748627143353222,0.9305208544582128
1790107753660382500,5.470382568359375,0.2145278629519045,-0.9852437937706708,0.5977151332587003
1790107753670327600,5.48032763671875,0.40458033307790753,-0.37614509671032426,0.03518061897456646
1790107753680271600,5.490271728515625,0.6110157827280461,0.2642114929229021,-0.5092974296152591
1790107753690215700,5.500215576171875,0.913059285917133,1.0155208586126565,-0.9135767339199781
1790107753700159500,5.510159423828125,1.11531102014184,1.6779723756760359,-0.9960743998646736
1790107753710104600,5.5201044921875,1.2045979078352451,2.1149071643918753,-0.9502057981371879
1790107753720048400,5.53004833984375,1.4787480264484882,2.461847209405899,-1.0001263056039809
1790107753729992700,5.53999267578125,1.5596904257752,2.496276717752218,-0.7357768655151128
1790107753739937500,5.5499375,1.4437540160872042,2.268770276892185,-0.45111412071585655
1790107753749881600,5.559881591796875,1.305598468067497,1.770204084649682,-0.5297685552358627
1790107753759825400,5.569825439453125,0.90290994008556,1.0028168598622083,-0.8114993382364512
1790107753769770500,5.5797705078125,0.5355879821043461,0.552630959907174,-0.9890466931849717
1790107753779714600,5.589714599609375,0.4226081571996212,0.611800357234478,-1.4117816916346548
1790107753789658600,5.59965869140625,0.16963051740936935,0.3824970960855484,-2.5284751060456037
1790107753799603500,5.609603515625,0.6826514975924044,0.63779463019073,-3.2853841914385553
1790107753809547500,5.619547607421875,1.3113736904680728,1.2245692672401667,-3.2119401850432157
1790107753819491600,5.62949169921875,1.2800772194504737,1.6083990732342004,-3.182824565196037
1790107753829435600,5.639435546875,0.9836240105491131,1.7938363046497106,-3.160217012068629
1790107753839380500,5.64938037109375,0.40675826163887974,0.9808972889989613,-2.751635626655817
1790107753849324500,5.659324462890625,-0.04860891341157257,-0.3352227192133665,-1.7363076602667569
1790107753859268400,5.669268310546875,-0.6795663179934024,-1.6211334671229123,-0.7747095304995775
1790107753869213700,5.679213623046875,-1.7763503323197363,-2.350200021344423,-0.3977957875043154
1790107753879157500,5.689157470703125,-3.0162147838473317,-2.6747400185018777,-0.36521950580924745
1790107753889101600,5.6991015625,-3.4080513706862923,-2.5356553729385136,-0.24319500837922095
1790107753899045400,5.70904541015625,-3.604370061600208,-2.439575171843171,-0.5119236864656209
1790107753908990700,5.71899072265625,-3.1725428251564503,-2.3212322855353356,-0.9735323131889104
1790107753918934500,5.7289345703125,-1.3028503384031354,-1.5896704073667525,-0.9707643097802996
1790107753928878600,5.738878662109375,0.6192820912919939,-0.7830985886603593,-0.2971855417639017
1790107753938823400,5.748823486328125,2.373770282024145,0.17766192123889923,0.3822825765520334
1790107753948767500,5.758767578125,2.7394635428249834,0.9957909067481756,0.5532812405094504
1790107753958711600,5.768711669921875,1.3507447468698024,1.4777099155724047,0.7098837148457765
1790107753968656600,5.77865673828125,-0.5220587115108967,1.8328660002678632,0.7071124965667724
1790107753978600400,5.788600341796875,-1.3322365918852388,2.1456828264057637,0.27196926744282246
1790107753988544500,5.79854443359375,-0.7150491347849368,2.3895383445203304,-0.028157588469982144
1790107753998489600,5.808489501953125,1.2725883249998091,2.70547067233026,-0.20939356880336998
1790107754008433700,5.81843359375,1.5793969967640935,3.118964964225888,-0.16511749696433542
1790107754018377500,5.82837744140625,0.5725709012605249,3.0161347043484446,0.442416727258265
1790107754028321500,5.838321533203125,0.10577858828902244,2.5959973211765286,0.20759382590502498
1790107754038266400,5.848266357421875,-0.04987009245380759,2.003092803069949,-0.72669018047899
1790107754048210700,5.858210693359375,0.12381357280388473,1.5726041217535733,-1.252804889382422
1790107754058154500,5.868154541015625,0.5041056331258267,1.4538304428130386,-1.4040280087679624
1790107754068099600,5.878099609375,0.808336490291357,1.5439701479434966,-1.8822414410725234
1790107754078043400,5.88804345703125,1.1903880345664917,1.4921668954700231,-2.8592215566277503
1790107754087987500,5.897987548828125,0.830499368391186,1.219984277537465,-2.9868285303652287
1790107754097932500,5.9079326171875,0.47702948321700095,0.7335171038895845,-2.3525065447211264
1790107754107876600,5.917876708984375,0.5431168432392179,0.15746668995022772,-1.44119278729707
1790107754117820400,5.9278203125,0.7449661341428756,-0.3975573025733232,-0.677991323761642
1790107754127764500,5.937764404296875,0.5066575826309621,-0.6943430313646793,-0.02460954059958458
1790107754137709600,5.94770947265625,-0.2979343873698264,-0.5668997237563133,0.7824602907568216
1790107754147653600,5.957653564453125,-0.4922293904364109,-0.31772622548937796,1.200163140258193
1790107754157597400,5.967597412109375,0.22555413774847982,-0.36760698546767234,1.0140046088308095
1790107754167542500,5.97754248046875,0.632422070306912,-0.5167904157191515,0.7801137276306748
1790107754177486300,5.987486328125,0.6441629961788654,-0.6456956125736236,0.654881958591938
1790107754187430700,5.9974306640625,-0.2365795357622206,-0.5007710088104009,1.1591203512519597
1790107754197375500,6.00737548828125,-1.0214309594392776,-0.24550270079970357,1.6364052705347536
1790107754207319600,6.017319580078125,-0.14209259520769119,-0.34302257930934427,1.2055237905085086
1790107754217263400,6.027263427734375,0.3983272640325129,-0.4208206892609596,0.8487135088652372
1790107754227208700,6.037208740234375,0.2240612688422203,-0.2700456059038639,0.6757470519661903
1790107754237152500,6.047152587890625,0.035769013321772215,-0.1251426294505596,0.35252515166997905
1790107754247096600,6.0570966796875,-0.06446575016975402,-0.004691957208514213,0.057335167637467384
1790107754257040400,6.067040283203125,0.1868693100452423,0.013857260438799857,-0.2887777789026499
1790107754266985500,6.0769853515625,0.32261034426912666,0.11695581586360931,-0.7448159120172262
1790107754276929500,6.086929443359375,-0.08492737730965018,0.2969488103985786,-1.1005647019088267
1790107754286873600,6.09687353515625,-0.2099884659565985,0.36105332604050633,-1.4156892204672098
1790107754296818400,6.106818359375,0.05585325851663947,0.44218554885089395,-1.8030875325977802
1790107754306762500,6.116762451171875,0.15841010828018187,0.6856734026968478,-2.2751181846141812
1790107754316706300,6.126706298828125,0.20194179149270056,0.9124182115346193,-2.5928268744468688
1790107754326651600,6.136651611328125,-0.05121931510567665,1.0554740988165139,-2.99991772904098
1790107754336595500,6.146595458984375,-0.3842950854182243,1.1630541835695505,-3.211571936252713
1790107754346539500,6.15653955078125,-0.6509726761937141,1.413961958283186,-3.249060247647762
1790107754356483600,6.166483642578125,-0.6742166275285184,1.665103541752696,-2.973386280468106
1790107754366428700,6.1764287109375,-0.5696574980318546,1.7641168736904858,-2.3918209024995565
1790107754376372500,6.18637255859375,-0.16268194038048386,1.500020531579852,-1.77930918212533
1790107754386316500,6.196316650390625,0.3575672374904156,1.1988257541745901,-1.4935492897391318
1790107754396261400,6.206261474609375,0.7161306464113295,1.0426374135971068,-1.6433716024160385
1790107754406205400,6.216205322265625,0.7514495048128068,0.9736153152972459,-1.918691933852434
1790107754416149500,6.2261494140625,0.6213806710064411,0.9860264685809612,-1.9904419958114623
1790107754426093600,6.236093505859375,0.21674992291554807,0.9719184482514858,-1.8143185361862182
1790107754436038400,6.246038330078125,-0.32072160791307686,1.0949047764509916,-1.5566186171144245
1790107754445982500,6.255982421875,-0.8277249352417886,1.3891098410993814,-0.8134574865669012
1790107754455926500,6.265926513671875,-1.1636121097132563,1.4800029949456452,-0.18107260646522044
1790107754465871600,6.27587158203125,-1.3714967352584004,1.339695529589057,0.44730888321399687
1790107754475815400,6.2858154296875,-1.4616507611751555,1.0261521427422762,1.083202648219466
1790107754485759500,6.295759521484375,-1.5036474899053573,0.4143535390734672,1.576946534872055
1790107754495704300,6.305704345703125,-1.4313967849478124,-0.42875849652290343,1.9994103151649236
1790107754505648600,6.315648681640625,-1.0423743787467479,-1.1297107168942688,2.595260239073634
1790107754515592400,6.325592529296875,-0.4198012830853462,-1.655800875878334,2.90014042699337
1790107754525536500,6.33553662109375,-0.07360781865492462,-1.9088889172405004,2.8981928000569344
1790107754535481900,6.34548193359375,0.0717322340413928,-1.835454847717285,2.6286785245507955
1790107754545426000,6.355426025390625,0.1969929369136691,-1.2657979342073202,2.3978525838792324
1790107754555369700,6.36536962890625,0.08206292778924107,-0.5031622878611087,2.270078436881304
1790107754565315000,6.375315185546875,-0.22398411195278167,0.33371699082553385,2.0953940701484677
1790107754575259000,6.3852587890625,-0.559251839351654,1.2596440877526998,2.0102584569156168
1790107754585203000,6.395202880859375,-0.9507187160953878,1.9935908152312038,1.5291665465652942
1790107754595147800,6.405147705078125,-1.197332300746441,2.4704063634365796,1.1435837594240903
1790107754605092000,6.415092041015625,-1.5513494445398448,2.4007132340073585,1.0768968260735272
1790107754615036000,6.425035888671875,-1.59571787083745,2.153797743800282,0.9712304659873247
1790107754624980000,6.43497998046875,-1.271751289653778,1.9849919137120247,0.6074649583786725
1790107754634924800,6.4449248046875,-1.3757503010496497,1.8210919758439064,0.04009937067627906
1790107754644868900,6.454868896484375,-1.597916549925506,1.6454250278145073,-0.17770751394629478
1790107754654813000,6.46481298828125,-1.2308689519062637,1.4928712443470955,0.08780687826871872
1790107754664758000,6.474758056640625,-0.48197190805524587,1.3503683147728442,0.5798544823974371
1790107754674701800,6.484701904296875,0.2686176189273596,0.8329790563777089,0.9957657723069191
1790107754684646000,6.49464599609375,0.4996063489452004,0.11494681412875651,1.4523065942466258
1790107754694591000,6.504591064453125,-0.061891515767574304,0.18472499149292707,2.4084043730318543
1790107754704535000,6.51453515625,-0.6773109402820467,0.22894728731811045,2.770418068537116
1790107754714478800,6.524478759765625,-1.153370117162168,-0.14918489155620335,2.9015549699664116
1790107754724423000,6.5344228515625,-1.0871584001079202,-0.8227332644343376,3.2377988489210603
1790107754734367700,6.54436767578125,-0.6363719039112329,-1.5341177392318843,3.852947347539663
1790107754744312000,6.55431201171875,-0.317767142021656,-1.984916510388255,4.674257885694503
1790107754754256100,6.564256103515625,-0.3608046119764447,-2.2550340124845505,5.233956299769878
1790107754764201000,6.574200927734375,-0.634482436902821,-2.582545134407282,5.538922996929288
1790107754774144800,6.584144775390625,-0.87158263553828,-2.8555092581063506,5.492803635311127
1790107754784088800,6.5940888671875,-1.047377886122465,-3.0250375572502612,4.966453948608041
1790107754794034000,6.604033935546875,-1.1608441063046455,-3.088559304568171,4.216805794128775
1790107754803978000,6.61397802734375,-1.2138599494382738,-3.0351527085512875,3.466906295236945
1790107754813922000,6.623922119140625,-1.1182897436916828,-2.895677602365613,3.0923090124905106
1790107754823865900,6.633865966796875,-0.6660974723502994,-2.5961189017295836,2.801076826173067
1790107754833811000,6.64381103515625,-0.11860533663630485,-2.1759441091567275,2.146090822684765
1790107754843755000,6.653755126953125,0.24784283418506384,-1.783330108204484,1.5902017377644777
1790107754853699000,6.663698974609375,0.4531108474910259,-1.332457395029068,1.1997720951139925
1790107754863644000,6.673643798828125,0.6321696299158036,-0.7691162405371665,0.9786994866937399
1790107754873588000,6.683587890625,0.9229881208658218,-0.2561328158855438,0.7935299663037061
1790107754883532000,6.693531982421875,1.1111328576743602,0.2569616679251194,0.4912795423656702
1790107754893476000,6.70347607421875,1.2305647082626818,0.7849129446059465,0.11567746649086474
1790107754903421000,6.7134208984375,1.1955272971510886,1.3348112646788357,-0.2518102765113115
1790107754913365000,6.723364990234375,1.0313327602505684,1.8039339202940463,-0.6610685382723808
1790107754923308800,6.733308837890625,0.7813244185946882,2.164820657595992,-1.015620811855793
1790107754933254000,6.74325390625,0.5227915558300912,2.4476854130625725,-1.3277566699922083
1790107754943198000,6.753197998046875,0.9513852902453392,2.7838597339123488,-2.0502970373153686
1790107754953142000,6.76314208984375,0.9534194994866847,3.2021061887711286,-2.196964100831747
1790107754963086800,6.7730869140625,0.8064110021214932,3.655943596971035,-2.15406370126009
1790107754973031200,6.78303125,0.7371813985507935,3.980167367786169,-2.053791309171915
1790107754982975000,6.79297509765625,0.4446702783387154,3.7993794234812257,-1.9501199222952126
1790107754992919000,6.8029189453125,0.5837877301931381,3.7263983584225175,-2.07994749469161
1790107755002863900,6.81286376953125,0.9929927273970097,3.491544477409124,-2.2404361628115175
1790107755012808000,6.822807861328125,1.3737234713971613,2.69674259147346,-2.429778584972024
1790107755022752000,6.832751953125,1.7166040118873118,1.5033108052968978,-2.4677882898926735
1790107755032697000,6.842697021484375,1.7228595651507377,0.36663901721835135,-2.1903087345957757
1790107755042641000,6.852640869140625,0.5550865363657475,-0.6119611007541418,-2.0050188026964664
1790107755052585000,6.8625849609375,-0.842495949524641,-1.3983657452225684,-1.4878034395635127
1790107755062528800,6.87252880859375,-2.3775556457817553,-1.9240151747018097,-0.9646376435935496
1790107755072474000,6.88247412109375,-3.5255671585202215,-2.5255080729335546,-0.636364305126667
1790107755082418000,6.89241796875,-3.03432677912116,-2.8481945511788127,-0.25670623185932634
1790107755092362000,6.902362060546875,-1.379483350098133,-2.9520775349795816,0.24331571214944123
1790107755102306800,6.912306884765625,0.9740121325951069,-2.7148031488209963,0.7808794513061642
1790107755112251100,6.922251220703125,2.6418378658533093,-2.2441502148985863,0.9546402734532952
1790107755122195000,6.93219482421875,2.2605660737790165,-1.6864397597700356,0.54583121676445
1790107755132140000,6.94214013671875,0.40070261486172676,-1.3184265315890311,0.15389263085573912
1790107755142083800,6.952083740234375,-1.4574037712551653,-0.9479647412121296,0.27222587255239483
1790107755152028000,6.96202783203125,-2.3199790706038472,-0.3547223694533109,0.39608489193320273
1790107755161972000,6.971971923828125,-1.574393343257904,0.24356501073539255,0.016693652908504008
1790107755171917000,6.9819169921875,-0.23989713587760925,0.7614204253375529,-0.6368161405473947
1790107755181860900,6.99186083984375,0.5103646204553545,1.2616776394069193,-0.39800679990649224
1790107755191805000,7.001804931640625,0.6373170758068561,2.0205244148641825,0.39511049394309516
1790107755201750000,7.01175,1.1459631288412957,2.7417934470772742,0.3795551974147558
1790107755211694000,7.021694091796875,1.2659504944205284,2.9097727632135153,-0.5325277908161282
1790107755221638000,7.031637939453125,0.9485562042992561,2.7916631011396644,-1.3241624448925255
1790107755231582000,7.04158203125,0.6500338609736412,2.587487266984582,-1.9538816129162906
1790107755241526800,7.05152685546875,0.6812555862545967,2.1665227853387594,-2.258080832834542
1790107755251471000,7.06147119140625,1.1695863618172704,1.4701923795491456,-2.8704437923878428
1790107755261415000,7.071414794921875,0.7739981673598288,0.9085533528000116,-3.179721630744636
1790107755271360000,7.081360107421875,0.6030876200772821,0.5783475849658251,-3.1814263888359067
1790107755281303800,7.0913037109375,1.002723847816512,0.3321510566830635,-3.2420193892255424
1790107755291247900,7.101247802734375,0.837018760222569,0.32239597086608407,-2.7777637551248073
1790107755301192000,7.11119189453125,0.6451729769390075,0.4489449599832296,-2.09696555724889
1790107755311137000,7.121136962890625,0.23592238702774046,0.6680167499750852,-1.03851010453403
1790107755321080800,7.131080810546875,-0.1979785869501531,0.8544821553945541,0.14824965653270483
1790107755331025000,7.14102490234375,0.19841829354166984,0.7998252670556306,0.6019488253057003
1790107755340970000,7.150969970703125,0.7034964980266988,0.4469494022518396,0.5370376694560051
1790107755350914000,7.1609140625,0.43569457939639683,0.13937164581120012,0.7759130610704421
1790107755360857900,7.17085791015625,-0.09572831891775131,-0.176364282643795,1.2693749159112573
1790107755370802000,7.180802001953125,-0.1364835231542587,-0.5764665935248137,1.5224609114468097
1790107755380746800,7.190746826171875,0.19912322694063186,-1.088891215249896,1.4870540825009344
1790107755390691000,7.200691162109375,0.22244331225156783,-1.424519592654705,1.5240110634982584
1790107755400635000,7.210634765625,-0.3147358115017414,-1.4880594601511954,1.7622464036434888
1790107755410580000,7.220580078125,-0.8401894261479377,-1.4457903442203999,1.9242805476397276
1790107755420523800,7.230523681640625,-0.5922900394700468,-1.4903344193458556,1.6876970663547515
1790107755430467800,7.2404677734375,-0.16568609063252807,-1.4897960746854544,1.257659051415324
1790107755440412200,7.250412109375,-0.27433015135526656,-1.3694319116830824,0.9001981969088315
1790107755450357000,7.26035693359375,-0.4819954350613057,-1.069797223201394,0.351495808622241
1790107755460300800,7.27030078125,-0.6680114892780781,-0.6442939290821552,-0.33903204836845396
1790107755470244900,7.280244873046875,-0.9263619812130928,-0.22289690123796463,-1.0203712212532758
1790107755480190000,7.29018994140625,-0.5695407397843897,0.0952016646951437,-1.8976146590322256
1790107755490134000,7.300134033203125,-0.26880174332261086,0.22884441146552562,-2.632834475186467
1790107755500078000,7.310078125,-0.16718860414996742,0.23253800528645513,-2.8844436761677263
1790107755510023000,7.32002294921875,-0.34528526354432104,0.24876199485659597,-2.742793564030528
1790107755519966700,7.329966796875,-0.5820177979111671,0.1670972726047039,-2.6355484103202818
1790107755529911000,7.3399111328125,-0.38192645659074187,0.13947744427323341,-2.160695686620474
1790107755539855000,7.349855224609375,-0.16904826054200528,0.2028764419943094,-1.656602839910984
1790107755549800000,7.359800048828125,-0.06955942004695534,0.30321663862168785,-1.5106833798915147
1790107755559744000,7.369743896484375,0.02636208335533738,0.5932593228936195,-1.6163438947588205
1790107755569688000,7.37968798828125,-0.0946117359779775,0.8267623738199472,-1.595868677484989
1790107755579633000,7.3896328125,0.2718563085876405,0.8924328236043453,-1.448710615581274
1790107755589577000,7.399576904296875,1.0465101633772254,1.0730015722006558,-1.2438649193406104
1790107755599521000,7.40952099609375,1.1980908640287815,1.5780723240315913,-1.6688690317660568
1790107755609465000,7.419465087890625,0.5883233277961611,2.0514929691016675,-2.1690765614748
1790107755619410000,7.429409912109375,-0.03901654387563467,2.375426232537627,-2.0106898340702055
1790107755629354000,7.43935400390625,-0.06112433078736067,2.367734508991241,-1.3313596629202364
1790107755639298000,7.449298095703125,-0.13505641296058893,2.276048158940673,-0.44210722291767596
1790107755649243100,7.4592431640625,-0.30177593829408283,2.3880700255334375,0.26472587218582627
1790107755659187200,7.469187255859375,-0.41652006945759057,2.7684306941121815,0.608642769986391
1790107755669131000,7.479131103515625,-0.5369980680979788,2.6483967859774826,0.6750725137054919
1790107755679075000,7.489074951171875,-0.07387742937654257,2.39183317745924,0.7038415120720863
1790107755689020000,7.49902001953125,0.28668694410324097,1.995536104080081,0.3438981931000948
1790107755698964200,7.508964111328125,0.5987725333571434,1.5712334179222582,-0.019766776743531226
1790107755708908000,7.518907958984375,1.00232878408432,1.2655857527613639,-0.21138474262058735
1790107755718853000,7.52885302734375,0.9145812347874045,0.9025707712590694,0.004936287358403206
1790107755728797000,7.538796875,0.6193734228372574,0.4660533311724662,0.24058862527310848
1790107755738741000,7.548740966796875,0.39463293955922124,0.02502864279448986,0.5634633195668458
1790107755748685000,7.55868505859375,0.46491585157513615,-0.27046237001121043,0.8023574158817529
1790107755758630100,7.568630126953125,0.5211760834574699,-0.36996786938011644,1.0315642309188842
1790107755768574000,7.578573974609375,0.37473464539051055,0.03159048552811146,1.4402765492349863
1790107755778518000,7.58851806640625,-0.3043219695150852,0.4038853365510702,2.0200006832510233
1790107755788463000,7.598463134765625,-0.8435612406685948,0.6947925286978482,3.070305854997039
1790107755798407200,7.6084072265625,-0.9587857026949524,0.8631494459748268,3.8411300684958696
1790107755808351000,7.61835107421875,-1.001448494118452,0.43398061508536334,4.0549095972985025
1790107755818295000,7.628294921875,-0.8095067031145096,-0.4058355938360095,3.936690045109391
1790107755828240000,7.638239990234375,-0.7803907910063862,-0.6912912425786256,3.689817225000262
1790107755838184200,7.64818408203125,-1.1995634207993746,-0.525057016544044,3.272856133776903
1790107755848128000,7.6581279296875,-1.5278700770139693,-0.8833765337064862,2.709302797839045
1790107755858073000,7.668072998046875,-0.8872305787861346,-1.6781851416438818,2.889819523987174
1790107755868017000,7.678016845703125,-0.2681149301022291,-1.7340218874171376,4.153637682554126
1790107755877961000,7.6879609375,-0.7364704007372259,-1.3123527646332978,4.783313303697109
1790107755887905000,7.697905029296875,-0.7941691409900784,-1.3193018531188367,3.9187610051870343
1790107755897850000,7.70785009765625,-0.45359512387663126,-1.2831120571017265,2.704461787548661
1790107755907794000,7.7177939453125,-0.6273895560324192,-0.6967217431947589,1.8386603657603262
1790107755917738000,7.727738037109375,-0.8459586571991443,-0.11802929031401872,1.2958078725457192
1790107755927683000,7.73768310546875,-0.7017746426701545,-0.020496260061860082,1.3310071962207555
1790107755937627100,7.747627197265625,-0.39009208125919104,-0.29567046102583405,2.002875945448875
1790107755947571000,7.757571044921875,0.18708704444915056,-0.4370680597066879,2.427854923433065
1790107755957515000,7.767514892578125,0.6211478851638734,-0.48343642764985556,2.025575268512964
1790107755967459800,7.7774599609375,0.603633417391777,-0.6205237619161605,1.2924796049058436
1790107755977404200,7.787404052734375,0.3094251378729939,-0.8721651116013527,1.2393144164294003
1790107755987348000,7.797347900390625,-0.07461670343652367,-1.1451344959974288,1.713133120906353
1790107755997293000,7.80729296875,-0.2432473230883479,-1.3483254107683895,2.0836042636334895
1790107756007236900,7.81723681640625,-0.4693170091435313,-1.4983394466251134,2.113026172950864
1790107756017181000,7.827180908203125,-0.7559034154817461,-1.6365777044922112,1.9645278023540973
1790107756027125200,7.837125244140625,-0.9249225960597396,-1.7499778737008571,1.7116250544309615
1790107756037070000,7.847070068359375,-1.0707542316652834,-1.7609639626175164,1.5326871219068765
1790107756047014000,7.857013916015625,-1.1894029690518975,-1.7272113306194543,1.5065280137777328
1790107756056958000,7.8669580078125,-1.206256927088648,-1.7471780138492583,1.4707359849065542
1790107756066903000,7.876903076171875,-0.9502665884137153,-1.5838503229111431,1.2974953872412442
1790107756076847000,7.88684716796875,-0.5259866986095905,-1.1812076798975466,1.0549942063450812
1790107756086791000,7.896791015625,-0.10925883162021637,-0.7718880433380604,0.7608668831080198
1790107756096735000,7.90673486328125,-0.041626141852140426,-0.42433834199309345,0.713879506483674
1790107756106679800,7.9166796875,-0.16314707367420195,-0.1986070941120386,1.0201613778948784
1790107756116624100,7.9266240234375,0.2023302062883973,0.03791325880885124,0.97146310569942
1790107756126568200,7.936568115234375,0.6932710182189941,0.3998667485594749,0.7399538589388132
1790107756136513000,7.946512939453125,0.5953203470766544,0.7283510994285345,0.6416752710163592
1790107756146456800,7.956456787109375,0.5805973366539925,1.1751584628611802,0.5447685559689999
1790107756156401000,7.96640087890625,0.8449533526141196,1.526426892468333,0.22906126908659932
1790107756166345200,7.97634521484375,1.0390285754501818,1.67885967990458,-0.36135669290125366
1790107756176290000,7.9862900390625,1.2149685682673006,2.080606250861287,-1.1300152527987957
1790107756186234000,7.996234130859375,1.4243360527813433,2.314052603164315,-1.6067460453301667
1790107756196178000,8.006177978515625,1.7903285887897014,2.7332635191410777,-2.394848725888133
1790107756206123000,8.016123046875,1.9738591098010538,3.138489748907089,-2.85970670979619
1790107756216067000,8.026067138671875,1.8733236828625202,3.2192619062334296,-2.1921073084503413
1790107756226011100,8.03601123046875,1.3488088103711604,2.5871669489890334,-1.51486972566545
1790107756235955000,8.045954833984375,1.1572353412229568,2.354432544347644,-0.9108324036478995
1790107756245900000,8.055900146484374,-0.3662123162388801,2.099515533992648,-0.8699813378214836
1790107756255844000,8.065843994140625,-1.9077017532825469,1.5066513478964567,-0.6236287421941756
1790107756265788200,8.0757880859375,-1.4657225406587122,0.9051765698432922,-0.0275888486713171
1790107756275733000,8.08573291015625,0.3588671411078423,0.5466805270701647,0.3417158806249499
1790107756285677000,8.095677001953124,2.0859902819871903,0.5799100119769572,0.09053075027465819
1790107756295620900,8.105620849609375,2.1044564975261686,0.44875089871585366,-0.31480712317228315
1790107756305565200,8.115565185546876,0.8277286615688353,0.17736790672838687,-0.720347241193056
1790107756315510000,8.125510009765625,0.15821955414414404,-0.011996142742037773,-0.8889011423468589
1790107756325454000,8.1354541015625,-0.4948561587434262,0.12393442270457744,-0.7968161483675241
1790107756335398000,8.14539794921875,-0.38617140068411826,0.42089258545339103,-0.718499275238812
1790107756345342000,8.155342041015626,0.6766145555157214,0.7380214295715093,-0.6584782295182346
1790107756355287000,8.165287109375,1.4958932225167751,0.7414718622863292,-1.7226301403090356
1790107756365231000,8.175231201171876,1.2776175513386725,0.7576561043679714,-1.8528601560264826
1790107756375175000,8.1851748046875,1.0370634128570555,0.6549263822555541,-1.1698270387053489
1790107756385120000,8.1951201171875,1.2793559194386004,0.487106056073308,-1.382721016845107
1790107756395064000,8.20506396484375,1.4594588040888308,0.323225991949439,-2.5766870560288426
1790107756405008100,8.215008056640626,1.1297299330513924,0.16344225722849368,-3.133122668915987
1790107756414952000,8.224951904296875,0.731346701047942,0.0895154357522726,-2.6215944115087386
1790107756424897000,8.23489697265625,0.8484872988939285,0.03191606422066688,-2.6048843919873237
1790107756434840800,8.2448408203125,0.7556068436879664,-0.022874679630994797,-2.8428058438777923
1790107756444785200,8.25478515625,0.8094880714792758,-0.20331658697724342,-2.9610256883278487
1790107756454730000,8.26472998046875,0.20263978369422256,-0.347094358792901,-2.3352459055796264
1790107756464674000,8.274674072265626,0.07529927887320519,-0.4054191219896078,-1.6762492051452398
1790107756474617900,8.284617919921875,0.5797136856872588,-0.47019233067333693,-1.578123177435994
1790107756484562000,8.29456201171875,0.21432671435661613,-0.36277591204941273,-1.3242881170988081
1790107756494507000,8.304507080078125,-0.20283267591781914,-0.015142624074220656,-0.9792115278691053
1790107756504451000,8.314451171875,-0.5470820205431431,0.38603579160571094,-0.4522220819577574
1790107756514395000,8.324394775390624,0.33647191555686295,0.5029115279704333,-0.5615834971696138
1790107756524340000,8.334340087890626,0.7221206806063651,0.44964872433841224,-0.5205298945084214
1790107756534283800,8.34428369140625,0.0018633827190846204,0.6201467452973127,0.21377309906184672
1790107756544227800,8.354227783203125,-0.7259270871520042,0.8728717985659837,1.0696417403787375
1790107756554172000,8.364171875,-0.45666364460177716,0.9509902265131474,1.4569325004816054
1790107756564116700,8.37411669921875,0.03037643356323242,0.9850392111092805,1.5137345841556786
1790107756574060800,8.384060791015624,0.24703626704253254,1.0989052442640066,1.3892892893195152
1790107756584004900,8.3940048828125,-0.054326779601722955,1.2482897500455379,1.3356541452437638
1790107756593949700,8.40394970703125,-0.4942680566571653,1.3385264858096837,1.2912801659882067
1790107756603893800,8.413893798828125,-0.01846738458275795,1.1119622942358254,0.9069932638764381
1790107756613837800,8.423837890625,0.7483539499502628,0.607057546621561,0.33614801736474037
1790107756623782000,8.433781982421875,0.7362169374328106,0.09775310274362564,-0.15559680442512033
1790107756633726700,8.443726806640624,0.6839198370277881,-0.24959435402750968,-0.6607476357549429
1790107756643670800,8.4536708984375,-0.06114471598826349,-0.16939385910928248,-1.0563006127685308
1790107756653614800,8.46361474609375,-1.003929205018282,-0.0577829114049673,-1.3496025910973548
1790107756663558700,8.47355859375,-0.47640302188172934,-0.40481414183378217,-2.082068724629283
1790107756673504000,8.48350390625,0.02664703777655959,-0.41606092751324175,-3.0604145755797623
1790107756683447800,8.49344775390625,-0.02670212896466255,-0.011460720691084862,-3.622697745451331
1790107756693392000,8.503391845703124,0.062142567919194695,0.3554331480711698,-3.587286824852228
1790107756703336700,8.513336669921875,0.4607048097513616,0.5733651203781366,-3.224932353085279
1790107756713281000,8.523281005859374,0.7154537700630724,0.9062468294233084,-2.829898431509733
1790107756723224800,8.533224853515625,0.33166721868887544,1.29880880792737,-2.439282910898328
1790107756733169000,8.5431689453125,-0.14709025736451148,1.39629244607985,-2.098070595881343
1790107756743113700,8.55311376953125,-0.18071444067731499,1.38098089517951,-1.3614368212759493
1790107756753057800,8.563057861328126,0.12559256517514586,1.253513622173667,-0.5641133079081774
1790107756763001900,8.573001953125,0.1804093202508986,1.2171698046386241,-0.0379237802028656
1790107756772947000,8.582947021484374,-0.012342764222621917,1.1284382127404213,0.14454408001303673
1790107756782890800,8.592890869140625,-0.18434417548179624,0.9745277539670467,0.10775661036372185
1790107756792834800,8.602834716796876,-0.3624047406494617,0.8367734802246093,-0.15920155091881752
1790107756802778600,8.612778564453125,-0.6122495623067021,0.8859861316829919,-0.11995850481092929
1790107756812724000,8.622723876953126,-0.897202229963243,0.9558598783761262,0.12221417478322982
1790107756822667800,8.632667724609375,-1.207999825233221,0.7055985848724842,0.33173838422894475
1790107756832611800,8.64261181640625,-0.8410507191523909,0.3461053477555513,0.7114554942071437
1790107756842555600,8.6525556640625,-0.4851692427918315,0.17407061874866483,0.6311480317831039
1790107756852501000,8.6625009765625,-0.6038201721355319,0.28672902967929836,0.08625497265160083
1790107756862444800,8.67244482421875,-0.7131742808237671,0.479084662181139,-0.8216904773831367
1790107756872388900,8.682388916015626,-0.6434218224227428,0.742882313606143,-1.3844430183321237
1790107756882333700,8.692333740234375,-0.9546911268576979,1.089137298965454,-0.9604512978196144
1790107756892277800,8.70227783203125,-1.3947893480405211,1.4158242450237273,0.03751286131441593
1790107756902221800,8.712221923828125,-1.5272072291910648,1.5080968705296516,1.0232137512028217
1790107756912166000,8.722165771484375,-1.4897344076260923,1.2351438527464866,1.7250380782335997
1790107756922110700,8.73211083984375,-1.3046882213547826,0.8509691788375378,2.1871564080446957
1790107756932054800,8.7420546875,-1.0380831112936137,0.41833588670790195,2.346082649153471
1790107756941998800,8.751998779296875,-1.0811372401222585,0.18725450997054577,2.4684634126752614
1790107756951944000,8.76194384765625,-1.6266873018577694,0.503560931789875,2.782523516872525
1790107756961887700,8.7718876953125,-2.2887509886473416,0.8030532891914248,3.4757734923034906
1790107756971831800,8.781831787109375,-2.6913851560935376,0.4025479504674673,4.08242362716794
1790107756981776000,8.79177587890625,-2.780463369472325,-0.6046522390455007,4.096192624801397
1790107756991721000,8.801720947265625,-2.56704098354429,-1.2696747756406663,4.141025453740358
1790107757001664800,8.811664794921874,-2.239794357776642,-1.4424562313616276,4.005250371116399
1790107757011608800,8.82160888671875,-2.051478940576315,-1.6200179070964456,3.3447657702118154
1790107757021553000,8.831552978515624,-1.5837699511513113,-2.194113972097635,3.1389982829511163
1790107757031497700,8.841497802734375,-1.2155600313544273,-2.059292829197645,4.768301612526178
1790107757041441800,8.85144189453125,-1.0780299217566847,-1.5529767534807324,5.7339984097838395
1790107757051385900,8.8613857421875,-1.2209899474486707,-1.3597653809323906,4.6079812867105
1790107757061330700,8.87133056640625,-0.6377680344447493,-1.6605644370183348,2.9669273135870693
1790107757071274800,8.881274658203125,0.043347851078212256,-1.41373954770416,2.600333304554224
1790107757081218800,8.89121875,0.2945908490955829,-1.0288707540512085,2.25231189404428
1790107757091163000,8.901162841796875,-0.07289923199415206,-0.6212889010697603,1.6080430994033812
1790107757101107700,8.911107666015624,-0.5938780393138527,-0.5358084199219941,1.5238152486652135
1790107757111051800,8.9210517578125,-0.6705912766382098,-0.5046843828618526,2.12841955691576
1790107757120995800,8.930995849609374,-0.321146555326879,-0.3865039936393499,2.2197832508832214
1790107757130941000,8.94094091796875,-0.08187193526178597,-0.34267128165364263,2.0100971288740634
1790107757140885000,8.950885009765624,0.2772689812861383,-0.5823153195530176,2.0053630860894915
1790107757150828800,8.960828857421875,0.7864648502230643,-0.7540612947463989,2.2338287273705006
1790107757160772900,8.97077294921875,1.0961726044297218,-0.9402280094802379,2.601930802878737
1790107757170717700,8.9807177734375,1.0340297442495823,-0.9681360071033239,2.6160692183464764
1790107757180662000,8.990662109375,0.6892591522291303,-0.9777133982658386,2.26570212149322
1790107757190605800,9.000605712890625,0.2463669164136052,-1.0300625941842794,1.917362146553397
1790107757200550000,9.0105498046875,0.0999975206695497,-1.0329816965013743,1.661653109037876
1790107757210494700,9.02049462890625,0.12307824426665902,-0.7438608032494783,1.4701298357069492
1790107757220438800,9.030438720703126,0.07901333096027374,-0.3889718450576067,1.1657184343427418
1790107757230382800,9.0403828125,0.10745032089352607,0.02493570381402969,0.7534060457080602
1790107757240328000,9.050327880859374,0.050570349677652116,0.5243593896687031,0.4007037839055061
1790107757250271700,9.060271728515625,-0.0447077412545681,1.0264905809164047,-0.11283785915076731
1790107757260215800,9.0702158203125,0.1535118148446083,1.5103092858821152,-0.5680997471958399
1790107757270159600,9.08015966796875,0.1950352269746363,1.8619161536633968,-0.6578408083975315
1790107757280105000,9.09010498046875,0.5628526403225959,2.1793682383865116,-0.725097650590539
1790107757290048800,9.100048828125,0.7042012852951884,2.349914774662256,-0.45139586026668543
1790107757299992800,9.109992919921876,0.8030757932841778,2.320561254405975,-0.009542319849133491
1790107757309936600,9.1199365234375,0.8912192100308834,2.240449022293091,0.21264438729286192
1790107757319882000,9.129882080078126,0.6281399360083043,2.0107371803432703,0.0032283143967390057
1790107757329825800,9.13982568359375,1.1159211148642003,1.9526374580740928,-0.6633376522481441
1790107757339769900,9.149769775390626,1.0726173951886593,2.188660967388749,-1.9404069220542906
1790107757349714700,9.159714599609375,-0.21754969499111174,2.1549100889563557,-3.5559780788749453
1790107757359658800,9.16965869140625,-1.6290354724191127,2.1237316913604736,-4.617777289059758
1790107757369602800,9.179602783203125,-2.8859038118481632,2.102408332824707,-4.268913582506776
1790107757379547000,9.189546875,-3.1172070146426556,1.2167922034978866,-2.7363959719479083
1790107757389491700,9.19949169921875,-1.2137294549264013,0.1630845298320055,-0.9498159220367669
1790107757399435800,9.209435791015625,0.789349904140085,-0.6242699627071618,-0.08930997630804777
1790107757409379800,9.2193798828125,1.4468915834605693,-1.0913543904930352,-0.13793664457201957
1790107757419325000,9.229324951171876,0.7304279057025909,-0.9723445647090673,-0.2455129299327731
1790107757429268700,9.239268798828125,0.10203078006282448,-0.560854013851285,-0.44878889263868327
1790107757439212800,9.249212890625,-0.1585831267595291,0.05648585733175277,-0.9160396169021725
1790107757449156900,9.259156982421874,-0.7526222018539905,0.5704068550944328,-0.9981178883910179
1790107757459102000,9.26910205078125,-0.6706954676650464,1.2168757901281118,-1.1538333507597445
1790107757469045800,9.279045654296874,-0.030610242319107053,1.6546218952268361,-1.5144111682429908
1790107757478989800,9.28898974609375,0.6506712090291082,1.9395780700147152,-1.3046680553495884
1790107757488934000,9.298933837890624,1.3608484999939798,1.9759657266914843,-1.6160636165127158
1790107757498878700,9.308878662109375,1.524719650159031,1.5849270122319459,-2.3629978358581663
1790107757508823000,9.318822998046874,0.9721277070879936,0.8863374293386935,-3.506058155930042
1790107757518766800,9.328766845703125,-0.006499883413314819,0.44669104357659817,-3.0959149280279874
1790107757528711700,9.338711669921874,0.23969591421708464,0.22349369808733463,-2.4918857893168926
1790107757538656300,9.34865625,0.5133974122799932,0.11338204903006553,-2.1643360889494416
1790107757548600300,9.358600341796874,0.5312767678417265,0.20892916616201399,-1.8213193548589943
1790107757558544100,9.368544189453125,0.8693675898373127,0.10287994423806666,-2.040313987961411
1790107757568489200,9.3784892578125,0.6234943021595478,-0.14589666366577148,-2.3400556439489124
1790107757578433300,9.388433349609375,-0.24687289317436514,-0.10835749886631965,-2.301642618924379
1790107757588377300,9.39837744140625,-0.6577531301140784,0.004881926822662353,-2.3419360508680342
1790107757598321200,9.408321044921875,-0.6448797661460935,0.0349304436057806,-2.428025019302964
1790107757608266200,9.418266357421874,-0.48373380316123366,0.06298983239829539,-2.4406878092601896
1790107757618210300,9.428210205078125,-0.3851837048210203,-0.11183481958806514,-2.265119937691092
1790107757628154400,9.438154296875,-1.0893288760147988,-0.23815759873390197,-1.3723054212927817
1790107757638099200,9.44809912109375,-1.063771387040615,-0.5124193610280752,-0.6923103564932942
1790107757648043500,9.45804345703125,-0.9135669431783259,-0.8269599422186613,-0.057679158769547934
1790107757657987300,9.4679873046875,-0.9050431527219712,-0.8942904341697693,0.4594762908697128
1790107757667931400,9.477931396484376,-0.8629236743949353,-0.5986152969688177,0.8303270805642008
1790107757677876200,9.487876220703125,-0.4095439468346536,-0.21499591885507105,0.8526616619691252
1790107757687820300,9.4978203125,-0.18110124803781508,0.26935470103025433,0.8541022161662578
1790107757697764000,9.50776416015625,-0.0345111952804029,0.7686486230254173,0.8387818974375725
1790107757707708400,9.51770849609375,-0.49279623053893445,1.2812696441054343,0.9844541046977042
1790107757717653200,9.5276533203125,-0.7153029634155332,1.6915373751699923,0.9598644378423691
1790107757727597300,9.537597412109376,-0.02284311544895172,1.8637328476965427,0.5970493628263474
1790107757737541000,9.547541015625,0.5912928451262414,1.6631611755132674,0.1319581546843052
1790107757747486500,9.557486572265624,-0.1666774397574365,1.5290069720894097,0.2462263388991356
1790107757757430300,9.56743017578125,0.12313318932428956,1.090008236581087,0.19588263758420943
1790107757767374300,9.577374267578126,0.34182474782690403,0.7528980961859226,-0.12004735213816166
1790107757777318100,9.587318115234375,0.5327937482759356,0.502443910458684,-0.9078940121084451
1790107757787263500,9.597263427734376,0.5543979695796967,0.36178047127127644,-1.73111710588634
1790107757797207300,9.607207275390625,0.4804898528039455,0.38123335976004596,-2.5592870084166526
1790107757807151400,9.6171513671875,-0.02638882523179054,0.6153688633710146,-3.0694927850484848
1790107757817095200,9.62709521484375,-0.10388006119132041,0.7138911969214677,-3.0659178491711616
1790107757827040300,9.637040283203126,-0.2751870604455471,0.9210229582726955,-2.7681793496996163
1790107757836984300,9.646984375,-0.6121922791615129,1.083410153490305,-2.1957915499210356
1790107757846928400,9.656928466796876,-0.306162190554291,1.098978894022107,-1.3605559467881918
1790107757856873200,9.666873291015625,0.3446292838536203,1.2681132254123686,-1.0484785408407449
1790107757866817300,9.6768173828125,0.6330033042609692,1.5381962407171725,-0.9535311431676149
1790107757876761000,9.686760986328125,0.5527591163314879,1.6651140631467103,-0.9616770402222872
1790107757886705200,9.696705078125,0.24458383238911627,1.5012304918915031,-1.3513544032007454
1790107757896650200,9.706650146484375,-0.06780468533411621,1.291878716403246,-1.7491870155841112
1790107757906594300,9.71659423828125,-0.06391425376683474,0.8734159884452819,-1.5773124455749987
1790107757916538000,9.7265380859375,-0.3442556282356381,0.5560819771438836,-0.8287491637229919
1790107757926482200,9.736482177734375,-0.49016953529715535,0.3584714928537607,-0.02640110019147396
1790107757936427300,9.74642724609375,-0.7540005044698714,0.3027618805915117,0.5795540381461382
1790107757946371300,9.756371337890625,-1.2754713330902159,0.325132117831707,0.9050731094688177
1790107757956315400,9.7663154296875,-1.1854860878691076,0.12652911537289618,0.6939993324935436
1790107757966260200,9.77626025390625,-0.26368483870029447,-0.0036760581642389296,0.5175397727817297
1790107757976204300,9.786204345703124,0.6273664674177766,0.5420043519526719,0.29721827498972414
1790107757986148400,9.7961484375,0.4853308630943298,1.4839105237782,-0.31377076586186886
1790107757996092400,9.806092529296874,0.3905731427744031,2.275834808450937,-0.8853665384799242
1790107758006037200,9.816037353515625,-0.24422376690506933,2.8034254351258276,-1.2378057654321193
1790107758015981300,9.825981201171874,-1.276842767573893,2.844309818699956,-1.2730956900000572
1790107758025925000,9.835925048828125,-1.9611255926951765,2.469667527768016,-0.43524552045464515
1790107758035869400,9.845869384765624,-2.390114098581672,1.8413111725300548,0.8728314665555953
1790107758045814300,9.855814208984375,-2.8747023266151546,1.1316752949655056,2.45100958904922
1790107758055758300,9.86575830078125,-3.031626580251753,0.5549719700753688,3.869318052104115
1790107758065702100,9.8757021484375,-2.450709437058866,-0.22459230697900057,4.580892788776755
1790107758075647200,9.885647216796874,-1.6064306957706809,-1.3017717493861913,4.850191960227489
1790107758085591300,9.89559130859375,-1.3228159987196326,-2.0774124232560394,4.7690246661037206
1790107758095535400,9.905535400390624,-1.619542983061075,-2.0538459619686007,4.333782652780413
1790107758105479200,9.915479248046875,-2.2362170838117597,-1.6024202910855412,3.6334038483828306
1790107758115424500,9.925424560546874,-3.0956048391655084,-1.1695987829074264,3.266382553848624
1790107758125368300,9.935368408203125,-3.498943063227832,-1.0148810994043946,3.2802310464590785
1790107758135312400,9.9453125,-2.9670404185727235,-1.3414645850881934,3.9328509053379297
1790107758145256200,9.955256103515625,-1.8446353485167026,-1.9043734856426715,5.09928011829853
1790107758155201300,9.965201171875,-1.3515762292578815,-2.0401646426185964,6.298724296632408
1790107758165145000,9.97514501953125,-1.6853566407084464,-2.1323054584383963,6.860749692350626
1790107758175089400,9.98508935546875,-1.6855264443174003,-2.5668925149843096,6.795729815429449
1790107758185033200,9.995033203125,-0.7173772854715585,-3.0484815612018106,5.689795695441961
1790107758194978300,10.004978271484376,0.3417313704550266,-2.903456419673562,3.051442164573073
1790107758204922000,10.014922119140625,-0.09935118559002876,-1.743607169625163,0.43111061260700223
1790107758214866200,10.0248662109375,-1.2453691864237189,-0.2600859374254942,-0.02638064192533493
1790107758224811300,10.034811279296875,-1.9007927045464514,0.29559973387718197,1.057232925182581
1790107758234755300,10.04475537109375,-1.972531076067686,0.17336510082781315,1.8383049764513968
1790107758244699100,10.05469921875,-1.3983321352139115,-0.11175357104539871,2.076195448681712
1790107758254643200,10.064643310546876,-0.5788618180982769,-0.20448796884417533,1.9550527025222777
1790107758264588300,10.07458837890625,0.40338147868216034,-0.20169512325525282,1.7709464274495839
1790107758274532400,10.084532470703126,0.9854057063341141,-0.19378069686889648,1.6199334436833857
1790107758284476200,10.09447607421875,0.9499391100250184,-0.14111878173947334,1.584180577778816
1790107758294420200,10.104420166015625,0.673412471538782,-0.09176993668079375,1.8941636417955159
1790107758304365300,10.114365234375,0.6514660126686096,-0.002513444125652313,2.099181187471747
1790107758314309400,10.124309326171876,0.7313678169012069,0.19644377859830855,1.969133250322938
1790107758324253400,10.13425341796875,0.6496060640156268,0.5498942284196615,1.3595932392358778
1790107758334198300,10.1441982421875,0.4011912751615047,0.8569961840420961,0.4613888464927673
1790107758344142000,10.15414208984375,0.16293796096816657,1.209935761731863,-0.24577917965352533
1790107758354086100,10.164086181640625,0.4160639962531626,1.6192010377556085,-0.7779682400345802
1790107758364030500,10.174030517578124,0.8640404034651815,2.080046863412857,-0.9679454529672861
1790107758373975300,10.183975341796875,0.916754779434204,2.648278712555766,-0.7697469396561384
1790107758383919400,10.19391943359375,0.8545897074222564,3.0439181988090276,-0.35426176620423794
1790107758393863200,10.20386328125,0.6379847459353506,3.160444391083717,-0.1725999616742134
1790107758403807200,10.21380712890625,0.641177477562055,3.063380439648032,0.03422843281626701
1790107758413752300,10.22375244140625,0.6659737729053944,2.4769582692980765,0.3456611111193895
1790107758423696400,10.2336962890625,0.9340459598444402,1.2927800491571426,0.48294601378440855
1790107758433640200,10.24364013671875,1.3106195110999046,0.14303659805953503,0.20675357568860053
1790107758443585300,10.253585205078124,1.4314824174046517,-0.37178164080381393,-0.3660357906281948
1790107758453529300,10.263529296875,1.033190297750756,-0.5282838696360588,-1.4443530048936604
1790107758463473400,10.273473388671874,0.3642204117693007,-0.12553016746342183,-2.7849709100246427
1790107758473417200,10.283417236328125,-0.6310286431871355,0.643740386852622,-3.704084819805622
1790107758483362300,10.2933623046875,-1.6689666469216347,1.2875690365105867,-4.0871845579594375
1790107758493306000,10.30330615234375,-2.20108030397892,1.200871580788493,-3.4876410402297973
1790107758503250400,10.31325048828125,-0.8569114283680915,0.8159627473860979,-1.7722347136944532
1790107758513194200,10.3231943359375,0.515690930044651,0.9303104265779256,-0.6713783353626728
1790107758523139300,10.333139404296874,1.4262158751785754,1.2815905466228723,-0.4355141082629561
1790107758533083000,10.343082763671875,1.4205214629292486,1.4731173270851372,-0.7360539288908243
1790107758543027000,10.35302685546875,0.7477005275428295,1.4681974063396452,-0.7285889998376369
1790107758552971000,10.362970947265625,0.5638016846757382,1.8922078315526245,-0.6989134080201387
1790107758562915800,10.372915771484376,0.7556557243309915,2.40048643951416,-1.2958350528135896
1790107758572860000,10.38285986328125,0.9000689445059746,2.6107126597493884,-2.0108669442027804
1790107758582804000,10.392803955078126,0.8940741610705852,2.557624628162384,-1.9698624413803218
1790107758592748800,10.402748779296875,0.6123568220734595,2.2192571811825035,-2.02565768609941
1790107758602692900,10.41269287109375,0.6514145016770809,1.546356750819087,-2.1076333739966153
1790107758612637000,10.422636962890625,0.9891759455878287,0.9483440959185361,-1.9025275655150413
1790107758622581000,10.4325810546875,1.6079776329517363,0.31234044079780576,-1.8622163056537508
1790107758632525800,10.44252587890625,1.539118616259098,-0.26765900302827356,-2.0408748367145657
1790107758642470000,10.452469970703126,1.604621308261156,-0.33399989942014213,-2.1972563617765903
1790107758652414000,10.4624140625,2.6761878792226312,-0.41709202412664886,-3.173622437086701
1790107758662357800,10.472357666015625,2.040655933266878,-0.4601671957433223,-3.1056571543633935
1790107758672302800,10.482302734375,1.088613640417531,-0.46889352303445336,-2.333534133225679
1790107758682247000,10.492246826171876,0.9964052392542362,-0.6213952840536833,-1.964380795098841
1790107758692191000,10.50219091796875,1.5189806681156157,-1.0039180991023777,-2.1407164361700413
1790107758702134800,10.512134765625,1.0801672260463238,-1.1403992841690778,-1.7619082577303051
1790107758712080100,10.522080078125,0.16496727483868598,-1.065513262271881,-0.9645651628792286
1790107758722024000,10.53202392578125,-0.2729179464697838,-0.9328110112220048,-0.16379238584041594
1790107758731968000,10.541968017578125,-0.28750059857368465,-0.6561679067492485,0.4384770497217774
1790107758741912800,10.551912841796875,-0.0887012698251754,-0.18693360745310783,0.796691352944076
1790107758751857000,10.56185693359375,0.3534077797234058,0.27132687788605686,0.7674804560288786
1790107758761801000,10.571801025390625,0.7001976026117801,0.6616098055422306,0.6933768166810274
1790107758771745000,10.5817451171875,0.7783412380654364,0.9462737193852663,0.6493617338657379
1790107758781689900,10.59168994140625,0.12879713337011633,1.3444804257780312,0.8335060028612613
1790107758791634000,10.601634033203124,-0.4589665147166699,1.7568308083355426,1.1540946320444345
1790107758801577700,10.61157763671875,0.7094177778344601,1.7066040113985537,0.7007429615348577
1790107758811522000,10.62152197265625,1.642646795272827,1.497747325950861,0.09057458941638469
1790107758821467000,10.631466796875,1.5468331361591816,1.4325567686378955,-0.22850772685706613
1790107758831411000,10.641410888671874,1.2186323514718562,1.404178230893612,-0.5437573330998421
1790107758841354800,10.651354736328125,0.9422328464966266,1.2811375421583653,-1.1457792236417532
1790107758851298800,10.661298828125,0.8239876484096049,1.0270575671494007,-1.6272639327019451
1790107758861244000,10.671243896484375,0.836160974349454,0.7473989142477512,-1.9101018001616
1790107758871188000,10.68118798828125,0.8120832025390118,0.4848965633302927,-1.9989853677511213
1790107758881131800,10.6911318359375,0.6755589089829475,0.32212241462171076,-2.169231459775567
1790107758891076900,10.701076904296874,0.4857248308479786,0.27469080136120316,-2.0228110644966364
1790107758901021000,10.71102099609375,0.3658570730604231,0.22705518996119498,-1.8096680800318716
1790107758910965000,10.720965087890624,0.1551860316671431,0.26200842992067336,-1.3457798179388045
1790107758920908800,10.73090869140625,0.09509119005799294,0.21926935839056969,-0.8215987074464559
1790107758930854000,10.74085400390625,0.27490407878570255,0.2627829214245081,-0.33591245504319667
1790107758940797700,10.750797607421875,0.418397261506319,0.3528232578337192,0.042342765688896174
1790107758950742000,10.760741943359376,0.5964799654405564,0.33731296949088574,0.49756490624547
1790107758960686000,10.77068603515625,0.7480863119900226,0.29398002372086046,0.8639391350477933
1790107758970631000,10.780630859375,0.9388052832007407,0.3211965319484472,0.823068195477128
1790107758980574700,10.79057470703125,1.3521651350617407,0.38878713614046573,0.24709493842720984
1790107758990518800,10.800518798828126,1.2974606081888078,0.6603086598157882,-0.4280219989418983
1790107759000463000,10.810463134765625,0.5793523780941963,0.9485480940580368,-1.2450304559886456
1790107759010408000,10.820407958984376,-0.1530371830701828,1.3649649954020977,-1.698455191734433
1790107759020352000,10.83035205078125,-0.1712929707288742,1.5967998208552598,-1.6006909830749034
1790107759030295800,10.8402958984375,0.36033567929044363,1.5929437299489975,-0.9835410815060138
1790107759040241000,10.850240966796875,0.6618238866843282,1.770509789597988,-0.5700444515228271
1790107759050185000,10.86018505859375,0.46525604331493375,2.182207845726609,-1.035964511704445
1790107759060129000,10.87012890625,0.025102000291645526,2.4361335069566965,-1.2895745311141014
1790107759070072800,10.88007275390625,0.4862146601915359,2.593902394723892,-0.612134119233489
1790107759080018000,10.890017822265625,0.4869409286394715,2.347975331032276,-0.3662012103229761
1790107759089962000,10.8999619140625,0.5090105754978954,2.035258458137512,-0.23110241952538488
1790107759099906000,10.909906005859375,0.6865418560944497,1.906563689163327,0.0034708909809589386
1790107759109849900,10.919849853515625,0.36575288203358647,1.8736825793027876,0.4196615823537111
1790107759119795000,10.929794921875,-0.2682417713522911,1.7651251739501952,0.9190092803627252
1790107759129738800,10.93973876953125,-1.1057143397569655,1.632519953534007,1.487614638993144
1790107759139683000,10.94968310546875,-1.484334009887278,1.533624110496044,2.2122855886042117
1790107759149627000,10.959626953125,-1.1636065567553042,1.358203830704093,2.895579987210035
1790107759159572000,10.969572021484375,-0.7119491229429841,0.5040209505170583,3.3819822789281604
1790107759169515800,10.979515869140625,-0.4159469457447529,-0.3896250482693314,3.860959389081597
1790107759179459800,10.9894599609375,-0.36716362561434507,-0.916458426836133,4.550794003111124
1790107759189405000,10.999405029296875,-0.7842100570335984,-1.1011512696251273,4.891691845351457
1790107759199349000,11.009348876953124,-1.4422542790487407,-1.3447852539435028,4.754910216033458
1790107759209292800,11.019292724609375,-2.0025871916353704,-1.5860761822670697,4.818251346087456
1790107759219236900,11.02923681640625,-2.255003617346287,-1.699018378575146,4.975667182633281
1790107759229182000,11.039181884765625,-1.9536358214616774,-1.8981819375261664,5.429520957446098
1790107759239126000,11.0491259765625,-1.0898054074853658,-2.4189023861706254,6.016551615083217
1790107759249069800,11.05906982421875,-0.024734628283977506,-3.009317717809975,6.330085649579763
1790107759259014000,11.069013916015624,0.27023791360557076,-2.8058649372324345,6.05994535112977
1790107759268958700,11.078958740234375,0.1862158145725727,-2.468799512761831,4.605654305067658
1790107759278903000,11.088903076171874,-0.059276072572171684,-1.8076082248926162,3.3811107567906378
1790107759288846800,11.098846923828125,-0.5506739806205034,-1.1297653696909546,2.8630986903220412
1790107759298791000,11.108791015625,-1.023752826515585,-0.8348825519114732,2.9640374373644587
1790107759308735700,11.11873583984375,-0.9636331427261233,-1.0324234780967234,3.42021527121067
1790107759318679800,11.1286796875,-0.4707658927775919,-1.4335171381026506,3.8584891995757817
1790107759328624000,11.1386240234375,0.004312456371635198,-1.8661264648348093,4.02246395624578
1790107759338569000,11.14856884765625,0.25902999863177534,-2.0793822620242834,3.7488872536063194
1790107759348512800,11.1585126953125,0.4628410911276936,-2.1524416530162096,3.2775755635142323
1790107759358456800,11.168456787109376,0.42464813859462736,-2.1602467738091944,2.7576024261057377
1790107759368401000,11.17840087890625,0.32712329164892434,-2.020017634385824,1.9806144292801617
1790107759378346000,11.188345947265624,0.3228350929357111,-1.6863620183587074,0.9407324518710374
1790107759388290000,11.1982900390625,0.2055154121957719,-1.1580360631465911,-0.13033552191853523
1790107759398233900,11.20823388671875,0.014178601347655057,-0.5838812536954879,-1.0001046782940626
1790107759408178000,11.218177978515625,-0.12518456889614463,0.09090016810894012,-1.3692279135435819
1790107759418123000,11.228123046875,-0.14298340656757355,0.8367629588305949,-1.283480305892229
1790107759428067000,11.238067138671875,0.006999065107107162,1.664154278203845,-1.156777587518096
1790107759438011000,11.248010986328126,0.2808065077625215,2.4328362189769743,-1.2196399941444396
1790107759447955000,11.257954833984375,1.0118237576603888,2.8618729479193687,-1.8375445134729147
1790107759457899800,11.267899658203126,1.36027946793437,3.3386341355890035,-2.412567922452092
1790107759467844000,11.277843994140625,1.3930489341139793,4.01672044415772,-2.765714420890808
1790107759477788000,11.287787841796876,1.104105662451312,4.582764427867532,-2.656296014794707
1790107759487732000,11.29773193359375,1.1172714334946126,5.243206358674168,-2.5014368769943713
1790107759497676800,11.3076767578125,1.2057646135270594,5.333030421984195,-2.468767948579788
1790107759507620900,11.317620849609375,0.9302419644515961,4.33479621373713,-1.954364135736227
1790107759517565000,11.32756494140625,0.48243981782793993,2.7259131563782693,-0.8749743238031864
1790107759527509000,11.337509033203125,0.3113116822719574,1.2376841848790645,-0.14820435608625412
1790107759537454300,11.347454345703126,0.2354115148961544,0.28646833291649815,0.3064613196313381
1790107759547398400,11.3573984375,-0.13514146089553833,-0.5387251841515303,0.612740268433094
1790107759557342500,11.367342529296875,-0.5541653298676014,-0.8129863619238138,0.882209535753727
1790107759567287600,11.37728759765625,-0.37557168073654174,-0.9199375011235476,1.0135258854031561
1790107759577231400,11.3872314453125,-0.047555531901121134,-1.5688532447874546,0.654738166207075
1790107759587175400,11.397175537109375,0.6696131523210554,-1.9688298834621905,0.31877135062813755
1790107759597119200,11.407119140625,1.0539151789367198,-1.853500792017579,0.35540626006424425
1790107759607064600,11.417064697265625,1.066775829553604,-1.5775468388527631,0.7568854122564196
1790107759617008400,11.42700830078125,0.7693758413214236,-1.3002233509004115,1.2108660283192991
1790107759626952400,11.436952392578124,1.273603055000305,-0.9646125091522931,1.1852812129467725
1790107759636896300,11.446896240234375,2.048910551393032,-0.38000060309469696,0.6624398266255855
1790107759646841600,11.456841552734375,1.6651824522078036,0.6146832191944122,-0.18924656057059763
1790107759656785400,11.466785400390625,0.6366600732028483,1.836515754947066,-0.8891127392709255
1790107759666729500,11.4767294921875,0.8403695319551974,2.9539357300668954,-1.4659034501835704
1790107759676673500,11.486673583984375,2.0788556078016756,3.6695179488152263,-2.1771026315420863
1790107759686618400,11.496618408203124,2.0683950040638446,3.8172581945210693,-2.788601667742431
1790107759696562400,11.5065625,1.2873229527950285,3.2107693876981735,-2.393768821696937
1790107759706506500,11.516506591796874,1.1651017637491226,2.2370932821244,-2.1019015523463485
1790107759716450600,11.526450439453125,0.9928734849315136,1.5638684421122073,-1.9694696426704525
1790107759726395400,11.5363955078125,1.38133511544466,1.2384604299485682,-2.150349356912076
1790107759736339500,11.54633935546875,1.9127040916144846,1.052995141482353,-2.8818051443576813
1790107759746283500,11.556283447265624,2.011975782227516,1.115512095671892,-3.516311838918924
1790107759756227600,11.5662275390625,1.7590578367352485,1.291288933816552,-4.072763526158035
1790107759766172400,11.57617236328125,1.1015501327496022,1.3088713522583246,-3.835082605025172
1790107759776116500,11.586116455078125,1.0670715976297855,1.2316437356710432,-3.4653760169297456
1790107759786060300,11.596060302734376,1.5784861655294895,0.8538461955785751,-3.493758354066312
1790107759796005400,11.60600537109375,1.1961994973242283,0.4334843560010195,-3.071226476973295
1790107759805949400,11.615949462890624,0.04525836087465286,0.1708095711261034,-2.0673510479688644
1790107759815893500,11.6258935546875,-0.7339981654047966,0.02214987248778343,-0.9842796249136329
1790107759825837300,11.63583740234375,-0.5907213288486004,-0.11699380978643893,-0.2209673944801092
1790107759835782400,11.645782470703125,0.06493804385662079,-0.32831250143349167,0.05910480765849351
1790107759845726500,11.6557265625,0.06148688048943877,-0.3723252461612224,0.47593467371761794
1790107759855670500,11.66567041015625,-0.346506914293766,-0.38168694874644277,0.9634972413867712
1790107759865614300,11.6756142578125,-0.33702363115549083,-0.562293691265583,1.2123685418367385
1790107759875559400,11.685559326171875,-0.25102409456968305,-0.8319266247153282,1.370652393388748
1790107759885503500,11.69550341796875,-0.3148443864427507,-1.0007236869752407,1.60080905649662
1790107759895447600,11.705447509765625,-0.5526419196926057,-1.0133405919641256,1.882314798569679
1790107759905391400,11.715391357421876,-0.9141652013324201,-0.9000807080090045,2.1978560812354084
1790107759915336400,11.72533642578125,-0.4025824372589588,-0.8473562490373849,1.9975901140004395
1790107759925280300,11.7352802734375,0.2354487781666219,-0.7415642167448997,1.4323346503198147
1790107759935224600,11.745224609375,0.45229237071499223,-0.45035950295627114,0.8412865737348795
1790107759945168400,11.75516845703125,0.3360485025130212,-0.04036532813608646,-0.03025017683506012
1790107759955113500,11.765113525390625,0.6584019494116305,0.36589550537467,-1.2580904285699128
1790107759965057300,11.775057373046875,0.9555718552149832,0.8311269987702369,-2.190067911577225
1790107759975001300,11.78500146484375,0.3668495912291109,1.2805197025209665,-3.0646365771889683
1790107759984945400,11.7949453125,-0.23741642497777937,1.6810820321291684,-3.908614874225855
1790107759994890500,11.804890380859375,-0.40732071782723067,1.9167630116164682,-4.3400931511014695
1790107760004834300,11.814834228515625,-0.5113597689725459,2.196540322461724,-4.333571055856347
1790107760014778400,11.8247783203125,0.1074058972299099,2.469889061564207,-3.745875212308764
1790107760024723500,11.834723388671875,0.8561630942188203,2.5625585774332285,-2.964046789714694
1790107760034667500,11.84466748046875,1.2265255158744752,2.5165175417482852,-2.1900959686279298
1790107760044611300,11.854611328125,1.3306779642663895,2.1945997097879646,-1.1821645422309637
1790107760054555400,11.864555419921874,1.1548419432803987,1.609116281592846,-0.45422494621276854
1790107760064500200,11.874500244140625,0.6555284398019313,1.0610703113883733,-0.26972996408343314
1790107760074444500,11.884444580078124,0.17245412346273659,0.7623784567147492,-0.18498071981966493
1790107760084388600,11.894388671875,0.017002572727203367,0.7149778231143951,-0.19698913752138614
1790107760094332400,11.90433251953125,-0.28482582640647885,0.832765998148918,-0.23726211119890211
1790107760104277200,11.91427734375,-0.722103291080147,0.8563777598828077,-0.30910394309461114
1790107760114221300,11.92422119140625,-0.9994617042154074,0.6486147148907184,-0.2044324392646551
1790107760124165600,11.93416552734375,-0.9855682034194468,0.41459670017957684,0.4444008868128061
1790107760134109400,11.944109375,-0.7361787243142723,0.20688860024511813,1.026053358542919
1790107760144054500,11.954054443359375,-0.5715586554780602,0.18958675231039523,0.9605208559244871
1790107760153998300,11.963998291015624,-0.6673603318929672,0.3794382930368185,0.6769733788907527
1790107760163942400,11.9739423828125,-0.5875602344691753,0.649141369113326,0.3128478057980537
1790107760173886500,11.983886474609376,-0.1392579563036561,1.1012053378999234,0.08822773402929306
1790107760183831600,11.99383154296875,-0.453118154014647,1.6842156539797781,-0.20210779570937157
1790107760193775400,12.003775390625,-1.1745616660118103,2.241846029609442,-0.3558797227948904
1790107760203719400,12.013719482421875,-1.2922238765791059,2.406517536371946,0.41840661385655403
1790107760213663200,12.023663330078126,-1.8972803125113247,2.2023177368193863,1.76259828582108
1790107760223608600,12.033608642578125,-2.777221611072123,1.331881056445837,3.128899498263001
1790107760233552400,12.043552490234376,-3.314975027582049,0.1293617084503174,4.147131953921914
1790107760243496400,12.053496337890625,-3.357377414503693,-0.8357254324764013,4.48099449069798
1790107760253440300,12.063440185546876,-3.240613321819901,-1.3568284506976604,4.334616765516996
1790107760263385600,12.073385498046875,-3.4564898229017853,-1.4322887653514742,3.9292993503361937
1790107760273329400,12.083329345703126,-3.5623709947824476,-1.5082596598759292,3.49647550407052
1790107760283273500,12.0932734375,-3.133560475811362,-1.7679422771975397,3.4158360332131386
1790107760293218300,12.10321826171875,-2.483009239900112,-1.7617489755153655,3.7668285684883593
1790107760303162400,12.113162353515625,-2.2077952914476393,-1.3475447817847133,3.995730263099074
1790107760313106400,12.1231064453125,-2.1448472523644564,-1.1090364699169992,3.9081986946403977
1790107760323050500,12.133050537109375,-1.806953852637112,-1.0215127925038336,4.218153117084503
1790107760332995300,12.142995361328126,-1.5122341164648532,-0.9230740455836057,4.638886128062009
1790107760342939400,12.152939453125,-1.4044327901765703,-0.7242147302761673,4.6958664909124375
1790107760352883500,12.162883544921876,-1.4318845684647559,-0.6698080173060298,4.43910648303926
1790107760362827500,12.17282763671875,-1.4363134908229112,-0.9004153467908501,4.336800539296865
1790107760372772400,12.1827724609375,-1.2625377633675932,-1.0777449673354624,4.587909974062443
1790107760382716400,12.19271630859375,-1.0171393997251987,-1.1984542905136941,4.609240931382775
1790107760392660500,12.202660400390625,-0.8500967799171805,-1.3800246173679829,3.9071845491617916
1790107760402604300,12.212604248046874,-0.7598255573615431,-1.5172408387109637,3.0618109983742237
1790107760412549400,12.22254931640625,-0.5543269501700997,-1.5272843860805034,2.6094799030840394
1790107760422493400,12.232493408203124,-0.38939971508085724,-1.3593863184869288,2.3046131591677663
1790107760432437500,12.2424375,-0.254715058042109,-1.028487307691574,1.7409855889499186
1790107760442381300,12.25238134765625,-0.3322983561992645,-0.5238701448470354,1.1699831060498953
1790107760452326700,12.26232666015625,-0.3811002348996699,0.0019990648627281186,1.0598282023727894
1790107760462270500,12.2722705078125,-0.16329086605906484,0.5504594610869884,1.4699451267898083
1790107760472214500,12.282214599609375,0.203177470767498,1.0854138945281504,1.935976830652356
1790107760482158300,12.292158447265624,0.5300197535179555,1.4758224943906069,2.1449550966531037
1790107760492103400,12.302103515625,0.82200144302845,1.8013176003158091,2.0236860937654972
1790107760502047500,12.312047607421874,1.190002396249771,2.2717869943648576,1.6296066964358091
1790107760511991600,12.321991455078125,1.5331601462461053,2.585949974414706,0.6798872205108404
1790107760521935400,12.331935302734376,1.6697523904718459,2.7441397179424762,-0.41121582556962966
1790107760531880400,12.34188037109375,1.5590907063163817,3.019488690951466,-1.1352543224960565
1790107760541823700,12.35182373046875,1.618064142680168,3.090775227051973,-1.7722744611829517
1790107760551767800,12.361767822265625,1.7189748326718806,3.1597002947181463,-1.983940943354368
1790107760561711900,12.3717119140625,1.35068848663792,3.2584465001523495,-1.6812568041741847
1790107760571657000,12.381656982421875,1.3357787945367394,3.4724113223940134,-1.3451011880248784
1790107760581601000,12.39160107421875,1.3596047835431992,3.2004087372034786,-1.2930781553208828
1790107760591544800,12.401544921875,1.2172528067469597,2.414373510569334,-1.3776070348322391
1790107760601490000,12.411489990234376,1.2893230405710636,1.5740905609190463,-1.5558061316877603
1790107760611434000,12.42143408203125,1.3662240555524825,0.7515279768764972,-1.8283347865790127
1790107760621378000,12.4313779296875,1.039492685830593,-0.014887188008427619,-2.2233494189321994
1790107760631321900,12.44132177734375,0.6722444506727159,-0.45899932100772856,-2.5205694474875924
1790107760641267000,12.451266845703126,0.27897213194221254,-0.5237129084587097,-2.447568508684635
1790107760651210800,12.461210693359375,-0.2040672592140734,-0.5040887550562619,-2.0764947238892315
1790107760661155000,12.471155029296876,-0.8206278165876865,-0.5058826527357101,-1.7464894470632075
1790107760671099000,12.481098876953125,-1.3384240483485161,-0.4023240785837173,-1.423710029837489
1790107760681044000,12.4910439453125,-1.20021063266173,-0.44036008698940277,-0.9773220608606934
1790107760690987800,12.50098779296875,-0.6743044519424438,-0.8042711405485868,-0.6419698700487614
1790107760700931800,12.510931884765625,-0.40818332600593565,-1.3453215527772904,-0.44501492705792184
1790107760710876000,12.5208759765625,-0.1401801857151091,-2.044802531552315,-0.2873252420067787
1790107760720821000,12.530821044921876,-0.4587444694638252,-2.6358272272616623,-0.3855979847103357
1790107760730764800,12.540764892578125,-0.6975134780943393,-2.876426373928785,-0.46617403494268655
1790107760740708900,12.550708984375,-0.21164602390527723,-2.7471079200983044,-0.3818041453853249
1790107760750652700,12.560652587890624,0.40331791192665695,-1.9984370862185954,-0.2563751002088189
1790107760760598000,12.570597900390625,0.8296915591396391,-0.515241432711482,-0.11869096909314393
