time,seconds_elapsed,z,y,x
1790107589434878500,0.06187841796875,-8.286751047995686,-5.228464132094383,0.4041004040738567
1790107589444823300,0.0718232421875,-8.267525538522005,-5.2554006543368095,0.4462763983611017
1790107589454767000,0.08176708984375,-8.24224496679306,-5.290713959780335,0.4940872201975435
1790107589464712400,0.09171240234375,-8.211321420741081,-5.333454784876108,0.5466677041212097
1790107589474657300,0.1016572265625,-8.178421021658181,-5.378403933671117,0.5971526405377313
1790107589484602400,0.111602294921875,-8.148426280888915,-5.418849925827979,0.6400017117809504
1790107589494546400,0.12154638671875,-8.125261678400635,-5.449352031597495,0.6745903562117368
1790107589504491300,0.1314912109375,-8.108794527724385,-5.470507047829032,0.7009910910770296
1790107589514436400,0.141436279296875,-8.095534064134956,-5.487639384415745,0.720086252169311
1790107589524380400,0.15138037109375,-8.08021491445005,-5.508776280468702,0.7306823919203131
1790107589534325200,0.1613251953125,-8.056405584317446,-5.543657624235749,0.7297778442960232
1790107589544270300,0.171270263671875,-8.022043295988441,-5.595594147700071,0.7117135606214404
1790107589554214100,0.181214111328125,-7.980213740518689,-5.661399622040987,0.6596444968186318
1790107589564159500,0.191159423828125,-7.93045339204967,-5.739874023818969,0.5763141063768417
1790107589574104300,0.201104248046875,-7.876552875036,-5.822450600218772,0.47892592795547095
1790107589584049200,0.211049072265625,-7.828359629753232,-5.895820956856012,0.3556244693921879
1790107589593993500,0.220993408203125,-7.790138327908515,-5.953705575069785,0.19370748550221323
1790107589603938300,0.230938232421875,-7.76036512093544,-5.9955789696812625,-0.012522948803339385
1790107589613883100,0.240883056640625,-7.730074612089991,-6.028636020630597,-0.2680997507994063
1790107589623827200,0.2508271484375,-7.692482255798578,-6.058738313427567,-0.5364584082633257
1790107589633772300,0.260772216796875,-7.649519312384724,-6.087480423787236,-0.7731905042387545
1790107589643717400,0.27071728515625,-7.610351085078716,-6.110798171010613,-0.9545084637671708
1790107589653662500,0.280662353515625,-7.579764808157086,-6.123676941806077,-1.1036903596486896
1790107589663606500,0.2906064453125,-7.553183675223589,-6.122956226316094,-1.2764059835918247
1790107589673551400,0.30055126953125,-7.516213250222802,-6.112307991051673,-1.5220442934699356
1790107589683496200,0.31049609375,-7.444927883166074,-6.112643506616354,-1.8382120374709368
1790107589693440500,0.3204404296875,-7.350263394087553,-6.127483932873607,-2.144284796176106
1790107589703385300,0.33038525390625,-7.242818918412923,-6.158628428199887,-2.404839812418073
1790107589713330200,0.340330078125,-7.1250319124221795,-6.2019233800470825,-2.6344717209994792
1790107589723274200,0.350274169921875,-7.001260571324825,-6.235676012045145,-2.875600444498658
1790107589733219300,0.36021923828125,-6.874273190790414,-6.234212953755259,-3.170068543997407
1790107589743164400,0.370164306640625,-6.7392807829767465,-6.188711431774497,-3.5287846592620014
1790107589753109200,0.380109130859375,-6.594193682128191,-6.111801210573315,-3.9157223681434985
1790107589763053300,0.39005322265625,-6.426616517052054,-6.016982407715917,-4.320290426261723
1790107589772998400,0.399998291015625,-6.2181672433614725,-5.9138300762772555,-4.746725156012177
1790107589782943200,0.409943115234375,-5.957341885745525,-5.809191890195012,-5.1897746282160275
1790107589792887600,0.419887451171875,-5.6495876036942,-5.70380317800641,-5.631977712723613
1790107589802832400,0.429832275390625,-5.326184501612186,-5.585310069572925,-6.050327627956867
1790107589812777200,0.439777099609375,-5.04873943310678,-5.430812166300416,-6.417701973712444
1790107589822721300,0.44972119140625,-4.860009589886665,-5.230552628806233,-6.722499744045734
1790107589832666400,0.459666259765625,-4.762475975112617,-4.993126851478219,-6.9683496508479115
1790107589842611200,0.469611083984375,-4.715977258788049,-4.73516711242646,-7.176917582482099
1790107589852556300,0.479556396484375,-4.6663402444377535,-4.471942876975238,-7.375457456576823
1790107589862500400,0.489500244140625,-4.571715795108676,-4.2146582607060665,-7.5833005810678005
1790107589872445400,0.499445556640625,-4.429531137703359,-3.967823726780712,-7.797821283626556
1790107589882390300,0.509390380859375,-4.29604124340713,-3.719551269006729,-7.992456551498174
1790107589892334300,0.519334228515625,-4.191112842206657,-3.4547210596635938,-8.165161727112531
1790107589902279400,0.529279541015625,-4.128666322904825,-3.1763518620505926,-8.308746606704592
1790107589912224300,0.539224365234375,-4.117111201928556,-2.883246283076703,-8.420610067865251
1790107589922168300,0.549168212890625,-4.126832385475933,-2.5798577950194477,-8.51375246194303
1790107589932113400,0.559113525390625,-4.132079930740595,-2.2736372984066606,-8.598074420705437
1790107589942058200,0.569058349609375,-4.113920296932757,-1.9654002012744545,-8.682352540326118
1790107589952003300,0.57900341796875,-4.0483778574422,-1.6578091469608247,-8.776826475268601
1790107589961947400,0.588947509765625,-3.939683966228366,-1.3613643405616283,-8.876708991256356
1790107589971892500,0.598892578125,-3.781776254512369,-1.0785688509389757,-8.983609861573576
1790107589981837300,0.60883740234375,-3.5789337147876616,-0.7957562640510499,-9.095515408310293
1790107589991781000,0.618781005859375,-3.383726492246985,-0.5168781670678406,-9.189864840090275
1790107590001726500,0.6287265625,-3.2102769280061123,-0.2344830566733144,-9.263343333277106
1790107590011671300,0.63867138671875,-3.0611712391659616,0.05052515426247846,-9.316494493228197
1790107590021616000,0.6486162109375,-2.9182147206053135,0.3268811899887398,-9.356685049319267
1790107590031560400,0.658560546875,-2.767219564756751,0.5925669567152857,-9.38944808575809
1790107590041505300,0.66850537109375,-2.602246152438223,0.8501592506941408,-9.416790850713848
1790107590051450400,0.678450439453125,-2.431817543453723,1.0976417271342127,-9.43672713880539
1790107590061394400,0.68839453125,-2.284783838582039,1.3280914549045264,-9.443850707074999
1790107590071339300,0.69833935546875,-2.1826488674923774,1.533359614340961,-9.436908340591192
1790107590081284400,0.708284423828125,-2.1267269276537,1.7072309111252426,-9.4198087372303
1790107590091228200,0.718228271484375,-2.104903364510834,1.8486302633717655,-9.397996718394756
1790107590101173500,0.728173583984375,-2.1095260558754205,1.9703176378019154,-9.372201767402887
1790107590111118300,0.738118408203125,-2.1125383894339205,2.0683235462628304,-9.350379227173327
1790107590121063200,0.748063232421875,-2.094608764989674,2.1408554062493144,-9.338080302092433
1790107590131007500,0.758007568359375,-2.041246884897351,2.191095647189766,-9.338243968221544
1790107590140952300,0.767952392578125,-1.9414837575055657,2.2249301122523844,-9.351508523464203
1790107590150897200,0.777897216796875,-1.793936257892847,2.251450747170299,-9.37460181428194
1790107590160841200,0.78784130859375,-1.6335332222297787,2.273670762284845,-9.39852980235815
1790107590170786300,0.797786376953125,-1.4725728449448943,2.284239794833213,-9.422534947323799
1790107590180731400,0.8077314453125,-1.3212459729239343,2.2799435589440167,-9.445980704841018
1790107590190675200,0.81767529296875,-1.1862225123848766,2.2597405827403065,-9.46873029678762
1790107590200620300,0.827620361328125,-1.0610190926577896,2.227089482243359,-9.49129517981708
1790107590210565400,0.8375654296875,-0.9402469333764165,2.185476930525154,-9.51367476940751
1790107590220510200,0.84751025390625,-0.8478641254942864,2.1184764011807737,-9.537482345974444
1790107590230454500,0.85745458984375,-0.7654351408716291,2.0243558097206056,-9.564856675112248
1790107590240399400,0.8673994140625,-0.6619803924202918,1.9013329489029942,-9.597764672979713
1790107590250344200,0.87734423828125,-0.5171891692457721,1.7536565622135996,-9.634707040929793
1790107590260288300,0.887288330078125,-0.328821729597263,1.594715269666165,-9.670528880417347
1790107590270233300,0.8972333984375,-0.10325824863170273,1.4231583873040974,-9.702285370162128
1790107590280178400,0.907178466796875,0.14214761333055792,1.2395192913517354,-9.726960961735248
1790107590290123300,0.917123291015625,0.39487595453485846,1.0368072461389004,-9.743689393696188
1790107590300067300,0.9270673828125,0.6278565890222787,0.8324203265164047,-9.751066059944034
1790107590310012400,0.937012451171875,0.8174225177403539,0.6580457563851029,-9.750342421844602
1790107590319957200,0.946957275390625,0.9489571132503449,0.5193938031505793,-9.746798465627432
1790107590329901300,0.9569013671875,1.0301819097150116,0.39267139369528736,-9.744482005378604
1790107590339846400,0.966846435546875,1.0783110037203878,0.26147602181071417,-9.743677703258395
1790107590349791200,0.976791259765625,1.1137308382783084,0.1440829927067738,-9.74213748807907
1790107590359735300,0.9867353515625,1.1389988427866249,0.05388277586100157,-9.740131993475556
1790107590369680400,0.996680419921875,1.1474161041285842,0.017115822701685827,-9.739279176038503
1790107590379625200,1.006625244140625,1.1426013242579995,0.030512618030374868,-9.739811675480007
1790107590389570300,1.0165703125,1.1131749579612165,0.062312362394994124,-9.743066877883672
1790107590399514000,1.02651416015625,1.0102920911137014,0.11073034721119329,-9.753843123441934
1790107590409459200,1.036459228515625,0.842788429665193,0.17239574433900415,-9.768847215828298
1790107590419404300,1.046404296875,0.6748965726166963,0.24272339054578915,-9.780388016018271
1790107590429348400,1.056348388671875,0.518795508463867,0.3032998781920411,-9.78822060934007
1790107590439293200,1.066293212890625,0.39492194910105316,0.35867315290570256,-9.792129307216406
1790107590449238300,1.07623828125,0.34145558572094886,0.4221127748981118,-9.791610251778364
1790107590459182300,1.086182373046875,0.33776228416096415,0.5161706398529932,-9.787231013780831
1790107590469127200,1.096127197265625,0.39319892470072954,0.6405012588009238,-9.777809689962863
1790107590479072000,1.106072021484375,0.49086635845489796,0.7689080046139657,-9.764129539656638
1790107590489017300,1.116017333984375,0.5817655401831493,0.9112032827869058,-9.746879714170097
1790107590498961200,1.125961181640625,0.6291374226130545,1.0565448698531836,-9.729250533977151
1790107590508906200,1.13590625,0.6375885131593794,1.215451529478654,-9.710126731312274
1790107590518851300,1.145851318359375,0.6175581170435994,1.3844544165089725,-9.688771808594465
1790107590528795100,1.155795166015625,0.579853422951512,1.5291351285137236,-9.66932885697782
1790107590538740200,1.165740234375,0.4944350837871432,1.664744499181956,-9.651661098340153
1790107590548685300,1.175685302734375,0.3922665392214432,1.8008811085946856,-9.631891398987174
1790107590558629400,1.18562939453125,0.34374011646155267,1.9234341599434612,-9.610027357703446
1790107590568574200,1.19557421875,0.37928503870386626,2.0321948327831922,-9.586276479759812
1790107590578519000,1.20551904296875,0.4751186446269974,2.113241861528158,-9.56445744666159
1790107590588464400,1.21546435546875,0.5658718420132994,2.153984790804982,-9.550419568958878
1790107590598408200,1.225408203125,0.5816454209348186,2.13851804934293,-9.552948795175551
1790107590608353000,1.23535302734375,0.5447078387577087,2.071678994170576,-9.569840893265605
1790107590618298400,1.24529833984375,0.5268128472354263,2.002609695728123,-9.585530045306681
1790107590628242200,1.2552421875,0.5495727048477158,1.9877524644665419,-9.587345570296048
1790107590638187300,1.265187255859375,0.5870757754204794,2.0370196225911377,-9.57477133540511
1790107590648132400,1.27513232421875,0.6253264129575341,2.117666107711196,-9.554832709226012
1790107590658076200,1.285076171875,0.665020563833788,2.1984194142065943,-9.53389221252799
1790107590668021200,1.295021240234375,0.7128871344454586,2.2775666006796063,-9.51182884927988
1790107590677966000,1.304966064453125,0.7485133052304387,2.3722910032518207,-9.485901211819051
1790107590687911200,1.3149111328125,0.770619850033149,2.4925343163535,-9.453242804798483
1790107590697855200,1.324855224609375,0.7841430562119931,2.6379884969487786,-9.41257294075787
1790107590707800000,1.334800048828125,0.7852051324855536,2.798409360529482,-9.366043244773149
1790107590717745400,1.344745361328125,0.8051080297641455,2.9658453635692594,-9.312677565288544
1790107590727689200,1.354689208984375,0.8410079029239713,3.118595546391606,-9.259452171057463
1790107590737634300,1.36463427734375,0.8587007960028946,3.25962869567424,-9.20911665304899
1790107590747579100,1.3745791015625,0.8238696480531245,3.3789299056202173,-9.169211928161978
1790107590757524200,1.384524169921875,0.7328541830014437,3.4547529161065813,-9.148660723042488
1790107590767468300,1.39446826171875,0.5907188080979511,3.4863849026888607,-9.146942813208698
1790107590777413000,1.4044130859375,0.40380598770454523,3.4833903970479962,-9.158237529683113
1790107590787358200,1.414358154296875,0.18904796925857661,3.470964338456094,-9.16989874138236
1790107590797302300,1.42430224609375,-0.02078718984943116,3.4589272791817782,-9.176369983223081
1790107590807247000,1.4342470703125,-0.21791511250371112,3.452437332640588,-9.176251325279473
1790107590817192200,1.444192138671875,-0.40052112081497904,3.449839132840931,-9.17107421490252
1790107590827136300,1.45413623046875,-0.5577491066385061,3.4431215150237082,-9.165382725262642
1790107590837081000,1.4640810546875,-0.6816859404958784,3.4419866657748814,-9.157425628778338
1790107590847026200,1.474026123046875,-0.7670393611978739,3.4471085388332603,-9.148742556107043
1790107590856971300,1.48397119140625,-0.7967186793424189,3.456721585831046,-9.142575265648961
1790107590866915300,1.493915283203125,-0.7636347403861582,3.4814585522025823,-9.13601166934967
1790107590876860200,1.503860107421875,-0.6685135935813188,3.4936809049159288,-9.138799254241585
1790107590886805200,1.51380517578125,-0.5210390496069565,3.467221352535486,-9.158454387304186
1790107590896749300,1.523749267578125,-0.3379130908085033,3.386404771545529,-9.197200005283952
1790107590906694100,1.533694091796875,-0.15984308195905758,3.24331059807986,-9.253419905155896
1790107590916639200,1.54363916015625,-0.01909606755786808,3.065653645277023,-9.315138402444123
1790107590926583300,1.553583251953125,0.0925899752262514,2.882937070997059,-9.372857600963115
1790107590936528100,1.563528076171875,0.1893142007130198,2.7084777451917526,-9.423304762652515
1790107590946473200,1.57347314453125,0.2745241395574063,2.547721073785424,-9.465947388070822
1790107590956418300,1.583418212890625,0.3264018455065787,2.4162534790970382,-9.498712762597203
1790107590966362000,1.593362060546875,0.32206454695463177,2.333588201500475,-9.519507713344693
1790107590976307200,1.60330712890625,0.2889035424404777,2.302065812772512,-9.52824339298606
1790107590986252300,1.613252197265625,0.22993954975847153,2.2869183663927015,-9.533493568599223
1790107590996196400,1.6231962890625,0.1545780741029419,2.2736539572805166,-9.538185525807737
1790107591006141200,1.63314111328125,0.08848273170366883,2.2564449021957813,-9.543112460815905
1790107591016086000,1.6430859375,0.05434170317621901,2.24272091274783,-9.546602641019225
1790107591026030300,1.6530302734375,0.020542960164241956,2.2405920840255913,-9.547236262747646
1790107591035975200,1.66297509765625,-0.037789223720517476,2.250804704351723,-9.544778932723402
1790107591045920300,1.672920166015625,-0.10563393738763406,2.270132651286572,-9.53969300776124
1790107591055865300,1.682865234375,-0.17437471626177428,2.297403373919427,-9.532152090862393
1790107591065809200,1.69280908203125,-0.23393313117297365,2.334322799385339,-9.521900161439179
1790107591075754200,1.702754150390625,-0.2740853828139603,2.372532264661789,-9.5113799364686
1790107591085699300,1.71269921875,-0.29527006353139873,2.4057063661195337,-9.502407525461912
1790107591095643400,1.722643310546875,-0.3019417598476633,2.4361904978409408,-9.49442938618958
1790107591105588200,1.732588134765625,-0.3030601328857243,2.4681495244205,-9.486136189618707
1790107591115533000,1.742532958984375,-0.3056576568319462,2.5014967904880643,-9.477314000737666
1790107591125477400,1.752477294921875,-0.3205563708813861,2.534237030573189,-9.468118886891007
1790107591135422200,1.762422119140625,-0.3445910342024639,2.5682982901290057,-9.458090829351544
1790107591145367000,1.772366943359375,-0.36967871370781213,2.6116800434768197,-9.445257066741584
1790107591155312400,1.7823125,-0.3928159897977486,2.6656834363430737,-9.429222462263702
1790107591165256200,1.792256103515625,-0.434346818049252,2.7302316040992736,-9.408908573031425
1790107591175201300,1.802201171875,-0.4847853580407798,2.806189054620266,-9.384064639154076
1790107591185146000,1.81214599609375,-0.5761302377099171,2.917318648548424,-9.344930898639559
1790107591195090200,1.822090087890625,-0.6961085066672414,3.0509438596621155,-9.293953575596213
1790107591205035300,1.83203515625,-0.8324795824229717,3.2003418094471097,-9.232289438843727
1790107591214980000,1.84197998046875,-0.9831501094270497,3.3782609203174707,-9.153751324179767
1790107591224925200,1.85192529296875,-1.118115848429501,3.5764351759701967,-9.062522654768824
1790107591234869200,1.861869140625,-1.2377965592123568,3.806842306707799,-8.952440231806039
1790107591244814000,1.87181396484375,-1.3348368375115096,4.064883878824115,-8.824131831800937
1790107591254759400,1.881759521484375,-1.3901429835394024,4.316986708541214,-8.694912162169814
1790107591264703200,1.891703125,-1.3980029032595456,4.563407108707726,-8.566872057712077
1790107591274648000,1.90164794921875,-1.3479776202440261,4.7797018352016805,-8.456229078257083
1790107591284593200,1.91159326171875,-1.3757659370101987,4.944131057640909,-8.35662713277638
1790107591294537200,1.921537109375,-1.3391408183157443,5.157253583839536,-8.232850530982017
1790107591304482300,1.931482421875,-1.2943582582592963,5.4719566621154545,-8.034470815885067
1790107591314427100,1.94142724609375,-1.394328452530503,5.836838606533408,-7.756129675322771
1790107591324371200,1.95137109375,-1.6740803366735577,6.2178475098878145,-7.396363466483354
1790107591334316300,1.96131640625,-1.9787058191798625,6.611456367096305,-6.9673360898911945
1790107591344261000,1.97126123046875,-2.2282672938510775,7.008971584093571,-6.486871956050396
1790107591354206200,1.981206298828125,-2.370238016244769,7.4121993335187435,-5.967550560548902
1790107591364150300,1.991150390625,-2.367770457087457,7.820308425244688,-5.422805969977379
1790107591374095000,2.00109521484375,-2.2346296684898435,8.214654949077964,-4.86787930034846
1790107591384039700,2.011039794921875,-2.031005622998625,8.562285898965596,-4.328123019583523
1790107591393983500,2.0209833984375,-1.803010521838814,8.825341792112589,-3.8772257564887402
1790107591403928800,2.0309287109375,-1.593022640404105,8.95516118120253,-3.665753043323755
1790107591413873700,2.040873779296875,-1.4880473313219844,9.023352089375257,-3.540510168369114
1790107591423817700,2.050817626953125,-1.4782416843615471,9.090409025081991,-3.3689231831297275
1790107591433762800,2.0607626953125,-1.5156860104843972,9.124342858865857,-3.2587463598817585
1790107591443707600,2.070707763671875,-1.5221214503593743,9.137058548054098,-3.219891436308622
1790107591453652700,2.08065283203125,-1.4657244403548537,9.137046273094414,-3.24598683155179
1790107591463596800,2.0905966796875,-1.3816799833595752,9.11711933735311,-3.337586672362685
1790107591473541600,2.100541748046875,-1.327608201432228,9.080946200209855,-3.4560511392235753
1790107591483486700,2.11048681640625,-1.3084439206264913,9.040598992252349,-3.5673432302370665
1790107591493430500,2.120430419921875,-1.28850938610062,9.013840749186278,-3.641539808565378
1790107591503376000,2.1303759765625,-1.2827318256124853,9.00363499699235,-3.668722706784308
1790107591513320700,2.14032080078125,-1.2518261074781416,9.017340866261721,-3.64566682536751
1790107591523265500,2.150265625,-1.196720014066994,9.048289546754956,-3.5870176525220274
1790107591533209900,2.1602099609375,-1.1225884637989103,9.084152302774786,-3.5197093724027275
1790107591543154700,2.17015478515625,-1.0543108271908015,9.115807085710763,-3.4584473867103456
1790107591553099500,2.180099609375,-1.001884474382922,9.137706782829762,-3.415976902988553
1790107591563043600,2.190043701171875,-0.9677678313780576,9.145939189124107,-3.4037653639301655
1790107591572988700,2.19998876953125,-0.9559205225221812,9.138428667363524,-3.427204107184708
1790107591582933800,2.209933837890625,-0.9464259873375296,9.134920951503515,-3.439171608354151
1790107591592877600,2.219877685546875,-0.9066996146921068,9.151417328274249,-3.4058535683810707
1790107591602822700,2.22982275390625,-0.8435828679785132,9.172002435663343,-3.3664746209338303
1790107591612767700,2.239767822265625,-0.7913261726491153,9.178959415194392,-3.3601915951415893
1790107591622712600,2.249712646484375,-0.7518379196085035,9.176488056644796,-3.375971932597458
1790107591632657000,2.259656982421875,-0.7225199090570211,9.174044170624017,-3.388989527341723
1790107591642601700,2.269601806640625,-0.7026018142092972,9.174173934483528,-3.392830420678854
1790107591652546600,2.279546630859375,-0.6722383862581104,9.172477067437768,-3.4035528902232643
1790107591662490600,2.28949072265625,-0.6249258693326264,9.165707134911418,-3.4306954564318057
1790107591672435700,2.299435791015625,-0.5716295652898028,9.156503253236412,-3.464400157634914
1790107591682380800,2.309380859375,-0.5166683602420613,9.145741620725392,-3.5012647841736673
1790107591692324600,2.31932470703125,-0.47048203433491287,9.129775405308603,-3.549117837716639
1790107591702269700,2.329269775390625,-0.42238432184848934,9.108959996294974,-3.608163316403329
1790107591712214800,2.33921484375,-0.35865894171725954,9.083113022854924,-3.6795138576507567
1790107591722158600,2.34915869140625,-0.29387501071011646,9.057054452490807,-3.7488378615066407
1790107591732104000,2.35910400390625,-0.247214217425324,9.032660015946625,-3.8105510980978607
1790107591742048800,2.369048828125,-0.21236630100384354,9.009103199270367,-3.867990310631692
1790107591751993600,2.37899365234375,-0.17772042822679504,8.984321809235215,-3.9269279450297354
1790107591761937700,2.388937744140625,-0.13531585848121902,8.956982551410794,-3.99055315272212
1790107591771882800,2.3988828125,-0.09967858178033492,8.930172285896539,-4.051229739741981
1790107591781827600,2.40882763671875,-0.07721622754358685,8.905693678200244,-4.105244530785083
1790107591791771600,2.418771728515625,-0.061020002763206134,8.882024633321166,-4.156474951806664
1790107591801716700,2.428716796875,-0.0411042140370002,8.856264753642678,-4.211325609152019
1790107591811661800,2.438661865234375,-0.019069516336015658,8.827961034700275,-4.270494714218378
1790107591821605600,2.448605712890625,-0.004254266190037014,8.799397203516959,-4.329083389048278
1790107591831550700,2.45855078125,0.002988133838526846,8.77282250032425,-4.382687845724821
1790107591841495800,2.468495849609375,0.021801549957168754,8.74603853829503,-4.4358419282853605
1790107591851440600,2.478440673828125,0.04866858944324776,8.719216582342982,-4.488125365491211
1790107591861384700,2.488384765625,0.07884437673469073,8.693784034922718,-4.536771322977542
1790107591871329800,2.498329833984375,0.11473964678463526,8.669457402917741,-4.582325744189322
1790107591881274600,2.508274658203125,0.15986839906340464,8.644567876332998,-4.627773490156233
1790107591891218700,2.51821875,0.2029349307158962,8.619191443014145,-4.673195224899053
1790107591901163800,2.528163818359375,0.2460770118226297,8.59176567595005,-4.721376779744029
1790107591911108600,2.538108642578125,0.29888313946202394,8.559322957506776,-4.776927109791338
1790107591921053700,2.5480537109375,0.36595921826064587,8.520961954930424,-4.8404181697100395
1790107591930997500,2.55799755859375,0.4455560481972992,8.477979722294211,-4.908740595307946
1790107591940942800,2.56794287109375,0.5336049185283481,8.432258420082926,-4.978218620681762
1790107591950887700,2.5778876953125,0.6210116915635764,8.385794775071739,-5.046103239384293
1790107591960831700,2.587831787109375,0.7077979215476662,8.339362109720707,-5.111207287457585
1790107591970776800,2.59777685546875,0.8008552676904946,8.291979596298933,-5.174176077067852
1790107591980721700,2.6077216796875,0.9032650371335447,8.240805289378761,-5.238667546200752
1790107591990665700,2.617665771484375,1.0126442802630364,8.183450832518934,-5.308115176436305
1790107592000610800,2.62761083984375,1.11276783846505,8.121216786924004,-5.383122194364667
1790107592010555600,2.6375556640625,1.1878445606287569,8.059491275373102,-5.459305854856968
1790107592020500700,2.647500732421875,1.2556342675894498,7.99893597664535,-5.532703099501132
1790107592030444500,2.657444580078125,1.3289100778110325,7.936161832824349,-5.605507638949155
1790107592040390000,2.667389892578125,1.4082077786706386,7.8664809783548115,-5.683820128163695
1790107592050334700,2.677334716796875,1.4892510080233214,7.787664631271362,-5.771031963148713
1790107592060278500,2.687278564453125,1.5708166538149118,7.701493829771876,-5.864294184213876
1790107592070224000,2.697223876953125,1.6527873732760547,7.610726932653784,-5.959487081080675
1790107592080168700,2.707168701171875,1.72939671183452,7.519436303922533,-6.052904200446605
1790107592090112800,2.71711279296875,1.7977863574497401,7.432855752578377,-6.1392988738298415
1790107592100057600,2.7270576171875,1.863767919009924,7.350613522699475,-6.218140355354548
1790107592110002700,2.737002685546875,1.9313121998421847,7.270100308570266,-6.2917456897914406
1790107592119946800,2.74694677734375,1.998139564576745,7.191226093819737,-6.361139544013143
1790107592129891600,2.7568916015625,2.0583155085980893,7.112329082715511,-6.430277377647161
1790107592139836700,2.766836669921875,2.109300576556474,7.031725852215289,-6.502004643252492
1790107592149781800,2.77678173828125,2.1518106616362926,6.948921312278508,-6.576671469441056
1790107592159725600,2.7867255859375,2.1796863644249735,6.864740807813406,-6.655423519116639
1790107592169671000,2.7966708984375,2.1948696127705274,6.77931527172327,-6.737494484081864
1790107592179615700,2.80661572265625,2.212583402507007,6.691731096294522,-6.818768161189555
1790107592189559800,2.816559814453125,2.2384461580380797,6.602346593445539,-6.897009923255443
1790107592199504600,2.826504638671875,2.2711960427343842,6.509848342490196,-6.973801486513018
1790107592209449700,2.83644970703125,2.3083301338642834,6.4155976949095725,-7.0485524838536975
1790107592219393800,2.846393798828125,2.3459160604149103,6.3212956094026564,-7.1209759150296446
1790107592229338600,2.856338623046875,2.3777855090148745,6.226215525260567,-7.193800328221917
1790107592239283700,2.86628369140625,2.4002672438055277,6.129282506728172,-7.269181440159678
1790107592249228800,2.876228759765625,2.413715046660602,6.030381987515091,-7.347030988037586
1790107592259172600,2.886172607421875,2.4254015389315784,5.932162436303496,-7.422753460758924
1790107592269117700,2.89611767578125,2.4464377510890363,5.834088431042432,-7.493247385177016
1790107592279062800,2.906062744140625,2.4823297332033514,5.734132849818468,-7.558316361936926
1790107592289006600,2.916006591796875,2.5282819215610624,5.6315907592326395,-7.6199319833725685
1790107592298951700,2.92595166015625,2.5819728874772787,5.533339059317112,-7.67371734957397
1790107592308896800,2.935896728515625,2.6347563831597567,5.4430549772799015,-7.720206713548302
1790107592318840800,2.9458408203125,2.675840088698268,5.362074730160832,-7.762630143257975
1790107592328785700,2.95578564453125,2.699070449899137,5.288334955689311,-7.805054742011428
1790107592338730800,2.965730712890625,2.7026874713525175,5.224118211844563,-7.8469404115825885
1790107592348675800,2.97567578125,2.687113470123708,5.166773107334971,-7.890137748274206
1790107592358619600,2.98561962890625,2.664850784911215,5.1114551247388125,-7.933598704338073
1790107592368564500,2.995564453125,2.648847160093486,5.061902866062522,-7.970641025531291
1790107592378509800,3.005509765625,2.647957810038328,5.021123696428537,-7.996689659023285
1790107592388454100,3.0154541015625,2.6621219444692135,4.988879715427756,-8.012153185614943
1790107592398399200,3.025399169921875,2.6731901587113738,4.968519064444303,-8.021111568096279
1790107592408344000,3.035343994140625,2.6718402054071424,4.961685419031977,-8.025790665823221
1790107592418288000,3.0452880859375,2.6597517082065343,4.965901575422286,-8.027199948099256
1790107592428233200,3.055233154296875,2.641348621031642,4.979270175561308,-8.024995131531357
1790107592438178000,3.065177978515625,2.622305190126598,5.001035432645678,-8.017701467391849
1790107592448123100,3.075123046875,2.6061151028260587,5.031800573265552,-8.003717950224877
1790107592458067200,3.085067138671875,2.5820854079410434,5.074094823637604,-7.984784117174148
1790107592468012000,3.095011962890625,2.5131112404361367,5.131930342012644,-7.969817434188723
1790107592477957000,3.10495703125,2.3820747306413947,5.202421343821287,-7.964351569998263
1790107592487901200,3.114901123046875,2.2344418908327817,5.26444554605782,-7.966384537130594
1790107592497846000,3.124845947265625,2.1169161661267277,5.305548540818691,-7.971210934373736
1790107592507791000,3.134791015625,2.05307775407508,5.339401126059889,-7.965300249025225
1790107592517735200,3.144735107421875,2.0377569969549776,5.374434445518255,-7.945653883790969
1790107592527680300,3.15468017578125,2.0375940614782273,5.417780250769853,-7.916202748379111
1790107592537625000,3.164625,2.02206243808642,5.47383063929379,-7.8815481991052625
1790107592547570200,3.174570068359375,1.996636174276471,5.539446728542447,-7.842086541810631
1790107592557514200,3.18451416015625,1.9821091978825627,5.6107022849828,-7.794975246545672
1790107592567459000,3.194458984375,1.987780229256302,5.685521671384572,-7.739118334767222
1790107592577404000,3.20440380859375,2.0060735724464056,5.763883260437846,-7.676179355773329
1790107592587348200,3.21434814453125,2.012347976540774,5.84724134260416,-7.611217931041121
1790107592597293000,3.22429296875,1.9963040197126567,5.937498536634445,-7.545283277362585
1790107592607238100,3.234238037109375,1.963779468204826,6.036890638756752,-7.474619841596484
1790107592617182000,3.244181884765625,1.9235854049824177,6.144326346603036,-7.397125098505616
1790107592627127300,3.254127197265625,1.8783944102555512,6.257434839388727,-7.313449620953202
1790107592637072100,3.264072021484375,1.82118754517287,6.374448522919416,-7.226344753473997
1790107592647017200,3.274017333984375,1.7413661127001046,6.495029543542862,-7.138108836138248
1790107592656961300,3.283961181640625,1.6398275000683962,6.619145168033242,-7.047573409688472
1790107592666906000,3.293906005859375,1.5294902255617082,6.74703329679966,-6.950438146582245
1790107592676851000,3.303850830078125,1.4160294122070074,6.880152896478772,-6.843152660861611
1790107592686795300,3.313795166015625,1.2914575683817267,7.020879464030266,-6.723820178994536
1790107592696740000,3.323739990234375,1.150966709282249,7.167936403647064,-6.5929007197082035
1790107592706685200,3.333685302734375,1.0148298076085747,7.314865917491913,-6.452382826471329
1790107592716629000,3.34362890625,0.9013954438693821,7.457048529070615,-6.3047834505409
1790107592726574000,3.353573974609375,0.809294083277136,7.592165440046787,-6.154222302195429
1790107592736519200,3.363519287109375,0.7330406454842537,7.719068649429082,-6.004080840566754
1790107592746464000,3.373464111328125,0.6731291245527565,7.8339552578032015,-5.860581301170587
1790107592756408300,3.383408203125,0.6343306073419749,7.936759798717499,-5.725021322602033
1790107592766353200,3.393353271484375,0.6213919961180537,8.028913766279816,-5.5964989875853055
1790107592776298000,3.403298095703125,0.6323056773856282,8.114857188764214,-5.4698874546259635
1790107592786242000,3.413241943359375,0.6618466830380261,8.198513377094269,-5.3401037213712925
1790107592796187100,3.423187255859375,0.6857844618558884,8.282470009675622,-5.205841965919733
1790107592806132000,3.433132080078125,0.6821542886599898,8.367482288789748,-5.068557647776603
1790107592816076000,3.443075927734375,0.6586036094635724,8.44914818008542,-4.9344209800094365
1790107592826021000,3.453021240234375,0.639574937736243,8.524931443083286,-4.8048792388170956
1790107592835966200,3.46296630859375,0.6270639042746275,8.59389158206284,-4.68211619797945
1790107592845911000,3.4729111328125,0.5998210194967687,8.652966286844014,-4.57567213151902
1790107592855855000,3.482855224609375,0.556242209206894,8.703158012467622,-4.485089358796179
1790107592865800200,3.49280029296875,0.5201231403384358,8.744074544745683,-4.409198836031556
1790107592875745000,3.5027451171875,0.4987281048059463,8.775403164467216,-4.34901617000848
1790107592885689000,3.512689208984375,0.4831414998238906,8.800045438292623,-4.300715372698009
1790107592895634200,3.52263427734375,0.45998252335879947,8.826284041398763,-4.249176616379619
1790107592905579000,3.5325791015625,0.41516368641257284,8.858242191195487,-4.1868326806694265
1790107592915523000,3.542523193359375,0.35631705476623027,8.893681168845296,-4.116533109779656
1790107592925468200,3.55246826171875,0.3056666986549273,8.930145397889614,-4.040969042490422
1790107592935413200,3.562413330078125,0.27835551614752035,8.964750847324728,-3.9656209560394284
1790107592945357000,3.572357177734375,0.27114993215026334,8.997338527196645,-3.891629837155342
1790107592955302100,3.58230224609375,0.26650225247489284,9.028359688404201,-3.8194384611696
1790107592965247200,3.592247314453125,0.2634725476564839,9.057927143672108,-3.7489886681541797
1790107592975192000,3.602192138671875,0.26881463933680205,9.086006406208872,-3.6800270678699016
1790107592985136000,3.61213623046875,0.2888180926467292,9.109481389820575,-3.6199905323192474
1790107592995081200,3.622081298828125,0.31672640079706904,9.127050948780775,-3.573095802414417
1790107593005026000,3.632026123046875,0.34162772741746156,9.140397337087988,-3.5364945029869674
1790107593014970000,3.64197021484375,0.3643143371304497,9.149709355312586,-3.5100559933945537
1790107593024915200,3.651915283203125,0.3869687981395051,9.15389511656463,-3.496688270038366
1790107593034860000,3.661860107421875,0.4079444026835263,9.152508630642295,-3.4979391468822953
1790107593044804000,3.67180419921875,0.42700905903968955,9.144742672815918,-3.5159286848202345
1790107593054749000,3.6817490234375,0.4396462761642411,9.132391140764952,-3.546340774218738
1790107593064694300,3.6916943359375,0.4463008021499961,9.11652312502563,-3.5861145662024616
1790107593074639000,3.70163916015625,0.45011546506732697,9.09548559769392,-3.638671559652686
1790107593084583200,3.711583251953125,0.45477889030110086,9.068917908763884,-3.7038214926943183
1790107593094528300,3.7215283203125,0.4623676283970475,9.03880801718235,-3.775781398011744
1790107593104473000,3.73147314453125,0.4693954081419855,9.006620150282979,-3.851084476277232
1790107593114417200,3.741417236328125,0.4793371025722474,8.97142433373928,-3.931180341777205
1790107593124362200,3.7513623046875,0.4986147440919652,8.931951570528746,-4.017712377804518
1790107593134307000,3.76130712890625,0.5234528327504172,8.889310698676109,-4.108104888652265
1790107593144251100,3.771251220703125,0.5383477291412652,8.846719511184096,-4.197152122370898
1790107593154196000,3.781196044921875,0.5380770955063402,8.805951447466015,-4.282065909546613
1790107593164141000,3.79114111328125,0.5329018117602914,8.765685488051176,-4.364536979745328
1790107593174086100,3.801086181640625,0.533919208641909,8.724229442068934,-4.446698545603454
1790107593184030000,3.811030029296875,0.5404317323410883,8.682248495429754,-4.527348830115795
1790107593193975300,3.820975341796875,0.539392963877879,8.642665842103957,-4.602582058015465
1790107593203920100,3.830920166015625,0.5330139668978751,8.605838624966145,-4.67181195384711
1790107593213864200,3.8408642578125,0.5342125290326774,8.569560273882747,-4.737892153476178
1790107593223809300,3.850809326171875,0.5458450260940939,8.533207688519358,-4.801749708619713
1790107593233754000,3.860754150390625,0.5563248825216666,8.499688280755281,-4.859647478576004
1790107593243698200,3.8706982421875,0.5611684500953182,8.47080003992319,-4.909277770924568
1790107593253643000,3.88064306640625,0.5778440924230963,8.442493982893229,-4.955884039276838
1790107593263588000,3.890588134765625,0.610207206291519,8.412038638874888,-5.0035629052966835
1790107593273533200,3.900533203125,0.6509702650409191,8.379242284688353,-5.0532086874753235
1790107593283477000,3.91047705078125,0.6958555548194796,8.343428628507256,-5.106205533647537
1790107593293422300,3.92042236328125,0.7343047471359372,8.305818152037263,-5.1618356509327885
1790107593303367200,3.9303671875,0.7580816363036632,8.26977244066596,-5.215991604012251
1790107593313311000,3.94031103515625,0.7680017034240066,8.235710596588254,-5.268171873104572
1790107593323256000,3.950256103515625,0.7720536822285503,8.201617772850394,-5.32050762501955
1790107593333201200,3.960201171875,0.7847937021404504,8.163340356904268,-5.377209170928597
1790107593343145200,3.970145263671875,0.8092674875311553,8.12101688043773,-5.437332507979869
1790107593353090000,3.980090087890625,0.8420497401271015,8.077450125911831,-5.496923345589638
1790107593363035100,3.99003515625,0.8808660121902823,8.03256235191524,-5.556290895837545
1790107593372979200,3.999979248046875,0.9252605227772146,7.983646637576818,-5.619219937959313
1790107593382923300,4.00992333984375,0.9771563489049673,7.927422646051645,-5.689598711565137
1790107593392868600,4.01986865234375,1.0379361040383577,7.861575086134672,-5.769635540354251
1790107593402813400,4.0298134765625,1.1024923820357768,7.785071692168712,-5.860678916326165
1790107593412757500,4.039757568359375,1.16613227584064,7.697862779793143,-5.962668049204349
1790107593422702600,4.04970263671875,1.2264091960184276,7.604818000870942,-6.069021807032823
1790107593432647400,4.0596474609375,1.284628160753101,7.510501886838674,-6.173527891167998
1790107593442591500,4.069591552734375,1.3409857155300675,7.418591080382466,-6.271894741895794
1790107593452536300,4.079536376953125,1.3925531134210527,7.3308911696195596,-6.363112889912724
1790107593462481400,4.0894814453125,1.4363022387765347,7.243765259352326,-6.4525435699909925
1790107593472425500,4.099425537109375,1.4761524569973348,7.155301378479599,-6.54163814998269
1790107593482370300,4.109370361328125,1.5132295572429895,7.066487368994951,-6.629122956690192
1790107593492315600,4.119315673828125,1.5518417581014334,6.977331414204835,-6.7140925657063715
1790107593502260500,4.129260498046875,1.5874908713705838,6.887106953400373,-6.7983829602867365
1790107593512204300,4.139204345703125,1.6168990444235503,6.798017634105682,-6.8806234365999694
1790107593522149600,4.149149658203125,1.647982603342831,6.709755997806787,-6.959432184898853
1790107593532094500,4.159094482421875,1.6859502226874232,6.62075201870799,-7.035169855189323
1790107593542038500,4.16903857421875,1.7286708817780017,6.530605299314856,-7.108676989948749
1790107593551983400,4.1789833984375,1.7695723626174031,6.438491079241037,-7.1822583589881654
1790107593561928400,4.188928466796875,1.8025275606274604,6.3438441258192055,-7.257887892729044
1790107593571872500,4.19887255859375,1.8303338514417409,6.246384453064203,-7.33505004286468
1790107593581817300,4.2088173828125,1.8548107055723666,6.146212014219165,-7.413107096013427
1790107593591762400,4.218762451171875,1.8716123488999903,6.044791036617756,-7.4918597302109
1790107593601706500,4.22870654296875,1.88031748727262,5.941551026895642,-7.571840444898605
1790107593611651300,4.2386513671875,1.8879910906404256,5.835371456590295,-7.652076595652103
1790107593621596700,4.2485966796875,1.9030264549478888,5.723835327687859,-7.732178890892863
1790107593631541500,4.25854150390625,1.9305923611350357,5.609159731715917,-7.809001433810591
1790107593641485600,4.268485595703125,1.9719820638827978,5.493703214499354,-7.8804136421173805
1790107593651430400,4.278430419921875,2.0221917635545132,5.379639028424024,-7.946106303733587
1790107593661375500,4.28837548828125,2.065368203588575,5.274133996379375,-8.005506002685427
1790107593671319600,4.298319580078125,2.0802286497205493,5.179017087358236,-8.063549610853194
1790107593681264400,4.308264404296875,2.0758663628578184,5.094270765703916,-8.118470118564368
1790107593691209500,4.31820947265625,2.0821442740835248,5.017983644837141,-8.164245781311392
1790107593701153500,4.328153564453125,2.1191589766174554,4.949177235114574,-8.196657520094513
1790107593711098400,4.338098388671875,2.1696607911035417,4.890987496474385,-8.218345035767555
1790107593721043500,4.34804345703125,2.208850499588996,4.843095279964804,-8.236247772204875
1790107593730988500,4.357988525390625,2.2267339468039573,4.809600129859149,-8.251050204539299
1790107593740932400,4.367932373046875,2.227631480165571,4.7903769584730265,-8.261980179354548
1790107593750877400,4.37787744140625,2.215112336462736,4.781135959658027,-8.270694816207886
1790107593760822500,4.387822509765625,2.1866538653500376,4.779869592984021,-8.278996196085215
1790107593770766600,4.3977666015625,2.1417367191284895,4.784658580826223,-8.287966853526234
1790107593780711400,4.40771142578125,2.0887280363880096,4.7922635028719895,-8.29709474735558
1790107593790656500,4.417656494140625,2.0362435236521064,4.80148521246463,-8.304809267255663
1790107593800600600,4.4276005859375,1.987967714652419,4.814077567534149,-8.309212470650673
1790107593810545400,4.43754541015625,1.9477032165423034,4.83235995093882,-8.30813578132987
1790107593820490200,4.447490234375,1.9136038169331848,4.85849041749537,-8.300818736314772
1790107593830434600,4.4574345703125,1.8805482272885738,4.893492172771692,-8.287801433831453
1790107593840379400,4.46737939453125,1.8471059764139353,4.937897716209292,-8.268962293326855
1790107593850324500,4.477324462890625,1.81298626466915,4.992358789715171,-8.243774660578369
1790107593860269600,4.48726953125,1.7797652553297578,5.054825475022197,-8.212888523927331
1790107593870213600,4.497213623046875,1.7516253486469386,5.122973128575087,-8.17663413824141
1790107593880158500,4.507158447265625,1.7251869851849972,5.195841380909085,-8.136177040168642
1790107593890103600,4.517103515625,1.6931917182482779,5.274024690786003,-8.092475261086225
1790107593900047600,4.527047607421875,1.6511770154699683,5.357541178384423,-8.046163007244468
1790107593909992400,4.536992431640625,1.6014236812636256,5.445955374896526,-7.996712455376982
1790107593919937300,4.546937255859375,1.544478389726579,5.538337890517711,-7.94429136326611
1790107593929881600,4.556881591796875,1.4809592727571725,5.635392489603161,-7.887932931706309
1790107593939826400,4.566826416015625,1.4153659798622131,5.7376861583858725,-7.825986470881104
1790107593949771500,4.576771484375,1.354926708729565,5.84614068788588,-7.756106294447183
1790107593959716600,4.586716552734375,1.3016460771799088,5.961876022043824,-7.676726468262076
1790107593969660400,4.596660400390625,1.2539884000785648,6.0839966733247035,-7.588339159756899
1790107593979605500,4.60660546875,1.214786343568191,6.208831259739399,-7.493004808592796
1790107593989550300,4.61655029296875,1.1852958990592508,6.334702787986397,-7.391686122322082
1790107593999494700,4.62649462890625,1.167318270754814,6.460919768670201,-7.284524555242061
1790107594009439500,4.636439453125,1.1644744256310164,6.586236585643887,-7.171879588314891
1790107594019384300,4.64638427734375,1.173791120030731,6.711119102853536,-7.053616196984052
1790107594029328400,4.656328369140625,1.186446603464335,6.836854437500238,-6.929658393403887
1790107594039273500,4.6662734375,1.1990376433596015,6.9629732185065745,-6.8007134490609165
1790107594049218300,4.67621826171875,1.2141976569600403,7.087113392916321,-6.668502780920266
1790107594059162400,4.686162353515625,1.2358058237865566,7.2075611425489186,-6.534081450992822
1790107594069107500,4.696107421875,1.2661151834629476,7.323782798919082,-6.397620139670372
1790107594079052500,4.706052490234375,1.3048489648744463,7.436085236018895,-6.2587856694757935
1790107594088997400,4.715997314453125,1.3493499315105377,7.545288538059592,-6.117046125489473
1790107594098941400,4.72594140625,1.3994703454636037,7.6516732755482195,-5.971913431933522
1790107594108886500,4.735886474609375,1.4587299052923917,7.75376236166954,-5.824229300329089
1790107594118831400,4.745831298828125,1.5226073341801762,7.851556965467333,-5.67495293109715
1790107594128775400,4.755775390625,1.5784464180409907,7.946342450577021,-5.5258098328560585
1790107594138720500,4.765720458984375,1.6152860562689602,8.034772429180144,-5.385505290108918
1790107594148665300,4.775665283203125,1.6266544225014745,8.114596492001414,-5.26095887298584
1790107594158609400,4.785609375,1.6153567834176121,8.184756654420495,-5.154685779178142
1790107594168554500,4.795554443359375,1.5778865922011434,8.248843634405732,-5.063323838776349
1790107594178499600,4.80549951171875,1.5022082508824766,8.311793719315528,-4.98275451054573
1790107594188444400,4.8154443359375,1.3962747642926872,8.37508984118402,-4.9070016426861285
1790107594198388500,4.825388427734375,1.2963185985468326,8.43574158602357,-4.82992629405111
1790107594208333600,4.83533349609375,1.2316150940984487,8.493508130815625,-4.74487397518754
1790107594218278400,4.8452783203125,1.201389321052283,8.548020642247796,-4.653857779483497
1790107594228222500,4.855222412109375,1.1814880312088876,8.599977623978257,-4.562331003908812
1790107594238167600,4.86516748046875,1.1599700268838553,8.650853824734687,-4.470748698754608
1790107594248112400,4.8751123046875,1.1502091689132152,8.700455183249712,-4.376015236093104
1790107594258056400,4.885056396484375,1.1544071320597082,8.747395213600992,-4.2802778570860625
1790107594268001500,4.89500146484375,1.155598899127543,8.790659770309924,-4.190380728539824
1790107594277946400,4.9049462890625,1.1524312288768588,8.828946538606285,-4.109988802702724
1790107594287890400,4.914890380859375,1.1595177530717105,8.859310112687945,-4.042094247128069
1790107594297835300,4.924835205078125,1.1723193669777363,8.879529893895983,-3.993745811283588
1790107594307780600,4.934780517578125,1.1859425994649528,8.891671582588552,-3.962588748736679
1790107594317725400,4.944725341796875,1.2042368925031275,8.900364007610083,-3.9374803187042473
1790107594327669500,4.95466943359375,1.237069852373004,8.901754585185646,-3.9241301310047505
1790107594337614600,4.964614501953125,1.2750789727717637,8.893241608384251,-3.9312648051902648
1790107594347559400,4.974559326171875,1.3004457614794374,8.87850756511092,-3.956177712650597
1790107594357503500,4.98450341796875,1.3148293838799,8.859269780677556,-3.9943677425742146
1790107594367448600,4.994448486328125,1.3272067810244856,8.834944902238249,-4.043844890187681
1790107594377393400,5.004393310546875,1.3494554377116261,8.804292574343085,-4.102901474790275
1790107594387338000,5.014337890625,1.3774232026979327,8.769462083980441,-4.167689004260302
1790107594397282800,5.02428271484375,1.3993743377432226,8.733643167102336,-4.235043461608886
1790107594407227600,5.0342275390625,1.4160061774618924,8.696796660742162,-4.304767278437316
1790107594417171700,5.044171630859375,1.4357779226414857,8.657215176460147,-4.377388278011978
1790107594427116800,5.05411669921875,1.4617401930242777,8.613885737821459,-4.453612270514666
1790107594437062000,5.064061767578125,1.4853877567239104,8.568432731157541,-4.532769978381693
1790107594447007000,5.074007080078125,1.4954771890617906,8.524824475577473,-4.610995666095614
1790107594456950800,5.08395068359375,1.496243935650587,8.483979839491843,-4.685477783367038
1790107594466896000,5.093895751953125,1.5005454322367906,8.442728376170992,-4.758057281887531
1790107594476840700,5.1038408203125,1.5131475780479609,8.399318273511529,-4.830342181375623
1790107594486785000,5.113784912109375,1.5280144539207219,8.355110882994532,-4.901805535347759
1790107594496729900,5.123729736328125,1.5380430959820746,8.312994911798834,-4.969800920948386
1790107594506674700,5.1336748046875,1.5499581363119184,8.273330425408481,-5.03189818842113
1790107594516618800,5.14361865234375,1.5698950089253485,8.234576039600372,-5.088965645033121
1790107594526563800,5.153563720703125,1.6001489851526915,8.19408971543312,-5.144589917099475
1790107594536508700,5.1635087890625,1.6342175512321293,8.150254665359855,-5.203175961580873
1790107594546452700,5.17345263671875,1.6671904310293495,8.102783304610847,-5.266474421536922
1790107594556397800,5.183397705078125,1.7005891350232063,8.050793589654564,-5.335081509295105
1790107594566343000,5.193343017578125,1.7368357757940887,7.992616710495948,-5.410350393030047
1790107594576287700,5.203287841796875,1.7783688325352967,7.925373312306403,-5.495114250341057
1790107594586232000,5.213232177734375,1.8282297187693417,7.849123600840568,-5.5874143483757965
1790107594596177000,5.223177001953125,1.8830299611017107,7.764881721577048,-5.68604891012907
1790107594606121700,5.233121826171875,1.941161539813876,7.674314730945229,-5.788538393744826
1790107594616065800,5.243065673828125,2.0019000861540435,7.5809829517751925,-5.889950018996
1790107594626011000,5.253010986328125,2.065073604556173,7.48842800219655,-5.985760170978307
1790107594635955700,5.262955810546875,2.1337686628587544,7.397571673229336,-6.073990243095159
1790107594645899800,5.272899658203125,2.207363329771161,7.3101394734919065,-6.153029877540469
1790107594655844900,5.282844970703125,2.2784233636394142,7.227595630317926,-6.22423341153264
1790107594665790000,5.2927900390625,2.335790679980814,7.1503118996292345,-6.291863763213157
1790107594675733800,5.302733642578125,2.3767177336528897,7.074568968641757,-6.361766736000776
1790107594685678800,5.312678955078125,2.4124044024534523,6.994737891557812,-6.436174034470319
1790107594695624000,5.3226240234375,2.455141866548359,6.90979224793911,-6.51133185904622
1790107594705568800,5.33256884765625,2.5117007891163228,6.81954323721528,-6.5844935413688415
1790107594715512800,5.342512939453125,2.5851734370842574,6.7232865105092525,-6.654674162054062
1790107594725458000,5.3524580078125,2.6702769016131755,6.622158962896465,-6.722128572645783
1790107594735402800,5.36240283203125,2.753357043620944,6.517489212632179,-6.7905655645340675
1790107594745346800,5.372346923828125,2.825532929776609,6.409808590114117,-6.8630246515452855
1790107594755292000,5.3822919921875,2.8754782794237137,6.302177067434787,-6.941510159239172
1790107594765236700,5.39223681640625,2.894457412920892,6.197838156560063,-7.027042662835121
1790107594775180800,5.402180908203125,2.889066075271368,6.098578156384825,-7.115550382849574
1790107594785125600,5.412125732421875,2.86961026417315,6.005056407600641,-7.202433716532588
1790107594795071000,5.422071044921875,2.840970737405121,5.918162552523612,-7.285232995772361
1790107594805014800,5.432014892578125,2.809875634178519,5.838880341494083,-7.360874219951033
1790107594814959900,5.4419599609375,2.77534354224056,5.765820950502157,-7.4312307817250485
1790107594824905000,5.451905029296875,2.740814665172994,5.696043649920821,-7.497560572201013
1790107594834849800,5.461849853515625,2.7130495831519363,5.624139274182915,-7.561665087842941
1790107594844793900,5.4717939453125,2.6899866874724623,5.543750563216209,-7.628972198918461
1790107594854739000,5.481739013671875,2.674663446134329,5.451407210561633,-7.700567947098612
1790107594864683800,5.491683837890625,2.668887200820446,5.349151535701751,-7.773929535907507
1790107594874627800,5.5016279296875,2.6801138204947113,5.2396916285514825,-7.844298957163095
1790107594884572700,5.51157275390625,2.706791984061897,5.125430458599329,-7.9103487616539
1790107594894518000,5.52151806640625,2.7347736314430833,5.01160709554255,-7.973405814069509
1790107594904461800,5.5314619140625,2.7457936226293445,4.903388712885976,-8.036652836099266
1790107594914406700,5.54140673828125,2.743284562417865,4.8046501062363385,-8.09692171910107
1790107594924352000,5.55135205078125,2.7525971651643513,4.71177863805443,-8.148176105520129
1790107594934295800,5.5612958984375,2.789105233350396,4.622890686550736,-8.186585623413324
1790107594944241000,5.571240966796875,2.8426000921726224,4.544119055391848,-8.212247303414344
1790107594954185700,5.581185791015625,2.8847677935555573,4.480333396440744,-8.23256469977796
1790107594964130800,5.591130859375,2.899514988571405,4.4337133918240665,-8.252598018503189
1790107594974075000,5.601074951171875,2.8812068862035867,4.402086373677849,-8.27590875146389
1790107594984019700,5.611019775390625,2.835381539095938,4.379550424481928,-8.303646653217077
1790107594993964800,5.62096484375,2.7823896613597867,4.36450512330234,-8.329453879168629
1790107595003908900,5.630908935546875,2.7329019923523066,4.359337949797511,-8.348520398688315
1790107595013853700,5.640853759765625,2.6847774283915755,4.365082046407461,-8.361127366805077
1790107595023799000,5.650799072265625,2.631846340931952,4.383072461128235,-8.36854144245386
1790107595033742800,5.660742919921875,2.5735990268856286,4.412294463959336,-8.371298047685622
1790107595043688000,5.67068798828125,2.5152821547344324,4.451268337737024,-8.368390051284432
1790107595053632800,5.6806328125,2.4555273587346074,4.499669965073466,-8.360248830404878
1790107595063576800,5.690576904296875,2.392319353540987,4.556988181576132,-8.347518528169394
1790107595073522000,5.70052197265625,2.3279487343087792,4.622608654738962,-8.329618714341521
1790107595083466800,5.710466796875,2.260125344274193,4.697112691581249,-8.30658621380031
1790107595093411800,5.720411865234375,2.189873265787959,4.78035591519624,-8.27786631527245
1790107595103356000,5.73035595703125,2.1190654531151054,4.870777359877526,-8.243509872162342
1790107595113300700,5.74030078125,2.0482276836954054,4.9668742198467255,-8.203980410328507
1790107595123245800,5.750245849609375,1.976189160183817,5.068275323703885,-8.15951232304871
1790107595133190000,5.76018994140625,1.89730354725644,5.17568998876214,-8.110662659683824
1790107595143134700,5.770134765625,1.8109294782698153,5.288820108857751,-8.057251972013711
1790107595153079800,5.780079833984375,1.722107285478711,5.406829233166575,-7.998183112451434
1790107595163024000,5.79002392578125,1.630818994835019,5.527036744302511,-7.934901603630185
1790107595172969000,5.799968994140625,1.5351526352375744,5.646603034925461,-7.869535105228423
1790107595182913800,5.809913818359375,1.4351223813422023,5.765365607950091,-7.802011721053719
1790107595192857900,5.81985791015625,1.3343038996785879,5.883838258117437,-7.73113902645111
1790107595202803000,5.829802978515625,1.2373369788765907,6.001838030076026,-7.656196890452503
1790107595212747800,5.839747802734375,1.1451619685262442,6.119124685329198,-7.577289942476153
1790107595222692600,5.849692626953125,1.0601727049615233,6.237224995052814,-7.492892580389976
1790107595232637000,5.859636962890625,0.9828593828521668,6.361620605528354,-7.398253225752711
1790107595242581800,5.869581787109375,0.9115139561712742,6.494270249608158,-7.2913628768295045
1790107595252526800,5.87952685546875,0.8507733640044927,6.634610448190569,-7.171369885227084
1790107595262470700,5.889470703125,0.8139664590023458,6.777913003709912,-7.040435812893509
1790107595272416000,5.899416015625,0.8034521523158997,6.917643545961379,-6.904425167948007
1790107595282360800,5.90936083984375,0.8091348010621965,7.0505147238373755,-6.768007111245393
1790107595292304600,5.9193046875,0.8235303330961614,7.176607201358675,-6.632384004312753
1790107595302250000,5.92925,0.8414617111060768,7.296513099199533,-6.497941047075391
1790107595312194800,5.93919482421875,0.8637661896336823,7.412015793645382,-6.3628843418538565
1790107595322139600,5.9491396484375,0.8978208002530038,7.519844884723424,-6.230265677434206
1790107595332084000,5.959083984375,0.9473987778924405,7.615770187518,-6.105151689556241
1790107595342028800,5.96902880859375,0.9928259194627403,7.702198763170838,-5.988391104003787
1790107595351974000,5.978973876953125,1.0056268027164041,7.785386164945364,-5.877657523655891
1790107595361917700,5.988917724609375,0.9751493199314921,7.867951050907373,-5.771897640067339
1790107595371862800,5.99886279296875,0.8958594370521604,7.952783297279477,-5.667545285189151
1790107595381807900,6.008807861328125,0.7868377751886844,8.04117820456922,-5.557945092785358
1790107595391752000,6.018751953125,0.6824963070306926,8.130174000361562,-5.441036038672924
1790107595401697000,6.028697021484375,0.6086158819794655,8.213396473449468,-5.323541293627024
1790107595411642000,6.03864208984375,0.5736483212336898,8.286958553266524,-5.212258847224712
1790107595421586000,6.0485859375,0.5610220273619517,8.352623157832026,-5.107774390399456
1790107595431531000,6.058531005859375,0.52716140494477,8.417688627460599,-5.003501530498266
1790107595441475800,6.068475830078125,0.4788778875626623,8.484287882527708,-4.894683720643818
1790107595451421000,6.0784208984375,0.4466637171782553,8.549367380681634,-4.78321802662909
1790107595461365000,6.088364990234375,0.4267844930361956,8.609141173642874,-4.676635136219859
1790107595471309800,6.098309814453125,0.4120869823809713,8.662400470143556,-4.578577789832651
1790107595481255200,6.108255126953125,0.39849922306593505,8.71099469744265,-4.486662891723215
1790107595491199000,6.118198974609375,0.38050530121382325,8.754286142158508,-4.403187612918019
1790107595501143800,6.128143798828125,0.354196993872337,8.791007560834288,-4.331644763968884
1790107595511089000,6.1380888671875,0.33812611250467595,8.820611840981245,-4.27233771173656
1790107595521033000,6.148032958984375,0.3419407023567706,8.84158214829564,-4.228461452870071
1790107595530978000,6.15797802734375,0.3543745789289474,8.854906909292936,-4.1994560153990985
1790107595540923000,6.1679228515625,0.36613135995715856,8.860540531265736,-4.186543926855921
1790107595550867000,6.177866943359375,0.37097785014025864,8.85672535689175,-4.194181289866567
1790107595560812000,6.18781201171875,0.36883090123943985,8.845078173717855,-4.218880262315273
1790107595570756900,6.1977568359375,0.36979967320635915,8.827138612401486,-4.2561993546232575
1790107595580701000,6.207700927734375,0.3750950031355023,8.80381618900299,-4.303779728704691
1790107595590646000,6.21764599609375,0.3831744473578408,8.775946185302734,-4.359626703611016
1790107595600590800,6.2275908203125,0.3962885978117585,8.743226988005638,-4.4237221591636535
1790107595610536000,6.237535888671875,0.41421007548216726,8.705714126691221,-4.495481865733861
1790107595620480000,6.24747998046875,0.43477443234417584,8.66403245525956,-4.573390450322628
1790107595630425000,6.257425048828125,0.4575295407161116,8.619024854275583,-4.655480412249267
1790107595640370000,6.267369873046875,0.480399215378426,8.572336752858757,-4.738633619493246
1790107595650313700,6.277313720703125,0.5043027266005053,8.524822722011804,-4.821146483007073
1790107595660259000,6.287259033203125,0.5257471177000552,8.47719938557148,-4.902147480653226
1790107595670204000,6.297203857421875,0.5442333531137555,8.42943634839952,-4.981847917094826
1790107595680148000,6.30714794921875,0.5606503810379654,8.381067746549844,-5.061000948786735
1790107595690093000,6.317093017578125,0.575976325789839,8.332134496554731,-5.139475350564718
1790107595700038000,6.327037841796875,0.5889233395159245,8.282806694284082,-5.217151295441389
1790107595709982000,6.33698193359375,0.5979293605312704,8.233902670383452,-5.292986580887437
1790107595719927000,6.346927001953125,0.603877053421922,8.187015247002243,-5.364558363670111
1790107595729872000,6.356871826171875,0.6144697956394404,8.141371101680397,-5.432395051577687
1790107595739817000,6.36681689453125,0.6344539414606988,8.094805165338515,-5.499270200976729
1790107595749760800,6.3767607421875,0.6564551992580294,8.04718416698575,-5.566171653860807
1790107595759706000,6.3867060546875,0.6744530666328966,7.998950589692592,-5.633141495805979
1790107595769651000,6.39665087890625,0.6951746598832309,7.947708478233218,-5.7027229815542695
1790107595779595000,6.406594970703125,0.7278268563587218,7.890379155814647,-5.777765655317903
1790107595789540000,6.4165400390625,0.7698604099679738,7.826720630374551,-5.858340244245529
1790107595799485000,6.42648486328125,0.801458786541596,7.761842792272567,-5.939852990806102
1790107595809429000,6.436428955078125,0.8264418366286903,7.695625229999423,-6.0220215709269045
1790107595819373800,6.446373779296875,0.8639655846633016,7.622252535274624,-6.109436819529533
1790107595829319000,6.45631884765625,0.9123338211867957,7.53941818472147,-6.204449099132418
1790107595839263000,6.466262939453125,0.9581324994832277,7.448328046998381,-6.30672347869277
1790107595849207800,6.476207763671875,0.997012046040967,7.352331432533264,-6.412451798099279
1790107595859153200,6.486153076171875,1.034685066353157,7.256056585648656,-6.515325312596559
1790107595869098000,6.496097900390625,1.0712262330912052,7.161124970066547,-6.613709698981046
1790107595879041800,6.506041748046875,1.0969050834227352,7.072246078652143,-6.704516928109526
1790107595888987100,6.515987060546875,1.109656428446248,6.993421548262238,-6.784621561437845
1790107595898932000,6.525931884765625,1.1214297222178429,6.923681657081842,-6.853859348315
1790107595908876000,6.5358759765625,1.1383412556607275,6.8596589745044705,-6.915174525499343
1790107595918820900,6.54582080078125,1.1638992560915649,6.799218242067099,-6.970390801286697
1790107595928766000,6.555765869140625,1.2018985126834363,6.738312814727426,-7.022890219330788
1790107595938710000,6.5657099609375,1.252704059356451,6.672644703030586,-7.0765066587060685
1790107595948654800,6.57565478515625,1.3141281037427484,6.597725947907566,-7.135367428475618
1790107595958600000,6.585599853515625,1.3758648673400282,6.5109454900771375,-7.203122867840528
1790107595968544000,6.5955439453125,1.427416921531409,6.412966761884093,-7.280571433702111
1790107595978488800,6.60548876953125,1.4682906375810503,6.306905265000462,-7.36460931482613
1790107595988434200,6.61543408203125,1.5040037559971213,6.197561093184351,-7.449739082840084
1790107595998378000,6.6253779296875,1.5417325981497765,6.088659404438734,-7.53137867065072
1790107596008323000,6.635322998046875,1.5886907486796378,5.9815089432746165,-7.6071023124158375
1790107596018268000,6.645267822265625,1.646067417371273,5.874137532836198,-7.678239795434474
1790107596028213000,6.655212890625,1.7071568229757248,5.7641083013653756,-7.747972087830305
1790107596038157000,6.665156982421875,1.7672182007066906,5.654957021772861,-7.8146514223963015
1790107596048102000,6.675101806640625,1.824076836873591,5.544945910480618,-7.880146515613794
1790107596058047000,6.685046875,1.875898355656117,5.4323582266986365,-7.946125592955947
1790107596067991000,6.694990966796875,1.9210009414471685,5.319177253198624,-8.011646405136585
1790107596077935900,6.704935791015625,1.9596748093649743,5.205460857647657,-8.076709536677598
1790107596087881000,6.714880859375,1.9990498112894592,5.090352715477347,-8.140178092503547
1790107596097825000,6.724824951171875,2.042006178832054,4.9757232967346905,-8.200168743085861
1790107596107769900,6.734769775390625,2.091124430005252,4.864912267236411,-8.254102577847242
1790107596117715000,6.74471484375,2.1508276419483123,4.76006540683955,-8.299764843347669
1790107596127658800,6.75465869140625,2.2244787152230736,4.660844861891865,-8.336582708135246
1790107596137604000,6.76460400390625,2.3055429873637854,4.568624551095068,-8.365555704641341
1790107596147549000,6.774548828125,2.3796600707150994,4.486211056302488,-8.389367957383394
1790107596157493000,6.784492919921875,2.4323129257552325,4.419822521376609,-8.40948135560751
1790107596167438000,6.79443798828125,2.4477901886112985,4.369956666706503,-8.431024494373798
1790107596177383000,6.8043828125,2.425658290171623,4.334728409197926,-8.455572075653075
1790107596187327700,6.81432763671875,2.3852694350294765,4.312610685414076,-8.478341541343926
1790107596197272000,6.82427197265625,2.3427007516302165,4.300788437934219,-8.496198685073852
1790107596207217000,6.834216796875,2.296992308900505,4.300875531695783,-8.508622113317251
1790107596217162000,6.844161865234375,2.2465296573810276,4.313828536771237,-8.515538176316023
1790107596227105800,6.854105712890625,2.1901490139894184,4.340116239716112,-8.51686679457128
1790107596237051100,6.864051025390625,2.13331945778653,4.377247115975618,-8.512285311999916
1790107596246996000,6.873995849609375,2.0841687656484544,4.421515004508197,-8.501576286458969
1790107596256939800,6.883939697265625,2.044129892987758,4.472233968876302,-8.48475199290812
1790107596266885000,6.893885009765625,2.012518364671618,4.530433059866726,-8.46140151245892
1790107596276830000,6.903829833984375,1.9861422527909278,4.59724858803302,-8.43154354981184
1790107596286774800,6.91377490234375,1.9592017850257455,4.6731721362844105,-8.39603442953527
1790107596296719000,6.923718994140625,1.9228253803953528,4.756805820521712,-8.35738818027675
1790107596306664000,6.933663818359375,1.8755336139969527,4.847484747095406,-8.31592862716317
1790107596316609000,6.943609130859375,1.8193521464392541,4.944098324415087,-8.271411440044641
1790107596326552800,6.953552734375,1.7578782715618608,5.045674200317263,-8.223226378068327
1790107596336498000,6.963497802734375,1.693767764570564,5.150865928629041,-8.171298622432351
1790107596346443000,6.973443115234375,1.628345882719755,5.259889782449603,-8.114953050354123
1790107596356386800,6.98338671875,1.564670260014385,5.373035100114345,-8.053117064166068
1790107596366332200,6.993332275390625,1.5028471333079039,5.491679599717259,-7.984566090509295
1790107596376277000,7.003277099609375,1.4407552726626396,5.6156444175601,-7.909432231330871
1790107596386220800,7.013220703125,1.3796724429294467,5.743287631654739,-7.82825090868175
1790107596396165600,7.02316552734375,1.319935767108202,5.874719716638326,-7.740530539652704
1790107596406110500,7.0331103515625,1.2565861614868044,6.010051731669902,-7.646610146939754
1790107596416054800,7.0430546875,1.1906540650915354,6.149505795067548,-7.5456135322302575
1790107596425999600,7.05299951171875,1.1228892733763902,6.291449921715259,-7.438224001613259
1790107596435944400,7.0629443359375,1.056219948747754,6.433831270736455,-7.325341134276986
1790107596445889800,7.072889892578125,0.9935681161321699,6.576584375679492,-7.206367548850178
1790107596455833600,7.08283349609375,0.9347076386235654,6.721319009828567,-7.079588258108497
1790107596465778700,7.09277880859375,0.893436374623701,6.866569776806235,-6.944232862201333
1790107596475723800,7.102723876953125,0.8771821360457688,7.007444812917709,-6.8041656353414055
1790107596485667600,7.11266748046875,0.8841538016892969,7.140527003195881,-6.6634495891839265
1790107596495612700,7.12261279296875,0.9073733492352067,7.266023268389701,-6.523184793925285
1790107596505557500,7.1325576171875,0.9390551663085818,7.386139594110846,-6.382281700763106
1790107596515501800,7.142501708984375,0.9729667151954025,7.501437121373415,-6.24116701067686
1790107596525446700,7.15244677734375,1.00841109967269,7.6106977065593,-6.101700672319531
1790107596535391500,7.1623916015625,1.044938018689677,7.712680994218587,-5.965992809712886
1790107596545335600,7.17233544921875,1.0774081365965307,7.808488808113336,-5.83413051661849
1790107596555280600,7.18228076171875,1.0880899818696081,7.900099754840135,-5.70744007320404
1790107596565225700,7.192225830078125,1.0499628611143679,7.987767516899108,-5.5913797448754305
1790107596575169500,7.20216943359375,0.9573516513038426,8.07293761692345,-5.48466592156291
1790107596585114600,7.212114501953125,0.8303131251040846,8.154545640552044,-5.383711392429471
1790107596595059700,7.222059814453125,0.6973871483009308,8.229466149240732,-5.287716531530022
1790107596605004500,7.232004638671875,0.5905890077058226,8.29386526391506,-5.199361956250668
1790107596614948600,7.241948486328125,0.5326742866147309,8.351358252462743,-5.112870836755633
1790107596624893700,7.251893798828125,0.5050319907231257,8.409508243614434,-5.019513338622451
1790107596634838500,7.261838623046875,0.46431094448454674,8.47229232430756,-4.916815765213966
1790107596644782600,7.271782470703125,0.41548827872443944,8.538088446298241,-4.806123101398349
1790107596654727700,7.281727783203125,0.4038374788213521,8.596488028296827,-4.701881805679202
1790107596664672500,7.291672607421875,0.4252564797513187,8.642179519891739,-4.615438616979122
1790107596674616600,7.301616455078125,0.41396128835286944,8.683219970810413,-4.538801367500424
1790107596684561700,7.311561767578125,0.3627953108696267,8.721929932954907,-4.468415871892869
1790107596694506800,7.3215068359375,0.31621476148050276,8.756118033760785,-4.404631966507434
1790107596704450600,7.331450439453125,0.32276652121152727,8.78059781050086,-4.355148389153182
1790107596714395600,7.341395751953125,0.3554376781158149,8.79415462668836,-4.325146341860294
1790107596724340700,7.3513408203125,0.37667785188015546,8.800959630528093,-4.309477063563466
1790107596734284500,7.361284423828125,0.3849410551715642,8.799351610809564,-4.312033762308955
1790107596744229600,7.371229736328125,0.3839473314264789,8.787425026172398,-4.336373838317394
1790107596754174700,7.3811748046875,0.37299152805022895,8.765767905637622,-4.380936325882375
1790107596764119600,7.39111962890625,0.3535087924124673,8.736946884822846,-4.439725199459493
1790107596774063600,7.401063720703125,0.33628307845387606,8.703698695215582,-4.505878172063827
1790107596784008700,7.4110087890625,0.33520489129573106,8.665798880410193,-4.5784228915318845
1790107596793953500,7.42095361328125,0.3481473749771714,8.622430863326787,-4.658633907844126
1790107596803897600,7.430897705078125,0.3592807634100318,8.576092305999994,-4.742564821462333
1790107596813842400,7.440842529296875,0.37006493654642253,8.527178345227242,-4.829146249589324
1790107596823787800,7.450787841796875,0.3821042243104428,8.475531744620204,-4.918305126988887
1790107596833731600,7.460731689453125,0.39134723241943864,8.421542964801192,-5.009476513254643
1790107596843676700,7.4706767578125,0.39092557294126595,8.367412146162986,-5.0994098821580405
1790107596853621800,7.480621826171875,0.3871540185132995,8.313592877691983,-5.18697243027687
1790107596863565600,7.490565673828125,0.3913949074860662,8.259455629312992,-5.272439467421174
1790107596873510700,7.5005107421875,0.3991671123901382,8.207994322144986,-5.351623478773236
1790107596883455500,7.51045556640625,0.41038770418241616,8.160794764074682,-5.422488574591279
1790107596893399800,7.52039990234375,0.43576475855577734,8.116068902641535,-5.487253599968552
1790107596903344600,7.5303447265625,0.48072362502720206,8.071642900937794,-5.548682758921385
1790107596913289500,7.54028955078125,0.5388344166796654,8.026262374988198,-5.6088446744173766
1790107596923234800,7.55023486328125,0.573985626896657,7.98621678032577,-5.662268221569061
1790107596933178600,7.5601787109375,0.5665185424190015,7.955431765961647,-5.706186273750663
1790107596943123500,7.57012353515625,0.5577075690517201,7.924376117962598,-5.7500943890601395
1790107596953068800,7.58006884765625,0.5921493888903409,7.8837156062722205,-5.802306222334503
1790107596963012600,7.5900126953125,0.6677385906208306,7.832860448303818,-5.862662199097872
1790107596972957700,7.599957763671875,0.7427901052780449,7.779799304723739,-5.92396743941009
1790107596982902500,7.609902587890625,0.78630045344159,7.732005872413516,-5.980652618706226
1790107596992846800,7.619846923828125,0.8114872094072401,7.683688123968243,-6.0392713964134455
1790107597002791700,7.629791748046875,0.8424925885237753,7.621610145717859,-6.1132356272906065
1790107597012736500,7.639736572265625,0.8817858304489403,7.539722136104106,-6.208496328696608
1790107597022680600,7.6496806640625,0.9323087607882916,7.441879601511359,-6.318198227909207
1790107597032625700,7.659625732421875,0.998033717238903,7.339322313356399,-6.42718233424127
1790107597042570500,7.669570556640625,1.0599120812639593,7.2442346304297445,-6.524419888678192
1790107597052515800,7.679515869140625,1.1285848546694963,7.156724104759097,-6.608931817054748
1790107597062459600,7.689459716796875,1.2251555426955223,7.06771895661652,-6.687056090220809
1790107597072404700,7.69940478515625,1.3371286017104982,6.975579602101445,-6.761933928811549
1790107597082349600,7.709349609375,1.4376068916343152,6.885141790807247,-6.833627876669168
1790107597092293600,7.719293701171875,1.5044180358864365,6.79958824442327,-6.904543825891613
1790107597102238700,7.72923876953125,1.5309757879443466,6.719793992218375,-6.9764511242389675
1790107597112183600,7.73918359375,1.5425545820571482,6.644137570470571,-7.046016827896237
1790107597122127600,7.749127685546875,1.557530617392808,6.5697752801865335,-7.112140866667032
1790107597132072700,7.75907275390625,1.5818369372621177,6.492473429319262,-7.177462356883287
1790107597142017500,7.769017578125,1.6204317485943436,6.40776860871911,-7.244659577843547
1790107597151961600,7.778961669921875,1.6655385721690952,6.316401407620311,-7.31432991091907
1790107597161906700,7.78890673828125,1.7046489318080245,6.221748608979582,-7.38609458592534
1790107597171851500,7.7988515625,1.7323467938117683,6.11964374076724,-7.464538592565059
1790107597181795600,7.808795654296875,1.7461720516771078,6.007699615585803,-7.551742244243622
1790107597191740400,7.818740478515625,1.75703641391024,5.888138001137971,-7.642841734316945
1790107597201685800,7.828685791015625,1.7816867249116302,5.764661259073018,-7.730760840788483
1790107597211629600,7.838629638671875,1.8294905324853956,5.642696675136685,-7.809182635596394
1790107597221574700,7.84857470703125,1.901352968777716,5.525339292734861,-7.875649788716435
1790107597231519700,7.858519775390625,1.9839255996547638,5.4108793853402135,-7.934533354839682
1790107597241464600,7.868464599609375,2.066117852912098,5.296148259788751,-7.99076845228076
1790107597251408600,7.87840869140625,2.137585006276518,5.178479911741614,-8.048878111422061
1790107597261353700,7.888353759765625,2.1935345647744833,5.058725405070185,-8.10975314362347
1790107597271298600,7.898298583984375,2.2329491680569946,4.94023288115859,-8.171807156476378
1790107597281242600,7.90824267578125,2.2585258001230657,4.823977907040715,-8.233996778407693
1790107597291187500,7.9181875,2.2716677518993613,4.707429210673272,-8.297590421918034
1790107597301132800,7.9281328125,2.2754142449513077,4.593602632746101,-8.360127249851823
1790107597311076600,7.93807666015625,2.2716442248933015,4.485510506817699,-8.419632747265696
1790107597321021400,7.948021484375,2.2650648465029892,4.383148741234839,-8.475131931647658
1790107597330966800,7.957966796875,2.276061018422246,4.28150447627157,-8.524003806844354
1790107597340910600,7.96791064453125,2.3151159946121274,4.185882248076796,-8.56090058208704
1790107597350855700,7.977855712890625,2.371593084115535,4.096436078168452,-8.588661864715814
1790107597360800800,7.98780078125,2.428833559206873,4.014737745907903,-8.611215057307481
1790107597370744800,7.997744873046875,2.4667326433598995,3.9480487667307256,-8.631253052207827
1790107597380689700,8.007689697265626,2.4561069121882317,3.90284213604331,-8.654811622449754
1790107597390635500,8.017635498046875,2.382833440054208,3.875909120932221,-8.687338512045145
1790107597400580400,8.027580322265624,2.283941980930418,3.859606805428862,-8.721090559521317
1790107597410524400,8.0375244140625,2.205918830051273,3.8605952319443224,-8.740714128401875
1790107597420469500,8.047469482421874,2.1457681666016577,3.8816727990254756,-8.746353011071681
1790107597430414300,8.057414306640625,2.0835298832230267,3.9200416926473376,-8.744288479757309
1790107597440358400,8.0673583984375,2.0059635362006722,3.9751343420550227,-8.737551280456781
1790107597450303500,8.077303466796875,1.9287337276563048,4.048414974582195,-8.721279944613576
1790107597460248600,8.08724853515625,1.8727286395788192,4.138594427201151,-8.691105171102285
1790107597470192400,8.0971923828125,1.8377742305755613,4.244393181495369,-8.647430864548683
1790107597480137500,8.107137451171875,1.811662030328065,4.3637674566775555,-8.593356744533777
1790107597490082600,8.11708251953125,1.7806551899068057,4.495041136229038,-8.531956811675428
1790107597500026400,8.1270263671875,1.733105064833164,4.63457761721313,-8.466841657686233
1790107597509971500,8.136971435546876,1.6773010522857308,4.776920095528662,-8.398696342220902
1790107597519916500,8.14691650390625,1.633601611290872,4.9192596512347455,-8.324819205105305
1790107597529860600,8.156860595703124,1.6024593079216778,5.063296366247535,-8.244122451102733
1790107597539805400,8.166805419921875,1.5763342481926084,5.209403457793593,-8.157676924315094
1790107597549750500,8.17675048828125,1.544828372208029,5.357066546609998,-8.067572875019907
1790107597559695400,8.1866953125,1.5021617813922463,5.506190940150618,-7.9746929312705985
1790107597569639400,8.196639404296874,1.45309131488353,5.65322566793561,-7.880352267318964
1790107597579584300,8.206584228515625,1.4093249461323023,5.793401615867018,-7.785927432215213
1790107597589529600,8.216529541015625,1.3725142417378722,5.928652382355928,-7.690102667185664
1790107597599473400,8.226473388671875,1.3319484225936233,6.061836863964796,-7.592786202293634
1790107597609418500,8.23641845703125,1.278301880341023,6.194100723597407,-7.4946256877928965
1790107597619363600,8.246363525390626,1.2222890473484993,6.327268838593364,-7.39202689858377
1790107597629307400,8.256307373046875,1.168152091230452,6.460540998485684,-7.2847256307721135
1790107597639252500,8.26625244140625,1.1034151959691196,6.59406333374679,-7.174341009992361
1790107597649197600,8.276197509765625,1.0323559658184647,6.726206781870126,-7.061357604891062
1790107597659141600,8.2861416015625,0.9647392042718828,6.853623201471566,-6.947481634864211
1790107597669086500,8.29608642578125,0.9098637778114527,6.972859237226843,-6.835331173455715
1790107597679031300,8.30603125,0.8946814793139696,7.079456156161427,-6.726904116484523
1790107597688975600,8.3159755859375,0.9162929340761155,7.173321019294858,-6.623766398093104
1790107597698920400,8.32592041015625,0.9284659677550197,7.26199708161354,-6.524702212750912
1790107597708865300,8.335865234375,0.9073588092532008,7.352819508311152,-6.425194959816336
1790107597718809300,8.345809326171874,0.8682869549937545,7.449740836405754,-6.318057942655682
1790107597728754400,8.35575439453125,0.8313121460787951,7.54730513857901,-6.2062453348994255
1790107597738699500,8.365699462890625,0.7854464669607579,7.637439583012461,-6.101062958937883
1790107597748644400,8.375644287109376,0.6854151901520789,7.727160185948014,-5.999300036031007
1790107597758588700,8.385588623046875,0.5314061298424377,7.818014176827669,-5.896325983768701
1790107597768533500,8.395533447265626,0.36821799350548534,7.905103262215852,-5.791729883262515
1790107597778478300,8.405478271484375,0.28668299858048557,7.981941002702713,-5.690062237423658
1790107597788422400,8.41542236328125,0.30850298152677713,8.050237709337473,-5.591860806390643
1790107597798367500,8.425367431640625,0.3300037059234455,8.12226951084733,-5.485455610635876
1790107597808312300,8.435312255859374,0.293174442959018,8.198978071996569,-5.3722611931324
1790107597818256400,8.44525634765625,0.2663450891518034,8.273674124279617,-5.2579257889002555
1790107597828201500,8.455201416015624,0.2907469783500768,8.338226383689046,-5.153623702904582
1790107597838146600,8.465146484375,0.3243510139239952,8.393470716527103,-5.061112592467666
1790107597848090400,8.47509033203125,0.34886136846542354,8.440257017621397,-4.9810360161900515
1790107597858035500,8.485035400390625,0.3449384228680283,8.485662093490362,-4.903561146843433
1790107597867980500,8.49498046875,0.34972050604540855,8.525133103135227,-4.8342713375180955
1790107597877924400,8.50492431640625,0.38501539904940874,8.551272337520121,-4.7851723755672575
1790107597887869400,8.514869384765625,0.4212304391056299,8.56697902521789,-4.753925588910281
1790107597897814500,8.524814453125,0.4460816429739818,8.57400906998515,-4.738960367229581
1790107597907759400,8.53475927734375,0.4466841754443943,8.575096280699968,-4.736938506013154
1790107597917703400,8.544703369140626,0.45826304262243206,8.566964996692537,-4.750524840556085
1790107597927648500,8.5546484375,0.5099266308968886,8.543252697193623,-4.787820259727537
1790107597937593300,8.56459326171875,0.5581698893338441,8.510328332713247,-4.840781157803535
1790107597947537400,8.574537353515625,0.57848516680561,8.473854166796803,-4.901991997830569
1790107597957482500,8.584482421875,0.5634824991913512,8.438793374809622,-4.963834121498465
1790107597967427600,8.594427490234375,0.5723806393854319,8.397299919426441,-5.032704828628898
1790107597977371400,8.604371337890624,0.6153969204217196,8.34493084976375,-5.114076705414057
1790107597987316500,8.61431640625,0.6498639112342148,8.289490702092648,-5.199268432748317
1790107597997261600,8.624261474609375,0.6695950321424752,8.23467190119028,-5.283201684454083
1790107598007205400,8.634205322265625,0.6887607011876999,8.17861216031611,-5.36715071825087
1790107598017150500,8.644150390625,0.6586348083194344,8.132876245057583,-5.439937137520313
1790107598027095600,8.654095458984376,0.6445132709212601,8.085797098496556,-5.511339993476867
1790107598037039600,8.66403955078125,0.6438243388090282,8.036691999065875,-5.582779674312472
1790107598046984400,8.673984375,0.6474862223174422,7.989259216761589,-5.650034762939811
1790107598056929300,8.68392919921875,0.6494840450711548,7.943577662038803,-5.713854031899571
1790107598066873600,8.69387353515625,0.6500798920724541,7.896812988254427,-5.778249639442563
1790107598076818400,8.703818359375,0.6610776714269071,7.844423460325598,-5.847938092696666
1790107598086763300,8.71376318359375,0.6369824370250106,7.790325959435105,-5.922454696759581
1790107598096708600,8.72370849609375,0.5521416420202702,7.740427079278231,-5.995940788730978
1790107598106652400,8.73365234375,0.5009134494883939,7.679576012474298,-6.078125735464692
1790107598116597500,8.743597412109375,0.4969319421041757,7.609888728263973,-6.165472010484337
1790107598126542600,8.75354248046875,0.5200160997673868,7.538909650677442,-6.250184429869055
1790107598136486700,8.763486572265625,0.5677923982797191,7.46494658884406,-6.334238093084097
1790107598146431500,8.773431396484375,0.6347342197068035,7.385105574887991,-6.420881772792339
1790107598156376300,8.783376220703126,0.6906695304837077,7.301422498551011,-6.510189118751883
1790107598166320600,8.793320556640625,0.7362794082097709,7.212932898715138,-6.603171938353777
1790107598176265500,8.803265380859376,0.7963996765211224,7.114281385827064,-6.702470516973733
1790107598186210300,8.813210205078125,0.8626019681598991,7.002075394839048,-6.8115528229832645
1790107598196154400,8.823154296875,0.9261140708666294,6.881099821940064,-6.925544528344274
1790107598206099500,8.833099365234375,0.9963088662076741,6.758549547070264,-7.035607662084698
1790107598216044500,8.84304443359375,1.0570977544955908,6.641409606811404,-7.137549448689818
1790107598225988400,8.85298828125,1.1020613702073692,6.535077476292848,-7.228321021983027
1790107598235933400,8.862933349609374,1.1505323364529758,6.437239617875218,-7.308121703928709
1790107598245878500,8.87287841796875,1.204486921741441,6.3424383506745095,-7.381944480508565
1790107598255823400,8.8828232421875,1.2559936024211347,6.247513164833188,-7.4539575773179525
1790107598265767700,8.892767578125,1.3175944646790623,6.150589498651027,-7.523601022386551
1790107598275712500,8.90271240234375,1.40630764413774,6.056520637378096,-7.583615638366341
1790107598285657300,8.9126572265625,1.5155366651415825,5.966891804379224,-7.633460742509365
1790107598295601400,8.922601318359375,1.6265684977836905,5.871516536682844,-7.6843965644985435
1790107598305546500,8.93254638671875,1.7244532640829682,5.762787281894684,-7.745121959096193
1790107598315491300,8.9424912109375,1.8118806415148079,5.643631325638294,-7.812612610045075
1790107598325435400,8.952435302734376,1.8866909678272903,5.524099521806836,-7.880045393326878
1790107598335380500,8.96238037109375,1.9367932616017758,5.412357056677341,-7.945164054447412
1790107598345325600,8.97232568359375,1.9763570640966295,5.306964252835511,-8.006280494189262
1790107598355269400,8.982269287109375,2.011009859804809,5.206095063897967,-8.06367119140625
1790107598365214500,8.99221435546875,2.020873958954215,5.114212314492463,-8.11980808916986
1790107598375159600,9.00215966796875,2.0050687793180346,5.029030524030327,-8.176732337918876
1790107598385102600,9.0121025390625,1.9878994717217982,4.945542678004503,-8.231660444414615
1790107598395047400,9.02204736328125,1.982615247708559,4.857665364848077,-8.285089836785197
1790107598404992500,9.031992431640624,2.002170135267079,4.757113571296632,-8.338561314731836
1790107598414936600,9.0419365234375,2.045951847717911,4.644733977307379,-8.391121523052453
1790107598424881400,9.05188134765625,2.1097842684201895,4.532762379597127,-8.43642723020017
1790107598434826500,9.061826416015625,2.1811169817499816,4.42642294255495,-8.474661976048349
1790107598444771600,9.071771484375,2.2491377940528094,4.327174048295617,-8.508073831784724
1790107598454715400,9.08171533203125,2.304276766820252,4.2303327996999025,-8.541955058598518
1790107598464660500,9.091660400390625,2.3459546388596295,4.135254761384427,-8.577094176518916
1790107598474605600,9.10160546875,2.3823070780925453,4.04881537207663,-8.608259130111335
1790107598484549600,9.111549560546875,2.4282643810167905,3.969591905497014,-8.632279472646117
1790107598494494500,9.121494384765626,2.4937895771116017,3.8972684275642036,-8.646542391276359
1790107598504439600,9.131439453125,2.560395554180443,3.8380879243209955,-8.653545548036695
1790107598514383600,9.141383544921876,2.590178405764699,3.801062262001633,-8.661023921093344
1790107598524328400,9.151328369140625,2.559713124874234,3.7881437437176704,-8.675725231140852
1790107598534273300,9.161273193359374,2.46251648696959,3.7973268748655915,-8.699809871083497
1790107598544217600,9.171217529296875,2.345389552322775,3.8135762911379336,-8.725031990623474
1790107598554162400,9.181162353515624,2.2511310136966407,3.8308196868836877,-8.74229116846025
1790107598564107500,9.191107421875,2.1882576472848654,3.8481720959618686,-8.750628204172848
1790107598574051600,9.201051513671874,2.1177589005611837,3.877379485745728,-8.755079338362812
1790107598583996400,9.210996337890625,2.051412451211363,3.9256390742629765,-8.749368559500574
1790107598593941500,9.22094140625,2.0065122561246156,3.9883205713644623,-8.73141672322452
1790107598603885300,9.23088525390625,1.948407273158431,4.063674210773408,-8.70980227278769
1790107598613830700,9.24083056640625,1.8922252210788428,4.13853159109801,-8.686911811065674
1790107598623775500,9.250775390625,1.859411915757507,4.209041882129013,-8.660076411110163
1790107598633720300,9.26072021484375,1.8296821095347404,4.286797906504571,-8.628210615772009
1790107598643664600,9.27066455078125,1.7884926055341959,4.374869865450263,-8.592566470938921
1790107598653609500,9.280609375,1.7352508446902035,4.467242151938379,-8.555877785488963
1790107598663554300,9.29055419921875,1.676784042674303,4.561119874553382,-8.517921272060274
1790107598673498400,9.300498291015625,1.6135187543354927,4.661539858418703,-8.47566969178617
1790107598683443500,9.310443359375,1.5313275239914654,4.771171322743594,-8.429787646055221
1790107598693388500,9.320388427734375,1.4355306698821484,4.885348029282689,-8.381112170213461
1790107598703332400,9.330332275390624,1.3449511120297013,4.9990346142172815,-8.328933654686809
1790107598713277700,9.340277587890625,1.2640506521485746,5.112922274681925,-8.272276532441378
1790107598723222500,9.350222412109375,1.1811761157155036,5.230729738938808,-8.210643959870934
1790107598733166300,9.360166259765625,1.091966019585356,5.353827126297355,-8.143374842718243
1790107598743111700,9.370111572265625,1.0090556081213056,5.485049367922544,-8.06637635871172
1790107598753056500,9.380056396484376,0.9445230032604187,5.6250528818964955,-7.9772829477638005
1790107598763000600,9.39000048828125,0.9002775457553565,5.771929204249382,-7.876846305024624
1790107598772945400,9.3999453125,0.8647137726821005,5.921491404685378,-7.769078004223108
1790107598782890500,9.409890380859375,0.8319568006578832,6.06955079934299,-7.657595066812634
1790107598792834600,9.41983447265625,0.8055065275624393,6.218527893367409,-7.539989262607693
1790107598802779400,9.429779296875,0.7869320293433963,6.370843776425719,-7.413735457044839
1790107598812724500,9.439724365234374,0.7790190642617643,6.5243801411896944,-7.279834936121106
1790107598822669600,9.449669677734375,0.7951593941364437,6.673551881003379,-7.141556346243619
1790107598832613400,9.45961328125,0.8303508998312056,6.814706903100014,-7.002904246878623
1790107598842558500,9.469558349609375,0.8695820363055914,6.949325801426172,-6.864478942006826
1790107598852503600,9.479503662109375,0.9102722124818712,7.079517530959844,-6.72474489262402
1790107598862447600,9.489447509765625,0.9516640341214835,7.203031097903847,-6.586430062389374
1790107598872392400,9.499392333984375,0.995531817420572,7.3129703130036585,-6.457537140494584
1790107598882337500,9.509337646484376,1.046975442801416,7.405829798486828,-6.342547656267881
1790107598892281600,9.519281494140625,1.1027774095222354,7.48902479904592,-6.234483587390184
1790107598902226400,9.529226318359376,1.1481586661241947,7.5690598742693656,-6.128740070414543
1790107598912171500,9.539171630859375,1.149775818997249,7.647861023783683,-6.029811494150757
1790107598922115600,9.549115478515626,1.0698015340503304,7.728581158661842,-5.940955399090051
1790107598932060400,9.559060302734375,0.9295572701230644,7.811060704427957,-5.856078144532442
1790107598942005500,9.569005615234374,0.7959488640137017,7.88811705610156,-5.771867829450964
1790107598951949600,9.578949462890625,0.699805242293328,7.955883016860485,-5.690747297078371
1790107598961894400,9.588894287109374,0.6580535013001412,8.01562875277102,-5.611332399579882
1790107598971839500,9.598839599609375,0.6511016363356262,8.075255246216058,-5.526004478645325
1790107598981783300,9.608783203125,0.6495283226042986,8.142651204618812,-5.426393180814385
1790107598991728600,9.618728759765625,0.6478728104822338,8.213629697683453,-5.318543631470203
1790107599001673500,9.628673583984375,0.6404683063793927,8.276029747495055,-5.221828639602661
1790107599011617500,9.638617431640625,0.6282436886437237,8.326303306183219,-5.142798357507586
1790107599021562600,9.648562744140625,0.6221718213841319,8.367332651185988,-5.076519420436024
1790107599031507500,9.658507568359376,0.6342356225349008,8.398563655751943,-5.023171861129999
1790107599041452300,9.668452392578125,0.6608487580418586,8.419246378296613,-4.984973355638981
1790107599051396600,9.678396728515626,0.679336016368866,8.432624915307759,-4.959809688287973
1790107599061341400,9.688341552734375,0.6877837459143251,8.437439037591218,-4.9504509083122015
1790107599071286500,9.69828662109375,0.6876657455578445,8.431749301517009,-4.960152218115329
1790107599081230300,9.708230224609375,0.6798434544343501,8.41667682006955,-4.986756147402525
1790107599091175700,9.71817578125,0.6703177934590727,8.391136136099696,-5.030892810770869
1790107599101120500,9.72812060546875,0.6710354402091354,8.354454464912415,-5.091481427246332
1790107599111064300,9.738064208984374,0.6811268453083932,8.3085987226665,-5.164655969050527
1790107599121009700,9.748009765625,0.6882347776174544,8.257309849455952,-5.245337525483966
1790107599130954500,9.75795458984375,0.6922817879859358,8.201059554445743,-5.332329580238461
1790107599140898600,9.767898681640625,0.7099468432098627,8.13871678777933,-5.424726124384999
1790107599150843600,9.77784375,0.7399474291980266,8.072405702003836,-5.51898086361885
1790107599160788500,9.78778857421875,0.7510493265140801,8.009478997969627,-5.608434924572706
1790107599170732500,9.797732666015625,0.740556135680899,7.951604316627979,-5.69156796581149
1790107599180677400,9.807677490234376,0.7290114630334079,7.895885352015495,-5.770090298384428
1790107599190622500,9.81762255859375,0.7338915632251649,7.83694158013761,-5.849282493042946
1790107599200566500,9.82756640625,0.7400991856936365,7.7773922435820095,-5.927461126744747
1790107599210511400,9.837511474609375,0.7311543933462351,7.723487050393223,-5.998628420379758
1790107599220456700,9.847456787109374,0.7073834955278784,7.67848938628137,-6.058944065132737
1790107599230400500,9.857400390625,0.7100497921276837,7.634529833045601,-6.113931208339333
1790107599240345600,9.867345703125,0.7458109874691814,7.588937125650048,-6.166212599718571
1790107599250290400,9.87729052734375,0.7771100157700479,7.547422042956947,-6.213125157541036
1790107599260235500,9.887235595703125,0.7672342261828482,7.515722251835465,-6.252651112243533
1790107599270179600,9.8971796875,0.7609906556181609,7.484402984464168,-6.290865984347462
1790107599280124400,9.90712451171875,0.7823460167273879,7.44363082909286,-6.3364557691335675
1790107599290069500,9.917069580078126,0.8174673067301511,7.391757433992624,-6.3924991433948275
1790107599300013600,9.927013671875,0.840954053844884,7.330297879901528,-6.459869382834434
1790107599309958400,9.93695849609375,0.8570753136929125,7.261675010052323,-6.5348197021394965
1790107599319903500,9.946903564453125,0.8780501510519534,7.186176409214735,-6.615003245922923
1790107599329847600,9.95684765625,0.9052586221035569,7.103952884036302,-6.699607528758048
1790107599339792400,9.96679248046875,0.9434203757807612,7.01404581861794,-6.788482328519224
1790107599349737500,9.976737548828124,1.0008965593241155,6.917378173023462,-6.8788418138802045
1790107599359681500,9.986681640625,1.0648062830463052,6.818529676258564,-6.967371161204576
1790107599369626600,9.996626708984374,1.115804868073389,6.723844728913903,-7.050908691591024
1790107599379571500,10.006571533203125,1.1485388976134359,6.637329059499502,-7.127208087417483
1790107599389515800,10.016515869140624,1.171056653565541,6.5605673068583,-7.194300094437598
1790107599399461000,10.026461181640625,1.1955798310559242,6.490601205706596,-7.253487027421594
1790107599409406000,10.036406005859375,1.2242189194325357,6.423876862955093,-7.307905430829525
1790107599419350800,10.046350830078126,1.2557885813683272,6.356741016793251,-7.361061851477623
1790107599429295000,10.056295166015625,1.2970175405964255,6.286770239466429,-7.4138167055875055
1790107599439240000,10.066239990234376,1.3518231897562742,6.214215290865302,-7.465019069558382
1790107599449184800,10.076184814453125,1.4197024016313253,6.138159056144953,-7.51517338578105
1790107599459128800,10.08612890625,1.4970428309433161,6.056381521168351,-7.566338924872875
1790107599469074000,10.096073974609375,1.5809221605047583,5.967156008273363,-7.619981667733192
1790107599479019000,10.10601904296875,1.6664401971839367,5.869494090944528,-7.677394576781988
1790107599488962800,10.115962890625,1.744261541880667,5.764815572851896,-7.739175033390522
1790107599498908200,10.125908203125,1.812899609299004,5.65551757826507,-7.803774639073014
1790107599508853000,10.13585302734375,1.8763249105051159,5.545992204663158,-7.867130966696143
1790107599518796800,10.145796875,1.9259516957223415,5.4411079348653555,-7.928143946063518
1790107599528742100,10.1557421875,1.9478765272825955,5.341771946844458,-7.99009566758573
1790107599538687000,10.16568701171875,1.9392716344140468,5.246463314643502,-8.05507404345274
1790107599548631000,10.175631103515625,1.9141367547661066,5.151833896878362,-8.121888987097144
1790107599558575900,10.185575927734375,1.8811656285345553,5.056635739314556,-8.189140568593144
1790107599568521000,10.19552099609375,1.8414770306162536,4.9578953790992495,-8.25824742256701
1790107599578465000,10.205465087890625,1.8136781924560665,4.854722297133505,-8.325421262651682
1790107599588409900,10.215409912109376,1.811855360943079,4.747767358541489,-8.387270692843199
1790107599598355000,10.22535498046875,1.8429118857249616,4.636853745451569,-8.442371233296393
1790107599608299000,10.235299072265626,1.906884591680765,4.525437151275575,-8.488496440133451
1790107599618243800,10.245243896484375,1.9808267568565905,4.415539729490876,-8.52934399882853
1790107599628189000,10.25518896484375,2.039157365272194,4.310732908843457,-8.569119544377923
1790107599638133000,10.265133056640625,2.077001796628535,4.21666726244092,-8.606752817201613
1790107599648078000,10.275078125,2.1044560591347516,4.1327872022271155,-8.6407024330765
1790107599658023000,10.28502294921875,2.1306905705876646,4.054529365809262,-8.671293970695137
1790107599667968000,10.294968017578125,2.166097107272595,3.983184377519786,-8.69555279816091
1790107599677912000,10.304912109375,2.194585242871195,3.926363589145243,-8.714231195145844
1790107599687857000,10.31485693359375,2.19413779136464,3.8808360559403896,-8.734715180248022
1790107599697802000,10.324802001953126,2.1619588384240864,3.843540052247047,-8.759197879597544
1790107599707746000,10.33474609375,2.1060640788532794,3.818583013384044,-8.783696945559978
1790107599717691000,10.34469091796875,2.0474135908335445,3.807084883292019,-8.802533747977018
1790107599727636000,10.354635986328125,1.9871774410575627,3.811747906666994,-8.814313033097982
1790107599737580000,10.364580078125,1.9250727209307252,3.8322745618671177,-8.819194375398755
1790107599747524900,10.37452490234375,1.8520564384281635,3.864182442781329,-8.820905855491757
1790107599757470000,10.384469970703124,1.7778360408328473,3.904493702642619,-8.818424560070037
1790107599767413800,10.394413818359375,1.7088605581536889,3.9543551733985542,-8.80983910255432
1790107599777359000,10.404359130859374,1.6449338832966982,4.013462319144606,-8.795266387322545
1790107599787304000,10.414303955078125,1.5938263580024241,4.081725708031654,-8.773232834690809
1790107599797248000,10.424248046875,1.548634778753668,4.1597289851665495,-8.744642700022458
1790107599807193000,10.434193115234375,1.499642784308642,4.247541124132275,-8.71090468107164
1790107599817138000,10.444137939453125,1.4476627139635383,4.344648330187797,-8.67171716454327
1790107599827082000,10.45408203125,1.3866070644982158,4.450558728162944,-8.627876269251107
1790107599837027000,10.464027099609375,1.3123140400581061,4.563863035781681,-8.580172268790006
1790107599846972000,10.473971923828126,1.2372662517279385,4.681505664865672,-8.527780402773619
1790107599856917000,10.4839169921875,1.16651002311185,4.802377192868292,-8.470348789024353
1790107599866860800,10.49386083984375,1.097452268976718,4.926590140253305,-8.408013036620616
1790107599876806100,10.50380615234375,1.0281631172385066,5.054163796243071,-8.340784836000203
1790107599886751000,10.5137509765625,0.9527956684999167,5.185914445656538,-8.268546698263288
1790107599896694800,10.52369482421875,0.8672381035279482,5.321811108833551,-8.191252446180581
1790107599906640100,10.53364013671875,0.7779548690963536,5.459093673411012,-8.109467312419413
1790107599916585000,10.5435849609375,0.695977719894424,5.595830294543505,-8.023260855084658
1790107599926529000,10.553529052734374,0.6236923089496791,5.730251624470949,-7.93382842144072
1790107599936473900,10.563473876953125,0.5522942387660965,5.86240325590074,-7.842038611015677
1790107599946419000,10.5734189453125,0.4863729560257867,5.993782149392366,-7.7465090295404195
1790107599956363000,10.583363037109375,0.43448805315084754,6.1294566942512985,-7.642731844201683
1790107599966307800,10.593307861328125,0.3929164179649204,6.274083776372671,-7.5267439965873955
1790107599976253000,10.6032529296875,0.3574298383137211,6.426608333745598,-7.398737794399261
1790107599986197000,10.613197021484375,0.33496121873296797,6.579933101585507,-7.263790394771099
1790107599996141800,10.623141845703126,0.3315665347933769,6.728107647055387,-7.1269216716915365
1790107600006087200,10.633087158203125,0.34244876147676256,6.869948313328623,-6.989772378104925
1790107600016031000,10.643031005859376,0.36173721665143965,7.005497770503163,-6.852919437116384
1790107600025976000,10.65297607421875,0.3902290055118501,7.134014844822883,-6.71743427734971
1790107600035921000,10.6629208984375,0.427695762662217,7.255148238632082,-6.584094312918186
1790107600045865000,10.672864990234375,0.4756749633355066,7.365185653409362,-6.457411468288302
1790107600055810000,10.68281005859375,0.530888791437447,7.4600979797691105,-6.343144453117251
1790107600065755000,10.6927548828125,0.5771185546275228,7.544648486590385,-6.238236802443861
1790107600075700000,10.702699951171875,0.598486154163815,7.62614077488482,-6.13629969201386
1790107600085644000,10.71264404296875,0.5770866251192986,7.704833787849545,-6.0392789951980115
1790107600095588900,10.7225888671875,0.5032411617835983,7.781769143491983,-5.946531737917661
1790107600105534000,10.732533935546876,0.4039940576225519,7.8589856541633605,-5.851797690734267
1790107600115478000,10.74247802734375,0.30421264565540473,7.9360712319314475,-5.7529673141479485
1790107600125422800,10.7524228515625,0.2213559006073512,8.010944978868961,-5.652092279991507
1790107600135368000,10.762367919921875,0.16895294694136828,8.084439838668704,-5.548302819693088
1790107600145312000,10.77231201171875,0.12474351973091251,8.158421020680665,-5.44012944522202
1790107600155257000,10.782257080078125,0.07463744483045302,8.232922427174449,-5.327644637292623
1790107600165202000,10.792201904296874,0.029950502052030058,8.30447901238799,-5.2158530723243945
1790107600175146000,10.80214599609375,0.007777707058851956,8.365720539814234,-5.117133754897117
1790107600185091000,10.812091064453124,0.002495724378815794,8.41490805683136,-5.035839035001397
1790107600195036000,10.822035888671875,-0.004538310435328458,8.45496592645347,-4.968290516385435
1790107600204980000,10.83197998046875,-0.007978117010268033,8.48666980922818,-4.9139340722978115
1790107600214925000,10.841925048828125,0.01166858672152739,8.507637778455019,-4.877536478748917
1790107600224870000,10.851869873046875,0.0381828855134896,8.517386434531211,-4.860355334584415
1790107600234814000,10.86181396484375,0.04678952509784139,8.517168992388248,-4.860659870488941
1790107600244758800,10.8717587890625,0.036300983040314164,8.509918582868575,-4.873434011866152
1790107600254703900,10.881703857421876,0.023033822565327863,8.494777712360024,-4.899858492933213
1790107600264648000,10.89164794921875,0.015543700847023865,8.470380937728285,-4.941942607685923
1790107600274592800,10.9015927734375,0.01942895049075596,8.43751034926176,-4.997845112171769
1790107600284538000,10.9115380859375,0.026411744883074424,8.399383155441283,-5.06162521816492
1790107600294482000,10.92148193359375,0.03145749766505323,8.357049742102623,-5.13119092182219
1790107600304427000,10.931427001953125,0.04154693913608789,8.309281444233655,-5.208118094158173
1790107600314372000,10.9413720703125,0.05649387167484965,8.256499117594958,-5.291260487747192
1790107600324317000,10.95131689453125,0.06717683575935661,8.200567971536517,-5.377412000024318
1790107600334261000,10.961260986328124,0.06703542256124782,8.143056278288364,-5.464114131921529
1790107600344205800,10.971205810546875,0.04624779660368804,8.087662307846546,-5.545988697531819
1790107600354151000,10.98115087890625,0.040723964281450024,8.02957895219028,-5.6297939389437435
1790107600364095000,10.991094970703125,0.053712383163580665,7.968579416826367,-5.7157017055928705
1790107600374039800,11.001039794921875,0.057867945640184916,7.910327718865871,-5.79600916801691
1790107600383985200,11.010985107421876,0.03658201933824457,7.859477821594476,-5.864948848730325
1790107600393929000,11.020928955078125,0.021724278903298543,7.810859628897905,-5.929620935127139
1790107600403874000,11.0308740234375,0.02404434903145302,7.761437134081125,-5.994156827923655
1790107600413819100,11.040819091796875,0.034512542420695534,7.711164744436741,-6.05864128279388
1790107600423763000,11.050762939453126,0.04446205939780921,7.659711620575189,-6.1234969090640545
1790107600433708000,11.0607080078125,0.04521938513771165,7.6087945032864805,-6.1866474849820134
1790107600443652900,11.07065283203125,0.034130792544514406,7.55993256496191,-6.246330092528462
1790107600453597200,11.08059716796875,0.030475952981528824,7.509906843554973,-6.30640608330667
1790107600463542000,11.0905419921875,0.03661712261766661,7.455213714858889,-6.37093613088429
1790107600473486800,11.10048681640625,0.04972614023874048,7.395189162006973,-6.44042467765212
1790107600483431000,11.110430908203124,0.07382082208478823,7.328405782544612,-6.5160881136626
1790107600493376000,11.1203759765625,0.11145836009164341,7.255484923240542,-6.596658026415109
1790107600503320800,11.13032080078125,0.15747039801096543,7.178263736394047,-6.679678254929184
1790107600513266000,11.140265869140626,0.20099959700545295,7.095677807644009,-6.766190417212248
1790107600523210000,11.1502099609375,0.24317411172166464,7.008099477434158,-6.855496009606123
1790107600533155000,11.160155029296876,0.2918485281175002,6.9163365550160405,-6.946185165312886
1790107600543100000,11.170099853515625,0.3426127198668197,6.820712280994654,-7.037819492915272
1790107600553044000,11.1800439453125,0.38982415103800594,6.7219953016549345,-7.129740236243605
1790107600562989000,11.189989013671875,0.44172319203615185,6.624256227436661,-7.217652328452467
1790107600572934000,11.199933837890624,0.5005115176239981,6.529416381791234,-7.299768301603198
1790107600582878000,11.2098779296875,0.5571830337209627,6.438349624943733,-7.3761512840598815
1790107600592823000,11.219822998046874,0.6159888219002634,6.352022756099701,-7.445988790395855
1790107600602768000,11.229767822265625,0.6830004571605474,6.269114171266556,-7.510134222570061
1790107600612712000,11.2397119140625,0.7505132468760013,6.185745567706227,-7.5725617449104785
1790107600622657000,11.249656982421875,0.8177004578988999,6.09670476372838,-7.63753544460237
1790107600632601900,11.259601806640624,0.8838612484835088,5.997277590292692,-7.708556607764959
1790107600642546000,11.2695458984375,0.9454877566393465,5.888716093286871,-7.784566665256023
1790107600652490800,11.27949072265625,0.9979681777220218,5.778840006551146,-7.859991031813621
1790107600662436000,11.28943603515625,1.0379085584443062,5.671785406976938,-7.932462978306412
1790107600672380000,11.2993798828125,1.063437990367785,5.567113903146982,-8.002920077845454
1790107600682325000,11.309324951171876,1.0728617253385484,5.463892598125338,-8.072498056462406
1790107600692270000,11.31927001953125,1.077170893774554,5.360372017896175,-8.141040262290835
1790107600702214000,11.3292138671875,1.0824658583775162,5.253415617999434,-8.209767761558293
1790107600712159000,11.339158935546875,1.0916574650928377,5.142267611631751,-8.27863145442605
1790107600722104000,11.34910400390625,1.1121227454945444,5.028016963073611,-8.345815231382847
1790107600732048100,11.359048095703125,1.1467658965915442,4.910167997762561,-8.411040275487304
1790107600741993000,11.368992919921874,1.1926998186402022,4.791597732439637,-8.472804950004816
1790107600751937800,11.378937744140625,1.249251873075962,4.67777992234081,-8.528077924415468
1790107600761883100,11.388883056640625,1.3181012451574206,4.570655764661729,-8.57566852762997
1790107600771827000,11.398826904296875,1.3837686262018978,4.468282016380131,-8.619167477616667
1790107600781771800,11.408771728515624,1.4326337793968618,4.372074974034726,-8.660423032590746
1790107600791717000,11.418717041015626,1.4662491948813199,4.283827366261184,-8.698810923174022
1790107600801661000,11.428660888671875,1.5038434508688747,4.201678367623686,-8.732395212867855
1790107600811606000,11.43860595703125,1.5672821960784493,4.121881192809343,-8.759230028301477
1790107600821550800,11.44855078125,1.6388946031324565,4.05063528098017,-8.779335827741026
1790107600831495200,11.4584951171875,1.6833314184911548,3.9922070574089883,-8.797674617508052
1790107600841440000,11.46843994140625,1.693718226340413,3.9463723579511045,-8.816339570489525
1790107600851384800,11.478384765625,1.6909266959257423,3.9073821175605055,-8.834223017704486
1790107600861329200,11.4883291015625,1.6948827400751412,3.8751533341288567,-8.847652408120036
1790107600871274000,11.49827392578125,1.690844862861186,3.8553377498075365,-8.857076070025563
1790107600881218800,11.50821875,1.66260617197901,3.8512069336131214,-8.864216589429974
1790107600891163000,11.518162841796874,1.6189897330924867,3.859653859440982,-8.868613947606086
1790107600901108000,11.52810791015625,1.5715363463915883,3.8786870612129567,-8.868847171840072
1790107600911053000,11.538052978515625,1.524799729657918,3.905179054558277,-8.865378618946671
1790107600920996900,11.547996826171875,1.4925881896220148,3.938992769093811,-8.855897089374064
1790107600930942000,11.55794189453125,1.4641113060697912,3.9859120489180087,-8.839641535621881
1790107600940887000,11.567886962890626,1.409945562248677,4.046739442585409,-8.820788951113819
1790107600950830800,11.577830810546875,1.3439267374180257,4.1164796260267495,-8.798795730492472
1790107600960776000,11.58777587890625,1.285996380366385,4.1948651804775,-8.770388551175595
1790107600970721000,11.597720947265625,1.2330879431299864,4.28142001285851,-8.736092313820123
1790107600980665000,11.6076650390625,1.1760354648914186,4.3750455142781135,-8.697488150137662
1790107600990610000,11.61760986328125,1.1070569134723394,4.475581233477592,-8.65528683874607
1790107601000555000,11.627554931640624,1.0331477737832815,4.5836058471277354,-8.607760532939434
1790107601010499800,11.637499755859375,0.9614238691788166,4.698001457114517,-8.554228849238157
1790107601020444000,11.64744384765625,0.8919125991225242,4.817553719212115,-8.495060036432742
1790107601030389000,11.657388916015625,0.8253793950289487,4.940263860818743,-8.431067748993634
1790107601040334000,11.667333984375,0.7682176842622459,5.0636061628490685,-8.363021217727661
1790107601050278000,11.67727783203125,0.7225616293068975,5.186118443796039,-8.291711885273456
1790107601060223000,11.687222900390625,0.6785977652221917,5.309664743965864,-8.216894252437353
1790107601070168000,11.69716796875,0.6346645885366946,5.43904691068232,-8.13537799874544
1790107601080111900,11.70711181640625,0.5964475244756787,5.576923349499702,-8.044412948706746
1790107601090057000,11.717056884765626,0.5684139642441645,5.7224546869844195,-7.94360162743628
1790107601100002000,11.727001953125,0.5531731404924765,5.874020043936372,-7.833279550498723
1790107601109946000,11.736946044921876,0.546958613359183,6.027928164622187,-7.715912231224775
1790107601119891000,11.746890869140625,0.5431514030959457,6.17949235253036,-7.5953446546047925
1790107601129835800,11.756835693359376,0.5336770704491064,6.3303662200868125,-7.4707450459897515
1790107601139780000,11.766780029296875,0.520774772647582,6.48194034486711,-7.3405474712371825
1790107601149725000,11.776724853515624,0.5184672628901899,6.631192164179683,-7.206167642363906
1790107601159669800,11.786669677734375,0.5448750850833952,6.771953803044557,-7.072067214953899
1790107601169614000,11.796614013671874,0.5993041925484314,6.901628815227746,-6.941090472522378
1790107601179559000,11.806558837890625,0.6646139557942747,7.02236298058629,-6.812861567494273
1790107601189504000,11.81650390625,0.7187457242805511,7.140936753040552,-6.682873251578211
1790107601199447800,11.82644775390625,0.7562590239863842,7.260334701359271,-6.5487395064204925
1790107601209393200,11.83639306640625,0.792277408959344,7.378976862874627,-6.410412985748052
1790107601219338000,11.846337890625,0.8403189708117396,7.493999080327153,-6.269308232533931
1790107601229281800,11.85628173828125,0.9015219928584992,7.604289593082666,-6.126369249629974
1790107601239227100,11.86622705078125,0.9582530571229755,7.709323500484228,-5.984851239439845
1790107601249172000,11.876171875,0.9672286099348216,7.807333792859316,-5.854945925632119
1790107601259116800,11.88611669921875,0.8966508066255598,7.8981690790385,-5.7432852935671805
1790107601269060900,11.896060791015625,0.7691494852196424,7.981929896786808,-5.645136469504237
1790107601279006000,11.906005859375,0.6404719596412033,8.05753195799887,-5.553047968393564
1790107601288951000,11.915950927734375,0.5600890938933938,8.125622912928462,-5.461771368187666
1790107601298894800,11.925894775390624,0.5537718370379879,8.186683238568902,-5.3704702180624
1790107601308840000,11.93583984375,0.5720508959744125,8.242608539408446,-5.282286323174834
1790107601318785000,11.945784912109374,0.5535218077996745,8.303338610181212,-5.188310400882363
1790107601328728800,11.955728759765625,0.5118127734370529,8.36783358644545,-5.088004106524586
1790107601338674200,11.965674072265625,0.4691636452127248,8.4270287027359,-4.993541862019896
1790107601348619000,11.975618896484375,0.44008627501670267,8.47798264490366,-4.909229840129614
1790107601358563000,11.98556298828125,0.44476800309214737,8.51755828396678,-4.839810266944766
1790107601368508000,11.9955078125,0.4833560558900237,8.541431911507248,-4.793817746576667
1790107601378453000,12.005452880859375,0.5127184170398861,8.551998313707113,-4.77187947101295
1790107601388396500,12.015396484375,0.5245373035188764,8.550555129161477,-4.773179447695613
1790107601398341600,12.025341552734375,0.534783899179846,8.535614749661088,-4.798715163229406
1790107601408286500,12.035286376953126,0.5489157387763262,8.510146546405553,-4.842156830070913
1790107601418230500,12.04523046875,0.5286826962279155,8.483043435424566,-4.891714641705155
1790107601428175600,12.055175537109376,0.5007536192841827,8.44957721915245,-4.952199797806143
1790107601438120700,12.06512060546875,0.49189497085027395,8.404242285910248,-5.029625567314029
1790107601448064500,12.075064453125,0.5098820976354181,8.345536414441465,-5.124688115799427
1790107601458009600,12.085009521484375,0.5262760734776034,8.280418922364712,-5.227629434835911
1790107601467954700,12.09495458984375,0.5296021491603925,8.21182586313188,-5.334400541293621
1790107601477899500,12.1048994140625,0.538688030478917,8.137797919368744,-5.4457712505012745
1790107601487843600,12.114843505859374,0.5606854523513466,8.057032776305078,-5.562393888887763
1790107601497788700,12.12478857421875,0.5889752888988703,7.970573805513977,-5.68272941031754
1790107601507733500,12.1347333984375,0.6032473041510209,7.882391079670191,-5.802964393982291
1790107601517677600,12.144677490234375,0.5977376373514532,7.796807138147949,-5.918012330397963
1790107601527622700,12.15462255859375,0.6093357206866145,7.7086057076036925,-6.031294426184893
1790107601537567500,12.1645673828125,0.6418303885128349,7.617323262178897,-6.142866210922598
1790107601547511600,12.174511474609375,0.6782042358599603,7.529162748166918,-6.246767899423837
1790107601557456400,12.184456298828126,0.7025910005543381,7.4513979559630155,-6.336671457710862
1790107601567401700,12.194401611328125,0.7231142216883599,7.386315535199642,-6.410135922372341
1790107601577345500,12.204345458984376,0.7704134407408535,7.327652333828807,-6.471658020305633
1790107601587290600,12.21429052734375,0.8274074667904525,7.273245036336779,-6.525773056852817
1790107601597235700,12.224235595703124,0.8489433720983565,7.229070963567495,-6.571924567174911
1790107601607179500,12.234179443359375,0.8854496136534958,7.185806406858563,-6.614419308555126
1790107601617124600,12.24412451171875,0.950471974792704,7.138000115066767,-6.657024524572491
1790107601627069400,12.2540693359375,1.0116617720317096,7.08747053579092,-6.701843909507989
1790107601637013800,12.264013671875,1.0524577466700225,7.032680376461148,-6.753083682879805
1790107601646958600,12.27395849609375,1.0758120995767413,6.973600995504856,-6.810428202867508
1790107601656903400,12.2839033203125,1.085254685378447,6.910009105560183,-6.873454860144853
1790107601666847500,12.293847412109375,1.0904291654068976,6.8388359667062755,-6.943464800438284
1790107601676792600,12.30379248046875,1.1049189515955746,6.759232268637418,-7.018713225907087
1790107601686737700,12.313737548828126,1.1335296906605363,6.672158965340256,-7.0970292222529645
1790107601696681500,12.323681396484375,1.1672653715237975,6.578851151567697,-7.17820353063941
1790107601706626600,12.33362646484375,1.1991560821074991,6.479137562406063,-7.263138652864098
1790107601716571600,12.343571533203125,1.2238283857449888,6.3781374405652285,-7.347924722006916
1790107601726515500,12.353515380859376,1.2389894222587345,6.280760185396671,-7.428819628930092
1790107601736460800,12.363460693359375,1.2502575429871678,6.191330674362182,-7.501645795688033
1790107601746405600,12.373405517578124,1.2664094902344047,6.110888187381625,-7.56463212095499
1790107601756349400,12.383349365234375,1.2849736131899059,6.036174599441885,-7.621273461109399
1790107601766294500,12.39329443359375,1.3082640340149403,5.960698210436106,-7.676517209425568
1790107601776239600,12.403239501953125,1.3366349729746578,5.879681722959876,-7.73389855429232
1790107601786184400,12.413184326171875,1.3525861369527876,5.790988709506392,-7.797778029006719
1790107601796128500,12.42312841796875,1.3553921342842281,5.695548559880256,-7.867275928124785
1790107601806073600,12.433073486328125,1.3553531174480915,5.596591342043876,-7.937984372076392
1790107601816018700,12.443018798828126,1.3477309520065783,5.494485889309645,-8.010282131046056
1790107601825962500,12.45296240234375,1.3346870537772775,5.388153758791089,-8.084356252038479
1790107601835907600,12.462907470703126,1.3283181032672524,5.278001777723431,-8.157735961025953
1790107601845852700,12.472852783203125,1.3331664200812579,5.165728566718101,-8.228504610732196
1790107601855796500,12.48279638671875,1.345784494113922,5.051439339715242,-8.297120466318725
1790107601865741600,12.492741455078125,1.3670007390134036,4.936076346001029,-8.362827740982175
1790107601875686700,12.502686767578124,1.4003024123735726,4.818703766030072,-8.425535249307751
1790107601885630700,12.512630615234375,1.4495418057084082,4.701405712600052,-8.48327665965855
1790107601895575600,12.522575439453124,1.5167441412352025,4.587748646020889,-8.533606332448125
1790107601905520600,12.532520751953125,1.5919553034335374,4.481390796539187,-8.576315593361855
1790107601915464700,12.542464599609374,1.6650450895637272,4.384072285820544,-8.612659995418786
1790107601925409500,12.552409423828125,1.727473927078396,4.292234836861491,-8.6465570043236
1790107601935354400,12.562354248046875,1.7811558329053223,4.201277093346417,-8.680272226920723
1790107601945298700,12.572298583984375,1.8279000484235584,4.115295092417299,-8.711689109447597
1790107601955243500,12.582243408203125,1.8700714030683039,4.03714130089581,-8.739263345071674
1790107601965188600,12.592188720703126,1.9131958206541835,3.96732454508692,-8.76187265176475
1790107601975132700,12.602132568359375,1.964825762387365,3.905911752746999,-8.77802416062057
1790107601985077500,12.612077392578126,2.0097662894845008,3.8579339037805793,-8.789059933897853
1790107601995022600,12.622022705078125,2.0285022618755697,3.824678407649696,-8.79928380627036
1790107602004966400,12.63196630859375,2.0185687507517636,3.80203782903552,-8.8113705499053
1790107602014911700,12.641911865234375,1.982317579936236,3.7887171596914526,-8.825327763587236
1790107602024856600,12.651856689453124,1.9283752696074545,3.7855674634888765,-8.838621544924377
1790107602034801400,12.661801513671875,1.8576497283905744,3.798099028281867,-8.848385983091593
1790107602044745700,12.671745849609374,1.7789326038978992,3.8255557750061153,-8.852733072385192
1790107602054690600,12.681690673828125,1.7014305542834103,3.8616885801389813,-8.852281236964464
1790107602064635400,12.691635498046875,1.6293936382070182,3.9043966720089314,-8.847099450412392
1790107602074579500,12.701579345703125,1.56250665223971,3.954815776647627,-8.836763349837064
1790107602084524500,12.711524658203125,1.5056629213809967,4.014026967290044,-8.819918013498187
1790107602094469600,12.7214697265625,1.465791368111223,4.081820400577783,-8.795484413987397
1790107602104413400,12.731413330078125,1.421267751251906,4.158475185713172,-8.766839918783306
1790107602114358800,12.74135888671875,1.3596832556068896,4.247291533285379,-8.733965823185443
1790107602124303600,12.7513037109375,1.2944099884465337,4.3470524687200784,-8.69471342472732
1790107602134247400,12.761247314453126,1.2378072267368434,4.4545837458953255,-8.6484046780169
1790107602144192800,12.77119287109375,1.1883482723671943,4.5674148830443615,-8.596332545474171
1790107602154137600,12.7811376953125,1.1392792671632022,4.685652555412053,-8.539149938049912
1790107602164081700,12.79108154296875,1.0883444680873304,4.80831242813617,-8.477381171879172
1790107602174026500,12.801026611328124,1.0397049403417855,4.933396897658706,-8.411361762526631
1790107602183971600,12.8109716796875,1.0024252301961183,5.057871418589353,-8.3416692176193
1790107602193915600,12.82091552734375,0.9805156692702323,5.18057600723803,-8.268653665769099
1790107602203860500,12.830860595703125,0.970889908921346,5.300246927279233,-8.193603977742791
