time,seconds_elapsed,z,y,x
1790263972555567400,0.0795673828125,0,0,0
1790263972565567500,0.0895673828125,0.3018035888671875,0.1650039255619049,0.49193572998046875
1790263972575567400,0.0995673828125,-0.4767608642578125,0.2276434600353241,1.1339831352233887
1790263972585567500,0.1095673828125,-0.5179438591003418,0.9132295846939087,0.9123926162719727
1790263972595567400,0.1195673828125,-1.0683326721191406,0.8392127752304077,1.06986403465271
1790263972605567500,0.1295673828125,-1.101578712463379,-0.08398846536874771,1.9128338098526
1790263972615567400,0.1395673828125,-0.25330686569213867,0.6719143986701965,0.5867921113967896
1790263972625567500,0.1495673828125,1.5598602294921875,0.14012973010540009,1.0263168811798096
1790263972635567400,0.1595673828125,3.009126663208008,1.0568411350250244,0.07954692840576172
1790263972645567500,0.1695673828125,3.632687568664551,2.2700247764587402,-2.375760555267334
1790263972655567400,0.1795673828125,3.727144241333008,1.7640981674194336,-2.391418933868408
1790263972665567500,0.1895673828125,2.812209129333496,1.042047381401062,-1.3202784061431885
1790263972675567400,0.1995673828125,2.0049495697021484,0.4820721745491028,-0.9226585626602173
1790263972685567500,0.2095673828125,1.4478025436401367,0.10435575246810913,-0.747218132019043
1790263972695567400,0.2195673828125,1.5784053802490234,-0.34924668073654175,-0.5639852285385132
1790263972705567500,0.2295673828125,0.11898612976074219,-0.4665517210960388,-0.1491250991821289
1790263972715567400,0.2395673828125,-0.22496891021728516,-0.6026779413223267,-0.059079527854919434
1790263972725567500,0.2495673828125,0.0811605453491211,-0.911616325378418,-0.43410301208496094
1790263972735567400,0.2595673828125,-0.1412220001220703,-1.623253345489502,-0.06891775131225586
1790263972745567500,0.2695673828125,-0.5539264678955078,-2.2722063064575195,0.767253041267395
1790263972755567400,0.2795673828125,-1.7349700927734375,-3.3530282974243164,2.2069647312164307
1790263972765567500,0.2895673828125,-0.9586868286132812,-2.360987663269043,1.656685709953308
1790263972775567400,0.2995673828125,-0.19340133666992188,-0.7334809899330139,-0.5414865016937256
1790263972785567500,0.3095673828125,0.9591398239135742,0.27138805389404297,-3.146440267562866
1790263972795567400,0.3195673828125,2.1007022857666016,-0.6820539236068726,-2.271811008453369
1790263972805567500,0.3295673828125,2.047600746154785,-1.232176423072815,-1.661791205406189
1790263972815567400,0.3395673828125,2.0018606185913086,-0.9330310225486755,-1.6166820526123047
1790263972825567500,0.3495673828125,0.8594732284545898,-0.04077315330505371,-1.651539921760559
1790263972835567400,0.3595673828125,-0.8452119827270508,0.692926287651062,-1.9800176620483398
1790263972845567500,0.3695673828125,-1.7947168350219727,0.7379260063171387,-2.3751306533813477
1790263972855567400,0.3795673828125,-2.5704917907714844,0.4184916019439697,-2.3895325660705566
1790263972865567500,0.3895673828125,-3.3827099800109863,0.20713210105895996,-2.565436840057373
1790263972875567400,0.3995673828125,-4.077800750732422,0.5171029567718506,-2.8844406604766846
1790263972885567500,0.4095673828125,-3.1144914627075195,0.6371352672576904,-2.7916927337646484
1790263972895567400,0.4195673828125,-2.6989870071411133,0.5199673175811768,-1.8780462741851807
1790263972905567500,0.4295673828125,-2.1789722442626953,0.325908899307251,-1.1403779983520508
1790263972915567400,0.4395673828125,-0.8809690475463867,0.11261487007141113,-0.18340617418289185
1790263972925567500,0.4495673828125,0.48061370849609375,0.05069887638092041,0.7646609544754028
1790263972935567400,0.4595673828125,1.634974479675293,-0.27348649501800537,1.0617355108261108
1790263972945567500,0.4695673828125,1.628061294555664,-0.927567183971405,0.7902041077613831
1790263972955567400,0.4795673828125,1.7496042251586914,-0.13079166412353516,-0.14556634426116943
1790263972965567500,0.4895673828125,2.276007652282715,0.7661317586898804,-0.8836407661437988
1790263972975567400,0.4995673828125,1.916642189025879,0.9445065259933472,-0.7673894166946411
1790263972985567500,0.5095673828125,0.6506032943725586,0.31585991382598877,-0.2192596197128296
1790263972995567400,0.5195673828125,-0.5108776092529297,-0.3653991222381592,0.2784767150878906
1790263973005567500,0.5295673828125,-0.40106773376464844,-0.4654879570007324,-0.18688058853149414
1790263973015567400,0.5395673828125,-1.0206270217895508,-0.49318885803222656,-1.2453949451446533
1790263973025567500,0.5495673828125,-0.9842357635498047,-0.32998907566070557,-1.0553317070007324
1790263973035567400,0.5595673828125,-0.29226207733154297,-0.1674860715866089,-0.030742764472961426
1790263973045567500,0.5695673828125,0.07665061950683594,0.06055951118469238,1.5385299921035767
1790263973055567400,0.5795673828125,0.28521060943603516,0.23289406299591064,2.71587872505188
1790263973065567500,0.5895673828125,0.3107337951660156,0.372456431388855,2.697996139526367
1790263973075567400,0.5995673828125,0.055441856384277344,0.5737243890762329,0.9955652952194214
1790263973085567500,0.6095673828125,-0.15267467498779297,0.5929951667785645,-0.6846652030944824
1790263973095567400,0.6195673828125,-0.3140726089477539,0.2582526206970215,-1.3366289138793945
1790263973105567500,0.6295673828125,-0.21055316925048828,0.043506503105163574,-0.7510358691215515
1790263973115567400,0.6395673828125,0.47603511810302734,-0.2571277618408203,0.14049887657165527
1790263973125567500,0.6495673828125,0.8530569076538086,-0.34150266647338867,0.4361804723739624
1790263973135567400,0.6595673828125,0.6253118515014648,0.06488180160522461,0.01792168617248535
1790263973145567500,0.6695673828125,-0.013468742370605469,0.09390652179718018,-0.5957125425338745
1790263973155567400,0.6795673828125,-0.8883428573608398,0.06952548027038574,-1.0326251983642578
1790263973165567500,0.6895673828125,-1.3831415176391602,0.04928851127624512,-0.9644875526428223
1790263973175567400,0.6995673828125,-0.6705245971679688,-0.17485952377319336,-0.22066128253936768
1790263973185567500,0.7095673828125,0.2359771728515625,-0.0010230541229248047,0.5867618322372437
1790263973195567400,0.7195673828125,0.583745002746582,-0.025211095809936523,1.2061810493469238
1790263973205567500,0.7295673828125,0.7649612426757812,-0.04040884971618652,1.0152828693389893
1790263973215567400,0.7395673828125,0.8024454116821289,-0.04132401943206787,0.02661895751953125
1790263973225567500,0.7495673828125,0.7486915588378906,-0.1012425422668457,-0.8435077667236328
1790263973235567400,0.7595673828125,0.4166746139526367,-0.07113456726074219,-0.9952781200408936
1790263973245567500,0.7695673828125,-0.23723602294921875,-0.13320672512054443,-1.000037431716919
1790263973255567400,0.7795673828125,-0.6610279083251953,-0.27887606620788574,0.7284636497497559
1790263973265567500,0.7895673828125,-1.0912084579467773,0.1751309633255005,1.4126603603363037
1790263973275567400,0.7995673828125,-1.7431225776672363,0.3641793727874756,1.692732810974121
1790263973285567500,0.8095673828125,-1.8971567153930664,0.16709327697753906,1.306931972503662
1790263973295567400,0.8195673828125,-1.532742977142334,-0.1762479543685913,1.0246269702911377
1790263973305567500,0.8295673828125,-0.6929788589477539,-0.5135296583175659,0.6297142505645752
1790263973315567400,0.8395673828125,0.1452312469482422,-0.8416045308113098,0.3783235549926758
1790263973325567500,0.8495673828125,0.7110376358032227,-1.1691575050354004,0.20899128913879395
1790263973335567400,0.8595673828125,0.9345502853393555,-1.512756109237671,-0.3550450801849365
1790263973345567500,0.8695673828125,0.898834228515625,-1.8424450159072876,-1.3780953884124756
1790263973355567400,0.8795673828125,0.24359130859375,-2.398510456085205,-2.054875612258911
1790263973365567500,0.8895673828125,-0.7744989395141602,-3.3097476959228516,-2.207547187805176
1790263973375567400,0.8995673828125,-1.2446413040161133,-4.094470024108887,-2.386857271194458
1790263973385567500,0.9095673828125,-0.9097881317138672,-4.788843631744385,-2.7323648929595947
1790263973395567400,0.9195673828125,-0.44321537017822266,-5.915231704711914,-3.7528786659240723
1790263973405567500,0.9295673828125,-0.3246316909790039,-7.453033924102783,-4.561580657958984
1790263973415567400,0.9395673828125,-0.7329983711242676,-9.349397659301758,-4.2693071365356445
1790263973425567500,0.9495673828125,-0.9854068756103516,-10.374214172363281,-4.914223670959473
1790263973435567400,0.9595673828125,0.05272626876831055,-9.547926902770996,-8.212791442871094
1790263973445567500,0.9695673828125,0.41097116470336914,-9.81548023223877,-9.672590255737305
1790263973455567400,0.9795673828125,-0.3159167766571045,-11.198458671569824,-9.70174789428711
1790263973465567500,0.9895673828125,-2.198892116546631,-12.436155319213867,-8.641789436340332
1790263973475567400,0.9995673828125,-4.780226707458496,-13.227766990661621,-7.555205345153809
1790263973485567500,1.0095673828125,-6.993754863739014,-13.852446556091309,-7.233898162841797
1790263973495567400,1.0195673828125,-7.8782219886779785,-13.72513198852539,-7.154244899749756
1790263973505567500,1.0295673828125,-7.194977283477783,-13.25233268737793,-4.671658039093018
1790263973515567400,1.0395673828125,-5.783035755157471,-12.103979110717773,-0.3938479423522949
1790263973525567500,1.0495673828125,-4.802029609680176,-10.251128196716309,2.256673812866211
1790263973535567400,1.0595673828125,-4.776484966278076,-8.556634902954102,3.5138368606567383
1790263973545567500,1.0695673828125,-4.896184921264648,-7.324921607971191,4.342146873474121
1790263973555567400,1.0795673828125,-5.270421981811523,-6.3435540199279785,5.223624229431152
1790263973565567500,1.0895673828125,-5.682129383087158,-5.123428821563721,7.176522254943848
1790263973575567400,1.0995673828125,-6.102470397949219,-3.3010406494140625,10.31602668762207
1790263973585567500,1.1095673828125,-6.604470252990723,-1.2086853981018066,13.29460334777832
1790263973595567400,1.1195673828125,-7.365738391876221,1.026155948638916,15.589439392089844
1790263973605567500,1.1295673828125,-8.300069808959961,2.6508333683013916,16.30146598815918
1790263973615567400,1.1395673828125,-9.33130168914795,3.5136427879333496,15.94720458984375
1790263973625567500,1.1495673828125,-10.50034236907959,4.237645149230957,15.591264724731445
1790263973635567400,1.1595673828125,-10.563623428344727,4.834347724914551,15.080427169799805
1790263973645567500,1.1695673828125,-10.038840293884277,5.426700592041016,15.016815185546875
1790263973655567400,1.1795673828125,-9.530170440673828,5.869298934936523,14.649491310119629
1790263973665567500,1.1895673828125,-8.870993614196777,6.318638801574707,13.225587844848633
1790263973675567400,1.1995673828125,-8.2147216796875,6.645730018615723,10.839814186096191
1790263973685567500,1.2095673828125,-7.636322021484375,6.414530277252197,8.404879570007324
1790263973695567400,1.2195673828125,-7.34128999710083,6.028797626495361,6.081902503967285
1790263973705567500,1.2295673828125,-6.796655178070068,5.603852272033691,4.644829750061035
1790263973715567400,1.2395673828125,-6.141416072845459,4.718512535095215,4.188236236572266
1790263973725567500,1.2495673828125,-4.687849044799805,3.6723244190216064,4.344575881958008
1790263973735567400,1.2595673828125,-2.7387514114379883,2.9501662254333496,4.998141288757324
1790263973745567500,1.2695673828125,-0.876568615436554,2.69938325881958,4.247125625610352
1790263973755567400,1.2795673828125,-0.44359225034713745,2.580209493637085,2.4192256927490234
1790263973765567500,1.2895673828125,-1.926941156387329,2.139647960662842,0.2489185333251953
1790263973775567400,1.2995673828125,-4.165267467498779,1.283454179763794,-2.2508301734924316
1790263973785567500,1.3095673828125,-7.729244709014893,0.32440733909606934,-5.0663371086120605
1790263973795567400,1.3195673828125,-9.413297653198242,-0.4194822311401367,-7.094438552856445
1790263973805567500,1.3295673828125,-7.578088283538818,-0.6910700798034668,-6.766196250915527
1790263973815567400,1.3395673828125,-2.486516237258911,-0.5544354915618896,-5.403437614440918
1790263973825567500,1.3495673828125,3.169327974319458,-1.1997084617614746,-2.8940887451171875
1790263973835567400,1.3595673828125,6.449670791625977,-2.0923984050750732,-1.8400006294250488
1790263973845567500,1.3695673828125,5.261082649230957,-0.3978092670440674,0.4916105270385742
1790263973855567400,1.3795673828125,6.780854225158691,0.8320199251174927,-0.6148967742919922
1790263973865567500,1.3895673828125,6.09744930267334,-0.10782551765441895,-2.195096969604492
1790263973875567400,1.3995673828125,3.715406894683838,-0.08348405361175537,-2.81288480758667
1790263973885567500,1.4095673828125,0.21239519119262695,0.14458787441253662,-2.8729352951049805
1790263973895567400,1.4195673828125,-2.7583658695220947,-0.28504693508148193,-2.795620918273926
1790263973905567500,1.4295673828125,-4.272091865539551,-0.5810098648071289,-3.492396354675293
1790263973915567400,1.4395673828125,-3.616288661956787,-0.48266828060150146,-4.654414176940918
1790263973925567500,1.4495673828125,-2.688570737838745,-1.3793221712112427,-5.357566833496094
1790263973935567400,1.4595673828125,-2.1656999588012695,-2.410308361053467,-5.318787097930908
1790263973945567500,1.4695673828125,-2.5820884704589844,-3.481290817260742,-4.236263275146484
1790263973955567400,1.4795673828125,-2.0740771293640137,-3.7836906909942627,-3.945958137512207
1790263973965567500,1.4895673828125,-1.7931060791015625,-3.613649845123291,-4.774853706359863
1790263973975567400,1.4995673828125,-2.0858192443847656,-3.8783559799194336,-6.0489912033081055
1790263973985567500,1.5095673828125,-0.5350430011749268,-5.0818562507629395,-3.820446014404297
1790263973995567400,1.5195673828125,1.8827340602874756,-5.369416236877441,0.5068550109863281
1790263974005567500,1.5295673828125,4.728179931640625,-2.1000404357910156,3.2264528274536133
1790263974015567400,1.5395673828125,5.951962471008301,2.254998207092285,2.649066925048828
1790263974025567500,1.5495673828125,6.398968696594238,1.977329969406128,3.11405086517334
1790263974035567400,1.5595673828125,5.596890449523926,0.6277108192443848,3.516873359680176
1790263974045567500,1.5695673828125,4.192331314086914,-0.7645092010498047,3.1825904846191406
1790263974055567400,1.5795673828125,2.5995383262634277,-1.7942628860473633,3.05228853225708
1790263974065567500,1.5895673828125,0.04372882843017578,-2.2464756965637207,2.3611602783203125
1790263974075567400,1.5995673828125,-5.899319648742676,-3.3977603912353516,2.3704423904418945
1790263974085567500,1.6095673828125,-9.212225914001465,-3.1650519371032715,3.5717577934265137
1790263974095567400,1.6195673828125,-3.9597582817077637,-1.3413877487182617,1.6407694816589355
1790263974105567500,1.6295673828125,0.7839076519012451,0.31991147994995117,-0.20308399200439453
1790263974115567400,1.6395673828125,3.683734893798828,1.0594220161437988,-1.0810761451721191
1790263974125567500,1.6495673828125,4.869777679443359,1.2980079650878906,-1.9154424667358398
1790263974135567400,1.6595673828125,4.367722988128662,0.44855451583862305,-3.121155261993408
1790263974145567500,1.6695673828125,3.3790478706359863,-0.30697059631347656,-4.132356643676758
1790263974155567400,1.6795673828125,1.607271432876587,0.09695863723754883,-4.4454803466796875
1790263974165567500,1.6895673828125,-0.23328280448913574,-0.20756053924560547,-4.260415077209473
1790263974175567400,1.6995673828125,-1.8155505657196045,-0.20202112197875977,-3.145627975463867
1790263974185567500,1.7095673828125,-3.2457940578460693,-0.09540843963623047,-2.3573832511901855
1790263974195567400,1.7195673828125,-3.627645254135132,-0.12363386154174805,-2.5623626708984375
1790263974205567500,1.7295673828125,-1.6856775283813477,-0.3716912269592285,-3.2835323810577393
1790263974215567400,1.7395673828125,0.3157482147216797,-0.5063624382019043,-2.9673774242401123
1790263974225567500,1.7495673828125,1.1827716827392578,-0.1732645034790039,-1.3123703002929688
1790263974235567400,1.7595673828125,1.1533665657043457,0.6070356369018555,-0.0998072624206543
1790263974245567500,1.7695673828125,0.6197725534439087,1.404587745666504,1.08420991897583
1790263974255567400,1.7795673828125,0.03445553779602051,1.6304912567138672,2.1484742164611816
1790263974265567500,1.7895673828125,0.18155264854431152,1.8432416915893555,2.4418606758117676
1790263974275567400,1.7995673828125,0.752890944480896,1.8666863441467285,2.499972105026245
1790263974285567500,1.8095673828125,0.3698239326477051,1.45953369140625,2.3556125164031982
1790263974295567400,1.8195673828125,0.2923020124435425,0.7496576309204102,1.9672274589538574
1790263974305567500,1.8295673828125,0.5118203163146973,0.0000858306884765625,1.1355892419815063
1790263974315567400,1.8395673828125,1.3935431241989136,-0.8275489807128906,0.1654421091079712
1790263974325567500,1.8495673828125,1.9268940687179565,-1.6880416870117188,-0.38462042808532715
1790263974335567400,1.8595673828125,1.745770812034607,-2.492640495300293,-0.8961986303329468
1790263974345567500,1.8695673828125,1.1601028442382812,-3.372258186340332,-1.2325483560562134
1790263974355567400,1.8795673828125,0.34320521354675293,-4.214842796325684,-1.1195154190063477
1790263974365567500,1.8895673828125,-0.30585813522338867,-4.729113578796387,-0.8538410663604736
1790263974375567400,1.8995673828125,-0.6159080266952515,-4.889918327331543,-0.22309792041778564
1790263974385567500,1.9095673828125,-0.9311550855636597,-4.794656753540039,0.4766465425491333
1790263974395567400,1.9195673828125,-1.35641348361969,-4.70024299621582,0.880450963973999
1790263974405567500,1.9295673828125,-1.4032931327819824,-4.521675109863281,0.0839759111404419
1790263974415567400,1.9395673828125,-1.2881345748901367,-4.342954635620117,-1.279660940170288
1790263974425567500,1.9495673828125,-1.0051518678665161,-3.8396005630493164,-2.555185556411743
1790263974435567400,1.9595673828125,-0.4686586260795593,-2.899847984313965,-3.774566173553467
1790263974445567500,1.9695673828125,-0.31637120246887207,-1.6101207733154297,-3.5260534286499023
1790263974455567400,1.9795673828125,-0.008839130401611328,-0.5970869064331055,-1.4573307037353516
1790263974465567500,1.9895673828125,0.4618297219276428,0.1577739715576172,0.19300031661987305
1790263974475567400,1.9995673828125,0.5183849334716797,0.36171913146972656,0.7210936546325684
1790263974485567500,2.0095673828125,0.2600148320198059,0.022640228271484375,0.7083721160888672
1790263974495567400,2.0195673828125,-0.03979837894439697,-0.4035186767578125,0.45941805839538574
1790263974505567500,2.0295673828125,-0.21005678176879883,-0.40409374237060547,0.04216933250427246
1790263974515567400,2.0395673828125,-0.12642508745193481,-0.12480545043945312,-0.24453139305114746
1790263974525567500,2.0495673828125,0.09152781963348389,0.25055789947509766,-0.1972370147705078
1790263974535567400,2.0595673828125,0.18499362468719482,0.38597679138183594,-0.09661698341369629
1790263974545567500,2.0695673828125,0.18727093935012817,0.941319465637207,0.03616619110107422
1790263974555567400,2.0795673828125,0.28977787494659424,0.8871679306030273,0.5358294248580933
1790263974565567500,2.0895673828125,0.29552239179611206,0.27175426483154297,0.22137773036956787
1790263974575567400,2.0995673828125,-0.14258480072021484,0.15514278411865234,0.0015218257904052734
1790263974585567500,2.1095673828125,-0.08259391784667969,0.735905647277832,0.8152527809143066
1790263974595567400,2.1195673828125,0.5051207542419434,1.4882383346557617,0.7908995151519775
1790263974605567500,2.1295673828125,0.45265287160873413,1.4988861083984375,0.7243533134460449
1790263974615567400,2.1395673828125,0.26589274406433105,1.0267457962036133,0.517061710357666
1790263974625567500,2.1495673828125,0.6182161569595337,0.9582662582397461,0.6110856533050537
1790263974635567400,2.1595673828125,0.6995999813079834,0.8541898727416992,0.8997265100479126
1790263974645567500,2.1695673828125,0.5563035011291504,0.3931159973144531,1.229982614517212
1790263974655567400,2.1795673828125,0.1409531831741333,-0.014081954956054688,1.4455280303955078
1790263974665567500,2.1895673828125,-0.055295467376708984,0.6023740768432617,1.4058287143707275
1790263974675567400,2.1995673828125,-0.36459535360336304,0.8918571472167969,0.809866189956665
1790263974685567500,2.2095673828125,-0.5203778743743896,0.6315450668334961,0.098602294921875
1790263974695567400,2.2195673828125,-0.2044958472251892,0.07431411743164062,-1.112497329711914
1790263974705567500,2.2295673828125,-0.0030862092971801758,-0.9006586074829102,-2.872957944869995
1790263974715567400,2.2395673828125,0.9659422636032104,-1.4239387512207031,-4.055510520935059
1790263974725567500,2.2495673828125,1.090323805809021,-1.5548715591430664,-2.901282787322998
1790263974735567400,2.2595673828125,-0.16442039608955383,-1.1755857467651367,-0.47341394424438477
1790263974745567500,2.2695673828125,-1.2536957263946533,-0.5179405212402344,0.7319059371948242
1790263974755567400,2.2795673828125,-1.018075704574585,-0.14003944396972656,0.5692956447601318
1790263974765567500,2.2895673828125,0.2964005470275879,-0.6097517013549805,-0.6319115161895752
1790263974775567400,2.2995673828125,1.3721392154693604,-1.441141128540039,-2.2162668704986572
1790263974785567500,2.3095673828125,1.6620644330978394,-1.9476776123046875,-2.8174777030944824
1790263974795567400,2.3195673828125,-0.19254419207572937,-1.6819171905517578,-1.9121909141540527
1790263974805567500,2.3295673828125,-1.5922462940216064,-1.4261226654052734,-0.5320737361907959
1790263974815567400,2.3395673828125,-0.3293381631374359,-0.968475341796875,-0.12061595916748047
1790263974825567500,2.3495673828125,0.7798642516136169,-0.3078279495239258,0.1048276424407959
1790263974835567400,2.3595673828125,0.8110067248344421,0.44277191162109375,1.2725532054901123
1790263974845567500,2.3695673828125,0.9095831513404846,0.6740875244140625,1.7487523555755615
1790263974855567400,2.3795673828125,0.37280696630477905,0.47884464263916016,0.5731303691864014
1790263974865567500,2.3895673828125,-5.802169322967529,0.06351757049560547,-0.10156750679016113
1790263974875567400,2.3995673828125,-6.7906317710876465,-4.363214492797852,-0.5154886245727539
1790263974885567500,2.4095673828125,-1.8072867393493652,-0.9758596420288086,-4.9928507804870605
1790263974895567400,2.4195673828125,2.8533132076263428,2.613356590270996,-5.363796234130859
1790263974905567500,2.4295673828125,5.274957656860352,3.26116943359375,-2.1973395347595215
1790263974915567400,2.4395673828125,4.864686012268066,2.299441337585449,0.46977758407592773
1790263974925567500,2.4495673828125,2.9615840911865234,0.962092399597168,1.4092950820922852
1790263974935567400,2.4595673828125,0.8174444437026978,0.2556009292602539,0.3530616760253906
1790263974945567500,2.4695673828125,-0.03237485885620117,-0.25893211364746094,-1.3941583633422852
1790263974955567400,2.4795673828125,0.009801387786865234,-0.48433685302734375,-2.152721881866455
1790263974965567500,2.4895673828125,-0.19745826721191406,0.015309333801269531,-1.5107488632202148
1790263974975567400,2.4995673828125,-0.9008665680885315,0.6300458908081055,-0.6690273284912109
1790263974985567500,2.5095673828125,-1.458512306213379,1.0868902206420898,0.13215303421020508
1790263974995567400,2.5195673828125,-1.647217869758606,1.3710823059082031,0.39194369316101074
1790263975005567500,2.5295673828125,-3.636667490005493,2.84104061126709,-0.10406494140625
1790263975015567400,2.5395673828125,0.886640727519989,2.786689281463623,2.443490505218506
1790263975025567500,2.5495673828125,2.2671468257904053,2.4046192169189453,5.049810409545898
1790263975035567400,2.5595673828125,1.842774510383606,-0.8595075607299805,6.477514266967773
1790263975045567500,2.5695673828125,1.0237696170806885,-3.5888118743896484,3.4244422912597656
1790263975055567400,2.5795673828125,-0.32038676738739014,-4.127449035644531,-1.4201459884643555
1790263975065567500,2.5895673828125,1.4466854333877563,-3.299746513366699,-4.487025260925293
1790263975075567400,2.5995673828125,2.0105462074279785,-1.6597537994384766,-5.351893424987793
1790263975085567500,2.6095673828125,0.3409208059310913,-0.5323047637939453,-3.746325731277466
1790263975095567400,2.6195673828125,-1.8337113857269287,-0.39695262908935547,-2.2790095806121826
1790263975105567500,2.6295673828125,-3.2516214847564697,-0.6514444351196289,-1.225989580154419
1790263975115567400,2.6395673828125,-2.5080103874206543,-0.5191736221313477,0.23426389694213867
1790263975125567500,2.6495673828125,-1.3269540071487427,0.053603172302246094,1.8936998844146729
1790263975135567400,2.6595673828125,0.22565561532974243,1.9805383682250977,6.0840744972229
1790263975145567500,2.6695673828125,1.3790152072906494,3.046306610107422,3.8643360137939453
1790263975155567400,2.6795673828125,1.8336255550384521,2.9600400924682617,2.4052751064300537
1790263975165567500,2.6895673828125,2.259328603744507,1.530116081237793,1.064054250717163
1790263975175567400,2.6995673828125,1.7999324798583984,-0.12889862060546875,0.2858455181121826
1790263975185567500,2.7095673828125,0.31735920906066895,-1.0697526931762695,-0.6478908061981201
1790263975195567400,2.7195673828125,-1.5382347106933594,-2.2105655670166016,-2.24202561378479
1790263975205567500,2.7295673828125,-2.7405900955200195,-2.517970085144043,-2.3308916091918945
1790263975215567400,2.7395673828125,-2.3039135932922363,-1.9755659103393555,-1.1302156448364258
1790263975225567500,2.7495673828125,-1.254871129989624,-1.0575246810913086,-0.3006737232208252
1790263975235567400,2.7595673828125,0.353985071182251,-0.9714288711547852,0.07839202880859375
1790263975245567500,2.7695673828125,1.3217130899429321,-1.052475929260254,1.457592487335205
1790263975255567400,2.7795673828125,1.76764714717865,-1.7233896255493164,3.016247272491455
1790263975265567500,2.7895673828125,1.161442518234253,-2.6487436294555664,3.7607080936431885
1790263975275567400,2.7995673828125,-0.1997564733028412,-2.859930992126465,4.073659896850586
1790263975285567500,2.8095673828125,-0.2277601808309555,-2.321476936340332,2.743905782699585
1790263975295567400,2.8195673828125,0.24360904097557068,-1.8787288665771484,1.3487145900726318
1790263975305567500,2.8295673828125,0.21880501508712769,-2.0082740783691406,0.6494153738021851
1790263975315567400,2.8395673828125,-0.3170672655105591,-2.399717330932617,0.9584634304046631
1790263975325567500,2.8495673828125,-0.09993218630552292,-1.9152326583862305,1.3952741622924805
1790263975335567400,2.8595673828125,-0.7576515674591064,-1.1689682006835938,0.8815284371376038
1790263975345567500,2.8695673828125,-1.5219076871871948,-0.2192697525024414,0.5386791229248047
1790263975355567400,2.8795673828125,-1.0322343111038208,1.706038475036621,-0.7154348492622375
1790263975365567500,2.8895673828125,-0.06336899101734161,3.4856338500976562,-2.954334259033203
1790263975375567400,2.8995673828125,0.7380026578903198,4.874638557434082,-5.736812591552734
1790263975385567500,2.9095673828125,1.2501436471939087,6.0540924072265625,-8.154621124267578
1790263975395567400,2.9195673828125,1.9674229621887207,7.277604103088379,-9.823236465454102
1790263975405567500,2.9295673828125,2.0235257148742676,7.189007759094238,-9.35105037689209
1790263975415567400,2.9395673828125,0.6284206509590149,5.363592147827148,-4.445922374725342
1790263975425567500,2.9495673828125,1.330180048942566,4.457571983337402,-0.7151834964752197
1790263975435567400,2.9595673828125,2.6970577239990234,3.7281970977783203,0.5022110342979431
1790263975445567500,2.9695673828125,3.612473487854004,2.153799057006836,-0.18900007009506226
1790263975455567400,2.9795673828125,3.807861566543579,1.4173650741577148,-1.5999815464019775
1790263975465567500,2.9895673828125,2.6461193561553955,1.1253366470336914,-3.2257893085479736
1790263975475567400,2.9995673828125,0.5468978881835938,1.4946565628051758,-4.412666320800781
1790263975485567500,3.0095673828125,-1.4691073894500732,1.5399188995361328,-5.542524814605713
1790263975495567400,3.0195673828125,-2.283327102661133,0.863743782043457,-5.468505859375
1790263975505567500,3.0295673828125,-1.2696599960327148,0.0042514801025390625,-4.6660284996032715
1790263975515567400,3.0395673828125,0.43396565318107605,-0.3918943405151367,-3.2515032291412354
1790263975525567500,3.0495673828125,1.5848844051361084,-1.2561731338500977,-1.5239360332489014
1790263975535567400,3.0595673828125,1.2741820812225342,-1.8987855911254883,-0.14283287525177002
1790263975545567500,3.0695673828125,-0.614476203918457,-2.0443115234375,1.3116902112960815
1790263975555567400,3.0795673828125,-3.3038458824157715,-2.761847496032715,3.0785205364227295
1790263975565567500,3.0895673828125,-5.356367588043213,-5.259522438049316,4.552474021911621
1790263975575567400,3.0995673828125,-4.65123987197876,-7.708906173706055,5.35291051864624
1790263975585567500,3.1095673828125,-0.8513420820236206,-7.280083656311035,5.506196975708008
1790263975595567400,3.1195673828125,1.603858232498169,-5.79282283782959,4.91883659362793
1790263975605567500,3.1295673828125,2.3735246658325195,-3.664762496948242,3.2462522983551025
1790263975615567400,3.1395673828125,1.6567213535308838,-1.6278228759765625,1.618309497833252
1790263975625567500,3.1495673828125,1.2090877294540405,-0.42612648010253906,0.7179381847381592
1790263975635567400,3.1595673828125,1.3801532983779907,-0.4003896713256836,-0.2602088451385498
1790263975645567500,3.1695673828125,1.3996134996414185,-0.26626110076904297,-0.8029792308807373
1790263975655567400,3.1795673828125,1.0894770622253418,1.230229377746582,-0.5143790245056152
1790263975665567500,3.1895673828125,-0.5479534268379211,2.2957639694213867,0.9485337734222412
1790263975675567400,3.1995673828125,-1.5066378116607666,1.5372414588928223,0.8920691013336182
1790263975685567500,3.2095673828125,-1.158310890197754,-1.5313701629638672,-0.5824391841888428
1790263975695567400,3.2195673828125,-0.9267313480377197,-3.483959197998047,0.6385517120361328
1790263975705567500,3.2295673828125,-1.0654963254928589,-2.7402095794677734,3.2415554523468018
1790263975715567400,3.2395673828125,-1.1266214847564697,-2.0608816146850586,3.002819538116455
1790263975725567500,3.2495673828125,-0.8917275071144104,-1.9615869522094727,2.19887113571167
1790263975735567400,3.2595673828125,-0.4837646484375,-2.0254383087158203,1.7788116931915283
1790263975745567500,3.2695673828125,-0.028351619839668274,-2.1726293563842773,1.5566840171813965
1790263975755567400,3.2795673828125,0.34274229407310486,-1.7033414840698242,1.3576997518539429
1790263975765567500,3.2895673828125,-0.01445818692445755,-1.2261810302734375,0.462719202041626
1790263975775567400,3.2995673828125,-0.5006024241447449,-1.2228803634643555,-1.631056308746338
1790263975785567500,3.3095673828125,-0.9009647965431213,-0.8264884948730469,-4.590503692626953
1790263975795567400,3.3195673828125,-1.526124358177185,0.23621177673339844,-6.237776756286621
1790263975805567500,3.3295673828125,-1.0907158851623535,1.735182285308838,-5.337291717529297
1790263975815567400,3.3395673828125,-0.9023841619491577,2.042604446411133,-2.9992575645446777
1790263975825567500,3.3495673828125,0.519294261932373,1.6892414093017578,-1.1402111053466797
1790263975835567400,3.3595673828125,1.4714713096618652,1.601883888244629,0.400470495223999
1790263975845567500,3.3695673828125,2.0738885402679443,1.9293150901794434,1.6083357334136963
1790263975855567400,3.3795673828125,2.100766658782959,2.1034698486328125,1.5528827905654907
1790263975865567500,3.3895673828125,1.9614835977554321,2.0553441047668457,1.2851381301879883
1790263975875567400,3.3995673828125,2.2596046924591064,1.753136157989502,1.4490911960601807
1790263975885567500,3.4095673828125,0.8065899610519409,0.7386970520019531,1.0930132865905762
1790263975895567400,3.4195673828125,0.4885190725326538,0.18916606903076172,0.7799139022827148
1790263975905567500,3.4295673828125,0.4799169898033142,0.10580635070800781,0.40776336193084717
1790263975915567400,3.4395673828125,-0.05620317906141281,-0.10390281677246094,0.15836632251739502
1790263975925567500,3.4495673828125,-0.5764714479446411,-0.3850679397583008,0.04111790657043457
1790263975935567400,3.4595673828125,-0.3338163197040558,-0.12462615966796875,0.042406320571899414
1790263975945567500,3.4695673828125,0.013053655624389648,0.09800148010253906,-0.22182798385620117
1790263975955567400,3.4795673828125,0.05686147138476372,-0.19685935974121094,-0.4906792640686035
1790263975965567500,3.4895673828125,-0.17145374417304993,-0.40293216705322266,-0.7308835983276367
1790263975975567400,3.4995673828125,-0.6308224201202393,-0.5018482208251953,-0.7204461097717285
1790263975985567500,3.5095673828125,-0.2776855528354645,-0.5011968612670898,-1.0940546989440918
1790263975995567400,3.5195673828125,-0.5880733728408813,-0.10449504852294922,-0.7316939830780029
1790263976005567500,3.5295673828125,-0.12050972133874893,0.2360239028930664,-0.18626952171325684
1790263976015567400,3.5395673828125,0.4868370592594147,0.07861518859863281,-0.08913111686706543
1790263976025567500,3.5495673828125,0.41492849588394165,-0.06386566162109375,0.09732317924499512
1790263976035567400,3.5595673828125,0.11579293757677078,0.014536857604980469,0.16023612022399902
1790263976045567500,3.5695673828125,-0.27662938833236694,0.24204254150390625,-0.22498321533203125
1790263976055567400,3.5795673828125,-0.1797907054424286,0.3838787078857422,-0.48000025749206543
1790263976065567500,3.5895673828125,0.1592782884836197,0.29529666900634766,-0.38643479347229004
1790263976075567400,3.5995673828125,0.19462862610816956,0.1356954574584961,-0.18772649765014648
1790263976085567500,3.6095673828125,-0.0610307939350605,0.07569408416748047,0.0847923755645752
1790263976095567400,3.6195673828125,-0.37867602705955505,0.04643726348876953,0.22769713401794434
1790263976105567500,3.6295673828125,-0.4795612096786499,0.059744834899902344,0.1802067756652832
1790263976115567400,3.6395673828125,-0.33682629466056824,0.10017681121826172,0.08269381523132324
1790263976125567500,3.6495673828125,-0.13767433166503906,0.11455726623535156,0.032437801361083984
1790263976135567400,3.6595673828125,-0.05071486160159111,0.012786865234375,0.06328320503234863
1790263976145567500,3.6695673828125,-0.13906808197498322,-0.12626361846923828,0.09987640380859375
1790263976155567400,3.6795673828125,-0.2576240301132202,-0.2411041259765625,0.13562750816345215
1790263976165567500,3.6895673828125,-0.4011906385421753,-0.2863330841064453,0.12111425399780273
1790263976175567400,3.6995673828125,-0.49023109674453735,-0.2606658935546875,0.03192305564880371
1790263976185567500,3.7095673828125,-0.48685967922210693,-0.13830852508544922,-0.08958935737609863
1790263976195567400,3.7195673828125,-0.41302382946014404,-0.019989967346191406,-0.20081257820129395
1790263976205567500,3.7295673828125,-0.34682929515838623,0.06302452087402344,-0.27841901779174805
1790263976215567400,3.7395673828125,-0.31864380836486816,0.13241958618164062,-0.30493783950805664
1790263976225567500,3.7495673828125,-0.3250912129878998,0.08257007598876953,-0.3023252487182617
1790263976235567400,3.7595673828125,-0.3468480110168457,0.027292251586914062,-0.34700775146484375
1790263976245567500,3.7695673828125,-0.43154001235961914,-0.03984260559082031,-0.3343791961669922
1790263976255567400,3.7795673828125,-0.52140873670578,-0.08548641204833984,-0.22987103462219238
1790263976265567500,3.7895673828125,-0.6018120646476746,-0.051971435546875,-0.0123291015625
1790263976275567400,3.7995673828125,-0.7232622504234314,-0.06395435333251953,0.22858154773712158
1790263976285567500,3.8095673828125,-0.5310238003730774,-0.29722023010253906,0.25450682640075684
1790263976295567400,3.8195673828125,0.19995540380477905,0.11426925659179688,0.0576629638671875
1790263976305567500,3.8295673828125,0.48997238278388977,0.41281986236572266,0.2047891616821289
1790263976315567400,3.8395673828125,0.1496940553188324,0.08241558074951172,0.6563287973403931
1790263976325567500,3.8495673828125,0.13558031618595123,-0.3499784469604492,0.4292714595794678
1790263976335567400,3.8595673828125,-0.22605755925178528,-0.47049808502197266,0.06370854377746582
1790263976345567500,3.8695673828125,-0.35882532596588135,-0.5549488067626953,-0.1409304141998291
1790263976355567400,3.8795673828125,-0.2483397126197815,-0.1112823486328125,-0.16122770309448242
1790263976365567500,3.8895673828125,0.08184154331684113,0.2501506805419922,0.234483003616333
1790263976375567400,3.8995673828125,0.21389643847942352,0.4822731018066406,0.26724958419799805
1790263976385567500,3.9095673828125,0.17448849976062775,0.49504566192626953,0.11989951133728027
1790263976395567400,3.9195673828125,0.11250127851963043,0.2866659164428711,-0.18537473678588867
1790263976405567500,3.9295673828125,0.05229927599430084,-0.0029268264770507812,-0.2635619640350342
1790263976415567400,3.9395673828125,0.018858909606933594,-0.12383460998535156,-0.2702209949493408
1790263976425567500,3.9495673828125,-0.12194741517305374,-0.25623035430908203,-0.41181182861328125
1790263976435567400,3.9595673828125,-0.1528676450252533,-0.2703361511230469,-0.6096847057342529
1790263976445567500,3.9695673828125,0.02212338149547577,-0.1163482666015625,-0.6411406993865967
1790263976455567400,3.9795673828125,0.06976529955863953,0.21657943725585938,-0.7050566673278809
1790263976465567500,3.9895673828125,0.1092425137758255,0.34218311309814453,-0.5171041488647461
1790263976475567400,3.9995673828125,0.12466558814048767,0.5081338882446289,-0.49651646614074707
1790263976485567500,4.0095673828125,0.03707267343997955,0.5840082168579102,-0.4372684955596924
1790263976495567400,4.0195673828125,0.06992313265800476,0.654789924621582,-0.27446508407592773
1790263976505567500,4.0295673828125,0.08888846635818481,0.6519994735717773,-0.03177690505981445
1790263976515567400,4.0395673828125,0.1238524317741394,0.5487146377563477,0.13251173496246338
1790263976525567500,4.0495673828125,0.22079312801361084,0.3126392364501953,0.38186609745025635
1790263976535567400,4.0595673828125,0.23360127210617065,-0.11627388000488281,0.6148083209991455
1790263976545567500,4.0695673828125,0.12180596590042114,-0.6017141342163086,0.8384194374084473
1790263976555567400,4.0795673828125,0.019280672073364258,-0.8357648849487305,0.9908044338226318
1790263976565567500,4.0895673828125,-0.07065171003341675,-0.8109054565429688,0.9595900774002075
1790263976575567400,4.0995673828125,-0.1556617021560669,-0.6802806854248047,0.4516923427581787
1790263976585567500,4.1095673828125,-0.4283561110496521,-0.7503776550292969,0.18412256240844727
1790263976595567400,4.1195673828125,-0.4615291953086853,-0.7796821594238281,0.1591179370880127
1790263976605567500,4.1295673828125,0.2677447497844696,-0.02236461639404297,-0.8527398109436035
1790263976615567400,4.1395673828125,1.643143892288208,0.32567310333251953,-1.149024486541748
1790263976625567500,4.1495673828125,-0.11102259904146194,-0.24393367767333984,-0.02685236930847168
1790263976635567400,4.1595673828125,0.32850950956344604,-0.11072158813476562,0.5378627777099609
1790263976645567500,4.1695673828125,-0.0374186635017395,0.5957956314086914,0.014276266098022461
1790263976655567400,4.1795673828125,-0.719591498374939,1.037663459777832,-0.5495331287384033
1790263976665567500,4.1895673828125,-1.0173031091690063,0.9214334487915039,-0.7408361434936523
1790263976675567400,4.1995673828125,-0.8823646306991577,0.6681623458862305,-0.5951354503631592
1790263976685567500,4.2095673828125,-0.5418680310249329,0.41515636444091797,-0.24442839622497559
1790263976695567400,4.2195673828125,-0.27540433406829834,0.05212116241455078,0.23324251174926758
1790263976705567500,4.2295673828125,-0.2185719609260559,-0.4374561309814453,0.7185750007629395
1790263976715567400,4.2395673828125,-0.2606714963912964,-0.8088054656982422,1.060800313949585
1790263976725567500,4.2495673828125,-0.3240813612937927,-1.0765609741210938,1.30955171585083
1790263976735567400,4.2595673828125,-0.4640870690345764,-1.2422266006469727,1.364784836769104
1790263976745567500,4.2695673828125,-0.7265220284461975,-1.2302160263061523,1.3861472606658936
1790263976755567400,4.2795673828125,-0.953964114189148,-0.9140377044677734,1.2713360786437988
1790263976765567500,4.2895673828125,-1.2345433235168457,-0.5845499038696289,1.209139347076416
1790263976775567400,4.2995673828125,-1.5145748853683472,-0.4612712860107422,1.357649564743042
1790263976785567500,4.3095673828125,-1.6780112981796265,-0.4107351303100586,1.554012417793274
1790263976795567400,4.3195673828125,-1.8623461723327637,-0.37355709075927734,1.6359151601791382
1790263976805567500,4.3295673828125,-1.80098557472229,-0.3840799331665039,1.5706731081008911
1790263976815567400,4.3395673828125,-1.5709660053253174,-0.4697380065917969,1.4947364330291748
1790263976825567500,4.3495673828125,-1.1409032344818115,-0.6539936065673828,1.633687973022461
1790263976835567400,4.3595673828125,-0.8901524543762207,-0.6839084625244141,1.431256651878357
1790263976845567500,4.3695673828125,-0.8188077807426453,-0.6195764541625977,1.3474050760269165
1790263976855567400,4.3795673828125,-0.7311479449272156,-0.48598480224609375,1.3166106939315796
1790263976865567500,4.3895673828125,-0.6680924892425537,-0.3733692169189453,1.1850380897521973
1790263976875567400,4.3995673828125,-0.5919610261917114,-0.27405261993408203,1.0758917331695557
1790263976885567500,4.4095673828125,-0.49804580211639404,-0.13640689849853516,1.0563952922821045
1790263976895567400,4.4195673828125,-0.5038985013961792,0.034697532653808594,0.9591693878173828
1790263976905567500,4.4295673828125,-0.5871704816818237,0.16668319702148438,0.8929862976074219
1790263976915567400,4.4395673828125,-0.7296815514564514,0.18787479400634766,0.7597236633300781
1790263976925567500,4.4495673828125,-0.7604489326477051,0.15021991729736328,0.6553046703338623
1790263976935567400,4.4595673828125,-0.7406702041625977,0.04102611541748047,0.6831676959991455
1790263976945567500,4.4695673828125,-0.7865103483200073,-0.07556438446044922,0.6262421607971191
1790263976955567400,4.4795673828125,-1.1894522905349731,-0.020078659057617188,0.4949774742126465
1790263976965567500,4.4895673828125,-1.2517175674438477,-0.18873119354248047,0.5385572910308838
1790263976975567400,4.4995673828125,-1.2229833602905273,-0.5433225631713867,0.6456623077392578
1790263976985567500,4.5095673828125,-1.412329912185669,-0.6976299285888672,0.6836252212524414
1790263976995567400,4.5195673828125,-1.6567766666412354,-0.6200447082519531,0.5823335647583008
1790263977005567500,4.5295673828125,-1.7471253871917725,-0.5436334609985352,0.581383228302002
1790263977015567400,4.5395673828125,-1.6375534534454346,-0.5237798690795898,0.634566068649292
1790263977025567500,4.5495673828125,-0.6470935344696045,-0.4422311782836914,0.99065101146698
1790263977035567400,4.5595673828125,-1.8290401697158813,-0.12059593200683594,1.535779595375061
1790263977045567500,4.5695673828125,-1.1671793460845947,-0.5572633743286133,0.03567004203796387
1790263977055567400,4.5795673828125,-1.667446494102478,-0.3912696838378906,-0.5830399990081787
1790263977065567500,4.5895673828125,-2.3464362621307373,-0.6238641738891602,-0.4393432140350342
1790263977075567400,4.5995673828125,-2.169764757156372,-0.7530813217163086,0.4600362777709961
1790263977085567500,4.6095673828125,-2.205693483352661,-0.8176860809326172,0.7242860794067383
1790263977095567400,4.6195673828125,-2.3410418033599854,-0.6539125442504883,1.0253779888153076
1790263977105567500,4.6295673828125,-2.503721237182617,-0.55987548828125,1.041213035583496
1790263977115567400,4.6395673828125,-2.469784736633301,-0.7592401504516602,1.0173579454421997
1790263977125567500,4.6495673828125,-2.138317584991455,-1.1485471725463867,0.9705889225006104
1790263977135567400,4.6595673828125,-2.1572530269622803,-1.5747261047363281,0.8992359638214111
1790263977145567500,4.6695673828125,-1.9280095100402832,-1.922602653503418,0.781030535697937
1790263977155567400,4.6795673828125,-1.003873348236084,-1.7798032760620117,0.49725866317749023
1790263977165567500,4.6895673828125,-1.0673387050628662,-1.3866195678710938,0.3033139705657959
1790263977175567400,4.6995673828125,-0.9393694400787354,-0.9007577896118164,-0.2080526351928711
1790263977185567500,4.7095673828125,-1.0201144218444824,-0.43984317779541016,-0.7240912914276123
1790263977195567400,4.7195673828125,-1.447580099105835,-0.501953125,-0.8237626552581787
1790263977205567500,4.7295673828125,-1.8841979503631592,-0.7090740203857422,-0.6307995319366455
1790263977215567400,4.7395673828125,-2.515547037124634,-0.8768692016601562,-0.26726508140563965
1790263977225567500,4.7495673828125,-3.206747531890869,-0.7595930099487305,-0.18101739883422852
1790263977235567400,4.7595673828125,-3.6901655197143555,-0.49977874755859375,-0.19086909294128418
1790263977245567500,4.7695673828125,-3.9902968406677246,-0.5473222732543945,-0.2328777313232422
1790263977255567400,4.7795673828125,-4.34080696105957,-0.7406301498413086,-0.5887119770050049
1790263977265567500,4.7895673828125,-4.722298622131348,-1.0068798065185547,-0.9562482833862305
1790263977275567400,4.7995673828125,-4.9239501953125,-1.405226707458496,-1.1820130348205566
1790263977285567500,4.8095673828125,-4.986764907836914,-1.804983139038086,-1.2312695980072021
1790263977295567400,4.8195673828125,-4.577033042907715,-2.072284698486328,-1.0420386791229248
1790263977305567500,4.8295673828125,-4.1386494636535645,-2.170602798461914,-1.228602409362793
1790263977315567400,4.8395673828125,-3.5296404361724854,-2.033845901489258,-0.987384557723999
1790263977325567500,4.8495673828125,-2.846858263015747,-1.834965705871582,-0.46382665634155273
1790263977335567400,4.8595673828125,-2.1261537075042725,-1.7147092819213867,0.016834259033203125
1790263977345567500,4.8695673828125,-0.6423208713531494,-1.6286754608154297,0.651313066482544
1790263977355567400,4.8795673828125,0.6485881805419922,-1.4352006912231445,1.0290075540542603
1790263977365567500,4.8895673828125,1.1876130104064941,-1.2155580520629883,0.9493577480316162
1790263977375567400,4.8995673828125,0.9409910440444946,-1.0525999069213867,0.8276247978210449
1790263977385567500,4.9095673828125,0.7363001704216003,-0.9900779724121094,1.2751179933547974
1790263977395567400,4.9195673828125,0.6953805088996887,-1.2734670639038086,1.9839177131652832
1790263977405567500,4.9295673828125,0.8354126214981079,-1.821883201599121,2.2080399990081787
1790263977415567400,4.9395673828125,0.8333485722541809,-2.236917495727539,1.7766289710998535
1790263977425567500,4.9495673828125,0.3508927822113037,-2.5335092544555664,0.7205355167388916
1790263977435567400,4.9595673828125,-0.37832844257354736,-2.7319812774658203,-0.8982326984405518
1790263977445567500,4.9695673828125,-1.3702644109725952,-2.9442806243896484,-2.451829671859741
1790263977455567400,4.9795673828125,-2.2918968200683594,-3.073823928833008,-3.567445993423462
1790263977465567500,4.9895673828125,-2.4439027309417725,-2.883075714111328,-3.766413450241089
1790263977475567400,4.9995673828125,-1.9810283184051514,-2.3788156509399414,-3.1372265815734863
1790263977485567500,5.0095673828125,-1.2305009365081787,-2.2087926864624023,-2.5835659503936768
1790263977495567400,5.0195673828125,-0.3017537593841553,-2.1125621795654297,-1.8322186470031738
1790263977505567500,5.0295673828125,0.003392934799194336,-1.9802780151367188,-1.2994396686553955
1790263977515567400,5.0395673828125,-0.3502845764160156,-1.9184589385986328,-0.7113869190216064
1790263977525567500,5.0495673828125,-0.7589690685272217,-2.5551490783691406,0.3178281784057617
1790263977535567400,5.0595673828125,-1.1319427490234375,-3.950932502746582,1.1569464206695557
1790263977545567500,5.0695673828125,-1.2795376777648926,-5.362776756286621,1.5050938129425049
1790263977555567400,5.0795673828125,-0.417788028717041,-5.314169883728027,2.9810173511505127
1790263977565567500,5.0895673828125,-1.0620808601379395,-4.979429721832275,1.8106329441070557
1790263977575567400,5.0995673828125,-1.4975128173828125,-5.090116500854492,0.3966360092163086
1790263977585567500,5.1095673828125,-1.1959657669067383,-4.824249744415283,0.7196469306945801
1790263977595567400,5.1195673828125,-0.9780087471008301,-4.448439121246338,0.2958669662475586
1790263977605567500,5.1295673828125,-0.3500375747680664,-3.899181365966797,-0.29198741912841797
1790263977615567400,5.1395673828125,0.7901372909545898,-3.7021889686584473,-0.9798789024353027
1790263977625567500,5.1495673828125,1.5683965682983398,-3.6427316665649414,-1.8311381340026855
1790263977635567400,5.1595673828125,1.5252685546875,-3.6299195289611816,-2.0464138984680176
1790263977645567500,5.1695673828125,1.1291661262512207,-3.580873966217041,-1.0504560470581055
1790263977655567400,5.1795673828125,0.5710353851318359,-3.4861044883728027,-0.1114969253540039
1790263977665567500,5.1895673828125,0.4186263084411621,-2.8367843627929688,0.48937034606933594
1790263977675567400,5.1995673828125,0.07866764068603516,-2.5560250282287598,0.0726175308227539
1790263977685567500,5.2095673828125,-0.27832651138305664,-3.543240547180176,-0.8194317817687988
1790263977695567400,5.2195673828125,0.3791670799255371,-4.521828651428223,-0.6086153984069824
1790263977705567500,5.2295673828125,3.1151275634765625,-3.9491686820983887,2.3681015968322754
1790263977715567400,5.2395673828125,2.5816030502319336,-3.254379987716675,1.9134376049041748
1790263977725567500,5.2495673828125,2.7130842208862305,-3.06736159324646,-0.13045692443847656
1790263977735567400,5.2595673828125,3.5093564987182617,-3.5715126991271973,-0.8494043350219727
1790263977745567500,5.2695673828125,3.839263916015625,-3.9983577728271484,-0.01790475845336914
1790263977755567400,5.2795673828125,6.150077819824219,-2.883617639541626,0.23938941955566406
1790263977765567500,5.2895673828125,7.898250579833984,-1.7336935997009277,1.8431038856506348
1790263977775567400,5.2995673828125,7.963942050933838,-1.0218896865844727,1.4419231414794922
1790263977785567500,5.3095673828125,8.181384086608887,-0.16017073392868042,1.1145544052124023
1790263977795567400,5.3195673828125,9.051775932312012,0.9309695363044739,1.4319727420806885
1790263977805567500,5.3295673828125,9.911707878112793,2.048661470413208,1.6517620086669922
1790263977815567400,5.3395673828125,10.503891944885254,2.6274588108062744,1.2635445594787598
1790263977825567500,5.3495673828125,9.909021377563477,2.3859469890594482,1.2014222145080566
1790263977835567400,5.3595673828125,9.02700424194336,1.9010728597640991,0.6964702606201172
1790263977845567500,5.3695673828125,7.55335807800293,1.7620790004730225,1.3961539268493652
1790263977855567400,5.3795673828125,7.055482864379883,2.009413242340088,1.787743091583252
1790263977865567500,5.3895673828125,6.717211723327637,1.9368832111358643,0.991215705871582
1790263977875567400,5.3995673828125,5.278857707977295,1.3201335668563843,0.39537620544433594
1790263977885567500,5.4095673828125,5.4096360206604,0.7819236516952515,0.1935567855834961
1790263977895567400,5.4195673828125,6.783158302307129,1.1119047403335571,0.6589674949645996
1790263977905567500,5.4295673828125,5.687274932861328,1.4631741046905518,1.2056732177734375
1790263977915567400,5.4395673828125,1.991865634918213,1.0089828968048096,1.1117472648620605
1790263977925567500,5.4495673828125,-0.4883394241333008,0.12157738208770752,0.764777660369873
1790263977935567400,5.4595673828125,-0.1325836181640625,-0.3792920708656311,1.1636826992034912
1790263977945567500,5.4695673828125,0.8745441436767578,-0.24787026643753052,1.4303100109100342
1790263977955567400,5.4795673828125,1.175612449645996,-0.03144031763076782,1.4737353324890137
1790263977965567500,5.4895673828125,0.26790428161621094,-0.3556506633758545,0.8894777297973633
1790263977975567400,5.4995673828125,-0.9178180694580078,-0.9749441146850586,-0.09459900856018066
1790263977985567500,5.5095673828125,-2.285879135131836,-1.4461215734481812,-0.6842410564422607
1790263977995567400,5.5195673828125,-3.6462955474853516,-1.6522873640060425,-0.12351655960083008
1790263978005567500,5.5295673828125,-5.358437538146973,-2.0282368659973145,0.3927571773529053
1790263978015567400,5.5395673828125,-7.009059906005859,-2.509190797805786,0.8875386714935303
1790263978025567500,5.5495673828125,-7.283171653747559,-2.9679083824157715,1.2313015460968018
1790263978035567400,5.5595673828125,-6.061548233032227,-2.9710910320281982,0.7047693729400635
1790263978045567500,5.5695673828125,-4.151773452758789,-2.3979668617248535,-0.11701345443725586
1790263978055567400,5.5795673828125,-2.061652183532715,-1.5377428531646729,-0.7708137035369873
1790263978065567500,5.5895673828125,-0.1780548095703125,-0.7792664766311646,-1.3521802425384521
1790263978075567400,5.5995673828125,1.0396041870117188,-0.18894463777542114,-1.8655943870544434
1790263978085567500,5.6095673828125,1.2416143417358398,0.21759918332099915,-2.1656200885772705
1790263978095567400,5.6195673828125,1.9732985496520996,0.3099392056465149,-2.1863322257995605
1790263978105567500,5.6295673828125,3.9819116592407227,0.17146405577659607,-2.1319468021392822
1790263978115567400,5.6395673828125,5.045513153076172,0.010044246912002563,-1.8743562698364258
1790263978125567500,5.6495673828125,4.7399678230285645,-0.02788299322128296,-1.3159642219543457
1790263978135567400,5.6595673828125,3.58465576171875,0.09651267528533936,-0.909137487411499
1790263978145567500,5.6695673828125,2.149538993835449,0.2415389120578766,-0.8167009353637695
1790263978155567400,5.6795673828125,1.753077507019043,0.4010186195373535,-0.555152177810669
1790263978165567500,5.6895673828125,1.7210445404052734,0.4602779746055603,-0.49455857276916504
1790263978175567400,5.6995673828125,1.0746879577636719,0.4555480480194092,-0.5666403770446777
1790263978185567500,5.7095673828125,0.8254213333129883,0.34406614303588867,-0.18999433517456055
1790263978195567400,5.7195673828125,0.8050985336303711,0.05253981798887253,-0.006066083908081055
1790263978205567500,5.7295673828125,0.7003927230834961,-0.19347220659255981,-0.222459077835083
1790263978215567400,5.7395673828125,0.43592262268066406,-0.19782541692256927,-0.4111664295196533
1790263978225567500,5.7495673828125,0.42630958557128906,-0.07177037745714188,-0.27274250984191895
1790263978235567400,5.7595673828125,0.39713382720947266,0.16222405433654785,0.33080196380615234
1790263978245567500,5.7695673828125,0.009564399719238281,0.5337231755256653,0.9735012054443359
1790263978255567400,5.7795673828125,0.07319164276123047,0.9410905838012695,0.9557598829269409
1790263978265567500,5.7895673828125,0.6662483215332031,1.3397318124771118,0.6242496967315674
1790263978275567400,5.7995673828125,1.0260820388793945,1.7250208854675293,-0.9064996242523193
1790263978285567500,5.8095673828125,0.9074115753173828,1.4543315172195435,-0.362072229385376
1790263978295567400,5.8195673828125,0.44216346740722656,0.6210667490959167,0.9295291900634766
1790263978305567500,5.8295673828125,-0.3312845230102539,-0.15634006261825562,1.3114540576934814
1790263978315567400,5.8395673828125,-0.3954343795776367,-0.47448891401290894,1.3080620765686035
1790263978325567500,5.8495673828125,-0.17238616943359375,-0.5640379786491394,1.66123628616333
1790263978335567400,5.8595673828125,-0.0925588607788086,-0.5516904592514038,1.9781701564788818
1790263978345567500,5.8695673828125,-0.1427297592163086,-0.3736691474914551,1.799015760421753
1790263978355567400,5.8795673828125,0.05138397216796875,-0.0525970458984375,1.2533204555511475
1790263978365567500,5.8895673828125,-0.047064781188964844,0.14739441871643066,0.8036277294158936
1790263978375567400,5.8995673828125,-0.1806020736694336,0.24364471435546875,0.5143678188323975
1790263978385567500,5.9095673828125,-0.1932964324951172,0.20160675048828125,0.6697549819946289
1790263978395567400,5.9195673828125,-0.3479194641113281,0.12553393840789795,0.8282790184020996
1790263978405567500,5.9295673828125,-0.05070018768310547,0.15589165687561035,0.6753642559051514
1790263978415567400,5.9395673828125,0.24512290954589844,0.3040214776992798,0.4844858646392822
1790263978425567500,5.9495673828125,0.3073587417602539,0.727703332901001,-0.031136751174926758
1790263978435567400,5.9595673828125,1.0166206359863281,1.2136099338531494,-1.0372357368469238
1790263978445567500,5.9695673828125,1.253042221069336,2.042170286178589,-2.5910909175872803
1790263978455567400,5.9795673828125,0.8685579299926758,2.6464428901672363,-3.380192756652832
1790263978465567500,5.9895673828125,0.7053060531616211,2.5406692028045654,-3.0418429374694824
1790263978475567400,5.9995673828125,0.7022304534912109,2.114509344100952,-2.3493528366088867
1790263978485567500,6.0095673828125,0.7274818420410156,1.3781157732009888,-1.0278902053833008
1790263978495567400,6.0195673828125,-0.2837057113647461,1.2304718494415283,-0.4455587863922119
1790263978505567500,6.0295673828125,-0.7204656600952148,1.4092609882354736,-0.6048083305358887
1790263978515567400,6.0395673828125,0.2861776351928711,1.416163682937622,-0.9751131534576416
1790263978525567500,6.0495673828125,1.4008746147155762,1.1538023948669434,-0.770263671875
1790263978535567400,6.0595673828125,1.8809947967529297,0.5817258358001709,0.006616115570068359
1790263978545567500,6.0695673828125,1.9473180770874023,0.052533626556396484,0.9748817682266235
1790263978555567400,6.0795673828125,1.4745664596557617,-0.08540821075439453,1.1386516094207764
1790263978565567500,6.0895673828125,1.114417552947998,-0.1221771240234375,-0.10406863689422607
1790263978575567400,6.0995673828125,0.806541919708252,0.11595392227172852,-1.8379249572753906
1790263978585567500,6.1095673828125,0.8093452453613281,0.49359750747680664,-3.7557849884033203
1790263978595567400,6.1195673828125,1.3992271423339844,0.9640293121337891,-4.837432861328125
1790263978605567500,6.1295673828125,2.331784725189209,1.1397829055786133,-3.9817638397216797
1790263978615567400,6.1395673828125,3.2799620628356934,0.10749101638793945,-1.2161353826522827
1790263978625567500,6.1495673828125,2.9023866653442383,-1.0063438415527344,1.6073118448257446
1790263978635567400,6.1595673828125,2.0500240325927734,-0.8690776824951172,1.1967631578445435
1790263978645567500,6.1695673828125,2.9905200004577637,0.01952219009399414,-2.289583206176758
1790263978655567400,6.1795673828125,4.215594291687012,-2.511204242706299,-0.06349313259124756
1790263978665567500,6.1895673828125,-1.9991612434387207,-6.10479736328125,19.057199478149414
1790263978675567400,6.1995673828125,-3.3911056518554688,-3.966996669769287,14.46208381652832
1790263978685567500,6.2095673828125,-2.876481533050537,-0.8275413513183594,4.892137050628662
1790263978695567400,6.2195673828125,-3.42988920211792,1.4065041542053223,0.273512601852417
1790263978705567500,6.2295673828125,-3.5047874450683594,2.5610013008117676,-1.9596964120864868
1790263978715567400,6.2395673828125,-2.864737033843994,2.251539707183838,-1.9435358047485352
1790263978725567500,6.2495673828125,-1.3364782333374023,1.8714985847473145,-1.0607154369354248
1790263978735567400,6.2595673828125,0.0460810661315918,1.6119427680969238,-0.20210814476013184
1790263978745567500,6.2695673828125,0.6747961044311523,1.2566375732421875,-0.06686806678771973
1790263978755567400,6.2795673828125,0.7117481231689453,0.5548901557922363,-0.7425081729888916
1790263978765567500,6.2895673828125,-0.9626941680908203,-0.05171394348144531,-0.7206676006317139
1790263978775567400,6.2995673828125,-1.9188218116760254,-0.6553397178649902,-1.1148171424865723
1790263978785567500,6.3095673828125,-2.147779941558838,-1.829174518585205,-1.820908784866333
1790263978795567400,6.3195673828125,-2.136946201324463,-2.5885252952575684,-1.5916087627410889
1790263978805567500,6.3295673828125,-1.598010540008545,-2.724801540374756,-1.2932076454162598
1790263978815567400,6.3395673828125,-1.3393521308898926,-2.5575084686279297,-0.8259062767028809
1790263978825567500,6.3495673828125,-0.904111385345459,-1.9627070426940918,-0.5697312355041504
1790263978835567400,6.3595673828125,-0.4549574851989746,-1.359151840209961,-0.52459716796875
1790263978845567500,6.3695673828125,-0.21777772903442383,-0.9896330833435059,-0.544992208480835
1790263978855567400,6.3795673828125,0.07970857620239258,-1.0248947143554688,-0.9769566059112549
1790263978865567500,6.3895673828125,-0.15877342224121094,-1.076301097869873,-1.165362000465393
1790263978875567400,6.3995673828125,-1.0118145942687988,-0.804415225982666,-0.2971494197845459
1790263978885567500,6.4095673828125,-1.6087732315063477,-0.6321744918823242,0.7932338714599609
1790263978895567400,6.4195673828125,-1.5698375701904297,-0.40860939025878906,1.6922528743743896
1790263978905567500,6.4295673828125,-1.1945991516113281,-0.23793697357177734,1.9757120609283447
1790263978915567400,6.4395673828125,-0.8011374473571777,-0.10890817642211914,1.88503098487854
1790263978925567500,6.4495673828125,-0.5440521240234375,0.05682229995727539,1.73771333694458
1790263978935567400,6.4595673828125,-0.42029571533203125,0.1373729705810547,1.6630706787109375
1790263978945567500,6.4695673828125,-0.33516836166381836,0.17531776428222656,1.4744670391082764
1790263978955567400,6.4795673828125,-0.37782812118530273,0.18561983108520508,1.195375680923462
1790263978965567500,6.4895673828125,-0.572791576385498,0.06606245040893555,0.9780421257019043
1790263978975567400,6.4995673828125,-0.6911478042602539,-0.17330455780029297,1.126866102218628
1790263978985567500,6.5095673828125,-0.6794466972351074,-0.48373985290527344,1.2067539691925049
1790263978995567400,6.5195673828125,-0.7090959548950195,-0.691615104675293,1.0064947605133057
1790263979005567500,6.5295673828125,-0.5582404136657715,-0.7304172515869141,0.7582218647003174
1790263979015567400,6.5395673828125,-0.33403539657592773,-0.6621017456054688,0.6077654361724854
1790263979025567500,6.5495673828125,-0.15113496780395508,-0.5111494064331055,0.3620328903198242
1790263979035567400,6.5595673828125,4.1890692710876465,0.9178905487060547,-2.557176113128662
1790263979045567500,6.5695673828125,3.21590518951416,1.8542757034301758,-2.967430353164673
1790263979055567400,6.5795673828125,0.2513008117675781,0.5954556465148926,-1.7740997076034546
1790263979065567500,6.5895673828125,-2.031421661376953,-1.079599380493164,0.11081576347351074
1790263979075567400,6.5995673828125,-1.347428798675537,-2.192850112915039,0.5245406627655029
1790263979085567500,6.6095673828125,0.6000118255615234,-1.7133207321166992,0.20908188819885254
1790263979095567400,6.6195673828125,0.708798885345459,-1.3814373016357422,-0.9498200416564941
1790263979105567500,6.6295673828125,-1.1890368461608887,-2.6802759170532227,-2.438737154006958
1790263979115567400,6.6395673828125,-2.161360263824463,-3.2174930572509766,-2.6105971336364746
1790263979125567500,6.6495673828125,-1.4801454544067383,-2.7653045654296875,-2.3358006477355957
1790263979135567400,6.6595673828125,-0.5979132652282715,-2.239325523376465,-1.8149579763412476
1790263979145567500,6.6695673828125,-0.2590341567993164,-1.7099409103393555,-1.8490710258483887
1790263979155567400,6.6795673828125,-0.1718606948852539,-0.9801273345947266,-1.1983633041381836
1790263979165567500,6.6895673828125,0.09025907516479492,-0.2741727828979492,-0.6139072179794312
1790263979175567400,6.6995673828125,0.43308019638061523,0.6736750602722168,-0.651618242263794
1790263979185567500,6.7095673828125,0.8853490352630615,1.2046213150024414,-0.9353921413421631
1790263979195567400,6.7195673828125,1.2782654762268066,0.8497219085693359,0.017116785049438477
1790263979205567500,6.7295673828125,0.6410126686096191,0.19202613830566406,0.7871885299682617
1790263979215567400,6.7395673828125,-0.08050727844238281,-0.3244304656982422,-0.4598139524459839
1790263979225567500,6.7495673828125,-0.6352057456970215,-1.0820951461791992,-3.514719009399414
1790263979235567400,6.7595673828125,-0.9873313903808594,-2.5262222290039062,-6.230177879333496
1790263979245567500,6.7695673828125,-1.0131516456604004,-1.4631118774414062,-4.124258995056152
1790263979255567400,6.7795673828125,-0.7817912101745605,0.5744400024414062,0.06943666934967041
1790263979265567500,6.7895673828125,0.5772948265075684,2.1276750564575195,1.7688524723052979
1790263979275567400,6.7995673828125,1.1728534698486328,2.2297067642211914,1.1312650442123413
1790263979285567500,6.8095673828125,1.4409778118133545,1.3480491638183594,0.8514114618301392
1790263979295567400,6.8195673828125,2.37762451171875,1.1740379333496094,2.2950334548950195
1790263979305567500,6.8295673828125,2.84334659576416,0.4590883255004883,4.578535556793213
1790263979315567400,6.8395673828125,3.1780481338500977,-0.43207454681396484,5.644373893737793
1790263979325567500,6.8495673828125,2.4735870361328125,-0.9728965759277344,4.422359466552734
1790263979335567400,6.8595673828125,2.9090383052825928,-2.328094482421875,0.7682080268859863
1790263979345567500,6.8695673828125,4.350213527679443,-2.1372194290161133,0.27712297439575195
1790263979355567400,6.8795673828125,3.1868605613708496,-1.0471162796020508,2.0139708518981934
1790263979365567500,6.8895673828125,1.4926929473876953,0.012264251708984375,4.181241035461426
1790263979375567400,6.8995673828125,0.39462709426879883,1.1469850540161133,3.957883834838867
1790263979385567500,6.9095673828125,-0.3240070343017578,2.347829818725586,2.7701234817504883
1790263979395567400,6.9195673828125,-2.283480644226074,2.417705535888672,2.082454204559326
1790263979405567500,6.9295673828125,-3.8933353424072266,2.243349075317383,2.1914970874786377
1790263979415567400,6.9395673828125,-3.4102582931518555,1.7954645156860352,2.6585490703582764
1790263979425567500,6.9495673828125,-3.1381797790527344,1.3824663162231445,3.599529266357422
1790263979435567400,6.9595673828125,-2.3283019065856934,0.5421895980834961,2.9915337562561035
1790263979445567500,6.9695673828125,-2.236926555633545,-0.6963396072387695,2.5666916370391846
1790263979455567400,6.9795673828125,-2.649831771850586,-1.5837068557739258,2.1463146209716797
1790263979465567500,6.9895673828125,-2.460036277770996,-2.361924171447754,1.9125618934631348
1790263979475567400,6.9995673828125,-2.1642093658447266,-2.480616569519043,1.527146816253662
1790263979485567500,7.0095673828125,-1.2860651016235352,-2.047499656677246,0.8594110012054443
1790263979495567400,7.0195673828125,-0.5866479873657227,-2.1052098274230957,0.6478641033172607
1790263979505567500,7.0295673828125,-0.20282888412475586,-1.94968843460083,0.3437201976776123
1790263979515567400,7.0395673828125,-0.15836429595947266,-1.3449134826660156,-0.32892799377441406
1790263979525567500,7.0495673828125,0.6567111015319824,-0.5086612701416016,-1.2764415740966797
1790263979535567400,7.0595673828125,1.064077377319336,-0.2655982971191406,-2.2550947666168213
1790263979545567500,7.0695673828125,0.9154419898986816,-0.6590995788574219,-2.6021885871887207
1790263979555567400,7.0795673828125,1.2167549133300781,-0.8323378562927246,-2.6596732139587402
1790263979565567500,7.0895673828125,1.3457591533660889,-0.5801401138305664,-2.5638175010681152
1790263979575567400,7.0995673828125,0.6840701103210449,0.008988380432128906,-2.7415108680725098
1790263979585567500,7.1095673828125,-0.11081695556640625,0.39632701873779297,-3.2245640754699707
1790263979595567400,7.1195673828125,-0.8213701248168945,0.763185977935791,-3.2229721546173096
1790263979605567500,7.1295673828125,-0.745485782623291,1.02036714553833,-2.2751965522766113
1790263979615567400,7.1395673828125,-0.780003547668457,1.0590901374816895,-1.5069780349731445
1790263979625567500,7.1495673828125,-0.7536735534667969,0.7653055191040039,-1.0139379501342773
1790263979635567400,7.1595673828125,-0.7900042533874512,0.19141387939453125,-0.34301185607910156
1790263979645567500,7.1695673828125,-0.5772056579589844,-0.5151538848876953,0.3190340995788574
1790263979655567400,7.1795673828125,-0.3271503448486328,-1.1078777313232422,0.5000762939453125
1790263979665567500,7.1895673828125,0.01782703399658203,-1.4917645454406738,0.5407752990722656
1790263979675567400,7.1995673828125,0.1642313003540039,-1.3192644119262695,0.5776495933532715
1790263979685567500,7.2095673828125,-0.2819943428039551,-0.3005104064941406,0.43833303451538086
1790263979695567400,7.2195673828125,-0.5223512649536133,0.8118481636047363,0.3266758918762207
1790263979705567500,7.2295673828125,-0.5228114128112793,1.2452850341796875,0.4670991897583008
1790263979715567400,7.2395673828125,-0.5695457458496094,1.1985840797424316,0.8757076263427734
1790263979725567500,7.2495673828125,-0.509300708770752,1.0421271324157715,1.439648151397705
1790263979735567400,7.2595673828125,-0.2883872985839844,0.9872469902038574,1.6273555755615234
1790263979745567500,7.2695673828125,-0.19328641891479492,0.931394100189209,1.3634753227233887
1790263979755567400,7.2795673828125,-0.20310688018798828,0.8087644577026367,1.1489367485046387
1790263979765567500,7.2895673828125,-0.052288055419921875,0.557957649230957,0.916297435760498
1790263979775567400,7.2995673828125,-0.08623647689819336,0.20451974868774414,0.8667645454406738
1790263979785567500,7.3095673828125,-0.29344797134399414,-0.2141275405883789,1.025550365447998
1790263979795567400,7.3195673828125,-0.09700965881347656,-0.4967522621154785,0.9392104148864746
1790263979805567500,7.3295673828125,0.5369634628295898,-0.5264730453491211,0.7211751937866211
1790263979815567400,7.3395673828125,0.8358035087585449,-0.44495058059692383,0.3910398483276367
1790263979825567500,7.3495673828125,0.7040481567382812,-0.3550286293029785,0.08746910095214844
1790263979835567400,7.3595673828125,0.19471216201782227,-0.2809314727783203,-0.1825695037841797
1790263979845567500,7.3695673828125,-0.47796630859375,-0.22563838958740234,-0.1506481170654297
1790263979855567400,7.3795673828125,-0.7247400283813477,-0.35787153244018555,0.15365171432495117
1790263979865567500,7.3895673828125,-0.3542904853820801,-0.36299800872802734,0.5297102928161621
1790263979875567400,7.3995673828125,-0.23677825927734375,-0.3917417526245117,0.6984882354736328
1790263979885567500,7.4095673828125,-0.43265485763549805,-0.5619711875915527,0.6641530990600586
1790263979895567400,7.4195673828125,-0.6129026412963867,-0.6398887634277344,0.3995370864868164
1790263979905567500,7.4295673828125,-0.6751060485839844,-0.5196013450622559,0.31530046463012695
1790263979915567400,7.4395673828125,-0.4914565086364746,-0.09629154205322266,0.5597538948059082
1790263979925567500,7.4495673828125,-0.23819684982299805,0.42041540145874023,0.7098298072814941
1790263979935567400,7.4595673828125,-0.41918230056762695,0.8815584182739258,0.7084488868713379
1790263979945567500,7.4695673828125,-0.8823676109313965,1.1392035484313965,0.6490011215209961
1790263979955567400,7.4795673828125,-1.2123708724975586,1.1981849670410156,0.6360163688659668
1790263979965567500,7.4895673828125,-1.2419605255126953,1.0329515933990479,0.6922364234924316
1790263979975567400,7.4995673828125,-1.2697772979736328,0.6920173168182373,0.9043140411376953
1790263979985567500,7.5095673828125,-1.155014991760254,0.4633481502532959,1.2165961265563965
1790263979995567400,7.5195673828125,-1.0190682411193848,0.18768930435180664,1.5338010787963867
1790263980005567500,7.5295673828125,-1.0777668952941895,-0.07437896728515625,1.5996642112731934
1790263980015567400,7.5395673828125,-1.27378511428833,-0.294039249420166,1.4898691177368164
1790263980025567500,7.5495673828125,-1.3017606735229492,-0.4200453758239746,1.356259822845459
1790263980035567400,7.5595673828125,-0.8580532073974609,-0.3612854480743408,1.098146915435791
1790263980045567500,7.5695673828125,-0.30646514892578125,-0.30846357345581055,0.7610573768615723
1790263980055567400,7.5795673828125,0.055759429931640625,-0.2897353172302246,0.3606863021850586
1790263980065567500,7.5895673828125,0.3308854103088379,-0.1468369960784912,0.22337627410888672
1790263980075567400,7.5995673828125,0.6206197738647461,0.013091325759887695,0.19645023345947266
1790263980085567500,7.6095673828125,0.7702698707580566,-0.0002238750457763672,-0.002192974090576172
1790263980095567400,7.6195673828125,1.0426721572875977,-0.061719417572021484,-0.32192111015319824
1790263980105567500,7.6295673828125,1.3081684112548828,0.11967658996582031,-0.7224488258361816
1790263980115567400,7.6395673828125,1.3460097312927246,0.3164076805114746,-0.8602964878082275
1790263980125567500,7.6495673828125,1.4165143966674805,0.3753163814544678,-0.6872317790985107
1790263980135567400,7.6595673828125,1.6638331413269043,0.31925129890441895,-0.1584029197692871
1790263980145567500,7.6695673828125,1.6476373672485352,0.001074075698852539,0.052201271057128906
1790263980155567400,7.6795673828125,1.487055778503418,-0.4978058338165283,-0.030177593231201172
1790263980165567500,7.6895673828125,1.3469152450561523,-0.780362606048584,-0.007915973663330078
1790263980175567400,7.6995673828125,1.3878026008605957,-0.928053617477417,-0.19536256790161133
1790263980185567500,7.7095673828125,1.607673168182373,-0.9732773303985596,-0.7570950984954834
1790263980195567400,7.7195673828125,1.6115522384643555,-1.0144081115722656,-1.296553134918213
1790263980205567500,7.7295673828125,1.4003472328186035,-0.9879539012908936,-1.7415282726287842
1790263980215567400,7.7395673828125,1.2449746131896973,-0.8880387544631958,-1.9492053985595703
1790263980225567500,7.7495673828125,0.714533805847168,-0.9224849939346313,-1.4749863147735596
1790263980235567400,7.7595673828125,0.2239542007446289,-1.0001726150512695,-0.7757749557495117
1790263980245567500,7.7695673828125,0.29475975036621094,-1.0383535623550415,-0.40143251419067383
1790263980255567400,7.7795673828125,0.8450441360473633,-0.9930994510650635,-0.33406925201416016
1790263980265567500,7.7895673828125,1.1250195503234863,-0.8978803157806396,-0.49336814880371094
1790263980275567400,7.7995673828125,1.0302391052246094,-0.7723416090011597,-0.7343215942382812
1790263980285567500,7.8095673828125,0.7169475555419922,-0.8090375661849976,-0.9394097328186035
1790263980295567400,7.8195673828125,0.5014457702636719,-0.7390635013580322,-1.0498309135437012
1790263980305567500,7.8295673828125,0.5268745422363281,-0.5441046357154846,-1.0041637420654297
1790263980315567400,7.8395673828125,0.7638835906982422,-0.3843163251876831,-1.260423183441162
1790263980325567500,7.8495673828125,0.7459053993225098,-0.27996641397476196,-1.8421704769134521
1790263980335567400,7.8595673828125,0.5845775604248047,-0.12915527820587158,-2.110851287841797
1790263980345567500,7.8695673828125,1.0284538269042969,-0.037425696849823,-2.0300216674804688
1790263980355567400,7.8795673828125,1.7299308776855469,-0.040371835231781006,-2.0608208179473877
1790263980365567500,7.8895673828125,1.7608146667480469,-0.23565316200256348,-2.17643404006958
1790263980375567400,7.8995673828125,1.2894973754882812,-0.19965606927871704,-2.369948148727417
1790263980385567500,7.9095673828125,0.7587709426879883,-0.20201051235198975,-2.252516031265259
1790263980395567400,7.9195673828125,0.8777666091918945,-0.2488400936126709,-2.116420269012451
1790263980405567500,7.9295673828125,1.3299379348754883,-0.25302422046661377,-1.9112725257873535
1790263980415567400,7.9395673828125,1.5175952911376953,-0.2628780007362366,-1.9572715759277344
1790263980425567500,7.9495673828125,1.4230012893676758,-0.25132429599761963,-2.3313724994659424
1790263980435567400,7.9595673828125,1.29887056350708,-0.1272527575492859,-2.6351728439331055
1790263980445567500,7.9695673828125,1.4596538543701172,-0.04131096601486206,-2.694521903991699
1790263980455567400,7.9795673828125,1.6036338806152344,0.09773272275924683,-2.5565128326416016
1790263980465567500,7.9895673828125,1.5000991821289062,0.19599276781082153,-2.1794638633728027
1790263980475567400,7.9995673828125,1.408790111541748,0.2688601016998291,-1.8867106437683105
1790263980485567500,8.0095673828125,1.2402210235595703,0.30100226402282715,-1.43076753616333
1790263980495567400,8.0195673828125,1.4786128997802734,0.2264331579208374,-1.1516480445861816
1790263980505567500,8.0295673828125,1.6185097694396973,0.1599036455154419,-1.0926265716552734
1790263980515567400,8.0395673828125,1.4560332298278809,0.09778249263763428,-1.1471853256225586
1790263980525567500,8.0495673828125,0.8988275527954102,0.0011197328567504883,-1.0591139793395996
1790263980535567400,8.0595673828125,0.919647216796875,-0.010471701622009277,-0.6875758171081543
1790263980545567500,8.0695673828125,1.3395624160766602,0.030315160751342773,-0.2684168815612793
1790263980555567400,8.0795673828125,1.3295016288757324,0.04663348197937012,-0.2919483184814453
1790263980565567500,8.0895673828125,0.9665727615356445,0.2761714458465576,-0.6315116882324219
1790263980575567400,8.0995673828125,0.7692012786865234,0.5533688068389893,-0.7974996566772461
1790263980585567500,8.1095673828125,0.8092279434204102,0.7983999252319336,-0.5873417854309082
1790263980595567400,8.1195673828125,0.8796825408935547,0.9655532836914062,-0.38422250747680664
1790263980605567500,8.1295673828125,0.6488614082336426,1.0820006132125854,-0.3361930847167969
1790263980615567400,8.1395673828125,0.2564554214477539,1.0743515491485596,-0.12736749649047852
1790263980625567500,8.1495673828125,0.1414480209350586,1.0273592472076416,0.28846073150634766
1790263980635567400,8.1595673828125,-0.15179681777954102,1.088526725769043,0.7273240089416504
1790263980645567500,8.1695673828125,-0.5071592330932617,1.2669625282287598,1.1697893142700195
1790263980655567400,8.1795673828125,-0.8288769721984863,1.343294382095337,1.3360800743103027
1790263980665567500,8.1895673828125,-0.7299976348876953,1.2332799434661865,1.2890582084655762
1790263980675567400,8.1995673828125,-0.46872425079345703,1.0105867385864258,1.0029487609863281
1790263980685567500,8.2095673828125,-0.2485342025756836,0.7164416313171387,0.6432971954345703
1790263980695567400,8.2195673828125,-0.23024511337280273,0.4395928382873535,0.1616206169128418
1790263980705567500,8.2295673828125,-0.10450172424316406,0.31194067001342773,0.02883768081665039
1790263980715567400,8.2395673828125,-0.27729320526123047,0.23992013931274414,0.02620077133178711
1790263980725567500,8.2495673828125,-0.14508438110351562,0.24231290817260742,-0.11944007873535156
1790263980735567400,8.2595673828125,-0.15279340744018555,0.16097307205200195,-0.43956804275512695
1790263980745567500,8.2695673828125,-0.42848968505859375,0.051270484924316406,-1.0701427459716797
1790263980755567400,8.2795673828125,-0.9072027206420898,0.03588056564331055,-1.6686463356018066
1790263980765567500,8.2895673828125,-1.3087687492370605,-0.05930614471435547,-2.001006603240967
1790263980775567400,8.2995673828125,-1.3152265548706055,-0.27841806411743164,-2.0842275619506836
1790263980785567500,8.3095673828125,-1.0854158401489258,-0.4903688430786133,-1.9786715507507324
1790263980795567400,8.3195673828125,-0.8572406768798828,-0.6745309829711914,-1.658177375793457
1790263980805567500,8.3295673828125,-0.8279638290405273,-0.7668471336364746,-1.3355908393859863
1790263980815567400,8.3395673828125,-1.1348142623901367,-0.640103816986084,-0.885289192199707
1790263980825567500,8.3495673828125,-1.6539359092712402,-0.39148664474487305,-0.1187448501586914
1790263980835567400,8.3595673828125,-1.7709627151489258,-0.2674250602722168,0.27564144134521484
1790263980845567500,8.3695673828125,-1.7380504608154297,-0.4469633102416992,0.0002703666687011719
1790263980855567400,8.3795673828125,-1.941091537475586,-0.772554874420166,-0.5351858139038086
1790263980865567500,8.3895673828125,-2.1118011474609375,-1.0058655738830566,-0.39820432662963867
1790263980875567400,8.3995673828125,-1.8689427375793457,-1.173292636871338,0.25000572204589844
1790263980885567500,8.4095673828125,-1.3344144821166992,-1.400273323059082,1.0896201133728027
1790263980895567400,8.4195673828125,-1.304701328277588,-1.4886283874511719,1.608151912689209
1790263980905567500,8.4295673828125,-1.434610366821289,-1.3857746124267578,1.644944667816162
1790263980915567400,8.4395673828125,-1.6687226295471191,-1.1901845932006836,1.3701634407043457
1790263980925567500,8.4495673828125,-1.440701961517334,-0.9860620498657227,0.8792390823364258
1790263980935567400,8.4595673828125,-0.7034354209899902,-0.9542527198791504,0.412844181060791
1790263980945567500,8.4695673828125,-0.21554088592529297,-0.9907922744750977,0.1947765350341797
1790263980955567400,8.4795673828125,-0.375338077545166,-0.8577637672424316,0.3342604637145996
1790263980965567500,8.4895673828125,-0.39971446990966797,-0.6033978462219238,0.8306684494018555
1790263980975567400,8.4995673828125,-0.40732717514038086,-0.44782304763793945,1.191967487335205
1790263980985567500,8.5095673828125,-0.6140551567077637,-0.37050914764404297,0.718289852142334
1790263980995567400,8.5195673828125,-0.7053041458129883,-0.09280633926391602,0.6109828948974609
1790263981005567500,8.5295673828125,-0.5420527458190918,0.030977249145507812,0.6053669452667236
1790263981015567400,8.5395673828125,-0.43026208877563477,-0.12555313110351562,0.5229368209838867
1790263981025567500,8.5495673828125,-0.7822093963623047,-0.35881996154785156,-0.04023551940917969
1790263981035567400,8.5595673828125,-0.7050132751464844,-0.36855506896972656,-0.3967106342315674
1790263981045567500,8.5695673828125,-0.3872206211090088,-0.2849302291870117,-0.1272432804107666
1790263981055567400,8.5795673828125,-0.7801604270935059,-0.3757801055908203,0.17580389976501465
1790263981065567500,8.5895673828125,-0.9177308082580566,-0.573826789855957,0.4286971092224121
1790263981075567400,8.5995673828125,-0.8871257305145264,-0.7196626663208008,0.7519948482513428
1790263981085567500,8.6095673828125,-1.070011854171753,-0.7399463653564453,0.7605974674224854
1790263981095567400,8.6195673828125,-0.9294793605804443,-0.7514181137084961,0.7526025772094727
1790263981105567500,8.6295673828125,-0.717522382736206,-0.7305774688720703,0.9882237911224365
1790263981115567400,8.6395673828125,-0.6826634407043457,-0.7208061218261719,1.1984224319458008
1790263981125567500,8.6495673828125,-0.6541156768798828,-0.6316900253295898,1.3073410987854004
1790263981135567400,8.6595673828125,-0.5408730506896973,-0.510951042175293,1.3834588527679443
1790263981145567500,8.6695673828125,-0.24954938888549805,-0.4996166229248047,1.4616148471832275
1790263981155567400,8.6795673828125,0.03541064262390137,-0.4669761657714844,1.4648661613464355
1790263981165567500,8.6895673828125,-0.12587928771972656,-0.4870882034301758,0.8392486572265625
1790263981175567400,8.6995673828125,-0.2816438674926758,-0.4439830780029297,0.43314337730407715
1790263981185567500,8.7095673828125,-0.21630573272705078,-0.5105733871459961,0.26696348190307617
1790263981195567400,8.7195673828125,-0.24991583824157715,-0.6401205062866211,-0.09688949584960938
1790263981205567500,8.7295673828125,-0.26541638374328613,-0.5796680450439453,-0.2535109519958496
1790263981215567400,8.7395673828125,-0.16750073432922363,-0.6127901077270508,0.027268648147583008
1790263981225567500,8.7495673828125,-0.15825200080871582,-0.6502742767333984,0.49187517166137695
1790263981235567400,8.7595673828125,-0.3207974433898926,-0.6343679428100586,0.5328452587127686
1790263981245567500,8.7695673828125,-0.30234432220458984,-0.6408205032348633,0.07365918159484863
1790263981255567400,8.7795673828125,-0.12978029251098633,-0.6552314758300781,-0.5928354263305664
1790263981265567500,8.7895673828125,0.04430675506591797,-0.6528739929199219,-1.2935919761657715
1790263981275567400,8.7995673828125,0.06612491607666016,-0.7467594146728516,-1.8275620937347412
1790263981285567500,8.8095673828125,0.1431717872619629,-0.9027338027954102,-2.1157732009887695
1790263981295567400,8.8195673828125,0.35715723037719727,-0.9425516128540039,-1.7447634935379028
1790263981305567500,8.8295673828125,0.280576229095459,-0.8849468231201172,-0.744880199432373
1790263981315567400,8.8395673828125,-0.237030029296875,-0.8481817245483398,0.1594083309173584
1790263981325567500,8.8495673828125,-0.8118438720703125,-0.7372045516967773,0.792341947555542
1790263981335567400,8.8595673828125,-1.1206374168395996,-0.6499452590942383,1.2528486251831055
1790263981345567500,8.8695673828125,-1.2268171310424805,-0.61053466796875,1.5495200157165527
1790263981355567400,8.8795673828125,-1.02504301071167,-0.6614947319030762,1.7399065494537354
1790263981365567500,8.8895673828125,-0.7765898704528809,-0.6409182548522949,1.953357458114624
1790263981375567400,8.8995673828125,-0.6966724395751953,-0.5353131294250488,2.1159934997558594
1790263981385567500,8.9095673828125,-0.5949578285217285,-0.4951949119567871,2.148789644241333
1790263981395567400,8.9195673828125,-0.3719658851623535,-0.5280628204345703,1.8726320266723633
1790263981405567500,8.9295673828125,-0.0668487548828125,-0.5693545341491699,1.719566822052002
1790263981415567400,8.9395673828125,0.2621760368347168,-0.5267338752746582,1.883019208908081
1790263981425567500,8.9495673828125,0.5068449974060059,-0.46061038970947266,2.0568346977233887
1790263981435567400,8.9595673828125,0.6031155586242676,-0.45770263671875,1.5281715393066406
1790263981445567500,8.9695673828125,0.46997642517089844,-0.47020959854125977,0.5083932876586914
1790263981455567400,8.9795673828125,0.1321425437927246,-0.4362149238586426,-0.3661203384399414
1790263981465567500,8.9895673828125,-0.18526554107666016,-0.4197702407836914,-0.7988760471343994
1790263981475567400,8.9995673828125,-0.30721616744995117,-0.5955004692077637,-1.0848236083984375
1790263981485567500,9.0095673828125,0.1590733528137207,-0.6083126068115234,-0.60433030128479
1790263981495567400,9.0195673828125,0.18839406967163086,-0.4309244155883789,0.10271930694580078
1790263981505567500,9.0295673828125,-0.2849235534667969,-0.20041275024414062,0.5121245384216309
1790263981515567400,9.0395673828125,-0.7785911560058594,-0.019795894622802734,0.6387152671813965
1790263981525567500,9.0495673828125,-1.0960426330566406,0.032958984375,0.6041774749755859
1790263981535567400,9.0595673828125,-1.2592768669128418,-0.07412433624267578,0.6322264671325684
1790263981545567500,9.0695673828125,-1.549828052520752,-0.36293554306030273,0.8120183944702148
1790263981555567400,9.0795673828125,-1.6575255393981934,-0.7340784072875977,1.2093257904052734
1790263981565567500,9.0895673828125,-0.833341121673584,-0.9088544845581055,1.9023056030273438
1790263981575567400,9.0995673828125,0.08997488021850586,-1.067765712738037,2.578598976135254
1790263981585567500,9.1095673828125,0.2678813934326172,-1.3055901527404785,2.659532070159912
1790263981595567400,9.1195673828125,0.01213216781616211,-1.341843605041504,2.187610626220703
1790263981605567500,9.1295673828125,-0.2809586524963379,-1.2632131576538086,1.5518240928649902
1790263981615567400,9.1395673828125,-0.49283361434936523,-1.1665148735046387,1.0317697525024414
1790263981625567500,9.1495673828125,-0.6334385871887207,-0.9212307929992676,0.7710189819335938
1790263981635567400,9.1595673828125,-0.38500213623046875,-0.7130627632141113,0.8769879341125488
1790263981645567500,9.1695673828125,-0.2016582489013672,-0.41131067276000977,1.0535635948181152
1790263981655567400,9.1795673828125,0.017155170440673828,-0.28833532333374023,1.232431411743164
1790263981665567500,9.1895673828125,0.18707990646362305,-0.21448326110839844,1.1484770774841309
1790263981675567400,9.1995673828125,0.2973203659057617,-0.08260011672973633,0.9151821136474609
1790263981685567500,9.2095673828125,0.482513427734375,0.18536806106567383,0.708857536315918
1790263981695567400,9.2195673828125,0.6933598518371582,0.2737913131713867,0.3262605667114258
1790263981705567500,9.2295673828125,0.6240167617797852,0.42270565032958984,0.19550418853759766
1790263981715567400,9.2395673828125,0.49677610397338867,0.6244335174560547,0.3307461738586426
1790263981725567500,9.2495673828125,0.5034170150756836,0.6097095012664795,0.5834546089172363
1790263981735567400,9.2595673828125,1.041499137878418,0.3428347110748291,0.8409767150878906
1790263981745567500,9.2695673828125,1.52909517288208,0.14320778846740723,0.9136285781860352
1790263981755567400,9.2795673828125,1.344365119934082,0.07212662696838379,0.4390716552734375
1790263981765567500,9.2895673828125,1.2193284034729004,-0.05651402473449707,-0.12155580520629883
1790263981775567400,9.2995673828125,1.267989158630371,-0.3423953056335449,-0.3560976982116699
1790263981785567500,9.3095673828125,1.4902849197387695,-0.6461226940155029,-0.17279672622680664
1790263981795567400,9.3195673828125,1.7819299697875977,-1.0171082019805908,-0.17216062545776367
1790263981805567500,9.3295673828125,1.8804259300231934,-1.5053024291992188,-0.6468372344970703
1790263981815567400,9.3395673828125,2.099654197692871,-1.7035224437713623,-1.077171802520752
1790263981825567500,9.3495673828125,2.236692428588867,-1.7281551361083984,-1.227234125137329
1790263981835567400,9.3595673828125,2.1387290954589844,-1.5703253746032715,-1.0965628623962402
1790263981845567500,9.3695673828125,1.9967765808105469,-1.2802720069885254,-0.858609676361084
1790263981855567400,9.3795673828125,1.8882017135620117,-1.1085963249206543,-0.6657655239105225
1790263981865567500,9.3895673828125,1.9340381622314453,-0.6998411417007446,-0.8562891483306885
1790263981875567400,9.3995673828125,2.500547409057617,-0.3898019790649414,-1.1493124961853027
1790263981885567500,9.4095673828125,3.193737030029297,0.21974563598632812,-1.2319717407226562
1790263981895567400,9.4195673828125,3.63214111328125,0.6313940286636353,-0.9311652183532715
1790263981905567500,9.4295673828125,3.864717960357666,0.7620313167572021,-0.22792673110961914
1790263981915567400,9.4395673828125,2.6046018600463867,0.6221250295639038,0.21583318710327148
1790263981925567500,9.4495673828125,1.396738052368164,0.3866004943847656,-0.3649616241455078
1790263981935567400,9.4595673828125,0.7169475555419922,0.3092529773712158,-1.1559479236602783
1790263981945567500,9.4695673828125,0.9099311828613281,0.273567795753479,-1.500190258026123
1790263981955567400,9.4795673828125,1.7818021774291992,0.11200129985809326,-1.3224899768829346
1790263981965567500,9.4895673828125,2.3291845321655273,0.04698348045349121,-1.2101776599884033
1790263981975567400,9.4995673828125,2.400918960571289,0.06873124837875366,-1.0409226417541504
1790263981985567500,9.5095673828125,2.2425317764282227,0.08926355838775635,-0.8183085918426514
1790263981995567400,9.5195673828125,2.170773506164551,0.021313011646270752,-0.8162837028503418
1790263982005567500,9.5295673828125,2.1600208282470703,-0.1526719331741333,-1.277919054031372
1790263982015567400,9.5395673828125,1.9546904563903809,-0.1880977749824524,-1.5473196506500244
1790263982025567500,9.5495673828125,1.9945011138916016,-0.09814125299453735,-1.2901339530944824
1790263982035567400,9.5595673828125,2.4075145721435547,0.0770653486251831,-0.9015474319458008
1790263982045567500,9.5695673828125,2.65211820602417,0.2599853277206421,-0.9791402816772461
1790263982055567400,9.5795673828125,2.3987808227539062,0.3689159154891968,-1.009230136871338
1790263982065567500,9.5895673828125,2.1850671768188477,0.54825359582901,-1.218294382095337
1790263982075567400,9.5995673828125,1.8642287254333496,0.8093316555023193,-1.457031011581421
1790263982085567500,9.6095673828125,1.708414077758789,1.0328168869018555,-1.2786226272583008
1790263982095567400,9.6195673828125,2.009058952331543,1.1583600044250488,-1.402721881866455
1790263982105567500,9.6295673828125,2.243236541748047,1.2664401531219482,-1.6604855060577393
1790263982115567400,9.6395673828125,1.5539727210998535,1.3540797233581543,-1.4816346168518066
1790263982125567500,9.6495673828125,1.2279396057128906,1.324665904045105,-1.1123907566070557
1790263982135567400,9.6595673828125,1.2417349815368652,1.2344439029693604,-0.9922480583190918
1790263982145567500,9.6695673828125,1.0828924179077148,0.9854211807250977,-1.0933456420898438
1790263982155567400,9.6795673828125,1.1812095642089844,0.718979001045227,-1.0762100219726562
1790263982165567500,9.6895673828125,1.4078483581542969,0.5246775150299072,-0.8768224716186523
1790263982175567400,9.6995673828125,1.9950356483459473,0.3081756830215454,-0.6736264228820801
1790263982185567500,9.7095673828125,2.201329231262207,0.16784214973449707,-0.5911993980407715
1790263982195567400,9.7195673828125,1.8432931900024414,0.14334988594055176,-0.439791202545166
1790263982205567500,9.7295673828125,1.5303020477294922,0.1897115707397461,-0.5381836891174316
1790263982215567400,9.7395673828125,1.4004216194152832,0.36353421211242676,-0.7298312187194824
1790263982225567500,9.7495673828125,1.5067977905273438,0.63623046875,-0.9079351425170898
1790263982235567400,9.7595673828125,1.332942008972168,0.9024214744567871,-1.0994610786437988
1790263982245567500,9.7695673828125,1.0701584815979004,0.8878748416900635,-1.061530590057373
1790263982255567400,9.7795673828125,1.030534267425537,0.5708098411560059,-0.9879093170166016
1790263982265567500,9.7895673828125,0.8387508392333984,0.26670074462890625,-0.9464492797851562
1790263982275567400,9.7995673828125,0.499570369720459,0.02945566177368164,-0.7745862007141113
1790263982285567500,9.8095673828125,0.12958192825317383,-0.1719040870666504,-0.6444249153137207
1790263982295567400,9.8195673828125,0.13843345642089844,-0.3116011619567871,-0.21422815322875977
1790263982305567500,9.8295673828125,0.027386188507080078,-0.3742685317993164,-0.26566505432128906
1790263982315567400,9.8395673828125,-0.185516357421875,-0.5426950454711914,-0.5292444229125977
1790263982325567500,9.8495673828125,-0.6422271728515625,-0.8376650810241699,-0.8063549995422363
1790263982335567400,9.8595673828125,-0.47815752029418945,-1.0887722969055176,-0.9900650978088379
1790263982345567500,9.8695673828125,-0.09508275985717773,-1.31599760055542,-1.0306916236877441
1790263982355567400,9.8795673828125,-0.24189186096191406,-1.5703153610229492,-0.7560515403747559
1790263982365567500,9.8895673828125,-0.671048641204834,-1.763073444366455,-0.34820079803466797
1790263982375567400,9.8995673828125,-1.4199533462524414,-1.7290058135986328,-0.1830124855041504
1790263982385567500,9.9095673828125,-1.9726295471191406,-1.5264382362365723,-0.19030523300170898
1790263982395567400,9.9195673828125,-1.8734030723571777,-1.4076495170593262,-0.23883867263793945
1790263982405567500,9.9295673828125,-1.586526870727539,-1.3987131118774414,-0.23101139068603516
1790263982415567400,9.9395673828125,-1.0528764724731445,-1.3688578605651855,-0.04401254653930664
1790263982425567500,9.9495673828125,-0.7324709892272949,-1.2849230766296387,0.37418699264526367
1790263982435567400,9.9595673828125,-0.8412384986877441,-1.2378921508789062,0.6753029823303223
1790263982445567500,9.9695673828125,-1.0844902992248535,-1.2466378211975098,0.8041963577270508
1790263982455567400,9.9795673828125,-1.5969758033752441,-1.3413329124450684,0.776618480682373
1790263982465567500,9.9895673828125,-2.097468376159668,-1.4590845108032227,0.601560115814209
1790263982475567400,9.9995673828125,-2.4482603073120117,-1.4521422386169434,0.49648237228393555
1790263982485567500,10.0095673828125,-2.577287197113037,-1.3543729782104492,0.7570858001708984
1790263982495567400,10.0195673828125,-2.2514491081237793,-1.2566132545471191,1.199735164642334
1790263982505567500,10.0295673828125,-2.224374294281006,-1.1658668518066406,1.429835319519043
1790263982515567400,10.0395673828125,-2.5327367782592773,-1.0297589302062988,1.3426756858825684
1790263982525567500,10.0495673828125,-2.5425543785095215,-0.9836535453796387,1.141401767730713
1790263982535567400,10.0595673828125,-1.9090266227722168,-1.1347475051879883,1.1286120414733887
1790263982545567500,10.0695673828125,-0.9971065521240234,-1.4387264251708984,1.3578863143920898
1790263982555567400,10.0795673828125,-0.6335406303405762,-1.7323451042175293,1.8155546188354492
1790263982565567500,10.0895673828125,-0.8354620933532715,-1.8390851020812988,1.9527437686920166
1790263982575567400,10.0995673828125,-0.8375988006591797,-1.7787656784057617,1.909574031829834
1790263982585567500,10.1095673828125,-0.5738468170166016,-1.5065875053405762,1.781733512878418
1790263982595567400,10.1195673828125,-0.5488095283508301,-1.1508502960205078,1.510072946548462
1790263982605567500,10.1295673828125,-0.7865862846374512,-0.865757942199707,1.0855069160461426
1790263982615567400,10.1395673828125,-0.9574422836303711,-0.7033462524414062,0.787564754486084
1790263982625567500,10.1495673828125,-0.9042296409606934,-0.6484394073486328,0.7061042785644531
1790263982635567400,10.1595673828125,-0.655306339263916,-0.7378377914428711,0.6769967079162598
1790263982645567500,10.1695673828125,-0.37958288192749023,-0.8336725234985352,0.5323092937469482
1790263982655567400,10.1795673828125,-0.16069841384887695,-0.8944520950317383,0.3835790157318115
1790263982665567500,10.1895673828125,-0.15600299835205078,-0.8115987777709961,0.17452406883239746
1790263982675567400,10.1995673828125,-0.2799196243286133,-0.6635313034057617,-0.08195757865905762
1790263982685567500,10.2095673828125,-0.45839929580688477,-0.6048574447631836,-0.26375889778137207
1790263982695567400,10.2195673828125,-0.6764593124389648,-0.5925064086914062,-0.3848237991333008
1790263982705567500,10.2295673828125,-0.894071102142334,-0.5857362747192383,-0.3695406913757324
1790263982715567400,10.2395673828125,-0.9892063140869141,-0.5774669647216797,-0.1932063102722168
1790263982725567500,10.2495673828125,-0.9631795883178711,-0.6712560653686523,0.09635448455810547
1790263982735567400,10.2595673828125,-0.8239398002624512,-0.81817626953125,0.47852206230163574
1790263982745567500,10.2695673828125,-0.7440090179443359,-0.9530935287475586,0.8199062347412109
1790263982755567400,10.2795673828125,-0.5890436172485352,-1.0271210670471191,1.039158582687378
1790263982765567500,10.2895673828125,-0.30758190155029297,-1.1721997261047363,1.0080187320709229
1790263982775567400,10.2995673828125,-0.24817562103271484,-1.3459901809692383,0.524097204208374
1790263982785567500,10.3095673828125,-0.12996244430541992,-1.510289192199707,0.04809117317199707
1790263982795567400,10.3195673828125,-0.16627264022827148,-1.5399794578552246,-0.09974026679992676
1790263982805567500,10.3295673828125,-0.6181430816650391,-1.3387537002563477,0.06746363639831543
1790263982815567400,10.3395673828125,-0.7960786819458008,-1.0171689987182617,0.5026233196258545
1790263982825567500,10.3495673828125,-0.8540501594543457,-0.7930951118469238,1.227442741394043
1790263982835567400,10.3595673828125,-0.9771938323974609,-0.7058801651000977,1.5271944999694824
1790263982845567500,10.3695673828125,-0.7660722732543945,-0.624488353729248,1.3874492645263672
1790263982855567400,10.3795673828125,-0.3690485954284668,-0.7260951995849609,1.0176324844360352
1790263982865567500,10.3895673828125,-0.2561216354370117,-1.037078857421875,0.6307616233825684
1790263982875567400,10.3995673828125,0.08635807037353516,-1.1769623756408691,0.08061361312866211
1790263982885567500,10.4095673828125,0.4217972755432129,-1.0444588661193848,-0.10818195343017578
1790263982895567400,10.4195673828125,0.8072080612182617,-0.6342072486877441,0.03722572326660156
1790263982905567500,10.4295673828125,0.7756128311157227,-0.34195899963378906,0.24475574493408203
1790263982915567400,10.4395673828125,0.23145723342895508,-0.17588138580322266,0.4523334503173828
1790263982925567500,10.4495673828125,-0.2636251449584961,-0.05912446975708008,0.801459789276123
1790263982935567400,10.4595673828125,-0.4430251121520996,-0.1129302978515625,1.1566948890686035
1790263982945567500,10.4695673828125,-0.07842206954956055,-0.2873716354370117,1.5216784477233887
1790263982955567400,10.4795673828125,0.06958532333374023,-0.5499601364135742,1.7670741081237793
1790263982965567500,10.4895673828125,0.22934341430664062,-0.576591968536377,1.3574752807617188
1790263982975567400,10.4995673828125,0.3064250946044922,-0.47920942306518555,1.2356128692626953
1790263982985567500,10.5095673828125,-0.05639982223510742,-0.30400753021240234,1.2333354949951172
1790263982995567400,10.5195673828125,-0.6963686943054199,-0.13982582092285156,1.0882368087768555
1790263983005567500,10.5295673828125,-1.1179242134094238,-0.30993127822875977,1.0428752899169922
1790263983015567400,10.5395673828125,-1.1381826400756836,-0.777061939239502,1.0674071311950684
1790263983025567500,10.5495673828125,-0.615776538848877,-1.071671962738037,0.9494709968566895
1790263983035567400,10.5595673828125,-0.1925373077392578,-1.0957813262939453,0.6979012489318848
1790263983045567500,10.5695673828125,-0.2513751983642578,-0.8181686401367188,0.6571044921875
1790263983055567400,10.5795673828125,-0.23318910598754883,-0.4654097557067871,0.9218297004699707
1790263983065567500,10.5895673828125,-0.3246912956237793,-0.22561407089233398,1.291429042816162
1790263983075567400,10.5995673828125,-0.4836544990539551,-0.21085786819458008,1.428457260131836
1790263983085567500,10.6095673828125,-0.2487349510192871,-0.3012509346008301,1.3148269653320312
1790263983095567400,10.6195673828125,-0.06763982772827148,-0.6317558288574219,0.5890793800354004
1790263983105567500,10.6295673828125,0.4095754623413086,-0.5862646102905273,0.3238558769226074
1790263983115567400,10.6395673828125,0.6952791213989258,-0.12434959411621094,0.6303915977478027
1790263983125567500,10.6495673828125,0.5700278282165527,0.27088260650634766,0.9667243957519531
1790263983135567400,10.6595673828125,0.3219742774963379,0.5890722274780273,1.0575480461120605
1790263983145567500,10.6695673828125,0.0982966423034668,0.49639320373535156,0.5691714286804199
1790263983155567400,10.6795673828125,0.5992074012756348,0.21357154846191406,0.03401446342468262
1790263983165567500,10.6895673828125,1.3328804969787598,-0.08837652206420898,-0.25090503692626953
1790263983175567400,10.6995673828125,1.9136924743652344,-0.382965087890625,-0.3285708427429199
1790263983185567500,10.7095673828125,1.653127670288086,-0.5106768608093262,0.43423032760620117
1790263983195567400,10.7195673828125,0.9738264083862305,-0.5570740699768066,1.3628408908843994
1790263983205567500,10.7295673828125,0.20490741729736328,-0.7712173461914062,1.7570240497589111
1790263983215567400,10.7395673828125,0.19857215881347656,-0.9533538818359375,1.339101791381836
1790263983225567500,10.7495673828125,1.2185025215148926,-0.8866045475006104,0.6638238430023193
1790263983235567400,10.7595673828125,1.5700969696044922,-0.6435527801513672,0.01459813117980957
1790263983245567500,10.7695673828125,1.3189277648925781,-0.40853285789489746,-0.36995935440063477
1790263983255567400,10.7795673828125,1.2453718185424805,-0.2893826961517334,-0.39687538146972656
1790263983265567500,10.7895673828125,1.1808013916015625,-0.32715415954589844,-0.2864854335784912
1790263983275567400,10.7995673828125,1.89158296585083,-0.18271613121032715,0.11502504348754883
1790263983285567500,10.8095673828125,1.9868345260620117,-0.2103416919708252,0.4772615432739258
1790263983295567400,10.8195673828125,3.0736169815063477,-0.7336666584014893,-0.030900239944458008
1790263983305567500,10.8295673828125,3.113645553588867,-1.2875044345855713,-0.6997580528259277
1790263983315567400,10.8395673828125,2.3422470092773438,-1.0605342388153076,-1.0358946323394775
1790263983325567500,10.8495673828125,2.4687747955322266,-0.7020628452301025,-1.677398681640625
1790263983335567400,10.8595673828125,2.6944332122802734,-0.33170151710510254,-2.0428524017333984
1790263983345567500,10.8695673828125,3.0487632751464844,0.011480927467346191,-2.2327895164489746
1790263983355567400,10.8795673828125,3.2062511444091797,0.017867326736450195,-2.2656445503234863
1790263983365567500,10.8895673828125,3.1611251831054688,-0.009264707565307617,-2.400299072265625
1790263983375567400,10.8995673828125,3.157407283782959,0.21381258964538574,-2.390223503112793
1790263983385567500,10.9095673828125,3.5496368408203125,0.829730749130249,-2.1582179069519043
1790263983395567400,10.9195673828125,2.9385948181152344,1.2262163162231445,-2.0709517002105713
1790263983405567500,10.9295673828125,2.856428623199463,1.4267959594726562,-1.6129539012908936
1790263983415567400,10.9395673828125,3.118083953857422,1.684345006942749,-1.2944412231445312
1790263983425567500,10.9495673828125,3.0557851791381836,1.7424211502075195,-1.249150037765503
1790263983435567400,10.9595673828125,2.7796974182128906,1.6050784587860107,-1.3615877628326416
1790263983445567500,10.9695673828125,2.705151081085205,1.4384675025939941,-1.5730035305023193
1790263983455567400,10.9795673828125,2.7051143646240234,1.2900604009628296,-1.6014814376831055
1790263983465567500,10.9895673828125,2.414755344390869,1.2060964107513428,-1.3433005809783936
1790263983475567400,10.9995673828125,2.496978759765625,1.2770435810089111,-1.0957071781158447
1790263983485567500,11.0095673828125,2.8751144409179688,1.1905535459518433,-1.1083450317382812
1790263983495567400,11.0195673828125,3.0768685340881348,1.1659865379333496,-1.0123190879821777
1790263983505567500,11.0295673828125,3.0401182174682617,1.2379357814788818,-0.6421804428100586
1790263983515567400,11.0395673828125,2.6019515991210938,1.4345334768295288,-0.3486337661743164
1790263983525567500,11.0495673828125,2.1599349975585938,1.4539453983306885,-0.19610166549682617
1790263983535567400,11.0595673828125,1.9915828704833984,1.1269019842147827,-0.28418970108032227
1790263983545567500,11.0695673828125,2.295384407043457,0.7927908897399902,-0.5176029205322266
1790263983555567400,11.0795673828125,2.5315985679626465,0.9071729183197021,-0.5286290645599365
1790263983565567500,11.0895673828125,2.5974674224853516,1.0892221927642822,-0.5258774757385254
1790263983575567400,11.0995673828125,2.4916462898254395,1.274549961090088,-0.5559940338134766
1790263983585567500,11.1095673828125,2.3262853622436523,1.3239097595214844,-0.3028702735900879
1790263983595567400,11.1195673828125,2.123413562774658,1.0793297290802002,-0.08511877059936523
1790263983605567500,11.1295673828125,1.8837261199951172,0.5857019424438477,-0.26188230514526367
1790263983615567400,11.1395673828125,1.6122221946716309,-0.2659788131713867,-0.34874534606933594
1790263983625567500,11.1495673828125,1.4607529640197754,-0.9164586067199707,-0.052068233489990234
1790263983635567400,11.1595673828125,1.4251799583435059,-1.1887125968933105,0.16470766067504883
1790263983645567500,11.1695673828125,0.5499625205993652,-1.0138096809387207,0.25121641159057617
1790263983655567400,11.1795673828125,0.0525965690612793,-0.9586181640625,0.4337501525878906
1790263983665567500,11.1895673828125,-0.4671134948730469,-0.8435335159301758,0.1877732276916504
1790263983675567400,11.1995673828125,-1.3948535919189453,-0.47406482696533203,-0.07816362380981445
1790263983685567500,11.2095673828125,-2.197538375854492,-0.4134521484375,0.10171651840209961
1790263983695567400,11.2195673828125,-2.1827263832092285,-0.3846874237060547,0.3206028938293457
1790263983705567500,11.2295673828125,-1.9496493339538574,-0.620058536529541,0.48874855041503906
1790263983715567400,11.2395673828125,-2.190915107727051,-1.1414051055908203,0.2415022850036621
1790263983725567500,11.2495673828125,-1.9145822525024414,-1.5607256889343262,0.0413203239440918
1790263983735567400,11.2595673828125,-1.0927338600158691,-1.8010592460632324,-0.0254058837890625
1790263983745567500,11.2695673828125,-0.5514583587646484,-1.6777515411376953,-0.4424724578857422
1790263983755567400,11.2795673828125,-0.3051133155822754,-1.6508574485778809,-0.4776797294616699
1790263983765567500,11.2895673828125,0.1006016731262207,-1.7094488143920898,-0.28890299797058105
1790263983775567400,11.2995673828125,0.9952020645141602,-1.9267911911010742,-0.5269651412963867
1790263983785567500,11.3095673828125,1.87172269821167,-2.028021812438965,-0.9929499626159668
1790263983795567400,11.3195673828125,-1.7128849029541016,-2.0762572288513184,-0.5082969665527344
1790263983805567500,11.3295673828125,-0.6126947402954102,-1.6131505966186523,0.49127793312072754
1790263983815567400,11.3395673828125,-0.939239501953125,-1.412402629852295,1.0851294994354248
1790263983825567500,11.3495673828125,-1.4274601936340332,-1.0255241394042969,1.8104627132415771
1790263983835567400,11.3595673828125,-1.7764801979064941,-0.719487190246582,2.453745126724243
1790263983845567500,11.3695673828125,-2.0867514610290527,-0.6603221893310547,3.011462450027466
1790263983855567400,11.3795673828125,-2.368373394012451,-0.8997673988342285,3.4915051460266113
1790263983865567500,11.3895673828125,-2.217639923095703,-1.0784845352172852,3.5785937309265137
1790263983875567400,11.3995673828125,-2.620790481567383,-1.5214104652404785,3.2858376502990723
1790263983885567500,11.4095673828125,-2.7706170082092285,-1.947594165802002,2.7112202644348145
1790263983895567400,11.4195673828125,-2.287039279937744,-2.1261043548583984,2.3069260120391846
1790263983905567500,11.4295673828125,-1.7624397277832031,-1.9084110260009766,2.18035888671875
1790263983915567400,11.4395673828125,-1.440767765045166,-1.250960350036621,1.8743672370910645
1790263983925567500,11.4495673828125,-1.2335872650146484,-0.7191829681396484,1.534512996673584
1790263983935567400,11.4595673828125,-1.0215644836425781,-0.37973499298095703,1.3107497692108154
1790263983945567500,11.4695673828125,-0.7748441696166992,-0.19212627410888672,0.8492121696472168
1790263983955567400,11.4795673828125,-0.5909156799316406,-0.19651126861572266,0.4016895294189453
1790263983965567500,11.4895673828125,-0.5090246200561523,-0.536097526550293,0.39182209968566895
1790263983975567400,11.4995673828125,-0.16298341751098633,-1.0874719619750977,0.8998417854309082
1790263983985567500,11.5095673828125,0.48717451095581055,-1.4713249206542969,0.9617338180541992
1790263983995567400,11.5195673828125,1.0513367652893066,-1.5677995681762695,0.35614895820617676
1790263984005567500,11.5295673828125,1.2826921939849854,-1.5285701751708984,-0.582059383392334
1790263984015567400,11.5395673828125,1.3614840507507324,-1.2481689453125,-1.475590705871582
1790263984025567500,11.5495673828125,0.7926280498504639,-0.8185024261474609,-2.265549659729004
1790263984035567400,11.5595673828125,-0.43265819549560547,-0.5308694839477539,-2.6441729068756104
1790263984045567500,11.5695673828125,-1.8791708946228027,-0.530792236328125,-2.3698668479919434
1790263984055567400,11.5795673828125,-2.9225544929504395,-0.8350238800048828,-1.4782429933547974
1790263984065567500,11.5895673828125,-3.092944622039795,-1.1692752838134766,-0.4285271167755127
1790263984075567400,11.5995673828125,-2.740145683288574,-1.5542597770690918,0.6680915355682373
1790263984085567500,11.6095673828125,-2.314298629760742,-1.8763675689697266,1.565875768661499
1790263984095567400,11.6195673828125,-1.784764289855957,-1.838470458984375,2.143664836883545
1790263984105567500,11.6295673828125,-1.2599678039550781,-1.5867490768432617,2.2871944904327393
1790263984115567400,11.6395673828125,0.34150171279907227,-1.2774553298950195,1.969862699508667
1790263984125567500,11.6495673828125,-0.8817195892333984,-0.8773040771484375,1.7935705184936523
1790263984135567400,11.6595673828125,0.4759244918823242,-1.3960881233215332,1.4970853328704834
1790263984145567500,11.6695673828125,-1.2512989044189453,-1.144803524017334,0.5477452278137207
1790263984155567400,11.6795673828125,-1.1725411415100098,-1.1968178749084473,-0.13854479789733887
1790263984165567500,11.6895673828125,-0.5760197639465332,-1.2609572410583496,0.14573431015014648
1790263984175567400,11.6995673828125,-0.12994003295898438,-1.3516755104064941,0.5256462097167969
1790263984185567500,11.7095673828125,-0.08171510696411133,-1.3803143501281738,1.1490092277526855
1790263984195567400,11.7195673828125,-0.5595235824584961,-1.4109668731689453,1.8965816497802734
1790263984205567500,11.7295673828125,-1.275965690612793,-1.3601956367492676,2.43147611618042
1790263984215567400,11.7395673828125,-1.8388147354125977,-1.2178001403808594,2.4574742317199707
1790263984225567500,11.7495673828125,-1.961036205291748,-1.069960117340088,2.1577224731445312
1790263984235567400,11.7595673828125,-1.6669549942016602,-0.9026179313659668,1.8088302612304688
1790263984245567500,11.7695673828125,-1.307298183441162,-0.7922916412353516,1.335963249206543
1790263984255567400,11.7795673828125,-1.2112112045288086,-0.8585548400878906,0.6568493843078613
1790263984265567500,11.7895673828125,-1.5858211517333984,-0.9163389205932617,0.112030029296875
1790263984275567400,11.7995673828125,-1.5686445236206055,-1.0596466064453125,0.023566246032714844
1790263984285567500,11.8095673828125,-0.778778076171875,-1.239415168762207,0.024393558502197266
1790263984295567400,11.8195673828125,0.03493785858154297,-1.5179061889648438,0.10560989379882812
1790263984305567500,11.8295673828125,0.44431495666503906,-1.8681511878967285,0.18050622940063477
1790263984315567400,11.8395673828125,0.4835028648376465,-1.9708304405212402,0.1823558807373047
1790263984325567500,11.8495673828125,0.549039363861084,-1.6848602294921875,0.46581411361694336
1790263984335567400,11.8595673828125,0.23990488052368164,-1.2363576889038086,0.5419149398803711
1790263984345567500,11.8695673828125,-0.12319087982177734,-0.9448986053466797,0.27570486068725586
1790263984355567400,11.8795673828125,0.3919076919555664,-0.5029096603393555,0.040021419525146484
1790263984365567500,11.8895673828125,0.5128331184387207,-0.20398378372192383,-0.15081119537353516
1790263984375567400,11.8995673828125,0.5180974006652832,-0.1419696807861328,-0.08716726303100586
1790263984385567500,11.9095673828125,1.3656558990478516,-0.32857513427734375,-0.08319473266601562
1790263984395567400,11.9195673828125,1.776810646057129,-0.5688002109527588,-0.46241044998168945
1790263984405567500,11.9295673828125,1.5316262245178223,-0.703117847442627,-1.1302642822265625
1790263984415567400,11.9395673828125,1.5463314056396484,-0.8559789657592773,-1.8492343425750732
1790263984425567500,11.9495673828125,1.882542610168457,-0.921555757522583,-2.547051191329956
1790263984435567400,11.9595673828125,2.14693546295166,-0.7735657691955566,-2.56752872467041
1790263984445567500,11.9695673828125,1.7761874198913574,-0.4434635639190674,-1.6763992309570312
1790263984455567400,11.9795673828125,1.4349355697631836,-0.38018155097961426,-0.5550894737243652
1790263984465567500,11.9895673828125,1.3002839088439941,-0.5064482688903809,0.40701866149902344
1790263984475567400,11.9995673828125,2.2953176498413086,-0.48803019523620605,0.6152105331420898
1790263984485567500,12.0095673828125,3.196155548095703,-0.5646460056304932,0.2588348388671875
1790263984495567400,12.0195673828125,2.589357376098633,-0.4696352481842041,-0.4657115936279297
1790263984505567500,12.0295673828125,2.4052248001098633,-0.03990590572357178,-1.3219280242919922
1790263984515567400,12.0395673828125,2.5571346282958984,0.136053204536438,-1.9888920783996582
1790263984525567500,12.0495673828125,2.1262359619140625,0.25922465324401855,-2.6673967838287354
1790263984535567400,12.0595673828125,2.16812801361084,0.4913138151168823,-3.0964996814727783
1790263984545567500,12.0695673828125,2.8013877868652344,0.7638604640960693,-3.1366991996765137
1790263984555567400,12.0795673828125,3.1358962059020996,1.0328638553619385,-2.7650184631347656
1790263984565567500,12.0895673828125,3.0491223335266113,1.311371088027954,-2.37853741645813
1790263984575567400,12.0995673828125,3.5726022720336914,1.4633564949035645,-2.2389841079711914
1790263984585567500,12.1095673828125,4.061805725097656,1.4355813264846802,-2.348599672317505
1790263984595567400,12.1195673828125,4.066135883331299,1.4701869487762451,-3.0354394912719727
1790263984605567500,12.1295673828125,3.704914093017578,1.4552133083343506,-3.8316187858581543
1790263984615567400,12.1395673828125,3.3698158264160156,1.4290269613265991,-3.989314556121826
1790263984625567500,12.1495673828125,3.57578182220459,1.503576636314392,-4.043986797332764
1790263984635567400,12.1595673828125,3.302377700805664,1.643364429473877,-3.937566041946411
1790263984645567500,12.1695673828125,3.2739686965942383,1.610021948814392,-3.518944263458252
1790263984655567400,12.1795673828125,3.6072793006896973,1.4825279712677002,-3.424509286880493
1790263984665567500,12.1895673828125,2.8721885681152344,1.406648874282837,-3.2518107891082764
1790263984675567400,12.1995673828125,2.585113525390625,1.3961127996444702,-2.898287773132324
1790263984685567500,12.2095673828125,2.219125270843506,1.4894641637802124,-2.909266948699951
1790263984695567400,12.2195673828125,2.026947498321533,1.513838768005371,-2.9009547233581543
1790263984705567500,12.2295673828125,1.450645923614502,1.5298757553100586,-2.6099421977996826
1790263984715567400,12.2395673828125,1.499035358428955,1.4857773780822754,-2.270603656768799
1790263984725567500,12.2495673828125,1.974569320678711,1.37735915184021,-1.8526008129119873
1790263984735567400,12.2595673828125,1.5554494857788086,1.122370719909668,-1.281261682510376
1790263984745567500,12.2695673828125,1.4938273429870605,0.7623863220214844,-0.9535703659057617
1790263984755567400,12.2795673828125,0.9489712715148926,0.26440906524658203,-0.5133614540100098
1790263984765567500,12.2895673828125,0.37311792373657227,-0.356264591217041,0.05892229080200195
1790263984775567400,12.2995673828125,-0.4786515235900879,-1.0088467597961426,0.5320587158203125
1790263984785567500,12.3095673828125,-0.8479671478271484,-1.5714035034179688,0.8687939643859863
1790263984795567400,12.3195673828125,-0.41318607330322266,-1.9536590576171875,0.8480386734008789
1790263984805567500,12.3295673828125,0.05251264572143555,-2.1218323707580566,0.23476219177246094
1790263984815567400,12.3395673828125,-0.20660638809204102,-2.0559425354003906,-0.4386763572692871
1790263984825567500,12.3495673828125,-0.7621660232543945,-1.8002214431762695,-0.5165872573852539
1790263984835567400,12.3595673828125,-1.1044702529907227,-1.3592944145202637,-0.23150157928466797
1790263984845567500,12.3695673828125,-2.07143497467041,-1.0318870544433594,-0.32565975189208984
1790263984855567400,12.3795673828125,-2.42233943939209,-0.855471134185791,-0.6482081413269043
1790263984865567500,12.3895673828125,-2.3236093521118164,-0.6876225471496582,-0.8622851371765137
1790263984875567400,12.3995673828125,-2.1976118087768555,-0.4612298011779785,-0.9087510108947754
1790263984885567500,12.4095673828125,-1.6913375854492188,-0.3355827331542969,-0.6380710601806641
1790263984895567400,12.4195673828125,-1.3223247528076172,-0.11815881729125977,-0.3921341896057129
1790263984905567500,12.4295673828125,-1.4870381355285645,0.06463479995727539,-0.2816486358642578
1790263984915567400,12.4395673828125,-1.4405250549316406,-0.027901172637939453,-0.21950054168701172
1790263984925567500,12.4495673828125,-2.022614002227783,-0.5994706153869629,-0.1037750244140625
1790263984935567400,12.4595673828125,-2.504180431365967,-1.296215534210205,0.2176990509033203
1790263984945567500,12.4695673828125,-2.720930576324463,-1.9699697494506836,0.8496541976928711
1790263984955567400,12.4795673828125,-3.133176326751709,-2.5025415420532227,1.2894229888916016
1790263984965567500,12.4895673828125,-3.371828556060791,-2.7235641479492188,1.5554866790771484
1790263984975567400,12.4995673828125,-3.2604613304138184,-2.589052677154541,1.3798823356628418
1790263984985567500,12.5095673828125,-3.3228378295898438,-2.3051705360412598,0.8441386222839355
1790263984995567400,12.5195673828125,-2.8222715854644775,-1.8292837142944336,0.46913671493530273
1790263985005567500,12.5295673828125,-2.4469401836395264,-1.6836628913879395,0.7219960689544678
1790263985015567400,12.5395673828125,-2.2737865447998047,-1.6853971481323242,1.3010492324829102
1790263985025567500,12.5495673828125,-2.041780948638916,-1.7149982452392578,2.0709927082061768
1790263985035567400,12.5595673828125,-1.9825119972229004,-1.7630491256713867,2.468527317047119
1790263985045567500,12.5695673828125,-2.153562068939209,-1.8548192977905273,2.320706605911255
1790263985055567400,12.5795673828125,-1.7082154750823975,-1.7333097457885742,2.352879524230957
1790263985065567500,12.5895673828125,-0.8743913173675537,-1.4364585876464844,2.500148296356201
1790263985075567400,12.5995673828125,-0.5212411880493164,-1.483449935913086,2.2224645614624023
1790263985085567500,12.6095673828125,-0.5334193706512451,-1.7369279861450195,1.804938793182373
1790263985095567400,12.6195673828125,-0.8177509307861328,-1.9904823303222656,1.700599193572998
1790263985105567500,12.6295673828125,-0.9442346096038818,-1.9577264785766602,1.6134028434753418
1790263985115567400,12.6395673828125,-0.8327779769897461,-1.726694107055664,1.3693349361419678
1790263985125567500,12.6495673828125,-0.6453962326049805,-1.3835735321044922,1.1424062252044678
1790263985135567400,12.6595673828125,-0.4383416175842285,-1.1099786758422852,0.9750051498413086
1790263985145567500,12.6695673828125,-0.30440521240234375,-0.8886594772338867,0.7010719776153564
1790263985155567400,12.6795673828125,-0.39839887619018555,-0.7101230621337891,0.18352198600769043
1790263985165567500,12.6895673828125,-0.5542812347412109,-0.6407814025878906,-0.24425601959228516
1790263985175567400,12.6995673828125,-0.5546650886535645,-0.7899408340454102,-0.3384668827056885
1790263985185567500,12.7095673828125,-0.888300895690918,-0.5866937637329102,-0.05873441696166992
1790263985195567400,12.7195673828125,-2.519632339477539,-0.4507427215576172,0.4569432735443115
1790263985205567500,12.7295673828125,-2.5608768463134766,-0.42555665969848633,0.5691778659820557
