time,seconds_elapsed,z,y,x
1790263972557778000,0.08177783203125,0.8527672290802002,1.1313215494155884,-1.201570987701416
1790263972575032300,0.0990322265625,0.9700532555580139,0.9914335608482361,-1.7256929874420166
1790263972592287000,0.116286865234375,1.1496474742889404,0.30604326725006104,-2.408029079437256
1790263972609541600,0.133541748046875,1.1441497802734375,0.2565632164478302,-2.9150466918945312
1790263972626796000,0.150796142578125,0.8203914165496826,0.1081230640411377,-2.6786420345306396
1790263972644050700,0.16805078125,0.4978547990322113,-0.47464191913604736,-1.5949679613113403
1790263972661305000,0.18530517578125,0.5137372612953186,-1.2131774425506592,-0.08307760953903198
1790263972678559700,0.202559814453125,0.26878049969673157,-1.397047758102417,1.0696241855621338
1790263972695814100,0.219814208984375,-0.05742128938436508,-0.8258891701698303,1.8637484312057495
1790263972713068800,0.23706884765625,-0.27916520833969116,0.36774060130119324,2.304792881011963
1790263972730323200,0.2543232421875,-0.14049890637397766,1.153923511505127,2.4770567417144775
1790263972747577900,0.271577880859375,-0.05070177838206291,-0.7330377101898193,1.4129302501678467
1790263972764832300,0.288832275390625,-0.5204567909240723,-1.442862629890442,0.6175842881202698
1790263972782087000,0.3060869140625,-0.7079922556877136,-1.3946043252944946,0.5601630210876465
1790263972799341600,0.323341552734375,-0.12522727251052856,-3.3884668350219727,0.6823359727859497
1790263972816596000,0.340595947265625,-0.1747073233127594,-3.91991925239563,1.4312561750411987
1790263972833850600,0.3578505859375,-0.6695078015327454,-3.772089958190918,1.561981201171875
1790263972851105000,0.37510498046875,-0.6505709886550903,-3.53140926361084,1.164919137954712
1790263972868359700,0.392359619140625,-0.462424635887146,-2.4013094902038574,0.6230821013450623
1790263972885614000,0.409614013671875,-0.19669845700263977,-0.7703005075454712,-0.05253437161445618
1790263972902868700,0.42686865234375,0.09529490768909454,-0.059864748269319534,-0.6059778332710266
1790263972920123400,0.444123291015625,0.21441353857517242,0.25045454502105713,-0.9553925395011902
1790263972937377800,0.461377685546875,0.12705987691879272,0.14477495849132538,-0.8008437156677246
1790263972954632400,0.478632568359375,0.1740964651107788,-1.2541054487228394,-0.3744601011276245
1790263972971886800,0.495886962890625,0.16676609218120575,-1.8918482065200806,0.1997527778148651
1790263972989141500,0.5131416015625,0.020158538594841957,-1.796553373336792,0.5033525824546814
1790263973006396000,0.53039599609375,-0.06536252796649933,-0.40317076444625854,0.34574946761131287
1790263973023650600,0.547650634765625,0.39217519760131836,0.18875721096992493,-0.012217295356094837
1790263973040905200,0.5649052734375,0.6524035930633545,0.48563748598098755,-0.2834412455558777
1790263973058159600,0.58215966796875,0.41233372688293457,0.37201663851737976,-0.3811796307563782
1790263973075414300,0.599414306640625,0.15760311484336853,0.17592905461788177,-0.3335321843624115
1790263973092668700,0.616668701171875,0.18753549456596375,-0.1637117564678192,-0.29565855860710144
1790263973109923300,0.63392333984375,0.18875721096992493,-0.7617483735084534,-0.2620609998703003
1790263973127178000,0.651177978515625,0.04520399495959282,-0.6701186895370483,-0.03543015569448471
1790263973144432400,0.668432373046875,0.19608759880065918,-0.07941242307424545,0.05497783049941063
1790263973161687000,0.68568701171875,0.4667007029056549,-0.13744457066059113,-0.18203771114349365
1790263973178941400,0.70294140625,0.4520399272441864,-0.7189878225326538,-0.31154105067253113
1790263973196196000,0.720196044921875,0.2101374864578247,-1.056185245513916,-0.12950333952903748
1790263973213450500,0.737450439453125,0.04886918142437935,-0.9077450633049011,0.04153880476951599
1790263973230705200,0.754705078125,0.23212862014770508,-0.5803215503692627,0.09407317638397217
1790263973247959800,0.771959716796875,0.4563159942626953,-0.4202749729156494,0.06047561392188072
1790263973265214200,0.789214111328125,0.3298669755458832,-0.48075059056282043,-0.050090912729501724
1790263973282468900,0.80646875,0.1380554437637329,-0.4838049113750458,-0.3133736252784729
1790263973299723300,0.82372314453125,0.11728604137897491,-0.5992583632469177,-0.5271763205528259
1790263973316978000,0.84097802734375,0.23335035145282745,-0.7764091491699219,-0.39767298102378845
1790263973334232600,0.858232666015625,0.4972439408302307,-1.3371829986572266,0.1130099818110466
1790263973351487000,0.875487060546875,0.9547816514968872,-2.377485752105713,0.8191696405410767
1790263973368741600,0.89274169921875,1.3487894535064697,-3.7623162269592285,1.433699607849121
1790263973385996000,0.90999609375,1.795331597328186,-5.373166561126709,2.0977096557617188
1790263973403250700,0.927250732421875,2.3561055660247803,-6.702408313751221,3.0970845222473145
1790263973420505000,0.944505126953125,2.609614372253418,-7.586940765380859,4.248564720153809
1790263973437759700,0.961759765625,3.2601852416992188,-8.958942413330078,5.47701358795166
1790263973455014400,0.979014404296875,4.249175548553467,-9.969923973083496,6.935758590698242
1790263973472268800,0.996268798828125,4.969385147094727,-9.18251895904541,7.5936598777771
1790263973489523500,1.0135234375,5.687150955200195,-6.990736484527588,7.159335136413574
1790263973506778000,1.030778076171875,6.616276264190674,-4.7433648109436035,6.4415693283081055
1790263973524032500,1.048032470703125,6.630326271057129,-3.6260933876037598,6.070163249969482
1790263973541287200,1.065287109375,6.178897380828857,-3.568061113357544,5.847197532653809
1790263973558541600,1.08254150390625,5.769618034362793,-3.3035566806793213,5.486176490783691
1790263973575796200,1.099796142578125,5.133096694946289,-2.623664140701294,4.91807222366333
1790263973593051000,1.11705078125,3.9467973709106445,-2.2064435482025146,4.25772762298584
1790263973610305300,1.13430517578125,2.58701229095459,-1.7440189123153687,3.4581055641174316
1790263973627560000,1.151559814453125,1.5106686353683472,-0.6200277805328369,2.3426663875579834
1790263973644814600,1.168814697265625,0.6554579138755798,0.7275399565696716,1.1368193626403809
1790263973662069000,1.186069091796875,-0.22235478460788727,1.6126830577850342,0.17715078592300415
1790263973679323600,1.20332373046875,-0.9596685767173767,1.693317174911499,-0.45998117327690125
1790263973696578300,1.220578369140625,-1.425147533416748,1.3848304748535156,-0.9920443892478943
1790263973713832700,1.237832763671875,-1.8063271045684814,0.841160774230957,-1.4172062873840332
1790263973731087400,1.25508740234375,-2.2754712104797363,0.2834412455558777,-1.5894701480865479
1790263973748341800,1.272341796875,-2.758054494857788,0.14721840620040894,-1.3011419773101807
1790263973765596400,1.289596435546875,-3.004232883453369,0.05864302068948746,-1.1154390573501587
1790263973782851000,1.30685107421875,-2.8771731853485107,-0.27916520833969116,-1.7067562341690063
1790263973800105500,1.32410546875,-2.3536620140075684,-0.8881973624229431,-2.8008151054382324
1790263973817360100,1.341360107421875,-1.9749258756637573,-1.3939933776855469,-2.9040510654449463
1790263973834614800,1.35861474609375,-1.915671944618225,-1.609628677368164,-1.8240422010421753
1790263973851869200,1.375869140625,-2.014021158218384,-1.7336342334747314,-0.9950987100601196
1790263973869123800,1.393123779296875,-1.6352850198745728,-1.8057162761688232,-0.05558869615197182
1790263973886378200,1.410378173828125,-1.193018913269043,-2.367100954055786,0.010384701192378998
1790263973903633000,1.4276328125,-0.7898481488227844,-2.0250167846679688,-0.4838049113750458
1790263973920887600,1.444887451171875,0.10201441496610641,-0.6194168925285339,-0.7721330523490906
1790263973938142200,1.46214208984375,1.0207550525665283,0.4056142270565033,-1.0158681869506836
1790263973955396600,1.479396728515625,1.5503748655319214,0.5723803043365479,-1.4355322122573853
1790263973972651300,1.4966513671875,2.3927574157714844,0.6908880472183228,-1.5234967470169067
1790263973989905700,1.51390576171875,3.3536477088928223,0.7739656567573547,-1.5735876560211182
1790263974007160300,1.531160400390625,3.761094331741333,0.768467903137207,-1.1728603839874268
1790263974024415000,1.5484150390625,4.220464706420898,0.6621774435043335,-0.4838049113750458
1790263974041669600,1.565669677734375,4.33042049407959,-1.5363249778747559,0.3029889166355133
1790263974058924000,1.582924072265625,4.100124359130859,-4.799564361572266,0.9364557266235352
1790263974076178700,1.6001787109375,3.2901177406311035,-5.08544921875,1.2052361965179443
1790263974093433300,1.617433349609375,1.434921383857727,-0.6157516837120056,1.1423171758651733
1790263974110687700,1.634687744140625,0.2919933497905731,0.5131264328956604,1.3695588111877441
1790263974127942400,1.6519423828125,0,0.010384701192378998,1.8668028116226196
1790263974145197000,1.669197021484375,0.8594867587089539,-0.2315177470445633,2.149022340774536
1790263974162451500,1.686451416015625,2.1172573566436768,0.10323614627122879,2.0274600982666016
1790263974179706000,1.7037060546875,3.1282384395599365,0.5424479246139526,1.6328415870666504
1790263974196960500,1.72096044921875,3.9358017444610596,0.7922916412353516,1.0519092082977295
1790263974214215200,1.738215087890625,5.2516045570373535,0.6737838387489319,0.8985821008682251
1790263974231469600,1.755469482421875,6.126973628997803,0.8668171167373657,1.0470222234725952
1790263974248724200,1.77272412109375,6.173399448394775,1.5179989337921143,1.0305289030075073
1790263974265979000,1.789978759765625,5.6120147705078125,1.8991786241531372,0.7134900689125061
1790263974283233500,1.807233642578125,4.825831890106201,1.3817760944366455,0.42088583111763
1790263974300488000,1.824488037109375,4.15693473815918,0.04886918142437935,0.2419024556875229
1790263974317742600,1.84174267578125,3.808741807937622,-1.183245062828064,0.44837474822998047
1790263974334997200,1.858997314453125,3.649306297302246,-1.6872085332870483,0.9731075763702393
1790263974352252000,1.876251953125,3.5521786212921143,-1.775783896446228,1.4587451219558716
1790263974369506300,1.89350634765625,3.2406375408172607,-1.658497929573059,1.6407828330993652
1790263974386761000,1.910760986328125,2.4972152709960938,-1.3365721702575684,1.3976585865020752
1790263974404015600,1.928015625,1.37078058719635,-0.8081740736961365,0.7128791809082031
1790263974421270000,1.94527001953125,0.2968802750110626,-0.16310089826583862,-0.10934479534626007
1790263974438524700,1.962524658203125,-0.2211330533027649,0.36285367608070374,-0.5424479246139526
1790263974455779300,1.979779296875,-0.17715078592300415,0.3903425931930542,-0.44409868121147156
1790263974473034000,1.997033935546875,-0.10384701192378998,0.0873536616563797,-0.05925388261675835
1790263974490288400,2.014288330078125,0.026878049597144127,-0.08552107214927673,0.18875721096992493
1790263974507543000,2.03154296875,0.0616973415017128,0.008552107028663158,0.14233149588108063
1790263974524797700,2.048797607421875,0.06719512492418289,0.08613193035125732,0.011606430634856224
1790263974542052000,2.066052001953125,0.000610864779446274,0.008552107028663158,-0.024434590712189674
1790263974559306800,2.083306640625,0.19914191961288452,-0.31581708788871765,0.04153880476951599
1790263974576561400,2.1005615234375,0.5503891706466675,-0.09101885557174683,0.06352993845939636
1790263974593816000,2.117816162109375,0.9615011811256409,-0.08368847519159317,0.03298669680953026
1790263974611070500,2.135070556640625,1.3170244693756104,-0.4105011224746704,0.017715077847242355
1790263974628325000,2.1523251953125,1.4813470840454102,-0.9773836731910706,0.04825831577181816
1790263974645579800,2.169579833984375,1.3878847360610962,-1.6804890632629395,0.16065743565559387
1790263974662834200,2.186834228515625,0.813060998916626,-2.0824379920959473,0.0769689604640007
1790263974680088800,2.2040888671875,0.3915643095970154,-1.8570289611816406,-0.23212862014770508
1790263974697343500,2.221343505859375,0.06108647957444191,-1.0409135818481445,-0.5381718873977661
1790263974714598100,2.23859814453125,0.22968515753746033,-0.6536253094673157,-0.3023780584335327
1790263974731852500,2.2558525390625,0.5711585879325867,-0.9511164426803589,0.3347539007663727
1790263974749107200,2.273107177734375,0.46914416551589966,-0.20463970303535461,0.11239911615848541
1790263974766361900,2.29036181640625,0.143553227186203,-0.013439024798572063,-0.35613417625427246
1790263974783616300,2.3076162109375,0.0256563201546669,-0.822834849357605,-0.11484257876873016
1790263974800871000,2.324870849609375,0.19792018830776215,-0.5534434914588928,0.13927717506885529
1790263974818125600,2.34212548828125,0.24373504519462585,-0.07391463965177536,0.05253437161445618
1790263974835380200,2.359380126953125,0.3970620930194855,-0.7342594861984253,0.23212862014770508
1790263974852634600,2.376634521484375,0.45998117327690125,-1.1600322723388672,0.3634645342826843
1790263974869889300,2.39388916015625,-0.19608759880065918,1.9346086978912354,-1.1856884956359863
1790263974887144000,2.41114404296875,-1.4489712715148926,3.754985809326172,-1.9303326606750488
1790263974904398600,2.428398681640625,-0.6737838387489319,1.5705333948135376,-0.18081597983837128
1790263974921653500,2.445653564453125,-0.6365211009979248,0.11728604137897491,1.2119556665420532
1790263974938908200,2.462908203125,-0.8851430416107178,-0.5057960152626038,1.505781650543213
1790263974956163000,2.4801630859375,-1.008537769317627,-0.6860011219978333,1.2742639780044556
1790263974973417700,2.497417724609375,-1.0360267162322998,-0.3274235129356384,0.8881973624229431
1790263974990672400,2.51467236328125,-1.0360267162322998,0.4618137776851654,0.4367683231830597
1790263975007927000,2.531927001953125,0.009162971749901772,1.9199479818344116,-0.6713404059410095
1790263975025181700,2.549181640625,1.5968005657196045,1.1013891696929932,-1.3170244693756104
1790263975042436000,2.56643603515625,1.2431098222732544,0.31520622968673706,-1.5112794637680054
1790263975059690800,2.583690673828125,0.3915643095970154,-0.318871408700943,-1.1924080848693848
1790263975076945400,2.6009453125,0.1282816082239151,-1.4404191970825195,-0.19242240488529205
1790263975094200000,2.618199951171875,-0.12522727251052856,-1.0415244102478027,0.5754346251487732
1790263975111454500,2.635454345703125,-0.10384701192378998,0.013439024798572063,0.7422007322311401
1790263975128709000,2.652709228515625,-0.07757982611656189,1.0262528657913208,0.6145299673080444
1790263975145963800,2.6699638671875,-0.3970620930194855,1.3463460206985474,0.47464191913604736
1790263975163218200,2.68721826171875,-0.401949018239975,0.4043924808502197,0.3072649836540222
1790263975180472800,2.704472900390625,-0.5308414697647095,-0.62857985496521,0.3585776388645172
1790263975197727500,2.7217275390625,-0.49541133642196655,-0.5583304166793823,0.5027416944503784
1790263975214982100,2.738982177734375,-0.3842339515686035,0.13927717506885529,0.430659681558609
1790263975232236500,2.756236572265625,-0.3958403766155243,0.36835145950317383,0.10751219838857651
1790263975249491200,2.7734912109375,-0.5717694163322449,-0.38728827238082886,0.01893680728971958
1790263975266745900,2.790745849609375,-1.0934479236602783,-1.7806708812713623,0.16249002516269684
1790263975284000500,2.80800048828125,-1.674991250038147,-2.2540910243988037,-0.04153880476951599
1790263975301255200,2.825255126953125,-1.6670500040054321,-2.188117742538452,-0.12156209349632263
1790263975318510000,2.842510009765625,-1.6322306394577026,-2.0054690837860107,-0.14049890637397766
1790263975335764700,2.8597646484375,-1.7971642017364502,-1.6383392810821533,0.04886918142437935
1790263975353019600,2.87701953125,-1.8936808109283447,-0.6102539300918579,0.023823726922273636
1790263975370274300,2.8942744140625,-1.6420044898986816,0.36651885509490967,0.07574722915887833
1790263975387529000,2.911529052734375,-0.9126319885253906,0.7043271064758301,0.05864302068948746
1790263975404783600,2.92878369140625,-0.009162971749901772,0.24862197041511536,0.06536252796649933
1790263975422038300,2.946038330078125,0.16065743565559387,-0.5595521330833435,-0.16065743565559387
1790263975439293000,2.96329296875,-0.007330377586185932,-0.9920443892478943,-0.028099779039621353
1790263975456547300,2.98054736328125,0.01954767294228077,-1.0164790153503418,0.4929678738117218
1790263975473802000,2.997802001953125,0.4404335021972656,-0.8527672290802002,0.841160774230957
1790263975491056600,3.015056640625,1.072678565979004,-0.08429934084415436,0.6994401812553406
1790263975508311000,3.03231103515625,1.690262794494629,0.47525280714035034,0.3707949221134186
1790263975525565700,3.049565673828125,2.059225082397461,0.3249800503253937,0.31581708788871765
1790263975542820400,3.0668203125,2.042120933532715,-0.040317077189683914,-0.037262752652168274
1790263975560075000,3.084074951171875,1.598022222518921,0.43921178579330444,-0.8778126835823059
1790263975577329700,3.10132958984375,1.0060943365097046,1.3585633039474487,-1.3915499448776245
1790263975594584300,3.118584228515625,0.6945532560348511,1.2870920896530151,-0.7202095985412598
1790263975611839200,3.135839111328125,0.6768381595611572,0.8173370957374573,-0.0873536616563797
1790263975629094000,3.153093994140625,0.7806851863861084,0.23884813487529755,0.17287473380565643
1790263975646348800,3.170348876953125,0.9712749719619751,0.03237583488225937,0.656679630279541
1790263975663603500,3.187603515625,0.5687150955200195,-0.25961753726005554,0.9327905178070068
1790263975680858000,3.204858154296875,0.036651886999607086,-0.3170388340950012,0.34574946761131287
1790263975698112800,3.22211279296875,0.14477495849132538,-0.25961753726005554,0.034208428114652634
1790263975715367400,3.239367431640625,-0.2730565667152405,0.11484257876873016,0.047036588191986084
1790263975732621800,3.256621826171875,-0.7165443897247314,0.7006618976593018,-0.018325943499803543
1790263975749876500,3.27387646484375,-1.1282672882080078,0.9822705388069153,-0.020158538594841957
1790263975767131100,3.291131103515625,-1.4312561750411987,1.0684025287628174,0.11728604137897491
1790263975784385300,3.30838525390625,-1.2681553363800049,0.833219587802887,0.12705987691879272
1790263975801640000,3.325639892578125,-0.41233372688293457,0.6823359727859497,-0.12034036219120026
1790263975818894600,3.34289453125,0.277332603931427,1.028085470199585,-0.5436696410179138
1790263975836149500,3.3601494140625,0.17287473380565643,0.84177166223526,-0.7379246354103088
1790263975853404200,3.377404052734375,-0.10140355676412582,0.35613417625427246,-0.5222893953323364
1790263975870659000,3.3946591796875,-0.06536252796649933,-0.10629047453403473,-0.09285144507884979
1790263975887913700,3.411913818359375,-0.04276053607463837,-0.5290089249610901,0.3543015718460083
1790263975905168400,3.42916845703125,-0.08857539296150208,-0.7086031436920166,0.6200277805328369
1790263975922423000,3.446423095703125,-0.0818558782339096,-0.5968148708343506,0.5723803043365479
1790263975939677700,3.463677734375,-0.07880155742168427,-0.3909534513950348,0.31093016266822815
1790263975956932000,3.48093212890625,-0.0030543238390237093,-0.4214966893196106,0.12705987691879272
1790263975974186800,3.498186767578125,0.003665188793092966,-0.22174391150474548,-0.05497783049941063
1790263975991441400,3.51544140625,-0.03543015569448471,0.09040798991918564,-0.11117739230394363
1790263976008696000,3.532696044921875,-0.04764745384454727,0.06719512492418289,-0.08368847519159317
1790263976025950500,3.549950439453125,0.021380268037319183,-0.18753549456596375,0.09162971377372742
1790263976043205000,3.567205078125,-0.03298669680953026,-0.034208428114652634,0.1178968995809555
1790263976060459800,3.584459716796875,-0.04581485688686371,0.04764745384454727,-0.043982263654470444
1790263976077714200,3.601714111328125,-0.02260199747979641,-0.0873536616563797,-0.053145237267017365
1790263976094968800,3.61896875,-0.046425722539424896,-0.07269290834665298,0.009773836471140385
1790263976112223700,3.6362236328125,-0.056199558079242706,-0.014660755172371864,0.026878049597144127
1790263976129478400,3.653478515625,-0.03237583488225937,-0.07452550530433655,0.03909534588456154
1790263976146733300,3.6707333984375,-0.0030543238390237093,-0.12522727251052856,0.05742128938436508
1790263976163988000,3.687988037109375,0.01649334840476513,-0.143553227186203,0.05925388261675835
1790263976181243000,3.705242919921875,0.02871064469218254,-0.12705987691879272,0.05192350596189499
1790263976198497500,3.72249755859375,0.025045456364750862,-0.10567960888147354,0.033597562462091446
1790263976215752200,3.739752197265625,0.0054977829568088055,-0.09651663154363632,0.013439024798572063
1790263976233006800,3.7570068359375,-0.01893680728971958,-0.09407317638397217,0.0054977829568088055
1790263976250261200,3.77426123046875,-0.017104214057326317,-0.07819069176912308,0.012217295356094837
1790263976267516000,3.791515869140625,-0.013439024798572063,-0.07269290834665298,0.006719512399286032
1790263976284770600,3.8087705078125,-0.023212861269712448,-0.06536252796649933,-0.1954767256975174
1790263976302025200,3.826025146484375,0.08979712426662445,-0.09957095980644226,-0.17653992772102356
1790263976319280000,3.843280029296875,0.0977383628487587,-0.20280711352825165,0.05253437161445618
1790263976336534800,3.86053466796875,0.03298669680953026,-0.14721840620040894,0.19914191961288452
1790263976353789700,3.877789794921875,0.04520399495959282,-0.047036588191986084,0.1288924664258957
1790263976371044400,3.89504443359375,0.03481929376721382,-0.053145237267017365,0.06963858753442764
1790263976388299300,3.91229931640625,-0.027488915249705315,-0.15271618962287903,0.004276053514331579
1790263976405553700,3.9295537109375,-0.010384701192378998,-0.23762640357017517,-0.04520399495959282
1790263976422808300,3.946808349609375,-0.028099779039621353,-0.2009745091199875,-0.04153880476951599
1790263976440063000,3.96406298828125,-0.03909534588456154,-0.15210533142089844,-0.02260199747979641
1790263976457317400,3.9813173828125,-0.0256563201546669,-0.15515965223312378,0.023212861269712448
1790263976474572000,3.998572021484375,-0.04276053607463837,-0.15149445831775665,0.056810423731803894
1790263976491826700,4.01582666015625,-0.03909534588456154,-0.17531819641590118,0.034208428114652634
1790263976509081300,4.033081298828125,-0.03909534588456154,-0.20219624042510986,0.000610864779446274
1790263976526335700,4.050335693359375,-0.031154103577136993,-0.26511532068252563,0.025045456364750862
1790263976543590400,4.06759033203125,-0.01893680728971958,-0.33231043815612793,0.05436696484684944
1790263976560845000,4.084844970703125,-0.006719512399286032,-0.3274235129356384,0.025045456364750862
1790263976578099700,4.102099609375,0.049480047076940536,-0.3738492429256439,-0.031154103577136993
1790263976595354400,4.119354248046875,0.11239911615848541,-0.896138608455658,-0.5174024701118469
1790263976612609000,4.136609130859375,0.2406807243824005,-1.1911863088607788,-1.1123847961425781
1790263976629864000,4.153864013671875,0.21441353857517242,-0.23762640357017517,-0.3634645342826843
1790263976647118600,4.17111865234375,0.07086031138896942,-0.19853104650974274,0.7385355234146118
1790263976664373500,4.18837353515625,0.08368847519159317,-0.45937031507492065,1.1948515176773071
1790263976681628200,4.205628173828125,0.17165300250053406,-0.739757239818573,1.0103703737258911
1790263976698882800,4.2228828125,0.25411975383758545,-0.9963204264640808,0.6536253094673157
1790263976716137500,4.240137451171875,0.3090975880622864,-1.0916153192520142,0.37812530994415283
1790263976733392000,4.257391845703125,0.3530798554420471,-1.053741693496704,0.2669478952884674
1790263976750646500,4.274646484375,0.3946186602115631,-0.9712749719619751,0.21991132199764252
1790263976767901200,4.291901123046875,0.40317076444625854,-0.9902117848396301,0.13194678723812103
1790263976785155600,4.309155517578125,0.30970844626426697,-1.0158681869506836,0.04520399495959282
1790263976802410500,4.326410400390625,0.17226386070251465,-0.924849271774292,0.033597562462091446
1790263976819665200,4.3436650390625,0.10567960888147354,-0.813671886920929,0.16004657745361328
1790263976836920000,4.360920166015625,0.12217295914888382,-0.7947350740432739,0.35124725103378296
1790263976854174700,4.3781748046875,0.19914191961288452,-0.7947350740432739,0.45448338985443115
1790263976871429600,4.3954296875,0.27550002932548523,-0.831997811794281,0.43371400237083435
1790263976888684300,4.412684326171875,0.328645259141922,-0.8393282294273376,0.33597561717033386
1790263976905939000,4.42993896484375,0.3494146466255188,-0.7935133576393127,0.19730933010578156
1790263976923193600,4.447193603515625,0.34208428859710693,-0.7006618976593018,0.06536252796649933
1790263976940448300,4.4644482421875,0.30482152104377747,-0.6524035930633545,0.033597562462091446
1790263976957702700,4.48170263671875,0.3023780584335327,-0.6120865345001221,0.0665842592716217
1790263976974957300,4.498957275390625,0.2816086709499359,-0.638353705406189,0.20891575515270233
1790263976992212000,4.5162119140625,0.24556763470172882,-0.6548470258712769,0.3445277214050293
1790263977009466600,4.533466552734375,0.24434591829776764,-0.6371319890022278,0.33169957995414734
1790263977026721500,4.550721435546875,0.22663083672523499,-0.4257727563381195,0.30543237924575806
1790263977043976200,4.56797607421875,0.18203771114349365,-0.5607738494873047,0.04764745384454727
1790263977061231000,4.585231201171875,0.2669478952884674,-0.6676751971244812,-0.031154103577136993
1790263977078485800,4.60248583984375,0.1533270627260208,-0.6316341757774353,-0.013439024798572063
1790263977095740700,4.61974072265625,-0.007941242307424545,-0.6811142563819885,-0.1185077652335167
1790263977112995000,4.6369951171875,-0.014660755172371864,-0.5815432667732239,-0.21685700118541718
1790263977130249700,4.654249755859375,0.10445787757635117,-0.47952884435653687,-0.1698204129934311
1790263977147504400,4.67150439453125,0.13927717506885529,-0.235793799161911,-0.3396408259868622
1790263977164758800,4.6887587890625,0.18081597983837128,-0.3042106628417969,-0.47586366534233093
1790263977182013400,4.706013427734375,0.23945899307727814,-0.27916520833969116,-0.5955931544303894
1790263977199268000,4.72326806640625,0.23823726177215576,-0.2761108875274658,-0.7177661061286926
1790263977216523000,4.74052294921875,0.2101374864578247,-0.2657261788845062,-0.9169080257415771
1790263977233777700,4.757777587890625,0.14721840620040894,-0.22724169492721558,-1.1148282289505005
1790263977251032600,4.775032470703125,0.1233946830034256,-0.389120876789093,-1.250440239906311
1790263977268287200,4.792287353515625,0.2009745091199875,-0.5308414697647095,-1.3616175651550293
1790263977285542100,4.809542236328125,0.26511532068252563,-0.5748237371444702,-1.5430444478988647
1790263977302796800,4.826796875,0.1496618688106537,-0.7354812026023865,-1.8270965814590454
1790263977320051500,4.844051513671875,0.08918625861406326,-0.7611374855041504,-1.989586591720581
1790263977337305900,4.861305908203125,0.011606430634856224,-0.45509424805641174,-2.0445644855499268
1790263977354560500,4.878560546875,-0.2052505612373352,0.024434590712189674,-1.8295400142669678
1790263977371815200,4.895815185546875,-0.4734202027320862,0.3029889166355133,-1.5625921487808228
1790263977389069600,4.913069580078125,-0.66645348072052,0.31031930446624756,-1.5418226718902588
1790263977406324500,4.930324462890625,-0.7867938280105591,0.2675587832927704,-1.6328415870666504
1790263977423579400,4.947579345703125,-0.7092140316963196,0.18814635276794434,-1.7873903512954712
1790263977440834000,4.964833984375,-0.2510654330253601,-0.22724169492721558,-2.0854923725128174
1790263977458089000,4.9820888671875,0.4471530318260193,-0.8717040419578552,-2.525315046310425
1790263977475343600,4.999343505859375,0.8796452879905701,-1.3084723949432373,-2.886336088180542
1790263977492598300,5.016598388671875,0.9517273306846619,-1.3365721702575684,-3.0885322093963623
1790263977509853000,5.03385302734375,0.9022472500801086,-0.9321796298027039,-3.2430810928344727
1790263977527107600,5.051107666015625,0.813060998916626,-0.5949822664260864,-3.4990334510803223
1790263977544362000,5.068362060546875,0.6841685771942139,-0.6102539300918579,-3.68595814704895
1790263977561616600,5.08561669921875,0.5125155448913574,-0.5222893953323364,-3.6370890140533447
1790263977578871300,5.102871337890625,0.842382550239563,-0.768467903137207,-3.775144338607788
1790263977596126000,5.1201259765625,1.0989457368850708,-0.6896663308143616,-3.7757551670074463
1790263977613380600,5.137380615234375,1.3640609979629517,-0.7574723362922668,-3.9168648719787598
1790263977630635500,5.154635498046875,1.6578869819641113,-0.7611374855041504,-4.17892599105835
1790263977647890200,5.17189013671875,1.8839069604873657,-0.46975502371788025,-4.3408050537109375
1790263977665145000,5.18914501953125,1.859472393989563,-0.25411975383758545,-4.4220499992370605
1790263977682399700,5.206399658203125,1.8380920886993408,-0.12950333952903748,-4.5588836669921875
1790263977699654700,5.223654541015625,1.8765766620635986,0.19914191961288452,-4.456258773803711
1790263977716909000,5.240908935546875,1.601076602935791,0.7250964641571045,-4.1618218421936035
1790263977734163700,5.258163818359375,1.5326597690582275,0.6731730103492737,-4.010327339172363
1790263977751418400,5.27541845703125,1.3506220579147339,0.41844236850738525,-3.783696413040161
1790263977768672800,5.2926728515625,1.0751219987869263,0.006108647678047419,-3.2754569053649902
1790263977785927400,5.309927490234375,0.934623122215271,0.06536252796649933,-2.8539602756500244
1790263977803182000,5.32718212890625,0.7641918659210205,0.4098902642726898,-2.456287384033203
1790263977820437000,5.34443701171875,0.5687150955200195,0.676227331161499,-1.7910555601119995
1790263977837692000,5.36169189453125,0.48991355299949646,0.833219587802887,-1.0885610580444336
1790263977854946600,5.378946533203125,0.4221075773239136,0.9193515181541443,-0.5784889459609985
1790263977872201500,5.396201416015625,0.471587598323822,0.9847140312194824,-0.1490510106086731
1790263977889456000,5.4134560546875,0.5497782826423645,1.1698060035705566,0.09040798991918564
1790263977906710800,5.430710693359375,0.4990765154361725,0.952949047088623,0.6023126840591431
1790263977923965400,5.44796533203125,0.4770853817462921,0.7525854110717773,0.729983389377594
1790263977941219800,5.4652197265625,0.36651885509490967,0.6768381595611572,0.850934624671936
1790263977958474500,5.482474609375,0.12644900381565094,0.7055488228797913,1.0867284536361694
1790263977975729200,5.499729248046875,0.006108647678047419,0.7464767694473267,0.9950987100601196
1790263977992983800,5.51698388671875,0.02626718580722809,0.7073814272880554,0.667064368724823
1790263978010238500,5.534238525390625,-0.053756099194288254,0.842382550239563,0.2608392536640167
1790263978027493400,5.551493408203125,-0.24373504519462585,0.778241753578186,-0.0873536616563797
1790263978044748000,5.568748046875,-0.36712974309921265,0.29565855860710144,-0.26450446248054504
1790263978062003000,5.5860029296875,-0.3811796307563782,-0.11117739230394363,-0.2864955961704254
1790263978079257600,5.603257568359375,-0.2626718580722809,-0.2938259541988373,-0.17165300250053406
1790263978096512300,5.62051220703125,-0.006719512399286032,-0.13011419773101807,-0.04886918142437935
1790263978113767000,5.637766845703125,0.22785256803035736,-0.020769402384757996,0.1954767256975174
1790263978131021600,5.655021484375,0.3029889166355133,0.09529490768909454,0.45387253165245056
1790263978148276200,5.672276123046875,0.30115634202957153,0.21258094906806946,0.4685332775115967
1790263978165530600,5.689530517578125,0.22724169492721558,0.1954767256975174,0.45326167345046997
1790263978182785300,5.706785400390625,0.16737695038318634,0.26022839546203613,0.5235111117362976
1790263978200040000,5.7240400390625,0.1496618688106537,0.40927940607070923,0.6298015713691711
1790263978217294800,5.741294921875,0.16798780858516693,0.4068359434604645,0.6750055551528931
1790263978234549500,5.758549560546875,0.185092031955719,0.16310089826583862,0.6609556674957275
1790263978251804400,5.775804443359375,0.13927717506885529,0.07147117704153061,0.6505709886550903
1790263978269059000,5.79305908203125,0.13988803327083588,0.08796452730894089,0.7623592615127563
1790263978286314000,5.81031396484375,0.21685700118541718,0.17715078592300415,0.9755510687828064
1790263978303568600,5.827568603515625,0.06475166976451874,0.19120067358016968,1.1227694749832153
1790263978320823000,5.844822998046875,-0.08979712426662445,0.21807873249053955,1.1997383832931519
1790263978338077700,5.86207763671875,-0.28588470816612244,0.17592905461788177,1.2651009559631348
1790263978355332400,5.879332275390625,-0.5009090900421143,0.06597339361906052,1.293811559677124
1790263978372587000,5.8965869140625,-0.6444623470306396,-0.11545344442129135,1.3237439393997192
1790263978389841400,5.91384130859375,-0.7550288438796997,-0.10140355676412582,1.320078730583191
1790263978407096000,5.931095947265625,-0.8839213252067566,-0.07086031138896942,1.2699878215789795
1790263978424351000,5.94835107421875,-0.9395100474357605,-0.1747073233127594,1.313359260559082
1790263978441605600,5.965605712890625,-0.8735366463661194,-0.3805687427520752,1.4312561750411987
1790263978458860500,5.982860595703125,-0.5772672295570374,-0.36835145950317383,1.554650902748108
1790263978476115200,6.000115234375,-0.45020735263824463,-0.258395791053772,1.5583161115646362
1790263978493370000,6.0173701171875,-0.720820426940918,-0.5687150955200195,1.4178171157836914
1790263978510624800,6.034624755859375,-1.0836740732192993,0.22846342623233795,1.339626431465149
1790263978527879200,6.051879150390625,-1.5442661046981812,1.2773182392120361,1.6438370943069458
1790263978545133800,6.0691337890625,-2.249814987182617,2.0463969707489014,1.9095633029937744
1790263978562388500,6.086388427734375,-2.73850679397583,2.333503484725952,1.8063271045684814
1790263978579643000,6.103642822265625,-2.620609998703003,2.1923937797546387,1.6041308641433716
1790263978596897500,6.1208974609375,-2.433074474334717,1.684765100479126,1.6047418117523193
1790263978614152400,6.13815234375,-2.4049746990203857,1.488066554069519,1.8564180135726929
1790263978631407000,6.155406982421875,-2.8423538208007812,2.360381603240967,2.0390665531158447
1790263978648662000,6.172662109375,-2.925431489944458,3.8008005619049072,2.182008981704712
1790263978665916700,6.189916748046875,-3.3793039321899414,3.5588982105255127,1.50028395652771
1790263978683171600,6.207171630859375,-2.026238441467285,5.093390464782715,0.32131487131118774
1790263978700426200,6.22442626953125,0.07269290834665298,4.367072105407715,-0.5656607747077942
1790263978717681200,6.24168115234375,1.1490366458892822,3.4629924297332764,-0.347582072019577
1790263978734936000,6.25893603515625,1.2131774425506592,1.5100576877593994,0.758694052696228
1790263978752190700,6.276190673828125,0.9553925395011902,-0.27366742491722107,1.8417572975158691
1790263978769445600,6.293445556640625,0.7819069027900696,-0.6811142563819885,2.0555598735809326
1790263978786700300,6.3107001953125,0.9541707634925842,-0.277332603931427,1.6340632438659668
1790263978803955000,6.327954833984375,1.3072506189346313,0.45998117327690125,1.0470222234725952
1790263978821209600,6.345209716796875,1.3726131916046143,0.5308414697647095,0.7238747477531433
1790263978838464000,6.362464111328125,1.1753038167953491,0.143553227186203,0.7336485981941223
1790263978855718700,6.37971875,0.6640099883079529,-0.41783151030540466,0.9908226728439331
1790263978872973300,6.396973388671875,0.2877173125743866,-0.5870410799980164,1.276707410812378
1790263978890228000,6.41422802734375,0.19364413619041443,0.1948658674955368,1.0848958492279053
1790263978907482600,6.431482666015625,0.22235478460788727,0.7031053900718689,0.759304940700531
1790263978924737500,6.448737548828125,0.33047783374786377,0.6511818766593933,0.5705476999282837
1790263978941992200,6.4659921875,0.4159989058971405,0.3756818473339081,0.5827649831771851
1790263978959247000,6.4832470703125,0.46975502371788025,-0.03298669680953026,0.6407971382141113
1790263978976501800,6.500501708984375,0.45326167345046997,-0.35674503445625305,0.5699368119239807
1790263978993756700,6.517756591796875,0.33719736337661743,-0.3481929302215576,0.44470956921577454
1790263979011011000,6.535010986328125,0.23945899307727814,-0.14172062277793884,0.37262752652168274
1790263979028265700,6.552265625,0.18631376326084137,-0.14294235408306122,0.3433060050010681
1790263979045520400,6.569520263671875,0.5778780579566956,-2.3536620140075684,0.6621774435043335
1790263979062774800,6.58677490234375,0.6579013466835022,-1.7263038158416748,0.6249146461486816
1790263979080029400,6.604029541015625,0.5369501113891602,0.861319363117218,0.014049889519810677
1790263979097284000,6.6212841796875,0.2761108875274658,0.21685700118541718,0.13561198115348816
1790263979114539000,6.6385390625,0.07513637095689774,-0.23762640357017517,0.26511532068252563
1790263979131793700,6.655793701171875,-0.06536252796649933,-0.6126973628997803,0.21319180727005005
1790263979149048600,6.673048583984375,0.059864748269319534,-1.1771364212036133,0.17592905461788177
1790263979166303200,6.69030322265625,0.050090912729501724,-0.9553925395011902,0.03909534588456154
1790263979183558100,6.70755810546875,0.21991132199764252,-1.0317505598068237,-0.10384701192378998
1790263979200812500,6.7248125,0.39889469742774963,-0.8717040419578552,-0.1185077652335167
1790263979218067000,6.74206689453125,0.2877173125743866,-0.28038692474365234,-0.21197007596492767
1790263979235321300,6.7593212890625,0.27916520833969116,0.5076286196708679,-0.3439168632030487
1790263979252576300,6.776576171875,0.36835145950317383,0.12278381735086441,-0.5442805290222168
1790263979269832200,6.793832275390625,0.5595521330833435,0.22846342623233795,-0.44898560643196106
1790263979287086800,6.8110869140625,0.8576541543006897,0.880256175994873,-0.2712239623069763
1790263979304341500,6.828341552734375,1.0885610580444336,0.8173370957374573,-0.22479823231697083
1790263979321596200,6.84559619140625,0.6560688018798828,1.1985167264938354,-0.07819069176912308
1790263979338851000,6.86285107421875,0.38240134716033936,2.7452263832092285,0.1288924664258957
1790263979356105700,6.880105712890625,0.3946186602115631,4.170373916625977,0.29993459582328796
1790263979373360400,6.8973603515625,0.03787361457943916,4.797731876373291,-0.009773836471140385
1790263979390615000,6.914614990234375,-0.19364413619041443,5.027417182922363,-0.40255987644195557
1790263979407870000,6.931869873046875,-0.3836230933666229,4.834994792938232,-0.8869756460189819
1790263979425124600,6.94912451171875,-0.711046576499939,3.9186975955963135,-0.8888082504272461
1790263979442379300,6.966379150390625,-0.9260709881782532,1.592524528503418,-0.5430588126182556
1790263979459634000,6.983634033203125,-0.9712749719619751,-0.9908226728439331,-0.3035998046398163
1790263979476888600,7.000888671875,-1.0201442241668701,-2.7959280014038086,-0.37201663851737976
1790263979494143500,7.0181435546875,-1.0836740732192993,-2.947422504425049,-0.637742817401886
1790263979511398100,7.035398193359375,-1.173471212387085,-1.832594394683838,-1.0800089836120605
1790263979528652800,7.05265283203125,-1.0317505598068237,-0.4001164436340332,-1.3261874914169312
1790263979545907500,7.069907470703125,-0.8075632452964783,0.925460159778595,-1.2522728443145752
1790263979563164200,7.0871640625,-0.6310232877731323,1.960265040397644,-1.033583164215088
1790263979580417000,7.1044169921875,-0.37751442193984985,2.123976945877075,-0.9309579133987427
1790263979597671700,7.121671630859375,-0.0769689604640007,1.598022222518921,-0.9089667797088623
1790263979614926300,7.13892626953125,-0.09651663154363632,0.860708475112915,-0.7422007322311401
1790263979632181200,7.15618115234375,-0.26022839546203613,0.15088360011577606,-0.6524035930633545
1790263979649436000,7.173435791015625,-0.46608981490135193,-0.22968515753746033,-0.6511818766593933
1790263979666690600,7.190690673828125,-0.535728394985199,-0.3078758418560028,-0.6872228980064392
1790263979683945200,7.2079453125,-0.4166097939014435,-0.20891575515270233,-0.7837395071983337
1790263979701200100,7.2252001953125,-0.2559523284435272,-0.18631376326084137,-0.8698714375495911
1790263979718454800,7.242454833984375,-0.17898337543010712,-0.0030543238390237093,-0.9101884961128235
1790263979735709400,7.25970947265625,-0.2412915825843811,0.28405213356018066,-0.9700532555580139
1790263979752964000,7.276964111328125,-0.29626941680908203,0.14599667489528656,-1.0146464109420776
1790263979770219000,7.294218994140625,-0.2724456787109375,-0.08552107214927673,-0.9676098227500916
1790263979787473700,7.3114736328125,-0.2565632164478302,-0.16859868168830872,-0.9303470849990845
1790263979804728300,7.328728271484375,-0.27000224590301514,-0.2730565667152405,-0.8869756460189819
1790263979821983000,7.34598291015625,-0.24740023910999298,-0.38240134716033936,-0.7623592615127563
1790263979839237600,7.363237548828125,-0.21930044889450073,-0.5082395076751709,-0.6866120100021362
1790263979856492500,7.380492431640625,-0.23335035145282745,-0.5968148708343506,-0.7953459620475769
1790263979873747200,7.397747314453125,-0.3231474757194519,-0.5290089249610901,-0.9053016304969788
1790263979891001900,7.415001953125,-0.3811796307563782,-0.411722868680954,-0.9694424271583557
1790263979908256800,7.4322568359375,-0.4007273018360138,-0.28038692474365234,-1.0128138065338135
1790263979925511400,7.449511474609375,-0.4514290690422058,-0.32009315490722656,-0.9602794051170349
1790263979942766000,7.46676611328125,-0.471587598323822,-0.4172206521034241,-0.8747583627700806
1790263979960020700,7.484020751953125,-0.4563159942626953,-0.5070177912712097,-0.8918625712394714
1790263979977275600,7.501275634765625,-0.4196641147136688,-0.5247328281402588,-0.9517273306846619
1790263979994530300,7.5185302734375,-0.43982264399528503,-0.5039634704589844,-1.026863694190979
1790263980011785000,7.535784912109375,-0.5259546041488647,-0.5216785073280334,-1.1001675128936768
1790263980029039900,7.553039794921875,-0.6688969135284424,-0.5729911923408508,-1.2101231813430786
1790263980046294500,7.57029443359375,-0.7959567904472351,-0.7599157691001892,-1.2675443887710571
1790263980063549200,7.587549072265625,-0.8252783417701721,-0.962722897529602,-1.2925899028778076
1790263980080804000,7.60480419921875,-0.778241753578186,-0.9792162179946899,-1.2712095975875854
1790263980098058800,7.622058837890625,-0.648127555847168,-0.7202095985412598,-1.2583814859390259
1790263980115313400,7.6393134765625,-0.5326740741729736,-0.3549124300479889,-1.2272273302078247
1790263980132568300,7.656568359375,-0.5687150955200195,-0.2211330533027649,-1.2058470249176025
1790263980149823000,7.673822998046875,-0.7067705392837524,-0.2467893660068512,-1.1875211000442505
1790263980167077600,7.69107763671875,-0.8552106618881226,-0.2003636509180069,-1.2290599346160889
1790263980184332500,7.70833251953125,-0.963333785533905,-0.17592905461788177,-1.2797616720199585
1790263980201587200,7.725587158203125,-0.9370665550231934,0.04825831577181816,-1.2034035921096802
1790263980218841900,7.742841796875,-0.8289434909820557,0.2669478952884674,-1.0867284536361694
1790263980236096800,7.7600966796875,-0.7935133576393127,0.5057960152626038,-0.9828814268112183
1790263980253351400,7.777351318359375,-0.880256175994873,0.4324922561645508,-0.842382550239563
1790263980270606000,7.794606201171875,-0.9217949509620667,0.38789913058280945,-0.6487383842468262
1790263980287861000,7.811861083984375,-0.831997811794281,0.41233372688293457,-0.44348782300949097
1790263980305115600,7.82911572265625,-0.6725621223449707,0.3756818473339081,-0.26939135789871216
1790263980322370300,7.846370361328125,-0.45998117327690125,0.3836230933666229,-0.11484257876873016
1790263980339625200,7.863625244140625,-0.19120067358016968,0.3652971386909485,0.004886918235570192
1790263980356880000,7.8808798828125,0.05497783049941063,0.5027416944503784,0.164322629570961
1790263980374134800,7.898134765625,0.23273947834968567,0.657290518283844,0.27000224590301514
1790263980391389400,7.915389404296875,0.34636032581329346,0.6407971382141113,0.2370155304670334
1790263980408644000,7.93264404296875,0.38789913058280945,0.6798924803733826,0.26878049969673157
1790263980425899000,7.94989892578125,0.44959646463394165,0.8002328872680664,0.35246896743774414
1790263980443153700,7.967153564453125,0.544891357421875,0.8295543789863586,0.4251618981361389
1790263980460408300,7.984408203125,0.6407971382141113,0.9486730098724365,0.5516108870506287
1790263980477663200,8.001663330078125,0.7018836140632629,1.0677915811538696,0.676227331161499
1790263980494918000,8.01891796875,0.7360920310020447,1.1246020793914795,0.8026763200759888
1790263980512172800,8.0361728515625,0.778241753578186,1.0421353578567505,0.962722897529602
1790263980529427500,8.053427490234375,0.8576541543006897,0.924238383769989,1.0512982606887817
1790263980546682000,8.07068212890625,0.9309579133987427,1.0024291276931763,1.1417062282562256
1790263980563937000,8.08793701171875,0.9731075763702393,0.9786053895950317,1.2137882709503174
1790263980581191700,8.105191650390625,1.018311619758606,0.9120211005210876,1.240666389465332
1790263980598446300,8.1224462890625,1.0488548278808594,0.915686309337616,1.288313865661621
1790263980615701200,8.139701171875,1.1111630201339722,0.8906408548355103,1.3029745817184448
1790263980632956000,8.156955810546876,1.1459823846817017,0.8069523572921753,1.3176352977752686
1790263980650210800,8.1742109375,1.1056652069091797,0.6841685771942139,1.3029745817184448
1790263980667465500,8.191465576171876,1.0458004474639893,0.6194168925285339,1.258992314338684
1790263980684720400,8.208720458984375,1.0311397314071655,0.5516108870506287,1.2388337850570679
1790263980701975000,8.22597509765625,1.0671807527542114,0.35674503445625305,1.2528836727142334
1790263980719229700,8.243229736328125,1.081230640411377,0.19669845700263977,1.3017528057098389
1790263980736484600,8.260484619140625,1.1050543785095215,0.23823726177215576,1.3518437147140503
1790263980753739300,8.2777392578125,1.164919137954712,0.27427828311920166,1.3335177898406982
1790263980770994200,8.294994140625,1.229670763015747,0.14538581669330597,1.2333359718322754
1790263980788248800,8.312248779296874,1.2999202013015747,0.18814635276794434,1.1753038167953491
1790263980805503500,8.32950341796875,1.334128737449646,0.205861434340477,1.1600322723388672
1790263980822758400,8.34675830078125,1.286481261253357,0.3042106628417969,1.138651967048645
1790263980840013000,8.364012939453126,1.2003493309020996,0.32009315490722656,1.0873392820358276
1790263980857268000,8.38126806640625,1.296255111694336,0.25473061203956604,1.074511170387268
1790263980874522600,8.398522705078125,1.433699607849121,0.0824667438864708,1.0390809774398804
1790263980891777300,8.41577734375,1.4043781757354736,-0.2156352698802948,1.0122029781341553
1790263980909032200,8.4330322265625,1.2815942764282227,-0.3585776388645172,0.924238383769989
1790263980926286800,8.450286865234375,1.2003493309020996,-0.16310089826583862,0.7531962990760803
1790263980943541500,8.46754150390625,1.1771364212036133,-0.09712749719619751,0.6725621223449707
1790263980960796400,8.48479638671875,1.145371437072754,-0.19914191961288452,0.6273581385612488
1790263980978051000,8.502051025390625,1.0439679622650146,-0.24006985127925873,0.618806004524231
1790263980995306000,8.519305908203124,1.008537769317627,-0.19914191961288452,0.5827649831771851
1790263981012560600,8.536560546875,0.9401208758354187,-0.06108647957444191,0.5705476999282837
1790263981029815300,8.553815185546876,0.9095776677131653,-0.12034036219120026,0.4825831651687622
1790263981047070200,8.5710703125,0.9071341753005981,-0.18692462146282196,0.3695732057094574
1790263981064324900,8.588324951171876,0.8173370957374573,-0.17165300250053406,0.29993459582328796
1790263981081579800,8.605579833984375,0.7171552777290344,-0.009773836471140385,0.27366742491722107
1790263981098834400,8.62283447265625,0.6646208763122559,0.15210533142089844,0.23273947834968567
1790263981116089300,8.64008935546875,0.5308414697647095,0.21197007596492767,0.17348559200763702
1790263981133344000,8.657343994140625,0.32131487131118774,0.0977383628487587,0.0873536616563797
1790263981150598700,8.6745986328125,0.08796452730894089,0.010384701192378998,0.04276053607463837
1790263981167853600,8.691853515625,-0.07391463965177536,-0.039706211537122726,-0.01588248461484909
1790263981185108200,8.709108154296874,-0.1594357043504715,-0.1802051067352295,-0.10629047453403473
1790263981202363100,8.726363037109374,-0.18570289015769958,-0.4630354940891266,-0.1948658674955368
1790263981219617800,8.74361767578125,-0.20647229254245758,-0.6860011219978333,-0.2724456787109375
1790263981236872400,8.76087255859375,-0.24862197041511536,-0.37812530994415283,-0.33047783374786377
1790263981254127400,8.77812744140625,-0.23457208275794983,0.028099779039621353,-0.41233372688293457
1790263981271382000,8.795382080078125,-0.20280711352825165,0.14477495849132538,-0.4428769648075104
1790263981288636700,8.81263671875,-0.12767073512077332,0.036651886999607086,-0.48563748598098755
1790263981305891600,8.8298916015625,-0.12644900381565094,-0.12400554865598679,-0.5424479246139526
1790263981323146200,8.847146240234375,-0.2577849328517914,-0.017715077847242355,-0.656679630279541
1790263981340401200,8.864401123046875,-0.4056142270565033,0.3072649836540222,-0.7672461867332458
1790263981357655800,8.88165576171875,-0.545502245426178,0.44837474822998047,-0.7874047160148621
1790263981374910500,8.898910400390625,-0.6768381595611572,0.3659079968929291,-0.7806851863861084
1790263981392165400,8.916165283203124,-0.7568614482879639,0.2315177470445633,-0.8643736839294434
1790263981409420000,8.933419921875,-0.7312051653862,0.22479823231697083,-0.9450078010559082
1790263981426675000,8.950675048828124,-0.7861829996109009,0.21502439677715302,-0.9938769936561584
1790263981443929600,8.9679296875,-0.8387173414230347,0.10384701192378998,-1.053741693496704
1790263981461184300,8.985184326171876,-0.7666352987289429,-0.09896009415388107,-1.2143992185592651
1790263981478439200,9.002439208984375,-0.675616443157196,-0.3445277214050293,-1.4288127422332764
1790263981495693800,9.01969384765625,-0.6847794055938721,-0.5057960152626038,-1.4465278387069702
1790263981512948700,9.03694873046875,-0.7098248600959778,-0.35796675086021423,-1.3573415279388428
1790263981530203400,9.054203369140625,-0.7079922556877136,-0.18631376326084137,-1.2651009559631348
1790263981547458000,9.0714580078125,-0.7324268817901611,-0.1539379209280014,-1.2345577478408813
1790263981564713000,9.088712890625,-0.8484911918640137,-0.30482152104377747,-1.349400281906128
1790263981581969400,9.105969482421875,-1.0702351331710815,-0.3659079968929291,-1.2431098222732544
1790263981599222500,9.123222412109374,-1.1685843467712402,-0.16554436087608337,-1.1349867582321167
1790263981616477200,9.140477294921874,-1.1331541538238525,-0.05192350596189499,-1.1441497802734375
1790263981633732000,9.157732177734376,-1.1044435501098633,-0.09346231073141098,-1.1496474742889404
1790263981650986800,9.17498681640625,-1.081230640411377,-0.24862197041511536,-1.156977891921997
1790263981668241400,9.192241455078126,-1.1142174005508423,-0.43432486057281494,-1.1936297416687012
1790263981685496300,9.209496337890625,-1.120326042175293,-0.7006618976593018,-1.2693769931793213
1790263981702751000,9.2267509765625,-1.0323615074157715,-0.9792162179946899,-1.3139700889587402
1790263981720006000,9.244005859375,-0.9272927641868591,-1.176525592803955,-1.386052131652832
1790263981737260500,9.261260498046875,-0.8686497211456299,-1.2663227319717407,-1.451414704322815
1790263981754515500,9.278515380859375,-0.841160774230957,-1.2638791799545288,-1.4306453466415405
1790263981771770000,9.29577001953125,-0.8014546036720276,-1.2986985445022583,-1.3946043252944946
1790263981789024800,9.313024658203124,-0.7922916412353516,-1.2180644273757935,-1.3090832233428955
1790263981806279700,9.33027978515625,-0.7977893948554993,-0.9407317638397217,-1.2180644273757935
1790263981823534300,9.347534423828124,-0.778241753578186,-0.6786707639694214,-1.1514800786972046
1790263981840789200,9.364789306640626,-0.7764091491699219,-0.5711585879325867,-1.0934479236602783
1790263981858044000,9.3820439453125,-0.7794634699821472,-0.49113526940345764,-1.0610721111297607
1790263981875298800,9.399298828125,-0.767857015132904,-0.5057960152626038,-1.0965023040771484
1790263981892553500,9.416553466796875,-0.730594277381897,-0.7379246354103088,-1.000596523284912
1790263981909808400,9.433808349609375,-0.7599157691001892,-0.6401863098144531,-0.7440332770347595
1790263981927063000,9.45106298828125,-0.7409789562225342,-0.13500112295150757,-0.7354812026023865
1790263981944317700,9.468317626953125,-0.49663305282592773,0.012217295356094837,-0.6536253094673157
1790263981961572600,9.485572509765625,-0.3390299379825592,-0.06841685622930527,-0.4318813979625702
1790263981978827300,9.5028271484375,-0.2675587832927704,0.13072505593299866,-0.2828303873538971
1790263981996082200,9.520082275390624,-0.26450446248054504,0.35613417625427246,-0.14477495849132538
1790263982013336800,9.5373369140625,-0.23273947834968567,0.4355465769767761,-0.03481929376721382
1790263982030591700,9.554591796875,-0.2003636509180069,0.5534434914588928,0.09896009415388107
1790263982047846400,9.571846435546876,-0.15027274191379547,0.5821541547775269,0.30970844626426697
1790263982065101300,9.589101318359376,-0.08368847519159317,0.6524035930633545,0.47586366534233093
1790263982082356000,9.60635595703125,0.021991131827235222,0.759304940700531,0.6414080262184143
1790263982099610600,9.623610595703125,0.13133592903614044,0.9327905178070068,0.8240565657615662
1790263982116865500,9.640865478515625,0.25045454502105713,1.0757328271865845,0.972496747970581
1790263982134120200,9.6581201171875,0.3127627670764923,1.1087195873260498,1.084285020828247
1790263982151375000,9.675375,0.3909534513950348,1.0677915811538696,1.2101231813430786
1790263982168629800,9.692629638671875,0.49968740344047546,1.0219768285751343,1.3481786251068115
1790263982185884400,9.709884521484375,0.6035344004631042,0.952949047088623,1.5387684106826782
1790263982203139300,9.727139404296874,0.665842592716217,0.9553925395011902,1.6621630191802979
1790263982220394000,9.74439404296875,0.7195987105369568,0.9480621218681335,1.7812817096710205
1790263982237649000,9.76164892578125,0.7794634699821472,1.0024291276931763,1.9181153774261475
1790263982254903600,9.778903564453126,0.831997811794281,1.018311619758606,2.006079912185669
1790263982272158500,9.796158447265626,0.8998038172721863,1.0128138065338135,2.059225082397461
1790263982289413000,9.8134130859375,0.953559935092926,0.962722897529602,2.0500621795654297
1790263982306668000,9.83066796875,0.9865466356277466,0.9572250843048096,2.0195188522338867
1790263982323922700,9.847922607421875,1.1227694749832153,1.045189619064331,1.962708592414856
1790263982341177300,9.86517724609375,1.321911334991455,1.0018181800842285,1.8686354160308838
1790263982358432300,9.882432373046875,1.4227041006088257,0.8283326625823975,1.7617340087890625
1790263982375687000,9.89968701171875,1.3891065120697021,0.535728394985199,1.592524528503418
1790263982392941800,9.91694189453125,1.3726131916046143,0.35613417625427246,1.3658936023712158
1790263982410196500,9.934196533203124,1.4379756450653076,0.3903425931930542,1.2479966878890991
1790263982427451400,9.951451416015624,1.4960078001022339,0.4618137776851654,1.26021409034729
1790263982444706000,9.9687060546875,1.5302162170410156,0.5491674542427063,1.284037709236145
1790263982461960700,9.985960693359376,1.563202977180481,0.5497782826423645,1.2357794046401978
1790263982479215600,10.003215576171876,1.5650355815887451,0.19914191961288452,1.0855066776275635
1790263982496470300,10.02047021484375,1.480736255645752,-0.23945899307727814,0.8906408548355103
1790263982513725200,10.03772509765625,1.357952356338501,-0.4630354940891266,0.6811142563819885
1790263982530979800,10.054979736328125,1.2651009559631348,-0.44898560643196106,0.462424635887146
1790263982548234800,10.07223486328125,1.1331541538238525,-0.5216785073280334,0.4043924808502197
1790263982565489400,10.089489501953125,0.9285144805908203,-0.565049946308136,0.4013381600379944
1790263982582744000,10.106744140625,0.7629700899124146,-0.3445277214050293,0.32131487131118774
1790263982599999000,10.1239990234375,0.6554579138755798,-0.12217295914888382,0.21685700118541718
1790263982617253600,10.141253662109374,0.5522217750549316,-0.12461641430854797,0.0769689604640007
1790263982634508500,10.158508544921874,0.4147771894931793,-0.1795942485332489,-0.033597562462091446
1790263982651763200,10.17576318359375,0.2669478952884674,-0.34636032581329346,-0.11545344442129135
1790263982669018000,10.19301806640625,0.1331685185432434,-0.4453204274177551,-0.16004657745361328
1790263982686272800,10.210272705078125,0.036651886999607086,-0.42882707715034485,-0.19303326308727264
1790263982703527400,10.22752734375,-0.025045456364750862,-0.32131487131118774,-0.2528980076313019
1790263982720782300,10.2447822265625,-0.08307760953903198,-0.1698204129934311,-0.37812530994415283
1790263982738037000,10.262037109375,-0.1740964651107788,-0.01588248461484909,-0.49480047821998596
1790263982755292000,10.2792919921875,-0.3066541254520416,0.16310089826583862,-0.5705476999282837
1790263982772546600,10.296546630859375,-0.4056142270565033,0.3836230933666229,-0.5858193039894104
1790263982789801500,10.313801513671875,-0.3903425931930542,0.4862483739852905,-0.5992583632469177
1790263982807056100,10.33105615234375,-0.360410213470459,0.5723803043365479,-0.6817250847816467
1790263982824311000,10.34831103515625,-0.45387253165245056,0.6579013466835022,-0.8301652073860168
1790263982841565700,10.365565673828126,-0.6731730103492737,0.6817250847816467,-0.9602794051170349
1790263982858820400,10.3828203125,-0.8454368710517883,0.5858193039894104,-0.9712749719619751
1790263982876075300,10.4000751953125,-0.9071341753005981,0.6963858604431152,-0.8985821008682251
1790263982893330000,10.417329833984375,-0.8808670043945312,0.8173370957374573,-0.7092140316963196
1790263982910584800,10.434584716796875,-0.8826996088027954,0.6609556674957275,-0.5161807537078857
1790263982927839500,10.451839599609375,-0.9547816514968872,0.3610210716724396,-0.5216785073280334
1790263982945094100,10.46909423828125,-1.0415244102478027,0.05253437161445618,-0.5876519083976746
1790263982962349000,10.48634912109375,-1.1252129077911377,-0.34574946761131287,-0.6078104376792908
1790263982979603700,10.503603759765625,-1.1062761545181274,-0.9089667797088623,-0.6395754218101501
1790263982996858600,10.520858642578125,-1.0702351331710815,-1.380554437637329,-0.7641918659210205
1790263983014113300,10.53811328125,-1.0421353578567505,-1.6035200357437134,-0.94439697265625
1790263983031368200,10.5553681640625,-0.9395100474357605,-1.6725478172302246,-1.0415244102478027
1790263983048622800,10.572622802734376,-0.7409789562225342,-1.6145156621932983,-1.1337649822235107
1790263983065877500,10.58987744140625,-0.6224712133407593,-1.693317174911499,-1.2895355224609375
1790263983083132400,10.60713232421875,-0.5534434914588928,-1.8032728433609009,-1.459966778755188
1790263983100387000,10.624386962890625,-0.38667741417884827,-1.7556253671646118,-1.543655276298523
1790263983117642000,10.64164208984375,-0.23029601573944092,-1.580307126045227,-1.5277727842330933
1790263983134896600,10.658896728515625,-0.2315177470445633,-1.5039490461349487,-1.5265511274337769
1790263983152151300,10.6761513671875,-0.23945899307727814,-1.323133111000061,-1.656665325164795
1790263983169406200,10.69340625,-0.27855435013771057,-1.3878847360610962,-1.7372994422912598
1790263983186660900,10.710660888671875,-0.3445277214050293,-1.2205078601837158,-1.6340632438659668
1790263983203915800,10.727915771484374,-0.5033525824546814,-0.7470875978469849,-1.5381574630737305
1790263983221170400,10.74517041015625,-0.5955931544303894,-0.5632173418998718,-1.6053526401519775
1790263983238425000,10.762425048828124,-0.5766563415527344,-0.6499601006507874,-1.5234967470169067
1790263983255680000,10.779679931640626,-0.5497782826423645,-0.4630354940891266,-1.5112794637680054
1790263983272934700,10.7969345703125,-0.5760455131530762,-0.3390299379825592,-1.6029092073440552
1790263983290189300,10.814189208984375,-0.7147117853164673,-0.4056142270565033,-1.5674790143966675
1790263983307444200,10.8314443359375,-0.7024945020675659,-0.28038692474365234,-1.3115266561508179
1790263983324699000,10.848698974609375,-0.5900954008102417,-0.18325942754745483,-1.1508692502975464
1790263983341953800,10.865953857421875,-0.49052441120147705,-0.12461641430854797,-1.0097594261169434
1790263983359208400,10.88320849609375,-0.4269944727420807,0.16737695038318634,-0.8093958497047424
1790263983376463400,10.90046337890625,-0.34697118401527405,0.5497782826423645,-0.5784889459609985
1790263983393718000,10.917718017578125,-0.24740023910999298,0.5082395076751709,-0.3182605504989624
1790263983410973000,10.934972900390624,-0.18203771114349365,0.5106829404830933,-0.014660755172371864
1790263983428227600,10.9522275390625,-0.04581485688686371,0.5949822664260864,0.36651885509490967
1790263983445482500,10.969482421875,0.20341797173023224,0.8057306408882141,0.6860011219978333
1790263983462737200,10.986737060546876,0.44959646463394165,0.8814778923988342,0.9505056142807007
1790263983479991800,11.00399169921875,0.6181951761245728,0.9938769936561584,1.1899645328521729
1790263983497246700,11.021246826171875,0.667064368724823,0.9590576887130737,1.3267983198165894
1790263983514501400,11.03850146484375,0.6065887212753296,0.9877683520317078,1.4758492708206177
1790263983531756300,11.05575634765625,0.5888736248016357,1.0946696996688843,1.6481131315231323
1790263983549011000,11.073010986328125,0.6609556674957275,0.9621120095252991,1.814879298210144
1790263983566265900,11.090265869140625,0.7312051653862,0.7819069027900696,1.9339978694915771
1790263983583520500,11.1075205078125,0.7373138070106506,0.7226530313491821,2.003636360168457
1790263983600775400,11.124775390625,0.6139190793037415,0.6420188546180725,2.0408992767333984
1790263983618030000,11.142030029296874,0.5418370366096497,0.5503891706466675,2.0604469776153564
1790263983635284700,11.15928466796875,0.5241219997406006,0.24251331388950348,2.0696098804473877
1790263983652539600,11.17653955078125,0.5962040424346924,0.03848448023200035,2.0518949031829834
1790263983669794300,11.193794189453126,0.7696896195411682,0.009773836471140385,2.0659446716308594
1790263983687049200,11.21104931640625,0.9211840629577637,0.023212861269712448,1.9394956827163696
1790263983704303900,11.228303955078125,0.9492838382720947,-0.1337793916463852,1.8161009550094604
1790263983721558800,11.245558837890625,0.9761618971824646,-0.14599667489528656,1.7470732927322388
1790263983738813400,11.2628134765625,1.0244202613830566,-0.10567960888147354,1.8032728433609009
1790263983756068400,11.280068359375,1.1197150945663452,-0.18631376326084137,1.7556253671646118
1790263983773323000,11.297322998046875,1.1026109457015991,-0.19425499439239502,1.637117624282837
1790263983790578000,11.314577880859375,1.1496474742889404,0.14721840620040894,1.6957606077194214
1790263983807832600,11.33183251953125,1.1117738485336304,0.45937031507492065,1.497840404510498
1790263983825087200,11.349087158203124,1.061682939529419,0.49052441120147705,1.4453060626983643
1790263983842342100,11.366342041015624,0.9291253089904785,0.2156352698802948,1.296255111694336
1790263983859596800,11.3835966796875,0.6823359727859497,-0.21441353857517242,1.065959095954895
1790263983876851700,11.400851806640626,0.4831940531730652,-0.34636032581329346,0.8045089244842529
1790263983894106400,11.4181064453125,0.4159989058971405,-0.3249800503253937,0.6035344004631042
1790263983911361300,11.435361328125,0.3084867000579834,-0.46364638209342957,0.574212908744812
1790263983928616000,11.452615966796875,0.17776164412498474,-0.6560688018798828,0.49541133642196655
1790263983945870800,11.469870849609375,0.01282816007733345,-0.7666352987289429,0.3225366175174713
1790263983963125500,11.48712548828125,-0.11056652665138245,-0.5962040424346924,0.13255766034126282
1790263983980380200,11.504380126953125,-0.3237583339214325,-0.3176496922969818,0.043982263654470444
1790263983997635000,11.521635009765625,-0.4569268524646759,-0.21930044889450073,0.09651663154363632
1790263984014889700,11.5388896484375,-0.3597993552684784,-0.23884813487529755,0.13622283935546875
1790263984032144600,11.55614453125,-0.1588248461484909,0.028099779039621353,0.06780599057674408
1790263984049399300,11.5733994140625,-0.05558869615197182,0.30054548382759094,-0.29565855860710144
1790263984066654200,11.590654296875,-0.22418737411499023,0.3390299379825592,-0.7165443897247314
1790263984083908900,11.607908935546876,-0.5607738494873047,0.3170388340950012,-0.841160774230957
1790263984101163500,11.62516357421875,-0.8545998334884644,0.2706131041049957,-0.7855721116065979
1790263984118418400,11.64241845703125,-0.9786053895950317,0.14599667489528656,-0.6640099883079529
1790263984135673000,11.659673095703125,-0.9749401807785034,0.7324268817901611,-0.7373138070106506
1790263984152928000,11.676927978515625,-0.8900299668312073,0.740368127822876,-1.0622938871383667
1790263984170182700,11.6941826171875,-0.9107993841171265,0.3029889166355133,-1.2229512929916382
1790263984187437600,11.7114375,-1.0152572393417358,-0.21258094906806946,-1.2327251434326172
1790263984204692200,11.728692138671875,-1.1331541538238525,-0.1649334877729416,-1.2986985445022583
1790263984221947100,11.745947021484374,-1.2095122337341309,0.1637117564678192,-1.4361430406570435
1790263984239201800,11.763201904296874,-1.2351685762405396,0.08307760953903198,-1.4929535388946533
1790263984256456400,11.78045654296875,-1.1722495555877686,-0.35796675086021423,-1.5033382177352905
1790263984273711400,11.79771142578125,-1.0286962985992432,-0.5332849621772766,-1.654221773147583
1790263984290966000,11.814966064453126,-0.9260709881782532,-0.5125155448913574,-1.777005672454834
1790263984308221000,11.832220947265625,-0.8765909671783447,-0.574212908744812,-1.823431372642517
1790263984325475600,11.8494755859375,-0.8668171167373657,-0.675616443157196,-1.8857395648956299
1790263984342730500,11.86673046875,-0.8582650423049927,-0.8124501705169678,-1.9749258756637573
1790263984359985200,11.883985107421875,-0.7776308655738831,-0.8649845123291016,-1.9572107791900635
1790263984377240000,11.901239990234375,-0.6872228980064392,-0.8381064534187317,-1.9535455703735352
1790263984394494700,11.91849462890625,-0.6542361974716187,-0.8533781170845032,-1.9089524745941162
1790263984411749600,11.93574951171875,-0.6872228980064392,-0.7709113359451294,-2.003636360168457
1790263984429004300,11.95300439453125,-0.7122683525085449,-0.7244856357574463,-2.0470077991485596
1790263984446259200,11.97025927734375,-0.6743947267532349,-0.5216785073280334,-1.8655810356140137
1790263984463513900,11.987513916015626,-0.6957749724388123,-0.20402882993221283,-1.722638726234436
1790263984480768800,12.004768798828126,-0.7538071274757385,-0.09590577334165573,-1.517388105392456
1790263984498023400,12.0220234375,-0.711046576499939,-0.20708316564559937,-1.3646719455718994
1790263984515278300,12.0392783203125,-0.5809323787689209,-0.07513637095689774,-1.2217295169830322
1790263984532533000,12.056532958984375,-0.47525280714035034,0.14049890637397766,-1.0793980360031128
1790263984549787600,12.07378759765625,-0.37751442193984985,0.1954767256975174,-0.7476984858512878
1790263984567042600,12.09104248046875,-0.33047783374786377,0.27855435013771057,-0.3811796307563782
1790263984584297200,12.108297119140625,-0.2052505612373352,0.3481929302215576,-0.043371398001909256
1790263984601552100,12.12555224609375,-0.020769402384757996,0.34574946761131287,0.27977606654167175
1790263984618806800,12.142806884765625,0.20158538222312927,0.3072649836540222,0.4917461574077606
1790263984636061700,12.160061767578124,0.47036588191986084,0.41233372688293457,0.7086031436920166
1790263984653316400,12.17731640625,0.720820426940918,0.46547895669937134,0.9639446139335632
1790263984670571300,12.1945712890625,0.9065233469009399,0.7281508445739746,1.1985167264938354
1790263984687826000,12.211825927734376,1.0488548278808594,0.9211840629577637,1.4746276140213013
1790263984705080800,12.229080810546876,1.1985167264938354,1.1136064529418945,1.7415754795074463
1790263984722335500,12.24633544921875,1.3371829986572266,1.4184280633926392,2.014631986618042
1790263984739590400,12.26359033203125,1.395825982093811,1.6450588703155518,2.1032073497772217
1790263984756845000,12.280844970703125,1.3548980951309204,1.722638726234436,2.117868185043335
1790263984774100000,12.298099853515625,1.2101231813430786,1.4996730089187622,2.023184061050415
1790263984791354600,12.315354736328125,1.1252129077911377,1.3939933776855469,1.9645410776138306
1790263984808609500,12.332609619140625,1.2437206506729126,1.398269534111023,2.022573232650757
1790263984825864200,12.3498642578125,1.4556907415390015,1.2565488815307617,1.9437717199325562
1790263984843118800,12.367118896484374,1.5497639179229736,0.9578359723091125,1.8106032609939575
1790263984860373800,12.384373779296874,1.6242893934249878,0.7128791809082031,1.6481131315231323
1790263984877628400,12.40162841796875,1.7140865325927734,0.5210676789283752,1.5833615064620972
1790263984894883300,12.41888330078125,1.7971642017364502,0.41844236850738525,1.6016874313354492
1790263984912138000,12.436137939453126,1.887572169303894,0.48563748598098755,1.5583161115646362
1790263984929393000,12.453392822265625,1.9291110038757324,0.573602020740509,1.4752384424209595
1790263984946647600,12.4706474609375,1.8631376028060913,0.42271843552589417,1.4117084741592407
1790263984963902500,12.48790234375,1.7318016290664673,0.23212862014770508,1.2162318229675293
1790263984981157000,12.5051572265625,1.6218459606170654,0.17715078592300415,0.9468404054641724
1790263984998412000,12.522412109375,1.6242893934249878,0.03237583488225937,0.7867938280105591
1790263985015666700,12.539666748046875,1.5693116188049316,-0.09896009415388107,0.7073814272880554
1790263985032921600,12.556921630859375,1.3457350730895996,0.12400554865598679,0.5516108870506287
1790263985050176300,12.57417626953125,1.0482439994812012,0.06536252796649933,0.23396120965480804
1790263985067431200,12.59143115234375,0.6536253094673157,-0.050090912729501724,-0.003665188793092966
1790263985084685800,12.608685791015626,0.32070401310920715,-0.3066541254520416,-0.19303326308727264
1790263985101940700,12.625940673828126,0.05253437161445618,-0.564439058303833,-0.430659681558609
1790263985119195400,12.6431953125,-0.13683371245861053,-0.6487383842468262,-0.656679630279541
1790263985136450300,12.6604501953125,-0.26878049969673157,-0.41355544328689575,-0.7373138070106506
1790263985153705000,12.677705078125,-0.3500255048274994,-0.056810423731803894,-0.6860011219978333
1790263985170960000,12.6949599609375,-0.3659079968929291,0.27550002932548523,-0.648127555847168
1790263985188214500,12.712214599609375,-0.4471530318260193,0.16676609218120575,-0.7195987105369568
1790263985205469400,12.729469482421875,-0.5772672295570374,0.21930044889450073,-0.9456186890602112
1790263985222724000,12.74672412109375,-0.730594277381897,-0.01954767294228077,-1.0952805280685425
1790263985239979000,12.76397900390625,-0.9694424271583557,-0.2614501118659973,-1.1710277795791626
1790263985257233700,12.781233642578124,-1.1246020793914795,-0.31459537148475647,-1.1869102716445923
1790263985274488600,12.798488525390624,-1.1325433254241943,-0.20708316564559937,-1.2742639780044556
1790263985291743200,12.8157431640625,-1.201570987701416,-0.143553227186203,-1.4477494955062866
1790263985308998100,12.832998046875,-1.3750566244125366,-0.3023780584335327,-1.620624303817749
1790263985326252800,12.850252685546875,-1.4862339496612549,-0.6530144214630127,-1.7342450618743896
1790263985343507700,12.8675078125,-1.426369309425354,-0.9694424271583557,-1.802051067352295
1790263985360762400,12.884762451171875,-1.2651009559631348,-0.9804379940032959,-1.8912373781204224
1790263985378017300,12.902017333984375,-1.1478148698806763,-0.9285144805908203,-1.8991786241531372
1790263985395272000,12.91927197265625,-1.0195332765579224,-0.9395100474357605,-1.821598768234253
1790263985412526800,12.93652685546875,-0.896138608455658,-0.9920443892478943,-1.805105447769165
1790263985429781500,12.953781494140625,-0.9993748068809509,-1.0592395067214966,-1.9285000562667847
1790263985447036400,12.971036376953125,-1.2137882709503174,-1.1392627954483032,-2.0292928218841553
1790263985464291000,12.988291015625,-1.464242935180664,-1.1050543785095215,-2.0555598735809326
1790263985481546000,13.0055458984375,-1.5705333948135376,-0.7250964641571045,-2.064723014831543
1790263985498800600,13.022800537109376,-1.5485422611236572,-0.667064368724823,-1.932165265083313
1790263985516055600,13.0400556640625,-1.3115266561508179,-0.8649845123291016,-1.7397428750991821
1790263985533310200,13.057310302734376,-1.1001675128936768,-0.7800742983818054,-1.6249003410339355
1790263985550565000,13.074565185546875,-1.0164790153503418,-0.46425724029541016,-1.5790854692459106
1790263985567819800,13.09181982421875,-0.9706641435623169,-0.2528980076313019,-1.3237439393997192
1790263985585074700,13.10907470703125,-0.924238383769989,-0.002443459117785096,-1.0769546031951904
1790263985602329300,13.126329345703125,-0.7984002828598022,0.24801109731197357,-0.7006618976593018
1790263985619584300,13.143584228515625,-0.5870410799980164,0.39889469742774963,-0.4740310609340668
1790263985636839000,13.1608388671875,-0.3659079968929291,0.3384190797805786,-0.23396120965480804
1790263985654093800,13.17809375,-0.15027274191379547,0.30543237924575806,0.06780599057674408
1790263985671348500,13.195348388671874,0.10506874322891235,0.5143481492996216,0.40317076444625854
1790263985688603400,13.212603271484374,0.35735589265823364,0.6126973628997803,0.6322450637817383
1790263985705858000,13.229858154296876,0.545502245426178,0.7971785664558411,0.9010255336761475
1790263985723113000,13.247113037109376,0.7336485981941223,1.0421353578567505,1.2180644273757935
1790263985740367600,13.26436767578125,0.8723149299621582,1.0506874322891235,1.4660754203796387
1790263985757622500,13.28162255859375,1.0134246349334717,1.1270455121994019,1.6621630191802979
1790263985774877200,13.298877197265625,1.1343759298324585,1.2437206506729126,1.7837251424789429
1790263985792132000,13.316132080078125,1.194240689277649,1.2315033674240112,1.868024468421936
1790263985809386800,13.33338671875,1.1710277795791626,1.183245062828064,1.925445795059204
1790263985826641700,13.3506416015625,1.1673625707626343,1.0769546031951904,2.0995421409606934
1790263985843896300,13.367896240234375,1.237612009048462,1.0128138065338135,2.2058327198028564
1790263985861151200,13.385151123046874,1.33290696144104,0.9798271059989929,2.2314889430999756
1790263985878406000,13.402406005859374,1.4019346237182617,0.9205732345581055,2.196669816970825
1790263985895660800,13.419660888671874,1.4343105554580688,0.9303470849990845,2.109316110610962
1790263985912915500,13.43691552734375,1.4538581371307373,0.8002328872680664,2.076329469680786
1790263985930170400,13.45417041015625,1.4935643672943115,0.6860011219978333,2.0598361492156982
1790263985947425300,13.47142529296875,1.6450588703155518,0.637742817401886,1.96148681640625
1790263985964680000,13.488679931640625,1.9230023622512817,0.675616443157196,1.7305799722671509
1790263985981934800,13.505934814453125,2.0836596488952637,0.4013381600379944,1.5693116188049316
1790263985999189500,13.523189453125,1.9181153774261475,0.0409279391169548,1.33290696144104
1790263986016444400,13.5404443359375,1.5204424858093262,0.13500112295150757,1.1362085342407227
1790263986033699000,13.557698974609375,1.3506220579147339,0.49968740344047546,0.8784235715866089
1790263986050953700,13.57495361328125,1.3292417526245117,0.6090322136878967,0.6035344004631042
1790263986068208600,13.592208740234375,1.191797137260437,0.22846342623233795,0.29138249158859253
1790263986085463600,13.609463623046874,0.9083559513092041,-0.3133736252784729,0.22235478460788727
1790263986102718200,13.62671826171875,0.6004800796508789,-0.5571087002754211,0.12156209349632263
1790263986119973000,13.64397314453125,0.33658650517463684,-0.5064069032669067,-0.11606431007385254
1790263986137227800,13.661227783203126,0.13072505593299866,-0.4355465769767761,-0.35674503445625305
1790263986154482700,13.678482666015626,-0.09712749719619751,-0.28527384996414185,-0.4838049113750458
1790263986171737300,13.6957373046875,-0.33597561717033386,-0.009162971749901772,-0.5827649831771851
1790263986188992300,13.7129921875,-0.5601630210876465,0.09468404203653336,-0.7098248600959778
1790263986206247000,13.730246826171875,-0.7770199775695801,0.009773836471140385,-0.8106175661087036
1790263986223501800,13.747501708984375,-0.9920443892478943,-0.1386663019657135,-0.8643736839294434
1790263986240756500,13.764756591796875,-1.1056652069091797,-0.19914191961288452,-0.9602794051170349
1790263986258011400,13.782011474609375,-1.137430191040039,-0.13561198115348816,-1.0855066776275635
1790263986275266000,13.79926611328125,-1.1490366458892822,-0.033597562462091446,-1.2266165018081665
1790263986292521000,13.81652099609375,-1.2241730690002441,0.03787361457943916,-1.3750566244125366
1790263986309775600,13.833775634765624,-1.3695588111877441,-0.07819069176912308,-1.4563016891479492
1790263986327030500,13.851030517578126,-1.4984513521194458,-0.2309068888425827,-1.3665045499801636
1790263986344285200,13.86828515625,-1.4624103307724,-0.46425724029541016,-1.2846486568450928
1790263986361540000,13.8855400390625,-1.3237439393997192,-0.6890554428100586,-1.4227041006088257
1790263986378795000,13.902794921875,-1.2345577478408813,-0.8826996088027954,-1.7751730680465698
1790263986396049700,13.920049560546875,-1.2541054487228394,-0.9920443892478943,-2.022573232650757
1790263986413304600,13.9373046875,-1.3585633039474487,-1.1789690256118774,-2.1050400733947754
1790263986430559200,13.954559326171875,-1.3561197519302368,-1.3567306995391846,-2.127031087875366
1790263986447814100,13.971814208984375,-1.2663227319717407,-1.1392627954483032,-2.10992693901062
1790263986465068800,13.98906884765625,-1.1710277795791626,-1.0152572393417358,-2.1325290203094482
1790263986482323700,14.00632373046875,-1.063515543937683,-1.250440239906311,-2.112370491027832
1790263986499578400,14.023578369140624,-1.0060943365097046,-0.9786053895950317,-2.160017967224121
1790263986516833300,14.040833251953124,-0.9474512934684753,-0.6646208763122559,-2.1135921478271484
1790263986534088000,14.058087890625,-0.8307760953903198,-0.6969966888427734,-1.9107850790023804
1790263986551342800,14.0753427734375,-0.7654135823249817,-0.5082395076751709,-1.7012584209442139
1790263986568597500,14.092597412109376,-0.7531962990760803,-0.16615521907806396,-1.4984513521194458
1790263986585852400,14.109852294921875,-0.6713404059410095,-0.05070177838206291,-1.2143992185592651
1790263986603107000,14.127107177734375,-0.5247328281402588,-0.028099779039621353,-0.80389803647995
1790263986620362000,14.144362060546875,-0.33108872175216675,0.22846342623233795,-0.49052441120147705
1790263986637617000,14.161616943359375,-0.11667517572641373,0.1893680840730667,-0.06963858753442764
1790263986654871600,14.17887158203125,0.059864748269319534,0.3194822669029236,0.3292561173439026
1790263986672126500,14.19612646484375,0.27855435013771057,0.3439168632030487,0.6200277805328369
1790263986689381000,14.213381103515625,0.4740310609340668,0.4318813979625702,0.8539889454841614
1790263986706636000,14.230635986328124,0.6603448390960693,0.5186241865158081,1.1197150945663452
1790263986723890700,14.247890625,0.8246674537658691,0.6041452884674072,1.3909391164779663
1790263986741145600,14.2651455078125,0.9217949509620667,0.7037162184715271,1.6377284526824951
1790263986758400300,14.282400146484376,0.9828814268112183,0.8155044913291931,1.8057162761688232
1790263986775655200,14.2996552734375,1.082452416419983,1.1013891696929932,1.9285000562667847
1790263986792909800,14.316909912109375,1.128878116607666,1.1881320476531982,1.9608759880065918
1790263986810164700,14.334164794921875,1.1294889450073242,1.063515543937683,2.092822790145874
1790263986827419400,14.35141943359375,1.2186752557754517,0.9395100474357605,2.173456907272339
1790263986844674300,14.36867431640625,1.4135410785675049,1.0207550525665283,2.078772783279419
1790263986861929000,14.385928955078125,1.5766420364379883,1.1056652069091797,1.9694280624389648
1790263986879184000,14.403183837890625,1.6591087579727173,0.9816597104072571,2.0299036502838135
1790263986896438800,14.420438720703125,1.7134757041931152,0.8277217745780945,2.10992693901062
1790263986913693400,14.437693359375,1.7397428750991821,0.7122683525085449,1.9346086978912354
1790263986930948400,14.4549482421875,1.701869249343872,0.7800742983818054,1.823431372642517
1790263986948203000,14.472203125,1.7189735174179077,0.7147117853164673,1.68354332447052
1790263986965458000,14.4894580078125,1.7959424257278442,0.4202749729156494,1.4605777263641357
1790263986982712600,14.506712646484376,1.8435899019241333,-0.001221729558892548,1.2809834480285645
1790263986999967500,14.523967529296876,1.7385212182998657,-0.24006985127925873,1.2712095975875854
1790263987017222400,14.541222412109375,1.5540399551391602,-0.1747073233127594,1.2541054487228394
1790263987034477000,14.55847705078125,1.3206896781921387,-0.19181154668331146,0.9615011811256409
1790263987051732000,14.57573193359375,0.9718858599662781,-0.32559093832969666,0.44898560643196106
1790263987068986600,14.592986572265625,0.564439058303833,-0.5082395076751709,0.28954991698265076
1790263987086241500,14.610241455078125,0.19730933010578156,-0.6493492722511292,0.2522871494293213
1790263987103496200,14.62749609375,-0.14599667489528656,-0.4734202027320862,0.12156209349632263
1790263987120751000,14.644751220703125,-0.36285367608070374,-0.23762640357017517,-0.16676609218120575
1790263987138005800,14.662005859375,-0.5161807537078857,-0.15271618962287903,-0.4819723069667816
1790263987155260700,14.6792607421875,-0.7476984858512878,-0.15821397304534912,-0.5290089249610901
1790263987172515600,14.696515625,-0.8619301915168762,-0.21746785938739777,-0.45937031507492065
1790263987189770200,14.713770263671876,-0.8765909671783447,-0.35063639283180237,-0.5131264328956604
1790263987207025200,14.731025146484376,-0.934623122215271,-0.3952295184135437,-0.831997811794281
1790263987224279800,14.74827978515625,-1.0720677375793457,-0.2632827162742615,-1.2583814859390259
1790263987241534700,14.76553466796875,-1.1557561159133911,-0.19792018830776215,-1.4495820999145508
1790263987258789400,14.782789306640625,-1.1270455121994019,-0.36163195967674255,-1.4782928228378296
1790263987276044300,14.800044189453125,-1.043357014656067,-0.5155698657035828,-1.5393792390823364
1790263987293299000,14.817298828125,-1.0213658809661865,-0.5662716627120972,-1.6994258165359497
1790263987310553900,14.834553955078125,-1.0855066776275635,-0.5351175665855408,-1.8069380521774292
1790263987327808800,14.851808837890625,-1.2302817106246948,-0.4355465769767761,-1.8802417516708374
1790263987345063400,14.8690634765625,-1.3127484321594238,-0.32681265473365784,-1.8887939453125
1790263987362318300,14.886318359375,-1.284037709236145,-0.35185810923576355,-1.7886121273040771
1790263987379573000,14.903572998046876,-1.2626575231552124,-0.7654135823249817,-1.8839069604873657
1790263987396828000,14.920827880859376,-1.3261874914169312,-1.303585410118103,-2.143524408340454
1790263987414082600,14.93808251953125,-1.4324779510498047,-1.3842196464538574,-2.3451099395751953
1790263987431337500,14.95533740234375,-1.4312561750411987,-1.0238093137741089,-2.411083221435547
1790263987448592100,14.972592041015625,-1.3023637533187866,-0.880256175994873,-2.1416919231414795
1790263987465847000,14.989846923828125,-1.1447606086730957,-0.8081740736961365,-1.8081597089767456
1790263987483102000,15.00710205078125,-0.9107993841171265,-0.3194822669029236,-1.6444480419158936
1790263987500356600,15.024356689453125,-0.7385355234146118,0.2632827162742615,-1.2516618967056274
1790263987517611500,15.041611572265625,-0.6579013466835022,0.49541133642196655,-1.0739002227783203
1790263987534866200,15.0588662109375,-0.7098248600959778,0.059864748269319534,-1.2003493309020996
1790263987552121000,15.07612109375,-0.8552106618881226,-0.04459312930703163,-1.0610721111297607
1790263987569375700,15.093375732421874,-0.7916807532310486,-0.006719512399286032,-0.7434224486351013
1790263987586630700,15.110630615234374,-0.6114756464958191,0.08307760953903198,-0.38850998878479004
1790263987603885600,15.127885498046876,-0.4453204274177551,0.21746785938739777,0.043371398001909256
1790263987621140200,15.14514013671875,-0.28038692474365234,0.29626941680908203,0.4740310609340668
1790263987638395100,15.16239501953125,-0.06108647957444191,0.40744680166244507,0.861319363117218
1790263987655649800,15.17964990234375,0.26939135789871216,0.5338957905769348,1.2046253681182861
1790263987672904700,15.19690478515625,0.593149721622467,0.6695078015327454,1.4917317628860474
1790263987690159400,15.214159423828125,0.8002328872680664,0.8057306408882141,1.728136420249939
1790263987707414300,15.231414306640625,0.9370665550231934,0.9236275553703308,1.841146469116211
1790263987724669200,15.248669189453125,1.0409135818481445,1.0512982606887817,1.9456043243408203
1790263987741923800,15.265923828125,1.119104266166687,0.9792162179946899,2.1221442222595215
1790263987759178800,15.2831787109375,1.2064579725265503,0.8289434909820557,2.196669816970825
1790263987776433400,15.300433349609374,1.2742639780044556,0.8625410795211792,2.341444730758667
1790263987793688300,15.317688232421874,1.398269534111023,0.9462295174598694,2.5027129650115967
1790263987810943200,15.334943115234376,1.536935806274414,0.7562506198883057,2.494771718978882
1790263987828198000,15.352197998046876,1.592524528503418,0.4929678738117218,2.5528039932250977
1790263987845452800,15.369452880859376,1.61085045337677,0.5351175665855408,2.640768527984619
1790263987862707500,15.38670751953125,1.7238603830337524,0.9602794051170349,2.403141975402832
1790263987879962400,15.40396240234375,1.8240422010421753,1.1624757051467896,1.9871431589126587
1790263987897217000,15.421217041015625,1.9364413022994995,0.7562506198883057,1.8442007303237915
1790263987914472000,15.438471923828125,2.0439536571502686,0.2932150959968567,1.709810495376587
1790263987931726800,15.455726806640625,1.9620976448059082,0.18264856934547424,1.395825982093811
1790263987948981500,15.4729814453125,1.7201951742172241,0.15577052533626556,1.1337649822235107
1790263987966236400,15.490236328125,1.4373648166656494,-0.18753549456596375,0.7996219992637634
1790263987983491000,15.507490966796874,1.0054833889007568,-0.49480047821998596,0.3958403766155243
1790263988000746000,15.52474609375,0.5418370366096497,-0.46975502371788025,0.0824667438864708
1790263988018001000,15.5420009765625,0.13439024984836578,-0.26450446248054504,-0.1380554437637329
1790263988035255600,15.559255615234376,-0.1997527778148651,-0.3659079968929291,-0.21380266547203064
1790263988052510500,15.576510498046876,-0.3811796307563782,-0.6175842881202698,-0.19120067358016968
1790263988069765000,15.59376513671875,-0.4838049113750458,-0.6218603253364563,-0.1844811588525772
1790263988087020000,15.61102001953125,-0.5503891706466675,-0.33719736337661743,-0.23396120965480804
1790263988104275000,15.62827490234375,-0.6273581385612488,-0.10323614627122879,-0.4001164436340332
1790263988121529600,15.645529541015625,-0.675616443157196,-0.13683371245861053,-0.7709113359451294
1790263988138784500,15.662784423828125,-0.6860011219978333,-0.29138249158859253,-1.2742639780044556
1790263988156039200,15.6800390625,-0.7770199775695801,-0.28588470816612244,-1.6682716608047485
1790263988173294000,15.697294189453125,-0.9834923148155212,-0.05497783049941063,-1.7892229557037354
1790263988190549000,15.714549072265624,-1.2455532550811768,0.19792018830776215,-1.6249003410339355
1790263988207803600,15.7318037109375,-1.3439024686813354,0.29443681240081787,-1.6536109447479248
1790263988225058600,15.74905859375,-1.2705987691879272,0.23823726177215576,-1.9132285118103027
1790263988242313200,15.766313232421876,-1.1948515176773071,-0.06963858753442764,-2.0445644855499268
1790263988259568000,15.783568115234376,-1.2070688009262085,-0.4422661066055298,-2.2235476970672607
1790263988276823000,15.800822998046876,-1.3261874914169312,-0.7629700899124146,-2.478278398513794
1790263988294077700,15.81807763671875,-1.5198315382003784,-0.8936951756477356,-2.553414821624756
1790263988311332600,15.83533251953125,-1.6236785650253296,-0.8142827749252319,-2.402531147003174
1790263988328587500,15.85258740234375,-1.5650355815887451,-1.071456789970398,-2.1416919231414795
1790263988345842200,15.86984228515625,-1.4080432653427124,-1.3322961330413818,-1.9718714952468872
1790263988363097000,15.88709716796875,-1.239444613456726,-1.2479966878890991,-2.0341796875
1790263988380351700,15.904351806640625,-1.1325433254241943,-0.8576541543006897,-2.191171884536743
1790263988397606700,15.921606689453125,-1.1111630201339722,-0.4422661066055298,-2.0995421409606934
1790263988414861600,15.938861572265624,-0.9908226728439331,-0.37751442193984985,-1.729358196258545
1790263988432116200,15.9561162109375,-0.8979712128639221,-0.2657261788845062,-1.5008947849273682
1790263988449371100,15.97337109375,-0.7458658814430237,0.000610864779446274,-1.2760965824127197
1790263988466625800,15.990625732421876,-0.555276095867157,0.20769402384757996,-1.0739002227783203
1790263988483880700,16.007880615234374,-0.5290089249610901,0.17287473380565643,-0.7916807532310486
1790263988501135600,16.025135498046875,-0.5668824911117554,0.3964512348175049,-0.4068359434604645
1790263988518390300,16.042390380859374,-0.3799578845500946,0.3695732057094574,-0.07391463965177536
1790263988535645200,16.059645263671875,-0.0873536616563797,0.35613417625427246,0.3451386094093323
1790263988552899800,16.07689990234375,0.21991132199764252,0.4318813979625702,0.7733548283576965
1790263988570154800,16.09415478515625,0.4886918365955353,0.5900954008102417,1.1478148698806763
1790263988587409700,16.11140966796875,0.6817250847816467,0.7574723362922668,1.4685189723968506
1790263988604664300,16.128664306640626,0.8295543789863586,0.8374956250190735,1.7434080839157104
1790263988621919200,16.145919189453124,0.9321796298027039,0.8619301915168762,1.9022328853607178
1790263988639174000,16.163173828125,0.9963204264640808,1.05496346950531,1.9938626289367676
1790263988656428800,16.1804287109375,1.0060943365097046,1.1618647575378418,2.0549490451812744
1790263988673683700,16.19768359375,1.0470222234725952,1.2003493309020996,2.1704025268554688
1790263988690938400,16.2149384765625,1.164919137954712,1.0702351331710815,2.2259912490844727
1790263988708193300,16.232193359375,1.37078058719635,0.7092140316963196,2.310901403427124
1790263988725448200,16.2494482421875,1.6536109447479248,0.2156352698802948,2.294408082962036
1790263988742702800,16.266702880859373,1.868024468421936,-0.11606431007385254,2.2956297397613525
1790263988759957800,16.283957763671875,1.9456043243408203,-0.018325943499803543,2.4043638706207275
1790263988777212700,16.301212646484377,2.0244059562683105,0.481361448764801,2.637103319168091
1790263988794467300,16.31846728515625,2.1160356998443604,1.0427461862564087,2.5686864852905273
1790263988811722200,16.33572216796875,2.0977096557617188,1.293811559677124,2.1893393993377686
1790263988828977000,16.352976806640626,1.9480477571487427,1.1966841220855713,1.7256929874420166
1790263988846231800,16.370231689453124,1.7690644264221191,0.7666352987289429,1.3347395658493042
1790263988863486700,16.38748681640625,1.5772528648376465,0.4923570156097412,1.0311397314071655
1790263988880741400,16.404741455078124,1.3671153783798218,0.1545487940311432,0.565049946308136
1790263988897996300,16.421996337890626,1.0348049402236938,-0.0409279391169548,0.1997527778148651
1790263988915251000,16.4392509765625,0.6505709886550903,-0.3231474757194519,-0.006719512399286032
1790263988932505900,16.456505859375,0.21868959069252014,-0.5351175665855408,-0.2364046722650528
1790263988949760800,16.4737607421875,-0.08429934084415436,-0.46425724029541016,-0.3707949221134186
1790263988967015400,16.491015380859373,-0.2571740746498108,-0.19669845700263977,-0.472198486328125
1790263988984270300,16.508270263671875,-0.40927940607070923,0.031154103577136993,-0.6298015713691711
1790263989001525000,16.52552490234375,-0.593149721622467,0.10751219838857651,-0.7562506198883057
1790263989018780000,16.54277978515625,-0.7055488228797913,-0.08552107214927673,-0.880256175994873
1790263989036034800,16.560034912109376,-0.7874047160148621,-0.4013381600379944,-1.0415244102478027
1790263989053289500,16.57728955078125,-0.9407317638397217,-0.5393936038017273,-1.2534945011138916
1790263989070544400,16.59454443359375,-1.1600322723388672,-0.5387827157974243,-1.4911209344863892
1790263989087799300,16.61179931640625,-1.380554437637329,-0.42332929372787476,-1.6762129068374634
1790263989105054000,16.629053955078124,-1.5430444478988647,-0.3384190797805786,-1.8252639770507812
1790263989122308900,16.646308837890626,-1.6530001163482666,-0.41844236850738525,-1.9669846296310425
1790263989139563500,16.6635634765625,-1.6420044898986816,-0.6352993845939636,-2.0048582553863525
1790263989156818400,16.680818359375,-1.5320488214492798,-0.7312051653862,-2.0024147033691406
1790263989174073300,16.6980732421875,-1.4483604431152344,-0.5687150955200195,-2.1581852436065674
1790263989191327700,16.71532763671875,-1.4489712715148926,-0.8668171167373657,-2.302960157394409
1790263989208583000,16.7325830078125,-1.499062180519104,-1.1924080848693848,-2.3762640953063965
1790263989225837800,16.749837890625,-1.452636480331421,-0.7312051653862,-2.506378173828125
1790263989243092500,16.767092529296875,-1.3390156030654907,-0.5369501113891602,-2.3903138637542725
1790263989260347400,16.784347412109376,-1.2583814859390259,-0.9395100474357605,-2.196058988571167
1790263989277602300,16.801602294921874,-1.2339468002319336,-1.0690133571624756,-2.178954601287842
1790263989294857000,16.81885693359375,-1.145371437072754,-0.7996219992637634,-2.1917827129364014
1790263989312111900,16.83611181640625,-0.9639446139335632,-0.80389803647995,-1.9175045490264893
1790263989329366800,16.85336669921875,-0.7990111112594604,-0.7232639193534851,-1.6713260412216187
1790263989346621400,16.870621337890626,-0.7116574645042419,-0.37751442193984985,-1.3561197519302368
1790263989363876400,16.88787646484375,-0.6291907429695129,-0.16859868168830872,-0.9657772183418274
1790263989381131000,16.905131103515625,-0.5345066785812378,0.04886918142437935,-0.536339282989502
1790263989398386000,16.922385986328123,-0.3445277214050293,0.235793799161911,-0.06230820715427399
1790263989415640800,16.939640869140625,-0.16065743565559387,0.3634645342826843,0.4514290690422058
1790263989432895500,16.9568955078125,0.08124501258134842,0.5436696410179138,0.9211840629577637
1790263989450150100,16.974150146484376,0.40317076444625854,0.6707295179367065,1.2846486568450928
1790263989467404800,16.99140478515625,0.7244856357574463,0.7562506198883057,1.6084070205688477
1790263989484659700,17.00865966796875,0.9847140312194824,0.9028581380844116,1.9297218322753906
1790263989501914400,17.025914306640626,1.1490366458892822,1.0341941118240356,2.1471896171569824
1790263989519169300,17.043169189453124,1.2247838973999023,1.148425817489624,2.4269657135009766
1790263989536424000,17.060423828125,1.3078614473342896,1.2626575231552124,2.6090035438537598
1790263989553678800,17.077678955078124,1.3445134162902832,1.2046253681182861,2.7201807498931885
1790263989570933500,17.09493359375,1.3964369297027588,1.1227694749832153,2.7757694721221924
1790263989588188400,17.1121884765625,1.464242935180664,0.9615011811256409,2.8209736347198486
1790263989605443000,17.129443115234373,1.5051708221435547,0.9816597104072571,2.7171266078948975
1790263989622698000,17.146697998046875,1.4856231212615967,1.1820234060287476,2.456287384033203
1790263989639952600,17.16395263671875,1.525940179824829,1.4282019138336182,2.1972806453704834
1790263989657207600,17.18120751953125,1.747684121131897,1.3115266561508179,2.084881544113159
1790263989674462500,17.19846240234375,2.0182971954345703,0.8362739086151123,1.944993495941162
1790263989691717000,17.215717041015626,2.1251986026763916,0.536339282989502,1.6383392810821533
1790263989708972000,17.232971923828124,2.0018038749694824,0.5161807537078857,1.4300343990325928
1790263989726226700,17.250226806640626,1.8771874904632568,0.49968740344047546,1.3151918649673462
1790263989743481600,17.267481689453124,1.795331597328186,0.4428769648075104,1.1447606086730957
1790263989760736300,17.284736328125,1.620624303817749,0.185092031955719,0.7018836140632629
1790263989777991200,17.3019912109375,1.266933560371399,-0.023212861269712448,0.14049890637397766
1790263989795245800,17.319245849609374,0.7690787315368652,-0.08552107214927673,-0.08674279600381851
1790263989812500700,17.336500732421875,0.27488914132118225,-0.1288924664258957,-0.23518294095993042
1790263989829755400,17.35375537109375,-0.08307760953903198,-0.030543239787220955,-0.41294458508491516
1790263989847010300,17.37101025390625,-0.3078758418560028,0.0824667438864708,-0.6041452884674072
1790263989864265200,17.38826513671875,-0.5057960152626038,0.17104214429855347,-0.7006618976593018
1790263989881520400,17.405520263671875,-0.7990111112594604,0.1948658674955368,-0.729983389377594
1790263989898775300,17.422775390625,-0.9950987100601196,0.14721840620040894,-0.7855721116065979
1790263989916030200,17.4400302734375,-1.0348049402236938,-0.009773836471140385,-0.963333785533905
1790263989933285400,17.457285400390624,-1.0708459615707397,-0.1893680840730667,-1.2034035921096802
1790263989950540300,17.474540283203126,-1.155145287513733,-0.37751442193984985,-1.4110976457595825
1790263989967795000,17.491794921875,-1.3054180145263672,-0.4557051360607147,-1.6688826084136963
1790263989985049900,17.5090498046875,-1.4746276140213013,-0.33719736337661743,-1.9914191961288452
1790263990002304500,17.526304443359376,-1.5894701480865479,-0.14599667489528656,-2.1746785640716553
1790263990019559400,17.543559326171874,-1.592524528503418,-0.268169641494751,-2.229656457901001
1790263990036814000,17.56081396484375,-1.5106686353683472,-0.6817250847816467,-2.349385976791382
1790263990054069000,17.578069091796873,-1.515555500984192,-0.9114102721214294,-2.500269651412964
1790263990071323600,17.59532373046875,-1.5515965223312378,-0.9474512934684753,-2.543030023574829
1790263990088578600,17.61257861328125,-1.50028395652771,-1.2131774425506592,-2.5631885528564453
1790263990105833200,17.629833251953126,-1.3921607732772827,-1.7873903512954712,-2.5802929401397705
1790263990123088100,17.647088134765625,-1.2608249187469482,-1.8387030363082886,-2.6810855865478516
1790263990140343000,17.664343017578126,-1.2003493309020996,-1.4581341743469238,-2.81119966506958
1790263990157597700,17.68159765625,-1.1856884956359863,-1.2168426513671875,-2.651763916015625
1790263990174852600,17.6988525390625,-1.0989457368850708,-1.249218463897705,-2.2540910243988037
1790263990192107300,17.716107177734376,-0.9181297421455383,-1.3628393411636353,-1.813657522201538
1790263990209362200,17.733362060546874,-0.7269290685653687,-0.9651663303375244,-1.5387684106826782
1790263990226616800,17.750616943359375,-0.6139190793037415,-0.535728394985199,-1.1789690256118774
1790263990243871700,17.767871826171874,-0.5491674542427063,-0.3029889166355133,-0.7660244107246399
1790263990261126700,17.785126708984375,-0.49418962001800537,0.09040798991918564,-0.3591884970664978
1790263990278381800,17.8023818359375,-0.41783151030540466,0.3995055556297302,0.1386663019657135
1790263990295636700,17.81963671875,-0.27427828311920166,0.3298669755458832,0.6450732350349426
1790263990312891600,17.8368916015625,-0.10201441496610641,0.43921178579330444,1.1166608333587646
1790263990330146800,17.854146728515627,0.16126830875873566,0.5283980369567871,1.5387684106826782
1790263990347401700,17.871401611328125,0.43310311436653137,0.5662716627120972,1.943160891532898
1790263990364656400,17.888656494140626,0.6298015713691711,0.7770199775695801,2.266308307647705
1790263990381911300,17.905911376953124,0.7666352987289429,1.000596523284912,2.4660611152648926
1790263990399166000,17.923166015625,0.833219587802887,1.1282672882080078,2.5332562923431396
1790263990416420900,17.9404208984375,0.8753692507743835,1.0329723358154297,2.682307243347168
1790263990433675500,17.957675537109374,0.9187406301498413,0.963333785533905,2.752556800842285
1790263990450930400,17.974930419921876,0.9926552772521973,0.9181297421455383,2.6969680786132812
1790263990468185000,17.99218505859375,1.155145287513733,0.8051197528839111,2.6951353549957275
1790263990485440000,18.00943994140625,1.386052131652832,0.7415898442268372,2.7085745334625244
1790263990502694700,18.026694580078125,1.598022222518921,0.7263182401657104,2.6334381103515625
1790263990519949600,18.043949462890627,1.6982040405273438,0.6322450637817383,2.4581198692321777
1790263990537204200,18.061204345703125,1.8393138647079468,0.4978547990322113,2.238208532333374
1790263990554459400,18.07845947265625,1.9394956827163696,0.20769402384757996,1.9382739067077637
1790263990571714300,18.09571435546875,1.9425499439239502,-0.03481929376721382,1.7372994422912598
1790263990588969200,18.11296923828125,1.8851287364959717,-0.08063415437936783,1.6462805271148682
1790263990606224400,18.130224365234376,1.852752923965454,-0.07574722915887833,1.4495820999145508
1790263990623479300,18.147479248046874,1.6187916994094849,0.05558869615197182,1.1954623460769653
1790263990640734200,18.164734130859376,1.2180644273757935,0.2730565667152405,0.9315688014030457
1790263990657988900,18.18198876953125,0.832608699798584,0.5247328281402588,0.6432406306266785
1790263990675243500,18.199243408203124,0.471587598323822,0.6542361974716187,0.2938259541988373
1790263990692498400,18.21649853515625,0.06291907280683517,0.3585776388645172,-0.04581485688686371
1790263990709753300,18.23375341796875,-0.23518294095993042,0.011606430634856224,-0.2932150959968567
1790263990727008000,18.251008056640625,-0.500298261642456,0.05803215503692627,-0.389120876789093
1790263990744263000,18.268262939453123,-0.7727439403533936,0.3035998046398163,-0.39217519760131836
1790263990761517600,18.285517578125,-0.9706641435623169,0.42882707715034485,-0.4276053309440613
1790263990778772500,18.3027724609375,-1.0739002227783203,0.29504770040512085,-0.5528326034545898
1790263990796027100,18.320027099609376,-1.025641918182373,0.05436696484684944,-0.8057306408882141
1790263990813282000,18.337281982421874,-1.028085470199585,-0.23335035145282745,-1.1038326025009155
1790263990830536700,18.35453662109375,-1.2290599346160889,-0.47036588191986084,-1.3634501695632935
1790263990847791600,18.37179150390625,-1.4929535388946533,-0.5106829404830933,-1.694538950920105
1790263990865046500,18.389046630859376,-1.7501275539398193,-0.3744601011276245,-1.8839069604873657
1790263990882301700,18.4063017578125,-1.9388848543167114,-0.19853104650974274,-1.9297218322753906
1790263990899556600,18.423556640625,-1.9663736820220947,-0.27488914132118225,-2.0042474269866943
1790263990916811500,18.4408115234375,-1.8197661638259888,-0.5119046568870544,-2.1251986026763916
1790263990934066700,18.458066650390624,-1.6963714361190796,-0.767857015132904,-2.202167510986328
1790263990951321600,18.475321533203125,-1.6731586456298828,-0.9492838382720947,-2.288910388946533
1790263990968576300,18.492576171875,-1.6578869819641113,-1.3555089235305786,-2.3823726177215576
1790263990985831200,18.5098310546875,-1.571755051612854,-1.5888593196868896,-2.4019203186035156
1790263991003085800,18.5270859375,-1.4312561750411987,-1.1600322723388672,-2.436128854751587
1790263991020340700,18.5443408203125,-1.240666389465332,-1.0348049402236938,-2.397033452987671
1790263991037595400,18.561595458984375,-1.1068869829177856,-0.9883792400360107,-2.1581852436065674
1790263991054850300,18.578850341796876,-0.9639446139335632,-0.5699368119239807,-2.0274600982666016
1790263991072105000,18.59610498046875,-0.8002328872680664,-0.29443681240081787,-1.7495167255401611
1790263991089360000,18.61335986328125,-0.7195987105369568,-0.020158538594841957,-1.3206896781921387
1790263991106614500,18.630614501953126,-0.6071996092796326,0.14599667489528656,-0.9657772183418274
1790263991123869400,18.647869384765624,-0.3946186602115631,0.10873392969369888,-0.565049946308136
1790263991141124000,18.6651240234375,-0.21380266547203064,0.09834922850131989,-0.1441640853881836
1790263991158379300,18.682379150390624,-0.05497783049941063,0.3799578845500946,0.25350889563560486
1790263991175634200,18.69963427734375,0.24923282861709595,0.6249146461486816,0.7568614482879639
1790263991192889300,18.716889404296875,0.6023126840591431,0.7910698652267456,1.219896912574768
1790263991210144300,18.734144287109373,0.9065233469009399,0.9230166673660278,1.5796962976455688
1790263991227399200,18.751399169921875,1.0653481483459473,0.9260709881782532,1.8655810356140137
1790263991244654000,18.768654052734377,1.239444613456726,1.323133111000061,2.0751075744628906
1790263991261909000,18.785908935546875,1.3158026933670044,1.1459823846817017,2.1197006702423096
1790263991279163600,18.80316357421875,1.3206896781921387,1.2693769931793213,2.199723958969116
1790263991296418600,18.82041845703125,1.3915499448776245,1.40559983253479,2.324340581893921
1790263991313673200,18.837673095703124,1.5748094320297241,1.53510320186615,2.4459025859832764
1790263991330928000,18.85492822265625,1.8087706565856934,1.6975932121276855,2.3652684688568115
1790263991348183000,18.87218310546875,1.9187263250350952,1.821598768234253,2.1606287956237793
1790263991365437700,18.889437744140626,1.9578216075897217,1.8906265497207642,2.0628902912139893
1790263991382692600,18.906692626953124,2.03723406791687,1.7861685752868652,2.0531165599823
1790263991399947300,18.923947265625,2.2345433235168457,1.7788382768630981,1.884517788887024
1790263991417202200,18.9412021484375,2.3438880443573,1.546709656715393,1.6249003410339355
1790263991434456800,18.958456787109377,2.282801628112793,1.0598503351211548,1.3952151536941528
1790263991451711700,18.975711669921875,2.1019856929779053,0.370184063911438,1.2070688009262085
1790263991468967000,18.992966796875,1.7751730680465698,0.04581485688686371,0.9694424271583557
1790263991486221800,19.010221923828126,1.3750566244125366,-0.06230820715427399,0.6554579138755798
1790263991503476700,19.027476806640625,1.0390809774398804,-0.22785256803035736,0.27550002932548523
1790263991520732000,19.04473193359375,0.6872228980064392,-0.411722868680954,-0.004276053514331579
1790263991537986800,19.06198681640625,0.35796675086021423,-0.17165300250053406,-0.16554436087608337
1790263991555241500,19.079241455078126,0.10445787757635117,0.11423171311616898,-0.318871408700943
1790263991572496400,19.096496337890624,-0.14294235408306122,0.07635809481143951,-0.430659681558609
1790263991589751000,19.1137509765625,-0.3555232882499695,0.07024945318698883,-0.5155698657035828
1790263991607006000,19.131005859375,-0.5577195286750793,0.07635809481143951,-0.5907062292098999
1790263991624260600,19.148260498046874,-0.7330377101898193,-0.0054977829568088055,-0.6511818766593933
1790263991641515500,19.165515625,-0.8747583627700806,-0.2809978127479553,-0.7281508445739746
1790263991658770400,19.1827705078125,-0.9871574640274048,-0.5937605500221252,-0.9352339506149292
1790263991676025300,19.200025390625,-1.1160500049591064,-0.6169734001159668,-1.1936297416687012
1790263991693280500,19.217280517578125,-1.29503333568573,-0.48502662777900696,-1.4575233459472656
1790263991710535400,19.234535400390627,-1.5106686353683472,-0.37201663851737976,-1.737910270690918
1790263991727790600,19.25179052734375,-1.7238603830337524,-0.481361448764801,-1.9926408529281616
1790263991745045500,19.26904541015625,-1.8668028116226196,-0.6835576891899109,-2.143524408340454
1790263991762300200,19.286300048828124,-1.8319834470748901,-0.7843503952026367,-2.221715211868286
1790263991779555000,19.30355517578125,-1.703091025352478,-0.9016364216804504,-2.241262912750244
1790263991796809700,19.320809814453124,-1.690262794494629,-1.1588104963302612,-2.2540910243988037
1790263991814064600,19.338064697265626,-1.7721186876296997,-1.7617340087890625,-2.433074474334717
1790263991831319300,19.3553193359375,-1.7208061218261719,-2.218660831451416,-2.65970516204834
1790263991848574200,19.37257421875,-1.5332705974578857,-1.4898991584777832,-2.696357250213623
1790263991865828900,19.389828857421875,-1.2828160524368286,-1.2058470249176025,-2.363435745239258
1790263991883083800,19.407083740234373,-1.137430191040039,-1.546709656715393,-2.34999680519104
1790263991900338400,19.42433837890625,-0.9596685767173767,-1.045189619064331,-2.2815799713134766
1790263991917593300,19.44159326171875,-0.778241753578186,-0.6340776681900024,-1.905898094177246
1790263991934848000,19.458847900390627,-0.6059778332710266,-0.34208428859710693,-1.5320488214492798
1790263991952103200,19.476103271484376,-0.4868592321872711,0.05192350596189499,-1.1588104963302612
1790263991969358000,19.493358154296875,-0.39767298102378845,0.24923282861709595,-0.6029235124588013
1790263991986613000,19.510613037109376,-0.277332603931427,0.32131487131118774,-0.13255766034126282
1790263992003868200,19.5278681640625,-0.13194678723812103,0.24862197041511536,0.20463970303535461
1790263992021123000,19.545123046875,0.14599667489528656,0.2632827162742615,0.5192350745201111
1790263992038378000,19.5623779296875,0.44959646463394165,0.4422661066055298,0.8637627959251404
1790263992055633000,19.5796328125,0.7373138070106506,0.5510000586509705,1.2162318229675293
1790263992072887600,19.596887451171874,0.962722897529602,0.7519745230674744,1.5833615064620972
1790263992090142500,19.614142578125,1.1490366458892822,0.9657772183418274,1.9413282871246338
1790263992107397000,19.631397216796874,1.3646719455718994,1.1459823846817017,2.145967960357666
1790263992124652000,19.648652099609375,1.4972295761108398,1.202792763710022,2.310901403427124
1790263992141907000,19.665906982421873,1.563202977180481,1.2009601593017578,2.5754058361053467
1790263992159161600,19.68316162109375,1.6670500040054321,1.1307107210159302,2.722013473510742
1790263992176416500,19.70041650390625,1.7794491052627563,0.9211840629577637,2.693913698196411
1790263992193671200,19.717671142578126,1.824653148651123,1.0219768285751343,2.7232351303100586
1790263992210926000,19.734926025390624,1.897346019744873,1.2822052240371704,2.73850679397583
1790263992228180700,19.7521806640625,1.990808367729187,1.0427461862564087,2.5912883281707764
1790263992245435600,19.769435546875,2.006079912185669,0.8869756460189819,2.3286166191101074
1790263992262690600,19.786690673828126,1.9749258756637573,1.043357014656067,1.998138666152954
1790263992279945700,19.80394580078125,1.9382739067077637,0.9077450633049011,1.6114612817764282
1790263992297200600,19.82120068359375,1.7208061218261719,0.5112938284873962,1.4660754203796387
1790263992314455600,19.83845556640625,1.4856231212615967,0.2974911332130432,1.2284491062164307
1790263992331710700,19.855710693359374,1.285259485244751,0.17165300250053406,0.9755510687828064
1790263992348965600,19.872965576171875,1.1490366458892822,-0.3756818473339081,0.6927206516265869
1790263992366220300,19.89022021484375,0.8631519079208374,-0.6200277805328369,0.5479456782341003
1790263992383475200,19.90747509765625,0.328645259141922,-0.45448338985443115,0.35674503445625305
1790263992400729900,19.924729736328125,-0.14049890637397766,-0.14477495849132538,0.03298669680953026
1790263992417984800,19.94198486328125,-0.4276053309440613,-0.10018182545900345,-0.258395791053772
1790263992435239400,19.959239501953125,-0.6071996092796326,-0.3237583339214325,-0.4361574649810791
1790263992452494600,19.97649462890625,-0.7379246354103088,-0.4685332775115967,-0.5803215503692627
1790263992469749500,19.99374951171875,-0.8368847370147705,-0.4056142270565033,-0.7098248600959778
1790263992487004400,20.01100439453125,-0.924849271774292,-0.3072649836540222,-0.8313869833946228
1790263992504259600,20.028259521484376,-1.0836740732192993,-0.21380266547203064,-0.9950987100601196
1790263992521514500,20.045514404296874,-1.288313865661621,-0.2364046722650528,-1.1594213247299194
1790263992538769400,20.062769287109376,-1.508836030960083,-0.38789913058280945,-1.3756674528121948
1790263992556024300,20.0800244140625,-1.6908737421035767,-0.7079922556877136,-1.6523892879486084
1790263992573279000,20.097279052734375,-1.8197661638259888,-0.7953459620475769,-1.9034546613693237
1790263992590534000,20.114533935546874,-1.9425499439239502,-0.7269290685653687,-2.014631986618042
1790263992607788500,20.13178857421875,-2.0158538818359375,-0.6340776681900024,-2.178954601287842
1790263992625043500,20.14904345703125,-1.9291110038757324,-0.5925388336181641,-2.321897029876709
1790263992642298000,20.166298095703127,-1.8350378274917603,-0.7367029190063477,-2.318842649459839
1790263992659553000,20.183552978515625,-1.8362594842910767,-1.1423171758651733,-2.318842649459839
1790263992676807700,20.2008076171875,-1.8264856338500977,-1.5558725595474243,-2.4550654888153076
1790263992694062600,20.2180625,-1.6609413623809814,-1.515555500984192,-2.5442519187927246
1790263992711317200,20.235317138671874,-1.3854413032531738,-1.2760965824127197,-2.3823726177215576
1790263992728572200,20.252572265625,-1.230892539024353,-1.2437206506729126,-2.129474639892578
1790263992745827000,20.2698271484375,-1.1215476989746094,-1.1630865335464478,-1.925445795059204
1790263992763082000,20.28708203125,-1.0445787906646729,-0.8387173414230347,-1.7617340087890625
1790263992780337200,20.304337158203126,-0.9688315391540527,-0.30604326725006104,-1.4960078001022339
1790263992797592000,20.321592041015624,-0.851545512676239,-0.10201441496610641,-1.036637544631958
1790263992814847000,20.338846923828125,-0.6835576891899109,0.06719512492418289,-0.5491674542427063
1790263992832102100,20.35610205078125,-0.5094612240791321,0.36774060130119324,-0.16798780858516693
1790263992849356800,20.373356689453125,-0.3078758418560028,0.4153880476951599,0.21380266547203064
1790263992866611700,20.39061181640625,-0.10323614627122879,0.4153880476951599,0.6365211009979248
1790263992883866400,20.407866455078125,0.14782927930355072,0.4318813979625702,1.0158681869506836
1790263992901121300,20.425121337890626,0.46547895669937134,0.5027416944503784,1.3286309242248535
1790263992918376000,20.4423759765625,0.8313869833946228,0.6359102129936218,1.6432262659072876
1790263992935630800,20.459630859375,1.1789690256118774,0.7825177907943726,2.033568859100342
1790263992952885500,20.476885498046876,1.459966778755188,0.7806851863861084,2.360992431640625
1790263992970140400,20.494140380859374,1.6407828330993652,0.7874047160148621,2.508821725845337
1790263992987395300,20.511395263671876,1.842979073524475,0.8081740736961365,2.579681873321533
1790263993004650000,20.52864990234375,1.96148681640625,1.1514800786972046,2.6975789070129395
1790263993021905000,20.54590478515625,1.9706497192382812,1.5870267152786255,2.802647590637207
1790263993039159800,20.563159912109374,2.075718402862549,1.3597849607467651,2.7733261585235596
1790263993056414700,20.580414794921875,2.202167510986328,1.1496474742889404,2.654818296432495
1790263993073669600,20.597669677734373,2.276693105697632,1.196073293685913,2.4819436073303223
1790263993090924800,20.6149248046875,2.2473714351654053,1.1838558912277222,2.2479825019836426
1790263993108179700,20.6321796875,2.1496331691741943,0.8943060636520386,2.0274600982666016
1790263993125434600,20.6494345703125,2.107483386993408,0.5534434914588928,1.7287473678588867
1790263993142689500,20.666689453125,2.1526875495910645,0.41905322670936584,1.3078614473342896
1790263993159944400,20.6839443359375,2.05617094039917,0.4978547990322113,0.9639446139335632
1790263993177199000,20.70119921875,1.784335970878601,0.5583304166793823,0.648127555847168
1790263993194454000,20.7184541015625,1.4147628545761108,0.28588470816612244,0.2461785078048706
1790263993211708700,20.735708740234376,0.9743293523788452,-0.08429934084415436,-0.16187916696071625
1790263993228963600,20.752963623046874,0.5271763205528259,-0.050090912729501724,-0.5497782826423645
1790263993246218200,20.77021826171875,0.15515965223312378,0.2877173125743866,-0.8912517428398132
1790263993263473200,20.78747314453125,-0.15760311484336853,0.47525280714035034,-1.061682939529419
1790263993280728000,20.80472802734375,-0.430659681558609,0.48013970255851746,-1.0763437747955322
1790263993297983200,20.821983154296873,-0.665842592716217,0.3610210716724396,-1.0323615074157715
1790263993315238100,20.839238037109375,-0.8710931539535522,0.24312418699264526,-0.9334014058113098
1790263993332493000,20.8564931640625,-1.0311397314071655,0.17043127119541168,-0.8790343999862671
1790263993349748000,20.873748046875,-1.1722495555877686,0.13927717506885529,-1.0763437747955322
1790263993367003000,20.8910029296875,-1.2907572984695435,0.1490510106086731,-1.4196497201919556
1790263993384257500,20.908257568359375,-1.4440842866897583,-0.11056652665138245,-1.7324124574661255
1790263993401512400,20.925512451171876,-1.6029092073440552,-0.6194168925285339,-1.9969170093536377
1790263993418767400,20.942767333984374,-1.7776165008544922,-0.8833104968070984,-2.1508548259735107
1790263993436022000,20.96002197265625,-1.92666757106781,-0.9327905178070068,-2.191171884536743
1790263993453277000,20.97727685546875,-2.0164647102355957,-0.84177166223526,-2.2052218914031982
1790263993470532000,20.994531982421876,-2.012188673019409,-0.7947350740432739,-2.0995421409606934
1790263993487787000,21.011787109375,-2.0103559494018555,-1.125823736190796,-2.001193046569824
1790263993505042000,21.0290419921875,-2.101374864578247,-1.3952151536941528,-2.2730278968811035
1790263993522297000,21.046297119140625,-2.065333843231201,-1.3726131916046143,-2.536921501159668
1790263993539552000,21.063552001953123,-1.9535455703735352,-1.3158026933670044,-2.349385976791382
1790263993556806700,21.080806640625,-1.8075488805770874,-1.1600322723388672,-2.061668634414673
1790263993574061600,21.0980615234375,-1.6120721101760864,-1.0971131324768066,-1.8906265497207642
1790263993591316200,21.115316162109377,-1.339626431465149,-0.9584468603134155,-1.5613703727722168
1790263993608571100,21.132571044921875,-1.1557561159133911,-0.5137372612953186,-1.1850776672363281
1790263993625826000,21.149825927734376,-1.0122029781341553,-0.2571740746498108,-0.9010255336761475
1790263993643080700,21.167080810546874,-0.8717040419578552,-0.12034036219120026,-0.5619956254959106
1790263993660335600,21.184335693359376,-0.7312051653862,0.06475166976451874,-0.24434591829776764
1790263993677590300,21.20159033203125,-0.4868592321872711,0.10201441496610641,0.10751219838857651
1790263993694845200,21.21884521484375,-0.1545487940311432,0.08368847519159317,0.4728093445301056
1790263993712099800,21.236099853515626,0.22724169492721558,0.24801109731197357,0.9645555019378662
1790263993729354800,21.253354736328124,0.6255255341529846,0.3072649836540222,1.4947861433029175
1790263993746609700,21.270609619140625,0.9657772183418274,0.49968740344047546,1.9028438329696655
1790263993763864600,21.287864501953123,1.1893537044525146,0.7415898442268372,2.188117742538452
1790263993781119500,21.305119384765625,1.3371829986572266,0.9859357476234436,2.436128854751587
1790263993798374700,21.322374755859375,1.4569125175476074,1.0720677375793457,2.572962522506714
1790263993815629600,21.339629638671877,1.4953969717025757,1.2424989938735962,2.704909324645996
1790263993832884500,21.356884521484375,1.5754202604293823,1.1801908016204834,2.7696609497070312
1790263993850139400,21.374139404296876,1.7385212182998657,1.1252129077911377,2.8203625679016113
1790263993867394300,21.391394287109375,1.970038890838623,1.0690133571624756,2.822195291519165
1790263993884649000,21.40864892578125,2.1172573566436768,0.905912458896637,2.7256786823272705
1790263993901904000,21.42590380859375,2.196669816970825,0.7990111112594604,2.5912883281707764
1790263993919158500,21.443158447265624,2.2614214420318604,0.7367029190063477,2.328005790710449
1790263993936413400,21.460413330078126,2.1777329444885254,0.6029235124588013,2.0384557247161865
1790263993953668000,21.477668212890624,1.9462151527404785,0.6835576891899109,1.747684121131897
1790263993970923000,21.494923095703125,1.7385212182998657,0.6047561168670654,1.525940179824829
1790263993988177700,21.512177734375,1.5741984844207764,0.40255987644195557,1.2632683515548706
1790263994005432600,21.5294326171875,1.3267983198165894,0.1081230640411377,0.9682206511497498
