time,seconds_elapsed,z,y,x
1789125284802198000,0.095197998046875,-9.218633253934978,-3.299280614843964,0.5494807887805625
1789125284812140000,0.10514013671875,-9.20542715088129,-3.33707404666543,0.5426140448162332
1789125284822082000,0.11508203125,-9.18661139125228,-3.3880747505843636,0.5454366644889116
1789125284832023800,0.12502392578125,-9.162372437530756,-3.4514237716838716,0.5558651925880461
1789125284841965800,0.1349658203125,-9.13407047215402,-3.523124733804166,0.5716069881318137
1789125284851908000,0.144908203125,-9.10415639540553,-3.5966941201448437,0.5903470156434923
1789125284861848800,0.154848876953125,-9.07549202645719,-3.6656893304377793,0.6070776030289009
1789125284871790800,0.164790771484375,-9.050655691364407,-3.7251027656540274,0.6161382403083145
1789125284881732900,0.17473291015625,-9.031293988290429,-3.772048641224205,0.6146281280063093
1789125284891675000,0.1846748046875,-9.01818199326098,-3.8051647288843986,0.6029078795962035
1789125284901617200,0.1946171875,-9.011423751172423,-3.8245840073645114,0.5806748588696122
1789125284911559000,0.204558837890625,-9.010430648481845,-3.8316409401386973,0.5486805052483454
1789125284921501000,0.2145009765625,-9.014314211916924,-3.827574129091203,0.5120610125770793
1789125284931443000,0.22444287109375,-9.022472383931278,-3.813400057788193,0.47260534663181747
1789125284941384000,0.234384033203125,-9.033966422370076,-3.790848618762195,0.43278621766902503
1789125284951326000,0.244325927734375,-9.046911828660964,-3.7637916850104927,0.39703638397175817
1789125284961268000,0.25426806640625,-9.059000910383462,-3.737233348430693,0.37144707508720454
1789125284971210000,0.2642099609375,-9.068949472945928,-3.7141280749142167,0.36027379303537305
1789125284981152000,0.274152099609375,-9.077685737109183,-3.6928982398808,0.35847591330055145
1789125284991093800,0.28409375,-9.087501028680801,-3.6689804809376594,0.3553753900019452
1789125285001036000,0.2940361328125,-9.10011208845079,-3.638919104672968,0.3414876978922635
1789125285010977000,0.30397705078125,-9.115078186914324,-3.603516075119376,0.3168631058540195
1789125285020918800,0.313918701171875,-9.13043591504395,-3.5664500807896253,0.2931960337363183
1789125285030860800,0.32386083984375,-9.144546273460984,-3.5312925504297015,0.2786166695680469
1789125285040803000,0.333802978515625,-9.156256584998964,-3.5011677535399794,0.27419165620002894
1789125285050745000,0.3437451171875,-9.163810945901274,-3.480835451868176,0.28060499384105203
1789125285060686800,0.353686767578125,-9.165417796576023,-3.4751690966695543,0.2978232368792407
1789125285070628900,0.36362890625,-9.16034765370488,-3.486711358164251,0.3182105384076014
1789125285080571000,0.37357080078125,-9.148288382598757,-3.5168089747861027,0.33354528752043844
1789125285090512100,0.38351220703125,-9.131260675430298,-3.5603444573909044,0.33825291722211986
1789125285100454000,0.393453857421875,-9.115244191130996,-3.601089724755287,0.33891525358837093
1789125285110396000,0.40339599609375,-9.10391264977753,-3.628886955480277,0.34690416998304424
1789125285120338000,0.413337890625,-9.09871040495932,-3.6403503065198657,0.3629157954441383
1789125285130280000,0.423280029296875,-9.10233034902215,-3.62907838639915,0.38439120273645966
1789125285140222000,0.433221923828125,-9.113846014770864,-3.5978400753095743,0.40464795495402067
1789125285150164000,0.4431640625,-9.12937266972661,-3.5557340409860014,0.4262617478037253
1789125285160105000,0.45310498046875,-9.144161073535681,-3.5131586355850097,0.46088736324403434
1789125285170047000,0.463046875,-9.152273068320751,-3.483773258885741,0.5192379915343597
1789125285179988700,0.47298876953125,-9.156455906963348,-3.465440606598556,0.5660536283209919
1789125285189931000,0.482930908203125,-9.164278563413024,-3.4497827264785763,0.534213113554567
1789125285199873000,0.492873046875,-9.17172595680952,-3.443285473413765,0.44000911812726407
1789125285209815000,0.50281494140625,-9.17558847745657,-3.447476495362818,0.3063687825096771
1789125285219756800,0.5127568359375,-9.174686560180783,-3.460054529646039,0.15341330463988706
1789125285229698800,0.52269873046875,-9.169329417061805,-3.4776106446027755,-0.002703796476057323
1789125285239640000,0.53264013671875,-9.158637342655657,-3.502438211867213,-0.15056182419890538
1789125285249582000,0.54258203125,-9.140698365861176,-3.5409459294378753,-0.28233726099375633
1789125285259523800,0.55252392578125,-9.115541128250957,-3.5949016837701198,-0.39239787398353215
1789125285269465900,0.5624658203125,-9.0869229365319,-3.656752575266361,-0.4757903333434835
1789125285279407900,0.572407958984375,-9.06083455555141,-3.716422907853126,-0.5097676409428938
1789125285289350100,0.58235009765625,-9.046406801748276,-3.7586373709872363,-0.4533865956924855
1789125285299292000,0.5922919921875,-9.04914061062634,-3.7683638152316212,-0.287873286077287
1789125285309234000,0.60223388671875,-9.056798431903124,-3.7608760898247358,-0.02453249787457753
1789125285319175000,0.6121748046875,-9.056180592265724,-3.7543458112731574,0.24671001249654217
1789125285329117200,0.6221171875,-9.067925975117086,-3.719964818243682,0.3239813038287684
1789125285339059000,0.632058837890625,-9.118672996535897,-3.6046266667097804,0.16387317772535606
1789125285349001000,0.6420009765625,-9.18043416392207,-3.4474893548443912,-0.06951041153976693
1789125285358943000,0.65194287109375,-9.228356191048025,-3.308130568514764,-0.25316886977972464
1789125285368885000,0.661885009765625,-9.256700826522707,-3.216070708976686,-0.375188124779053
1789125285378826800,0.67182666015625,-9.266795519557595,-3.1753444385737177,-0.46268275876082476
1789125285388769000,0.68176904296875,-9.262602159520982,-3.174636290304363,-0.5443089025679976
1789125285398710000,0.6917099609375,-9.249635710442066,-3.196655229888856,-0.6292983122631907
1789125285408651800,0.70165185546875,-9.235420722606777,-3.21666896713078,-0.7283078448086977
1789125285418593800,0.71159375,-9.22389219737649,-3.219390793310106,-0.8518952807065099
1789125285428536000,0.7215361328125,-9.212451350429653,-3.205835146166384,-1.0118010343719273
1789125285438478000,0.73147802734375,-9.19406930604279,-3.193033824521303,-1.201670768342167
1789125285448419000,0.741419189453125,-9.163267925065755,-3.207397865438461,-1.3847412706263362
1789125285458361000,0.751361083984375,-9.117904934772849,-3.265471868744492,-1.5397693352527915
1789125285468303000,0.76130322265625,-9.063246292868255,-3.3559210782155393,-1.6630527467027305
1789125285478244400,0.771244384765625,-9.004049423012138,-3.455132270812988,-1.7775095853574574
1789125285488186000,0.78118603515625,-8.94345028514266,-3.5507872322335836,-1.891294077708572
1789125285498128100,0.791128173828125,-8.883482430914043,-3.639159927691519,-2.002659526219219
1789125285508070100,0.801070068359375,-8.817665266135334,-3.7260996677368876,-2.1296334627501667
1789125285518012200,0.81101220703125,-8.737467693826556,-3.816014916461706,-2.294573849581927
1789125285527954200,0.8209541015625,-8.637571733835339,-3.9145147459194063,-2.497860479812324
1789125285537896200,0.830896240234375,-8.515252345111966,-4.026995462195575,-2.7284005892798304
1789125285547838200,0.840838134765625,-8.374038870826363,-4.149738921549916,-2.9707778515353795
1789125285557779200,0.850779296875,-8.22560713572502,-4.266377342027425,-3.2105756186917422
1789125285567721200,0.86072119140625,-8.08108935919702,-4.3492286437153815,-3.456961824327707
1789125285577663200,0.870663330078125,-7.953965200540423,-4.360188429147005,-3.72740987355262
1789125285587605200,0.880605224609375,-7.852453622046113,-4.268191113451123,-4.036322677989304
1789125285597547300,0.89054736328125,-7.783305267018079,-4.079571160346269,-4.352888335266709
1789125285607489000,0.900489013671875,-7.731317890149355,-3.830757435302436,-4.660729711079597
1789125285617431000,0.91043115234375,-7.667090040388703,-3.5736841236963865,-4.961340551117062
1789125285627373300,0.920373291015625,-7.565518840661644,-3.348586789804697,-5.265004348984361
1789125285637314000,0.93031396484375,-7.416452314788103,-3.1703263181507584,-5.57813973955214
1789125285647256000,0.940256103515625,-7.227422611838579,-3.0194062733650204,-5.900671319496631
1789125285657198000,0.950197998046875,-7.04628979961872,-2.8504934757709504,-6.196358731657266
1789125285667140400,0.960140380859375,-6.923701530826091,-2.61731191188395,-6.432916493979096
1789125285677082400,0.970082275390625,-6.8568281349927185,-2.3181214600384235,-6.616691345140338
1789125285687024000,0.980024169921875,-6.809232271081209,-1.9724727700091897,-6.775992849302291
1789125285696966100,0.989966064453125,-6.762490978172421,-1.6358299548648296,-6.9110887174904345
1789125285706908200,0.999908203125,-6.707743488940596,-1.367729345548898,-7.021814114531875
1789125285716849200,1.00984912109375,-6.618257279282808,-1.1858294214140623,-7.138828382584452
1789125285726791200,1.019791259765625,-6.46314095185101,-1.066045980909094,-7.298064420294761
1789125285736733200,1.029733154296875,-6.230030115112662,-0.9844160377096384,-7.509197233980894
1789125285746675200,1.03967529296875,-5.921265779235958,-0.9224588362947106,-7.762607931426167
1789125285756617200,1.0496171875,-5.562392135322094,-0.861301260824874,-8.030463333809376
1789125285766559200,1.059559326171875,-5.1927404922842975,-0.7883253833979368,-8.281568676921724
1789125285776501200,1.069501220703125,-4.822297406607866,-0.7076077327378094,-8.50970698594451
1789125285786443300,1.079443359375,-4.44887910451293,-0.6334582814868539,-8.716455300936103
1789125285796384000,1.089384033203125,-4.066547720383108,-0.5700386428365484,-8.905539364421367
1789125285806326300,1.099326171875,-3.665596975979209,-0.5115947467721998,-9.081412648677825
1789125285816268300,1.109268310546875,-3.2405954939022656,-0.4490738105272874,-9.244850814253091
1789125285826210300,1.119210205078125,-2.814645332798362,-0.37273368083164093,-9.386651733037828
1789125285836152000,1.129152099609375,-2.4250556481033563,-0.2722159174139611,-9.49817850959003
1789125285846094000,1.139093994140625,-2.1241291662454604,-0.14321811037259174,-9.572771686020493
1789125285856036000,1.1490361328125,-1.939936381933093,0.008894937881774968,-9.612852936518191
1789125285865978400,1.158978271484375,-1.853985652925074,0.17186499846316872,-9.628269701358676
1789125285875920400,1.16892041015625,-1.824031828688085,0.3325304479220882,-9.629781859487295
1789125285885861000,1.178861083984375,-1.7967738194063305,0.4814024376042187,-9.62861573831737
1789125285895803100,1.18880322265625,-1.7345945727385579,0.6226458686366677,-9.631919456037878
1789125285905745200,1.1987451171875,-1.6050605764612556,0.7618577207762748,-9.644362758025526
1789125285915687200,1.208687255859375,-1.3962404236316681,0.8916434998575598,-9.665705990305542
1789125285925629200,1.218629150390625,-1.105005753096193,1.0029098719079046,-9.692446697714924
1789125285935571200,1.2285712890625,-0.7662240992922336,1.0941654293257743,-9.715249481153487
1789125285945513200,1.23851318359375,-0.442457278464362,1.166769989222288,-9.726935242772102
1789125285955455200,1.248455322265625,-0.18445298788482323,1.2171947929494082,-9.729069332191347
1789125285965396200,1.258396240234375,-0.008309221832134062,1.2436769955530762,-9.727465988647937
1789125285975338200,1.268338134765625,0.0977170450495556,1.245256958220899,-9.726776837339997
1789125285985280300,1.2782802734375,0.18458803070764987,1.219519217308983,-9.728777655768393
1789125285995222000,1.288221923828125,0.36972299124095587,1.1629827988337724,-9.73042483845353
1789125286005164000,1.2981640625,0.6507235237382352,1.0925616473909467,-9.723850136238337
1789125286015106300,1.308106201171875,0.8847891769833862,1.033186133032292,-9.711852239930629
1789125286025048300,1.31804833984375,0.9996248588878661,0.9782949244808405,-9.706393974524735
1789125286034990300,1.327990234375,1.1335901886761188,0.9360020623482763,-9.695837509196997
1789125286044932000,1.33793212890625,1.281966832589358,0.8946099484477191,-9.681251934483647
1789125286054873300,1.347873291015625,1.3401657774493096,0.8629566998817026,-9.676241412845254
1789125286064815400,1.3578154296875,1.3909358874827622,0.8138351607728749,-9.673331078356505
1789125286074757000,1.367757080078125,1.5021125354230402,0.691350279289484,-9.666234398093819
1789125286084699100,1.37769921875,1.6243644118681548,0.5382162482487037,-9.656199326291679
1789125286094641200,1.38764111328125,1.922510030835867,0.40858145847804844,-9.607676410663128
1789125286104583200,1.397583251953125,2.188602076808363,0.30837471550460904,-9.554334112054109
1789125286114525200,1.407525146484375,2.2807634970247745,0.2664275067382492,-9.534019638299942
1789125286124467200,1.41746728515625,2.221608712744713,0.284247441996634,-9.547463057240844
1789125286134408200,1.427408203125,2.1279719592787325,0.3673807389637455,-9.565938040608167
1789125286144350200,1.43735009765625,2.066716257196665,0.5111371391978115,-9.572764087235926
1789125286154292200,1.447292236328125,2.060718478086591,0.701350937365368,-9.562004792812466
1789125286164234200,1.457234130859375,2.1143270264163614,0.913299086022377,-9.532360180655122
1789125286174176300,1.46717626953125,2.2332960817985237,1.1366204962827264,-9.481078321707248
1789125286184118300,1.4771181640625,2.379112373704463,1.369117000515014,-9.414653838685155
1789125286194060000,1.48706005859375,2.4756921948850152,1.5682127549268305,-9.358529800403117
1789125286204002000,1.497001953125,2.649459154511988,1.7665492154039442,-9.275238938254118
1789125286213943300,1.506943359375,2.7591446871116756,2.123644451468438,-9.167750038915871
1789125286223885300,1.51688525390625,2.5757658495306965,2.484792616185546,-9.130258804911374
1789125286233827000,1.5268271484375,2.359792756206542,2.703878434702754,-9.126379917651414
1789125286243769000,1.53676904296875,2.21839223491624,2.8903493930801747,-9.104668436580896
1789125286253711000,1.546711181640625,2.1219442234218118,3.0272108096361157,-9.08315686199665
1789125286263653400,1.5566533203125,2.1267136297807094,3.1431928120315074,-9.04255538701713
1789125286273595100,1.56659521484375,2.1778262696415185,3.265118817523122,-8.987018208712339
1789125286283537200,1.576537109375,2.211846612665057,3.3776144391074774,-8.936993071827292
1789125286293479200,1.586479248046875,2.252309117565304,3.4612563066512343,-8.894786499738693
1789125286303420400,1.59642041015625,2.308401299404353,3.495961417068541,-8.866787901222706
1789125286313362200,1.606362060546875,2.3718553883135316,3.4873744982481,-8.853412871342897
1789125286323304200,1.61630419921875,2.4407297487057744,3.4634032555520533,-8.844097930508852
1789125286333246200,1.62624609375,2.5263357559293507,3.430922250925004,-8.832710859575867
1789125286343188200,1.636188232421875,2.6424010526940225,3.4358281431451436,-8.796770362144708
1789125286353130000,1.6461298828125,2.746011941555142,3.46421164932549,-8.753800988990069
1789125286363072300,1.656072265625,2.836217113137245,3.5293788257628678,-8.69883547309339
1789125286373014300,1.66601416015625,2.909571979944408,3.6323742130741477,-8.63195564751923
1789125286382955300,1.675955322265625,2.9843329141572115,3.7834938720852134,-8.541039697319269
1789125286392897000,1.68589697265625,3.0854253904566167,3.9939115232393143,-8.40828367025554
1789125286402839300,1.69583935546875,3.2047949894636867,4.182979220111668,-8.270572651132941
1789125286412781300,1.70578125,3.279021086147427,4.327209996391833,-8.16661718661785
1789125286422723300,1.715723388671875,3.3150378636851903,4.458115719413757,-8.08121853853464
1789125286432665000,1.7256650390625,3.3572359602063893,4.571280910822749,-8.000171071398258
1789125286442607400,1.735607421875,3.4182851799309253,4.654050671707093,-7.926253602272272
1789125286452549400,1.74554931640625,3.4811586924731728,4.70689320410043,-7.86747174295783
1789125286462491400,1.755491455078125,3.5300267682775854,4.727803597921133,-7.833083735665679
1789125286472432400,1.765432373046875,3.549567335049808,4.727881339332461,-7.824198418420552
1789125286482374400,1.77537451171875,3.5647482453078028,4.7238723959520454,-7.819716304570436
1789125286492316400,1.78531640625,3.611656711477041,4.7210491552248595,-7.799871786415577
1789125286502258400,1.795258544921875,3.683056937085092,4.719607139723003,-7.767291120806336
1789125286512200400,1.805200439453125,3.7546684673562645,4.74452939953357,-7.717660536196828
1789125286522142500,1.815142578125,3.74369231531173,4.7043806367576115,-7.747516160756349
1789125286532084500,1.82508447265625,3.7209623048484324,4.670663660594821,-7.778799187770486
1789125286542026500,1.835026611328125,3.693961192937195,4.6624689559623596,-7.79656456156373
1789125286551968300,1.84496826171875,3.673936642040312,4.674707383027672,-7.798698650982976
1789125286561909500,1.854909423828125,3.6440398086875674,4.689724334895611,-7.803709757143259
1789125286571851500,1.8648515625,3.602801789370179,4.7011122826114295,-7.815990562045574
1789125286581793500,1.87479345703125,3.5843630463600156,4.690180846491455,-7.831024465048313
1789125286591735300,1.8847353515625,3.5844916411757466,4.652607194900512,-7.853347356015443
1789125286601677300,1.89467724609375,3.6045094700708984,4.5793531581193205,-7.8871677925527095
1789125286611619600,1.90461962890625,3.6419328995361924,4.459524124906957,-7.938474201419949
1789125286621561600,1.9145615234375,3.6646944741815326,4.317387690557539,-8.0062840013206
1789125286631503400,1.92450341796875,3.7488600733384487,4.173039717638492,-8.043768221062422
1789125286641445400,1.9344453125,3.8907653292804953,4.098841385744512,-8.014479582735895
1789125286651386600,1.94438671875,4.084726058891415,4.136712266716361,-7.897657622385025
1789125286661328600,1.95432861328125,4.269383245845138,4.205860621744394,-7.762311578828096
1789125286671270400,1.9642705078125,4.4134468488648535,4.30588020811528,-7.625696538248658
1789125286681212400,1.97421240234375,4.547098655724525,4.457843332213163,-7.458012405666708
1789125286691154400,1.984154541015625,4.66116138049513,4.678055232150853,-7.249809215691685
1789125286701096400,1.994096435546875,4.709498710423707,4.980581258159876,-7.013188909527659
1789125286711038500,2.00403857421875,4.670309148068726,5.2521927982062095,-6.8390867265969515
1789125286720980500,2.01398046875,4.647096030263603,5.4095805777013295,-6.731371032765507
1789125286730921500,2.02392138671875,4.67046024697721,5.4587628340214485,-6.675259269443154
1789125286740863500,2.033863525390625,4.748535128043592,5.461030194431543,-6.6180749084532255
1789125286750805500,2.043805419921875,4.883767189832032,5.453827715706825,-6.524951803597808
1789125286760747500,2.05374755859375,5.051570272618532,5.427266456517577,-6.418475880694389
1789125286770689500,2.063689453125,5.209276032021641,5.385030658334493,-6.327345995482802
1789125286780631600,2.073631591796875,5.323983776697516,5.342750436487794,-6.2674284101366995
1789125286790573300,2.0835732421875,5.368445434236526,5.30418894290328,-6.262247792628407
1789125286800515300,2.093515380859375,5.368305733504891,5.248222141009569,-6.3093433058023445
1789125286810457300,2.103457275390625,5.345018965941668,5.17313562810421,-6.390604707950353
1789125286820398300,2.1133984375,5.313134465903043,5.095519304460287,-6.478940578529238
1789125286830340400,2.12334033203125,5.291095652574301,5.013409176528453,-6.560517037975788
1789125286840282400,2.133282470703125,5.282516624799371,4.933378777480125,-6.627761020687222
1789125286850224400,2.143224365234375,5.302142531767487,4.889928635071218,-6.644266165286302
1789125286860166700,2.153166748046875,5.330556725347042,4.904288292074203,-6.610865415465831
1789125286870108400,2.1631083984375,5.33040942583084,4.925115391525626,-6.595477876719832
1789125286880050400,2.173050537109375,5.336684852838516,4.958409758362174,-6.565391950535774
1789125286889992400,2.182992431640625,5.335329346576333,4.981380299583077,-6.549081451725959
1789125286899934500,2.1929345703125,5.3092433036834,5.0007308967411515,-6.55553223530054
1789125286909876200,2.202876220703125,5.22552340246737,5.024620890894532,-6.6043550106585025
1789125286919817500,2.2128173828125,5.104841259557008,5.052462253022194,-6.677097590786218
1789125286929759500,2.222759521484375,4.970399471363425,5.082822319972514,-6.75503247886002
1789125286939701500,2.232701416015625,4.846423255343735,5.114295901122689,-6.821037859687209
1789125286949643300,2.242643310546875,4.728728019289672,5.160660177412629,-6.868559489318728
1789125286959585500,2.25258544921875,4.628395713707804,5.226894690820575,-6.886792480623722
1789125286969527600,2.262527587890625,4.540696387466788,5.310685903707147,-6.8810676732361316
1789125286979469600,2.272469482421875,4.419348474124074,5.428941111731529,-6.867777399030327
1789125286989411300,2.282411376953125,4.259161419299245,5.530410604649782,-6.887998933804035
1789125286999353300,2.292353271484375,4.119307542929053,5.563974436077475,-6.945781845209002
1789125287009294600,2.302294677734375,4.027008906199038,5.58090043643713,-6.9862132243186235
1789125287019236400,2.312236328125,3.9247234207227826,5.607147807371616,-7.023308737003803
1789125287029178400,2.322178466796875,3.7768323683694,5.657610751152038,-7.063807920652628
1789125287039120400,2.332120361328125,3.6244632938191295,5.723905470314621,-7.09017394953072
1789125287049062400,2.3420625,3.527011804370582,5.768371219506859,-7.103272500556707
1789125287059004700,2.352004638671875,3.4926740659609434,5.811398460328578,-7.085142385104298
1789125287068946400,2.361946533203125,3.5007398835167285,5.879589953023195,-7.0246426159560675
1789125287078888400,2.371888427734375,3.5283243482738733,6.005284371137619,-6.903466552048921
1789125287088830500,2.38183056640625,3.53051162918508,6.190173905542492,-6.737032127267122
1789125287098771500,2.391771484375,3.625196868790686,6.436967230674624,-6.449322854378819
1789125287108713500,2.40171337890625,3.640440907412767,6.74483140284121,-6.117581547540426
1789125287118655500,2.411655517578125,3.596716039715707,7.013705626878142,-5.834549618813395
1789125287128597500,2.421597412109375,3.8616295434281227,7.321593764442205,-5.258564086803793
1789125287138539500,2.43153955078125,4.372798612134158,7.599942503789067,-4.392023829346895
1789125287148481300,2.441481201171875,4.7014136036455625,7.700310172945261,-3.8434719554468986
1789125287158423300,2.45142333984375,4.7228439296871425,7.723181929966807,-3.77062240781337
1789125287168365600,2.461365478515625,4.673250169956684,7.747620205652713,-3.7822611154198644
1789125287178307600,2.4713076171875,4.671716676779091,7.7951096865803,-3.685338326020539
1789125287188249300,2.481249267578125,4.608672483845055,7.914577193003892,-3.5057109499275683
1789125287198190300,2.4911904296875,4.487523892466724,8.074595905524491,-3.2914161650791764
1789125287208132600,2.501132568359375,4.38393930709064,8.21658036418259,-3.072341744738817
1789125287218074600,2.51107470703125,4.326428782886267,8.3223653822124,-2.861924093584716
1789125287228016400,2.521016357421875,4.303445089922845,8.398650164991617,-2.6670994406208393
1789125287237958400,2.53095849609375,4.29351406301707,8.4509403241992,-2.5135069617554544
1789125287247900400,2.540900390625,4.282116470690071,8.483177875459194,-2.4227121537171303
1789125287257842400,2.550842529296875,4.272061525143683,8.503671212911605,-2.3680007587119936
1789125287267784400,2.560784423828125,4.264160835021734,8.51481570726037,-2.342053539767861
1789125287277726500,2.5707265625,4.275864716818928,8.506215052175522,-2.3519541715353727
1789125287287667500,2.58066748046875,4.30602809215337,8.476317926561832,-2.4042753104031083
1789125287297609200,2.590609130859375,4.3100861353725195,8.448369012406468,-2.4937112511783837
1789125287307551500,2.600551513671875,4.278376407378912,8.436492696651817,-2.5867899323701855
1789125287317493500,2.610493408203125,4.239462447094917,8.436339551916719,-2.6505694538414475
1789125287327435500,2.620435546875,4.192927490413188,8.447104691559076,-2.690008022521436
1789125287337377500,2.63037744140625,4.136386395762861,8.469463238361477,-2.70719588868767
1789125287347319300,2.6403193359375,4.058427542291581,8.506276426973939,-2.709767492741346
1789125287357261300,2.65026123046875,3.9725872879207134,8.553390644848346,-2.6885835426762696
1789125287367203600,2.66020361328125,3.9175370163500305,8.595459269770979,-2.6346497079148885
1789125287377144300,2.670144287109375,3.889981485426426,8.628171452805399,-2.56770237006247
1789125287387086300,2.68008642578125,3.859296424305439,8.661770940068363,-2.4999840478375552
1789125287397028400,2.6900283203125,3.8315342648938295,8.687716113185882,-2.45220318274796
1789125287406970600,2.699970703125,3.8329417936041947,8.692585765048861,-2.432674598674476
1789125287416912600,2.70991259765625,3.8699145566925406,8.676196355783938,-2.4326425961010156
1789125287426854400,2.7198544921875,3.9190310543000697,8.655419525215029,-2.4280264806076883
1789125287436796400,2.72979638671875,3.9642096279367802,8.641640590709448,-2.4036408118918535
1789125287446739000,2.739739013671875,4.005181105272472,8.627112299141288,-2.3878540446951986
1789125287456680700,2.7496806640625,4.063457937674224,8.5998618886441,-2.3876908169575035
1789125287466622700,2.759622802734375,4.139178364568949,8.561108087357878,-2.396874824888259
1789125287476564000,2.76956396484375,4.202582330726087,8.523993285450338,-2.418727906386554
1789125287486505700,2.779505615234375,4.264608286528289,8.484047059509157,-2.45040373211056
1789125287496447700,2.78944775390625,4.342622669579089,8.43676391480863,-2.4764959124833346
1789125287506389800,2.7993896484375,4.421918032351136,8.38780845298171,-2.5023341180950402
1789125287516332000,2.80933203125,4.491749693468213,8.33946790818274,-2.5392665491729973
1789125287526274000,2.819274169921875,4.548023369354009,8.294778287106752,-2.5850577017500993
1789125287536215800,2.8292158203125,4.604941480623185,8.24961169616878,-2.628461666929722
1789125287546157800,2.83915771484375,4.681891449312865,8.195840943014622,-2.6605425663232802
1789125287556099800,2.849099853515625,4.767831364665925,8.13668674325645,-2.68932939260751
1789125287566040800,2.859040771484375,4.849053603847325,8.076717135462165,-2.7246535117059945
1789125287575982800,2.86898291015625,4.92150772242248,8.017503314471245,-2.7692583771079775
1789125287585924900,2.8789248046875,5.006019066277146,7.950493725037575,-2.8106618161201475
1789125287595867000,2.888866943359375,5.099297069433331,7.8788231580555435,-2.844589220163226
1789125287605809000,2.898808837890625,5.135484819623827,7.835908145436644,-2.8975372587576507
1789125287615751000,2.9087509765625,5.255622188133001,7.7089634350001806,-3.0200463248342273
1789125287625693000,2.91869287109375,5.432338937476277,7.580430578589439,-3.0326909946128726
1789125287635635000,2.928635009765625,5.524497581213712,7.5032760272383685,-3.057970105037093
1789125287645577000,2.938576904296875,5.563084793761372,7.462524330133199,-3.087592213101685
1789125287655518700,2.948518798828125,5.531181589022278,7.460774856117367,-3.1485353421032425
1789125287665460000,2.9584599609375,5.456103259423375,7.4787845600605,-3.2356071840956804
1789125287675402000,2.968402099609375,5.389719692933559,7.485610022166371,-3.3297131625086065
1789125287685343700,2.97834375,5.391735708931088,7.452264801925421,-3.4004899955213066
1789125287695285800,2.98828564453125,5.504720283076167,7.362643567711115,-3.4146626055195926
1789125287705227800,2.998227783203125,5.6822717296779155,7.237823009821772,-3.390587902449071
1789125287715169800,3.008169677734375,5.835811017051339,7.121727025657892,-3.3756060218945145
1789125287725112000,3.018112060546875,5.948781562671065,7.03142716152966,-3.3677038704678415
1789125287735053800,3.0280537109375,6.047164195489883,6.954200713986158,-3.3528076223701238
1789125287744995800,3.037995849609375,6.152295718047022,6.870203749394417,-3.3346538337811826
1789125287754937900,3.047937744140625,6.272794905605912,6.77144526900053,-3.31209187336117
1789125287764878800,3.05787890625,6.406801224991679,6.6590417096138,-3.2833582385689017
1789125287774820900,3.06782080078125,6.551759146502613,6.535798191782832,-3.244722218443453
1789125287784763000,3.077762939453125,6.694761842292547,6.412874407425522,-3.1977418560817834
1789125287794705000,3.087704833984375,6.827075386285782,6.297853359016775,-3.1461838105410336
1789125287804647000,3.09764697265625,6.949836089035868,6.184934835845231,-3.1010975913628935
1789125287814588700,3.107588623046875,7.063572942852973,6.071832772800326,-3.0674358525186776
1789125287824531000,3.117531005859375,7.173162613862752,5.955227670070529,-3.0416069992572066
1789125287834473000,3.127472900390625,7.279147538378834,5.8361231517404315,-3.0206060045436023
1789125287844415000,3.1374150390625,7.3831895121335975,5.718271263819933,-2.9933798517048356
1789125287854356700,3.147356689453125,7.493720847907662,5.598108760869502,-2.9454549019694327
1789125287864298000,3.157298095703125,7.610244117572903,5.472180533999205,-2.882674912929535
1789125287874240000,3.167239990234375,7.726326073211431,5.338059063801169,-2.8247870798453687
1789125287884182000,3.17718212890625,7.8272940463483325,5.207480965298414,-2.7903403281033037
1789125287894123800,3.187123779296875,7.916317899191379,5.085502352836728,-2.7640511638537046
1789125287904065800,3.197065673828125,8.008660082802177,4.963462950098514,-2.719522286297381
1789125287914007800,3.2070078125,8.105127821910381,4.837660103173554,-2.6597610605567694
1789125287923950000,3.2169501953125,8.199901032060385,4.70806692405492,-2.601174431553483
1789125287933891800,3.226891845703125,8.289324113354086,4.572969302301108,-2.558407010711729
1789125287943833900,3.236833740234375,8.369515840443968,4.434981219802797,-2.5401906782805916
1789125287953775900,3.24677587890625,8.440010933905839,4.298478699687123,-2.5415900236845017
1789125287963716900,3.256716796875,8.501247785156965,4.164795620906353,-2.5600124000817535
1789125287973659000,3.266658935546875,8.554604112291335,4.037749495922029,-2.5856714497342703
1789125287983601000,3.276600830078125,8.590693662804364,3.939047421890497,-2.61806740642637
1789125287993543000,3.28654296875,8.608127612686157,3.8784599744588135,-2.651053145705163
1789125288003485000,3.29648486328125,8.621369371575117,3.8320629649430513,-2.6753832848414776
1789125288013426700,3.3064267578125,8.638506968858838,3.7854590346783397,-2.6864190581187604
1789125288023369000,3.316368896484375,8.656477509835362,3.7399759251371023,-2.6922686609297988
1789125288033311000,3.32631103515625,8.670428293776512,3.7052366201892495,-2.695420695219934
1789125288043253000,3.3362529296875,8.684336992141604,3.6754981922686096,-2.691349792519212
1789125288053194800,3.34619482421875,8.697584596249461,3.6469349456071853,-2.687427066117525
1789125288063135700,3.3561357421875,8.708343306151033,3.624996670043468,-2.6822712907895445
1789125288073078000,3.366078125,8.714145854949951,3.615925767098367,-2.675657425607741
1789125288083020000,3.37602001953125,8.711735871198773,3.625096038764715,-2.671095232258737
1789125288092961800,3.3859619140625,8.708154505580664,3.6449841038003563,-2.6556577168911693
1789125288102903800,3.39590380859375,8.700952026855946,3.679837390516698,-2.631083539865911
1789125288112845800,3.405845703125,8.680803557318448,3.7415447818890213,-2.6105259050056335
1789125288122787800,3.415787841796875,8.651063083571195,3.8197178626328703,-2.5960034586563703
1789125288132729900,3.425729736328125,8.62104613097012,3.900122647951543,-2.576227914084494
1789125288142672000,3.435671875,8.59292010668218,3.9832282166615127,-2.542834470787644
1789125288152614000,3.44561376953125,8.565406076812744,4.070974304653704,-2.4962752564474937
1789125288162556000,3.455555908203125,8.531672734037041,4.171330867893993,-2.4456088990494607
1789125288172497000,3.465496826171875,8.487726624804734,4.289740097436309,-2.393115910746157
1789125288182439000,3.47543896484375,8.430045420208574,4.428989578172565,-2.3428236473575232
1789125288192381000,3.485380859375,8.357993744954467,4.582479473446309,-2.305482635478675
1789125288202323000,3.495322998046875,8.275998767834901,4.73959515800178,-2.2835190793432294
1789125288212264700,3.5052646484375,8.184922658637166,4.905449152547121,-2.261415676345676
1789125288222206700,3.515206787109375,8.085026114124059,5.081837400588393,-2.231070660834014
1789125288232149000,3.52514892578125,7.980707076993584,5.259411059021949,-2.1948367334142325
1789125288242091000,3.535091064453125,7.870804102250933,5.435432811838388,-2.162614818114787
1789125288252032800,3.54503271484375,7.7541586675107474,5.609390033340453,-2.139661666420102
1789125288261974800,3.554974853515625,7.6369819023728365,5.7795817648291585,-2.107931626290828
1789125288271916000,3.564916015625,7.5218866196841,5.947090540844202,-2.0551798409208653
1789125288281858000,3.574858154296875,7.409118903160095,6.10824965557158,-1.9911479521237312
1789125288291799800,3.5847998046875,7.302005266875028,6.257075358426571,-1.9235640699334442
1789125288301741800,3.594741943359375,7.197400983062386,6.4004135697811835,-1.8445916555054485
1789125288311683800,3.604683837890625,7.0864610664874315,6.547157205665111,-1.7570549724802373
1789125288321625900,3.6146259765625,6.970413013118505,6.691504301801324,-1.675565168403834
1789125288331567900,3.62456787109375,6.857602041974664,6.82601623262167,-1.5966196419827638
1789125288341510000,3.634510009765625,6.749569537279009,6.951475672936439,-1.513507351271063
1789125288351452000,3.644451904296875,6.642089990290999,7.0699535838007925,-1.4383116789028048
1789125288361394000,3.654393798828125,6.533754703256488,7.181175824448466,-1.38244965255782
1789125288371335700,3.664335693359375,6.430739734461903,7.283079617130756,-1.3314299516774712
1789125288381277000,3.67427685546875,6.334288946488499,7.377168352147937,-1.2745663470745086
1789125288391219000,3.684218994140625,6.246198575103283,7.462355987828969,-1.2118669489901512
1789125288401161000,3.694160888671875,6.166919286683202,7.539284913730621,-1.1395931554179637
1789125288411102700,3.704102783203125,6.085200788417458,7.616773227080702,-1.0608897671896964
1789125288421044700,3.714044677734375,5.993654139098525,7.699737926015257,-0.9800689484160393
1789125288430987000,3.723987060546875,5.893463580074906,7.785753244692087,-0.9053041417457163
1789125288440929000,3.733928955078125,5.791994671678543,7.868920188200473,-0.8386298486810178
1789125288450870300,3.743870361328125,5.6886529551476235,7.950199126005172,-0.777171390568465
1789125288460812300,3.753812255859375,5.573091223990917,8.036612504088879,-0.7237985506907105
1789125288470754300,3.76375439453125,5.442300359520316,8.128984498316049,-0.686550258596614
1789125288480696300,3.7736962890625,5.308449522957205,8.219347490808367,-0.6581077157054096
1789125288490637300,3.78363720703125,5.1910161527097225,8.296637066715956,-0.6241263164527714
1789125288500579300,3.793579345703125,5.094509250634909,8.359257481279968,-0.5824003309553488
1789125288510521300,3.803521240234375,5.002037303164601,8.417504503065347,-0.5437492228586226
1789125288520463000,3.813463134765625,4.894528822343051,8.482032212555408,-0.5187440340049565
1789125288530405400,3.8234052734375,4.776530803950131,8.550002171453833,-0.5026167097423225
1789125288540347400,3.833347412109375,4.666972112600505,8.611316179594397,-0.4847284036891535
1789125288550289400,3.843289306640625,4.588906291623413,8.654715760859846,-0.4563105568477884
1789125288560231200,3.853231201171875,4.530195159457624,8.686697291532159,-0.4347362192256376
1789125288570173200,3.863173095703125,4.478101691865921,8.713789296597241,-0.43228404030054807
1789125288580115200,3.873115234375,4.457477129249274,8.724240547984838,-0.43459140392746776
1789125288590057500,3.883057373046875,4.442885124795138,8.730369259998202,-0.46017662115879354
1789125288599998200,3.892998291015625,4.429848240828514,8.735061801728605,-0.4954666553245857
1789125288609940200,3.902940185546875,4.425599058951438,8.735044266071915,-0.5323911222917959
1789125288619882200,3.91288232421875,4.414773421293497,8.73764538848102,-0.5776938702974468
1789125288629824500,3.922824462890625,4.414057674239576,8.735542278721928,-0.6138046097289771
1789125288639766300,3.932766357421875,4.4491018073529,8.716518429300189,-0.631060353499651
1789125288649708300,3.942708251953125,4.511637758503854,8.683358502498269,-0.644048137627542
1789125288659650300,3.952650390625,4.583647055920959,8.644089737427235,-0.663568100003153
1789125288669592300,3.96259228515625,4.65321655897051,8.604629249176382,-0.6916211321201176
1789125288679534300,3.972534423828125,4.7196673454776406,8.565572081029414,-0.7253303633678704
1789125288689476400,3.982476318359375,4.784924246025085,8.525778415301442,-0.7654865787979215
1789125288699418400,3.99241845703125,4.850760115504264,8.484294312268496,-0.8107235315583646
1789125288709359400,4.002359375,4.911514151674509,8.444102002611755,-0.8628549930728971
1789125288719301000,4.012301025390625,4.9608752716928715,8.408452597081661,-0.9262793444309383
1789125288729243400,4.022243408203125,4.999911397051811,8.377157879629731,-0.9972606870397924
1789125288739185400,4.032185302734375,5.045304197961092,8.342229189589618,-1.05947281306386
1789125288749127400,4.04212744140625,5.091545724654197,8.306741112101077,-1.1156075188703833
1789125288759069200,4.052069091796875,5.1284197035431855,8.276610762253403,-1.1693774683069438
1789125288769011200,4.06201123046875,5.157402636921406,8.252175993698835,-1.2137336927101015
1789125288778953200,4.071953125,5.185373762908577,8.230258176401257,-1.2430309527345
1789125288788895500,4.0818955078125,5.219046315407753,8.207157286798953,-1.2548100917249918
1789125288798837500,4.09183740234375,5.2470010747820135,8.187556514272094,-1.266200962050259
1789125288808779300,4.101779296875,5.277468693760037,8.166087609785794,-1.278155603738129
1789125288818720300,4.11172021484375,5.322411997336149,8.134681248652935,-1.2920023427829146
1789125288828662300,4.121662353515625,5.376171644574404,8.094957141029834,-1.3186352059036492
1789125288838604300,4.131604248046875,5.442912353938818,8.045144185590743,-1.349355922859907
1789125288848546300,4.14154638671875,5.515499451243877,7.989591809716821,-1.3842295217119156
1789125288858488300,4.15148828125,5.584359052458405,7.933924867552518,-1.427649853504449
1789125288868430300,4.161430419921875,5.651767285820841,7.877139150491357,-1.4760153866142034
1789125288878372400,4.171372314453125,5.721583749368786,7.815458647125959,-1.533780031710118
1789125288888314400,4.181314453125,5.79130961202383,7.749946602773666,-1.6029475298300384
1789125288898256400,4.19125634765625,5.863968605521321,7.680694202849269,-1.670692740061879
1789125288908198400,4.201198486328125,5.945088553372025,7.60657565819323,-1.7222997393108903
1789125288918140400,4.211140380859375,6.0255947532385585,7.534035322639346,-1.7609398510895669
1789125288928081200,4.2210810546875,6.067288699629903,7.48417502092719,-1.829074791291356
1789125288938023400,4.2310234375,5.907970828855038,7.5446192604959,-2.0844676024645565
1789125288947965400,4.24096533203125,5.850685930100083,7.540055898103118,-2.2555289563946426
1789125288957907500,4.250907470703125,5.888666993448138,7.480141235366463,-2.35402922424376
1789125288967849200,4.26084912109375,5.976393792217969,7.395037186315656,-2.401353869998455
1789125288977791200,4.270791259765625,6.065946052849292,7.305202601611613,-2.451272770030051
1789125288987733200,4.280733154296875,6.139724990287423,7.2169310284405945,-2.5278596044957635
1789125288997675500,4.290675537109375,6.200224759435653,7.132393381100893,-2.6185046287998555
1789125289007617300,4.3006171875,6.244304724180698,7.057061369001865,-2.7160484727069734
1789125289017559300,4.310559326171875,6.278972132936119,6.990236488485336,-2.807407198238373
1789125289027501300,4.320501220703125,6.331159416291118,6.9204498355537645,-2.862556254008412
1789125289037443300,4.330443359375,6.4164814920067785,6.8373688167631625,-2.8722052491024135
1789125289047384300,4.34038427734375,6.532712500727176,6.737305098989606,-2.8465394774481654
1789125289057326300,4.350326416015625,6.679502313840389,6.614845425012708,-2.7925688178077337
1789125289067268400,4.360268310546875,6.841399679714441,6.4787558696120975,-2.7187098008707165
1789125289077210400,4.37021044921875,6.995657929012179,6.3417977146834135,-2.648158593307435
1789125289087152000,4.380152099609375,7.141656884008645,6.1998909974366425,-2.5939333743840454
1789125289097094400,4.390094482421875,7.267391049611568,6.0583829241186375,-2.579029235240817
1789125289107036400,4.400036376953125,7.360572022134066,5.930339897051454,-2.6121613972529767
1789125289116978400,4.409978515625,7.439384862086176,5.810771268340945,-2.6572373872980473
1789125289126920200,4.419920166015625,7.520224823951721,5.686650383153557,-2.697896729944646
1789125289136862200,4.4298623046875,7.61314100805819,5.549851802700758,-2.7220553119063378
1789125289146804200,4.43980419921875,7.678536148032546,5.431892947274446,-2.775792747312784
1789125289156745500,4.449745361328125,7.6917773223996155,5.351787729424238,-2.8922879599273204
1789125289166687200,4.459687255859375,7.6843480491817,5.279130489492416,-3.04170373762995
1789125289176629200,4.469629150390625,7.685104420506954,5.193908951541781,-3.1832176561668515
1789125289186571300,4.4795712890625,7.687047955790161,5.106913389655947,-3.316494784495234
1789125289196513500,4.489513427734375,7.68645349702835,5.024466577115654,-3.441450659202039
1789125289206455300,4.499455322265625,7.688605122104287,4.94545616876483,-3.5493928552657366
1789125289216397300,4.509397216796875,7.692097640395164,4.876106738206744,-3.63670522801578
1789125289226339300,4.51933935546875,7.691431285440921,4.823096448031068,-3.7080952244907617
1789125289236281300,4.52928125,7.683772295120358,4.782438566689193,-3.7760116996362805
1789125289246223000,4.53922314453125,7.670286790603399,4.742064762985706,-3.853558757436275
1789125289256165400,4.549165283203125,7.653345008152723,4.705031501881778,-3.9318440663829444
1789125289266107400,4.559107421875,7.628903809857368,4.682286586110294,-4.005792222908139
1789125289276048400,4.56904833984375,7.593886857011914,4.677260574641823,-4.077559236001968
1789125289285990100,4.578990234375,7.555220734009146,4.682281325413286,-4.143093784447014
1789125289295932400,4.588932373046875,7.514162747433781,4.69049122761488,-4.207971330288053
1789125289305874400,4.59887451171875,7.470740369814634,4.704075224070251,-4.269676968094706
1789125289315816400,4.60881640625,7.425772516319156,4.72456417760849,-4.3251361127272245
1789125289325758200,4.61875830078125,7.388945299181342,4.743610823383927,-4.367156514593959
1789125289335700200,4.6287001953125,7.364381351289152,4.752872280465066,-4.398458246308565
1789125289345642200,4.638642333984375,7.354463183864951,4.745952125813067,-4.422462222230434
1789125289355584300,4.648584228515625,7.350676651063561,4.734549272789061,-4.44094217403382
1789125289365526500,4.658526611328125,7.344052264487743,4.738239067217707,-4.447962574189901
1789125289375468300,4.66846826171875,7.324197224938869,4.767740179251134,-4.449170780935884
1789125289385409300,4.6784091796875,7.284618663266301,4.821212241719663,-4.456528157961368
1789125289395351300,4.688351318359375,7.240010875254869,4.877518066309392,-4.467935102638602
1789125289405293300,4.698293212890625,7.209003158050775,4.912372814330459,-4.479872208669781
1789125289415235300,4.7082353515625,7.19013829858303,4.936601246657967,-4.483557619184255
1789125289425177300,4.71817724609375,7.16509212013185,4.960658414071798,-4.497081409884989
1789125289435119400,4.728119384765625,7.125213698729873,4.998065476924181,-4.518969416566192
1789125289445061600,4.7380615234375,7.080058798229694,5.039336229467391,-4.544032546152174
1789125289455003600,4.748003662109375,7.040800554552674,5.074608033856749,-4.565720646347105
1789125289464946000,4.75794580078125,7.00718060902357,5.112099267861247,-4.5756125102862715
1789125289474887700,4.7678876953125,6.96618867342174,5.174501655760407,-4.568059318427741
1789125289484829700,4.77782958984375,6.90095018531382,5.26084606026113,-4.568460300444066
1789125289494771700,4.787771728515625,6.81751085460484,5.342088757708669,-4.599351405531167
1789125289504713700,4.797713623046875,6.719836077794432,5.425700522375107,-4.644990290156007
1789125289514654700,4.80765478515625,6.6062360020995134,5.532217361810803,-4.682153315119445
1789125289524596700,4.8175966796875,6.466493184888362,5.665686505579948,-4.717506952573359
1789125289534538800,4.827538818359375,6.302734701317548,5.808763435649872,-4.7648918040826915
1789125289544480800,4.837480712890625,6.133003573077917,5.94263648404479,-4.820962358611822
1789125289554422500,4.847422607421875,5.978707914379239,6.069360829728842,-4.856781567750871
1789125289564364500,4.857364501953125,5.82980213202536,6.211487327206134,-4.858110770528018
1789125289574306800,4.867306884765625,5.689710355246067,6.364710972759127,-4.825770635676384
1789125289584248800,4.877248779296875,5.575796975818276,6.510486640393734,-4.763866260427236
1789125289594190600,4.887190673828125,5.473927085405588,6.649105422011018,-4.6899771406129
1789125289604132600,4.897132568359375,5.370702273252606,6.785688898408413,-4.61306399680227
1789125289614074600,4.90707470703125,5.267499672931432,6.932903074413537,-4.512060660091042
1789125289624016600,4.9170166015625,5.1810833722382785,7.086046640467643,-4.372034642024338
1789125289633957600,4.92695751953125,5.1126381970435375,7.237412675455213,-4.201334668752551
1789125289643899600,4.936899658203125,5.061344063135981,7.377469380921125,-4.015736986078322
1789125289653841700,4.946841552734375,5.028267138442397,7.499615166643261,-3.826575181181729
1789125289663783700,4.95678369140625,4.998627786982059,7.6157473911643025,-3.631044718036055
1789125289673725700,4.9667255859375,4.950027129942178,7.74346776214838,-3.4214439362227913
1789125289683667700,4.976667724609375,4.860880819763243,7.888195966556668,-3.2122534887760876
1789125289693609700,4.986609619140625,4.736502452683449,8.037668150621652,-3.021891368179023
1789125289703551700,4.9965517578125,4.593693525899947,8.178211178299785,-2.8609818442985415
1789125289713493500,5.006493408203125,4.458980519549549,8.296922897920012,-2.7292718191564083
1789125289723435500,5.016435546875,4.36667866794914,8.381134966567158,-2.618984521271288
1789125289733377800,5.026377685546875,4.3209491824313995,8.438565995794534,-2.5080720772251484
1789125289743319800,5.03631982421875,4.304544575597346,8.478639062985778,-2.398737988411635
1789125289753261800,5.04626171875,4.321280021820963,8.499227092984318,-2.29349087665081
1789125289763202600,5.05620263671875,4.3340997559055685,8.513331606182456,-2.215665878692269
1789125289773144800,5.066144775390625,4.311273883852363,8.536362353157996,-2.1711324710913003
1789125289783086800,5.0760869140625,4.245952393636107,8.57512901392579,-2.1469544537767766
1789125289793028600,5.086028564453125,4.17220443585813,8.613075590482353,-2.139640623632073
1789125289802970600,5.095970703125,4.129762009187043,8.634191443747282,-2.136873643136769
1789125289812912600,5.10591259765625,4.110836067181825,8.639531051209568,-2.1517318973116577
1789125289822854700,5.115854736328125,4.078605822445452,8.64044290535748,-2.208639779447764
1789125289832797000,5.125796875,4.062435316628218,8.640545781210065,-2.237852576059103
1789125289842738700,5.13573876953125,4.091424972008168,8.640654502281546,-2.183961849787086
1789125289852680700,5.1456806640625,4.167351442869007,8.629935539868473,-2.080332110095024
1789125289862622700,5.155622802734375,4.271959526073933,8.602701495984196,-1.9784459991998968
1789125289872564700,5.165564697265625,4.387537039321661,8.5613845662117,-1.903313893587142
1789125289882506500,5.175506591796875,4.498270619669556,8.505388538223505,-1.895868107625842
1789125289892447700,5.18544775390625,4.583832933881879,8.437806117337942,-1.9905508630134163
1789125289902389800,5.1953896484375,4.6531788573086255,8.358204757356644,-2.158403191769123
1789125289912331500,5.20533154296875,4.704946161685884,8.270283897319436,-2.374083585757017
1789125289922273500,5.2152734375,4.7544262319087975,8.17042359316349,-2.609596515201032
1789125289932215800,5.2252158203125,4.835842824618518,8.045315450504422,-2.8386460938498375
1789125289942157800,5.23515771484375,4.957246559801697,7.885881844395398,-3.0674080877289174
1789125289952099800,5.245099853515625,5.105124168151617,7.6936670816689725,-3.3038740801140665
1789125289962041600,5.25504150390625,5.24208407664597,7.483520356410741,-3.5620033305138348
1789125289971983600,5.264983642578125,5.3417362910091875,7.278557171270251,-3.828692611727118
1789125289981925600,5.274925537109375,5.414945319604874,7.092104625332355,-4.06826884508729
1789125289991868000,5.284867919921875,5.46892357802987,6.92857235173285,-4.272724665227532
1789125290001809700,5.2948095703125,5.5012271802634,6.788894416451454,-4.451717835070193
1789125290011750700,5.304750732421875,5.523727181363105,6.662164810070395,-4.6124169310703875
1789125290021692700,5.314692626953125,5.547178199577331,6.536694848361611,-4.7613855495274064
1789125290031634700,5.324634765625,5.580076260572672,6.407927014151215,-4.896083942830562
1789125290041576700,5.33457666015625,5.6260284489303825,6.278608560320735,-5.0097161672294135
1789125290051518700,5.344518798828125,5.679193052884936,6.153925365075469,-5.1035623256623746
1789125290061460700,5.354460693359375,5.735238765233754,6.040501814991235,-5.175885219073296
1789125290071402800,5.36440283203125,5.803080129316449,5.940592995518446,-5.215749611949921
1789125290081344500,5.374344482421875,5.88012186794281,5.852414945849776,-5.229128733482956
1789125290091286800,5.384286865234375,5.960120118287206,5.76365178976953,-5.237143697634339
1789125290101228800,5.394228759765625,6.044996203801036,5.671256999188661,-5.2407332465589045
1789125290111170800,5.4041708984375,6.139107735171914,5.583288792878389,-5.225768901661038
1789125290121112600,5.414112548828125,6.239951789668202,5.499588180884719,-5.194985640862583
1789125290131054600,5.4240546875,6.343792687892914,5.413805501919985,-5.159207055994868
1789125290140996600,5.43399658203125,6.4486138293266295,5.322040241414308,-5.124612712475657
1789125290150937900,5.443937744140625,6.54522068464458,5.228926488909125,-5.097924027514457
1789125290160879600,5.453879638671875,6.632288142722845,5.147241892912984,-5.068435482701659
1789125290170821600,5.463821533203125,6.71838412542045,5.0795799770504235,-5.023105810156464
1789125290180763600,5.473763671875,6.8131076512098305,5.017776139566302,-4.957206227791309
1789125290190705700,5.48370556640625,6.918662952136993,4.958383454877138,-4.8699996535032986
1789125290200647700,5.493647705078125,7.023029335540532,4.906328857991099,-4.772358486701548
1789125290210589700,5.503589599609375,7.1204182811468835,4.862535893493891,-4.671809908020496
1789125290220531700,5.51353173828125,7.207149639138579,4.8228734529301525,-4.579006828899681
1789125290230473700,5.5234736328125,7.281790161842108,4.7712309439763425,-4.514563875083625
1789125290240415700,5.533415771484375,7.352754041859507,4.7019215531677006,-4.472054812917113
1789125290250357500,5.543357421875,7.409791687855124,4.624621163605153,-4.45850150386095
1789125290260299800,5.5532998046875,7.450882407656311,4.546386415801942,-4.470470758596062
1789125290270241800,5.56324169921875,7.5006170371621845,4.4611499725431205,-4.473177387206256
1789125290280183800,5.573183837890625,7.559853654506802,4.360032361802459,-4.473154298591614
1789125290290124500,5.58312451171875,7.631030300492048,4.239768152043223,-4.4679029539346695
1789125290300066800,5.59306689453125,7.718789832487702,4.111636277648806,-4.4367873924419285
1789125290310008800,5.6030087890625,7.808596944662928,3.988434260872006,-4.391878283396363
1789125290319950600,5.61295068359375,7.887280020755529,3.8679070162624116,-4.358959179612994
1789125290329892600,5.622892578125,7.9504113074511285,3.752434716954827,-4.345177614758908
1789125290339834600,5.632834716796875,7.993585263267159,3.6451927781149744,-4.3572392239525914
1789125290349776600,5.642776611328125,8.018516875427961,3.5471193573758004,-4.392240102446079
1789125290359719000,5.652718994140625,8.044807500982284,3.44884339980185,-4.4223239828035235
1789125290369660700,5.66266064453125,8.072644771456718,3.3537796822726724,-4.444653595772385
1789125290379602700,5.672602783203125,8.090514190146326,3.28112361138463,-4.466336727531254
1789125290389544700,5.682544677734375,8.098774068969488,3.240386235065758,-4.481085968373716
1789125290399486700,5.69248681640625,8.09936794320941,3.229494546434283,-4.487869344903529
1789125290409428500,5.702428466796875,8.102750571385025,3.235893599821627,-4.4771474598810075
1789125290419369700,5.71236962890625,8.112572292697429,3.241734727065265,-4.455082635328173
1789125290429311700,5.722311767578125,8.11546158439815,3.255075270153582,-4.440067437025904
1789125290439253800,5.732253662109375,8.100790669488907,3.295266118505597,-4.43720269524455
1789125290449195500,5.742195556640625,8.085368643951416,3.3462513325944543,-4.427164116311073
1789125290459137800,5.7521376953125,8.083258519929647,3.388695220570266,-4.398649969488382
1789125290469079800,5.762079833984375,8.083443813368678,3.4215313222452997,-4.372807672223448
1789125290479021800,5.772021728515625,8.0820427143991,3.4535438325777648,-4.350179076308012
1789125290488963600,5.781963623046875,8.069698781132697,3.501009932629764,-4.335120038864016
1789125290498905600,5.791905517578125,8.04003897140622,3.5711572355672714,-4.333011960668862
1789125290508847600,5.80184765625,7.991703687304258,3.6606931295856833,-4.347687551753222
1789125290518790000,5.811789794921875,7.929156922498345,3.7655169013679024,-4.3726133186951275
1789125290528731600,5.821731689453125,7.858256755366921,3.8855037554904817,-4.395571584956348
1789125290538673700,5.831673583984375,7.774255114600062,4.023139663550258,-4.421054693520069
1789125290548615700,5.84161572265625,7.68018683784902,4.175438595473766,-4.444185685999691
1789125290558557700,5.8515576171875,7.585722839778661,4.335563398717343,-4.453095553164184
1789125290568498700,5.861498779296875,7.496161226797104,4.50051021528989,-4.441099702683091
1789125290578440700,5.871440673828125,7.403921334517002,4.674496078364551,-4.416040664750337
1789125290588382700,5.8813828125,7.304300099813938,4.856213120213151,-4.38574723329544
1789125290598324700,5.89132470703125,7.2001868143886325,5.0413569216400385,-4.348843151529133
1789125290608266500,5.9012666015625,7.097040912690758,5.224887442651391,-4.301507984380423
1789125290618208800,5.911208740234375,7.0249494899481535,5.391842676436901,-4.212901187905669
1789125290628150800,5.92115087890625,6.844211230003833,5.585165692666172,-4.25829457333684
1789125290638092800,5.9310927734375,6.725629858765005,5.721859059178829,-4.265748396474123
1789125290648034800,5.941034912109375,6.623696255466341,5.869675877252221,-4.224206718035042
1789125290657976600,5.9509765625,6.5360436909765,6.024242169585824,-4.142345304167271
1789125290667918600,5.960918701171875,6.476728163176775,6.1524500318259,-4.045957644557952
1789125290677860900,5.97086083984375,6.433792692291736,6.251082255491614,-3.962406670168042
1789125290687803000,5.980802978515625,6.3874716706216335,6.350136503961682,-3.878963247805834
1789125290697744600,5.99074462890625,6.326553968322277,6.471397908064723,-3.7770559479922055
1789125290707685600,6.000685546875,6.255926188391447,6.604757746240496,-3.6620997815132137
1789125290717627600,6.010627685546875,6.187144913110137,6.734356186056137,-3.5409126116901635
1789125290727569700,6.020569580078125,6.1177417065382,6.860131268191338,-3.417933005492389
1789125290737511700,6.03051171875,6.032459378311038,6.991409623917937,-3.30151728785485
1789125290747453700,6.04045361328125,5.9214873130321495,7.134082649362087,-3.195505183070898
1789125290757395700,6.050395751953125,5.798411552983522,7.277892569881677,-3.0953350823134183
1789125290767337700,6.060337646484375,5.680598828029632,7.411025029042363,-2.9963109367206693
1789125290777279500,6.070279541015625,5.562867936140298,7.5384607378661626,-2.8976716987922786
1789125290787221800,6.0802216796875,5.438606765699387,7.664424036049843,-2.80152836933285
1789125290797163800,6.090163818359375,5.319672343239188,7.781111556366086,-2.7066137048855423
1789125290807105800,6.100105712890625,5.221740376797318,7.878205318418145,-2.614896667435765
1789125290817047600,6.110047607421875,5.14262241641879,7.956803054314851,-2.5324045544490215
1789125290826989600,6.119989501953125,5.064912569272518,8.029132961988449,-2.4596947075471283
1789125290836931600,6.129931640625,4.976935010612011,8.102917744645476,-2.396502630575001
1789125290846873900,6.139873779296875,4.878890231445431,8.178391795563698,-2.3410841102138162
1789125290856814600,6.149814697265625,4.775435702189803,8.252402203670144,-2.2942209444910286
1789125290866756600,6.159756591796875,4.668061661402881,8.324484858584404,-2.2544553358137605
1789125290876698600,6.16969873046875,4.554508347459137,8.397110534334182,-2.2170691696189344
1789125290886641000,6.179640869140625,4.4491728267624975,8.462541330143809,-2.181896880081296
1789125290896582700,6.189582763671875,4.36556895314157,8.514152859437464,-2.1497446690171955
1789125290906524700,6.199524658203125,4.300061000442505,8.554286132383346,-2.122277400898933
1789125290916466700,6.209466796875,4.242900020328164,8.586697286644577,-2.106371098975837
1789125290926408700,6.21940869140625,4.195325783726573,8.609982885164023,-2.1066133832991123
1789125290936350500,6.2293505859375,4.166098812459409,8.622830091777443,-2.1120595198757943
1789125290946292700,6.239292724609375,4.153687074653804,8.626609610316157,-2.121046543929726
1789125290956234800,6.24923486328125,4.145578587000072,8.626594412747025,-2.1369193819746375
1789125290966176800,6.2591767578125,4.136268322341144,8.625698925212026,-2.158467343046516
1789125290976118800,6.269118896484375,4.147230445860326,8.616409118819236,-2.174476813083142
1789125290986060500,6.279060546875,4.193930529975891,8.59279326543212,-2.1783568693868816
1789125290996002600,6.28900244140625,4.264936787830293,8.55774825553596,-2.178449954497814
1789125291005943800,6.29894384765625,4.345900083814561,8.515251176068187,-2.1849534911729394
1789125291015885600,6.308885498046875,4.430503489866853,8.468025899034737,-2.198531350148469
1789125291025827600,6.31882763671875,4.513597952660918,8.41809720826149,-2.2211441639728844
1789125291035769600,6.32876953125,4.597051896417141,8.363237490826844,-2.256942184193432
1789125291045712000,6.3387119140625,4.674771388174594,8.304837908828258,-2.3122626510076225
1789125291055654000,6.34865380859375,4.739604510352015,8.245947912964224,-2.3897484801396724
1789125291065595600,6.358595703125,4.801632219719886,8.185419502243398,-2.4725761086910962
1789125291075537700,6.36853759765625,4.867837214772403,8.124665466073155,-2.5425167831405995
1789125291085479700,6.378479736328125,4.94306722780168,8.062399856296182,-2.5950243844911456
1789125291095421700,6.388421630859375,5.0358659230083225,7.992254306924343,-2.6333091069608927
1789125291105363700,6.39836376953125,5.125943668818474,7.922947546464204,-2.6687077526003122
1789125291115305700,6.4083056640625,5.202047249811887,7.8623297038942574,-2.700525324882567
1789125291125247700,6.418247802734375,5.2682659811288115,7.808504005682468,-2.7281869465291497
1789125291135189800,6.428189697265625,5.328853428560495,7.758019434592128,-2.7544261341571805
1789125291145131500,6.438131591796875,5.386204378288984,7.706373418506979,-2.7876570803686973
1789125291155073500,6.448073486328125,5.4419408785581584,7.6492843345850705,-2.836213898266852
1789125291165014800,6.458014892578125,5.501481447285413,7.582234997662901,-2.9006545139953492
1789125291174956800,6.467956787109375,5.571440534174442,7.502473478683829,-2.97360313808918
1789125291184898600,6.477898681640625,5.6437289407938716,7.415887666642665,-3.05341638725549
1789125291194840600,6.487840576171875,5.710533363044261,7.32801882905364,-3.1401170578479767
1789125291204782800,6.497782958984375,5.773341409134864,7.239932549321651,-3.2283596971854567
1789125291214724900,6.507724853515625,5.838108772599697,7.146726442357897,-3.318308555918932
1789125291224666600,6.51766650390625,5.907914130231738,7.048225151595473,-3.4043279662489887
1789125291234608600,6.527608642578125,5.985639174947142,6.945791197559237,-3.4782895667776463
1789125291244550700,6.537550537109375,6.067486268028617,6.842534821224212,-3.5405867407366634
1789125291254492700,6.54749267578125,6.152751060599089,6.739248049750923,-3.5911756489843127
1789125291264434700,6.5574345703125,6.239782862842082,6.631755058759451,-3.640784314022958
1789125291274376700,6.567376708984375,6.331859088993072,6.5142538839727635,-3.693573070402443
1789125291284318700,6.577318603515625,6.432651121041179,6.385075130873918,-3.7446275503352284
1789125291294260700,6.5872607421875,6.551091037982702,6.243083657953143,-3.7785552466392516
1789125291304202800,6.59720263671875,6.6914955339729785,6.083776893094182,-3.7923449947997927
1789125291314144500,6.60714453125,6.837655232489109,5.913559442642331,-3.800874630475044
1789125291324085800,6.617085693359375,6.981131391009688,5.743142670226097,-3.801382287736237
1789125291334027800,6.62702783203125,7.12448947610855,5.574205907234549,-3.7868484432101246
1789125291343969500,6.636969482421875,7.2681661256372925,5.407522476127744,-3.755370478145778
1789125291353911600,6.64691162109375,7.420698281794786,5.239668247675896,-3.6945255488216873
1789125291363853600,6.656853515625,7.598826066979766,5.060591198942065,-3.580321077492833
1789125291373795800,6.6667958984375,7.792645926815271,4.865878481920063,-3.430492042814195
1789125291383737900,6.67673779296875,7.972750565031171,4.666688034962117,-3.2905463965073225
1789125291393679600,6.6866796875,8.119830301001668,4.481669905741512,-3.1864439247369765
1789125291403621600,6.69662158203125,8.22952635499537,4.322127578561008,-3.1248239193871616
1789125291413563600,6.706563720703125,8.303879292929173,4.195904168136417,-3.100063279879093
1789125291423505700,6.716505615234375,8.351940436264872,4.093433096960187,-3.1079405891254543
1789125291433447700,6.72644775390625,8.393384207287431,3.9959918366447087,-3.123070061457157
1789125291443389700,6.7363896484375,8.435322483828664,3.90205829218924,-3.128840753813088
1789125291453331200,6.746331298828125,8.476723000231384,3.811407714927196,-3.1287010530814525
1789125291463273200,6.756273193359375,8.508426883006095,3.7325475287020202,-3.137693337832391
1789125291473215200,6.76621533203125,8.516078274542092,3.6865675755545495,-3.171128866705298
1789125291483157500,6.776157470703125,8.501160106873511,3.683556411039829,-3.2143484152287245
1789125291493098200,6.78609814453125,8.48361509783268,3.699935298910737,-3.2417744745537638
1789125291503040300,6.796040283203125,8.4799752800256,3.6970027525901794,-3.254616128209233
1789125291512982300,6.805982177734375,8.479435766321421,3.6777605842426415,-3.277745951645076
1789125291522924500,6.815924560546875,8.46752028760016,3.6726042243927717,-3.3141353618875145
1789125291532866300,6.8258662109375,8.435939738944173,3.6980741812139746,-3.3659374453172086
1789125291542808300,6.835808349609375,8.394603519949316,3.7360742415234443,-3.4267814978584643
1789125291552750300,6.845750244140625,8.3670883210361,3.7560412170141935,-3.4719369828805324
1789125291562692400,6.8556923828125,8.346271158456801,3.7657483720362186,-3.5113036553680894
1789125291572634000,6.865634033203125,8.298465451186894,3.8068458138391374,-3.579636310099065
1789125291582576400,6.875576416015625,8.229628646326065,3.880090498270094,-3.6590263654172417
1789125291592518400,6.885518310546875,8.171444752904772,3.952163800834119,-3.7119188744321465
1789125291602460400,6.89546044921875,8.132670493352412,4.011185898645222,-3.7336858850821852
1789125291612402200,6.905402099609375,8.106420784330368,4.0706414194375276,-3.726420277993381
1789125291622344200,6.91534423828125,8.092008228096365,4.140475418642163,-3.680522157910466
1789125291632286200,6.9252861328125,8.062673412540555,4.236229456523061,-3.635665071313083
1789125291642228500,6.935228515625,7.982733614385127,4.375606947553157,-3.6469746930956837
1789125291652170500,6.94517041015625,7.874241090962291,4.538233504484594,-3.683905370607972
1789125291662112300,6.9551123046875,7.774665448966622,4.697709488430619,-3.6954648754984136
1789125291672053200,6.96505322265625,7.694962966698408,4.852194532221556,-3.662526482492685
1789125291681995300,6.974995361328125,7.6365628001779315,5.004558930596709,-3.5787779397040604
1789125291691937300,6.984937255859375,7.570359266430139,5.177471611481905,-3.471859533730149
1789125291701879300,6.99487939453125,7.46390380179286,5.3871121407836675,-3.382240637603402
1789125291711821300,7.0048212890625,7.320220722523331,5.617003430953622,-3.3217484672397375
1789125291721763300,7.014763427734375,7.165318914625048,5.833503909152745,-3.286153714506328
1789125291731705300,7.024705322265625,7.019446216356754,6.02417436504662,-3.256846956001222
1789125291741647400,7.0346474609375,6.890762553298473,6.196178698915243,-3.208604903140664
1789125291751589400,7.04458935546875,6.766206783825159,6.3675120016545055,-3.1374522225528954
1789125291761531400,7.054531494140625,6.629310003694892,6.552842265564203,-3.0467887858092784
1789125291771473400,7.064473388671875,6.478913106000423,6.7426184029668566,-2.9548627817839384
1789125291781415200,7.074415283203125,6.3244613799571985,6.917061946681142,-2.885451684166491
1789125291791357200,7.084357177734375,6.182871473574638,7.067901327446103,-2.826177657420933
1789125291801299500,7.094299560546875,6.05588058590889,7.206037293982505,-2.751310632485151
1789125291811241500,7.104241455078125,5.928114037695527,7.34760206592381,-2.653413152834773
1789125291821183200,7.114183349609375,5.796135424745082,7.489713365831971,-2.5454621889427305
1789125291831125200,7.124125244140625,5.678490457573533,7.6133713096827265,-2.4416568004228174
1789125291841067300,7.1340673828125,5.592080002099276,7.709805731043219,-2.336227463962883
1789125291851009300,7.14400927734375,5.520729168590903,7.797947540354728,-2.2099676670506594
1789125291860950300,7.1539501953125,5.44984595259428,7.89072869990468,-2.0508470724135637
1789125291870892300,7.163892333984375,5.37050821198523,7.986288091996312,-1.8834112155042588
1789125291880834300,7.173834228515625,5.267706593680382,8.085615312188864,-1.7448372959420084
1789125291890776300,7.1837763671875,5.151377385282516,8.182282373261451,-1.6382795399740337
1789125291900718300,7.19371826171875,5.040584183701872,8.267484621989727,-1.5529212239012122
1789125291910660400,7.203660400390625,4.9335295841276645,8.3445935806334,-1.4827173684708774
1789125291920602400,7.213602294921875,4.830498833242059,8.41686562063992,-1.4117550958886742
1789125291930544400,7.22354443359375,4.718972056689858,8.49068372104466,-1.3453623231790959
1789125291940486400,7.233486328125,4.597637587350607,8.5661793992728,-1.2855761091277003
1789125291950428200,7.24342822265625,4.478266527038812,8.637985575333238,-1.2250555894523858
1789125291960370200,7.2533701171875,4.385217948724329,8.693821444323659,-1.1652143572781235
1789125291970312400,7.2633125,4.328130910629034,8.728494698297977,-1.1185056514646858
1789125291980254500,7.27325439453125,4.285969054464996,8.752278309467435,-1.094744836648926
1789125291990196200,7.2831962890625,4.237451691794395,8.774929117214679,-1.1022825386773794
1789125292000138200,7.29313818359375,4.18478363918513,8.79538738335371,-1.1398020489282905
1789125292010080300,7.303080322265625,4.134654749664664,8.81198488241136,-1.1932918662492185
1789125292020022300,7.313022216796875,4.100383939011395,8.820027319091558,-1.2507450342431663
1789125292029964300,7.32296435546875,4.103294273500144,8.810183385947346,-1.3092263031758367
1789125292039906300,7.33290625,4.1459798612773415,8.782404567661882,-1.3603646619997918
1789125292049847300,7.342847412109375,4.194001841646433,8.752707348534464,-1.4038672652482986
1789125292059789300,7.352789306640625,4.238725657252967,8.723762409079074,-1.4489710200831294
1789125292069731300,7.3627314453125,4.299801764984428,8.686164207568764,-1.4942181289114058
1789125292079673300,7.37267333984375,4.392717364569008,8.633100141379236,-1.531011297649145
1789125292089615400,7.382615478515625,4.509703867831826,8.565990598702431,-1.5674030459791422
1789125292099557400,7.392557373046875,4.634039857074618,8.489149351084231,-1.6218407386094331
1789125292109499100,7.4024990234375,4.751967440579831,8.408762978205084,-1.6976124572999773
1789125292119441200,7.412441162109375,4.8673134831592435,8.323816750064491,-1.7870964750006795
1789125292129383400,7.422383544921875,4.986294959631562,8.231177044811844,-1.8854655176855624
1789125292139325400,7.432325439453125,5.0973774995476,8.136654010030627,-1.9954940185040235
1789125292149267500,7.442267333984375,5.195260366150737,8.044602333799004,-2.1128288968130944
1789125292159209200,7.452209228515625,5.293460043618083,7.950864311915636,-2.2211386110149323
1789125292169151200,7.462151123046875,5.403051468193531,7.851005176803469,-2.3106660294659433
1789125292179093200,7.47209326171875,5.516678431895375,7.749671877485513,-2.383115910257399
1789125292189035500,7.482035400390625,5.621823398455977,7.655265747082233,-2.4418017618514596
1789125292198977300,7.491977294921875,5.703594503691792,7.577264223513007,-2.494889355047047
1789125292208919300,7.501919189453125,5.758358359536528,7.518704482516646,-2.545744220754504
1789125292218861300,7.511861328125,5.804488827070593,7.468015328764915,-2.589801389145851
1789125292228803300,7.52180322265625,5.859097784614563,7.4149793196260925,-2.619060801377892
1789125292238745000,7.5317451171875,5.924070315262675,7.35892133231759,-2.6309812485352158
1789125292248687400,7.541687255859375,5.991823416540027,7.304696405655145,-2.6286583585456014
1789125292258628400,7.55162841796875,6.063586922502517,7.250635145121812,-2.613736976006627
1789125292268570400,7.5615703125,6.141982413825392,7.191646949580312,-2.5935820767283437
1789125292278512000,7.57151220703125,6.223910755449533,7.12760497778058,-2.574982005676627
1789125292288454400,7.581454345703125,6.310036548763513,7.059914420345425,-2.5517598277822136
1789125292298396400,7.591396484375,6.40471039019227,6.988175464302301,-2.5130662322506305
1789125292308338400,7.60133837890625,6.509677077576518,6.909706907743215,-2.4597651424348355
1789125292318280200,7.6112802734375,6.620097354191541,6.825936737644672,-2.3981867842696607
1789125292328222200,7.62122216796875,6.727562872654199,6.742329649153351,-2.334789686244726
1789125292338164200,7.631164306640625,6.831962573805451,6.66010320136547,-2.266653430868685
1789125292348106500,7.6411064453125,6.936837491253018,6.574439180344343,-2.197141795486212
1789125292358048300,7.65104833984375,7.047845796889066,6.47808074682951,-2.129014746329933
1789125292367990300,7.660990234375,7.17066845895946,6.365232950806617,-2.0580913444533944
1789125292377932300,7.670932373046875,7.298484107011556,6.241622353228927,-1.9861109808698296
1789125292387874300,7.680874267578125,7.4219678633391855,6.114097212556004,-1.9242032446198165
1789125292397816300,7.69081640625,7.53477357378602,5.987051379832625,-1.884870036010444
1789125292407758300,7.70075830078125,7.639379026642441,5.85900952180922,-1.8660782417789101
1789125292417700400,7.710700439453125,7.736464605388045,5.7296063123047345,-1.867927815168351
1789125292427642400,7.720642333984375,7.823751843696832,5.602460526338219,-1.88990846856907
1789125292437584400,7.73058447265625,7.906668027314543,5.477321404018998,-1.911518242830783
1789125292447527000,7.74052685546875,7.993402892437577,5.347925793299079,-1.9171917584225535
1789125292457469000,7.750468994140625,8.083761793276667,5.211752066746354,-1.9133247077308595
1789125292467411000,7.760410888671875,8.165479122498631,5.07994121157825,-1.9208086337454615
1789125292477352000,7.77035205078125,8.238244498980045,4.954931853118539,-1.9365942318983376
1789125292487294000,7.7802939453125,8.311132040536403,4.827541444741189,-1.9468844475053249
1789125292497236000,7.790236083984375,8.380491992488503,4.6997237508624785,-1.9622215712383388
1789125292507178000,7.800177978515625,8.444812781229615,4.57383351791501,-1.9838294458039103
1789125292517120000,7.8101201171875,8.505314303943514,4.448883488427103,-2.009352155725658
1789125292527062000,7.82006201171875,8.555429457199573,4.330449416704476,-2.05480779273808
1789125292537004000,7.830004150390625,8.58716022798121,4.225906215429306,-2.1384014372259377
1789125292546946000,7.839946044921875,8.606066588503122,4.129346414123475,-2.24821337268427
1789125292556888000,7.84988818359375,8.617006500190495,4.040866751159728,-2.3641056509695946
1789125292566829800,7.859829833984375,8.617708510980009,3.970369904132187,-2.4782415871068832
1789125292576772000,7.869772216796875,8.611687935516239,3.9189261326208706,-2.5789906567960976
1789125292586714000,7.879714111328125,8.595048935404419,3.8849955137073993,-2.683717982466519
1789125292596656000,7.88965625,8.568068574020266,3.8658611896485087,-2.7953105177313087
1789125292606598000,7.899597900390625,8.530849727216362,3.8637516501486298,-2.9097128497198224
1789125292616540000,7.909539794921875,8.481105745360255,3.8817330047801133,-3.028757162295282
1789125292626482000,7.91948193359375,8.42184691618383,3.918340441687405,-3.1447558235645294
1789125292636424200,7.929424072265625,8.36763017282784,3.9595749538734553,-3.2364985799774524
1789125292646366000,7.939365966796875,8.319147589209676,4.007118503075838,-3.302293240663409
1789125292656308000,7.949307861328125,8.266959721332787,4.074357809612155,-3.3507305238351224
1789125292666250000,7.95925,8.205723454603552,4.160104248219728,-3.395598424087465
1789125292676192000,7.96919189453125,8.126321416586636,4.258618690724671,-3.463733218158781
1789125292686134000,7.979134033203125,8.026562819239496,4.373043234544992,-3.5526311065346
1789125292696076000,7.989075927734375,7.919457950782776,4.505841347184777,-3.6262925550729035
1789125292706018000,7.99901806640625,7.817983781689405,4.648513788107037,-3.666172437779605
1789125292715960000,8.0089599609375,7.724788780641555,4.788585398881137,-3.683407357957959
1789125292725900800,8.01890087890625,7.6291376186132425,4.931357500785589,-3.6943618826925753
1789125292735842800,8.0288427734375,7.521727629730105,5.091389657309651,-3.697534667509794
1789125292745785000,8.03878515625,7.401908241128921,5.267853308674693,-3.692139530467987
1789125292755727000,8.04872705078125,7.282056119301915,5.444041065707802,-3.674841481925547
1789125292765668900,8.0586689453125,7.1720111057400695,5.613251969465613,-3.6364828174367543
1789125292775611000,8.06861083984375,7.071676169809699,5.7813072734475135,-3.5690666930288075
1789125292785553000,8.078552978515624,6.969618063348531,5.955064588463306,-3.483097843842208
1789125292795495000,8.088494873046875,6.862199891158938,6.131439977023005,-3.3891026323273774
1789125292805437200,8.098437255859375,6.757906572991609,6.2987622905552385,-3.290396466642618
1789125292815379000,8.10837890625,6.668124595257639,6.451172866159677,-3.176303054472804
1789125292825321000,8.118321044921874,6.5898851712793105,6.592279372939467,-3.047230099835992
1789125292835263000,8.128262939453125,6.510152878394723,6.732032711544632,-2.909994881531596
1789125292845205000,8.138205078125,6.422336063253879,6.874970525404811,-2.7674513276860115
1789125292855147000,8.14814697265625,6.32809593706727,7.014517527782917,-2.6309923544511196
1789125292865089000,8.158089111328126,6.227395090433955,7.1471958134353155,-2.51147311784029
1789125292875031000,8.168031005859374,6.1224757493227715,7.275460374298691,-2.3986136313796043
1789125292884973000,8.17797314453125,6.013486966815591,7.401092833092808,-2.28739255977571
1789125292894915000,8.1879150390625,5.9044373940318815,7.521043739119172,-2.177586031144857
1789125292904856800,8.19785693359375,5.801538745093345,7.632057305452227,-2.064994547970593
1789125292914798800,8.207798828125,5.695225903797149,7.739536267918348,-1.9581541756689547
1789125292924741000,8.2177412109375,5.56722905395925,7.852957479915022,-1.8728019970759748
1789125292934683100,8.22768310546875,5.422538258951902,7.968982736930251,-1.8060408294454215
1789125292944625000,8.237625,5.286521184265613,8.074028334769606,-1.741593199454248
1789125292954567000,8.24756689453125,5.170191975867748,8.16324391079247,-1.67360015194118
1789125292964509000,8.257509033203124,5.057879017373919,8.244864209380745,-1.6156968290269373
1789125292974451000,8.267450927734375,4.937652217015624,8.324926172611116,-1.5765820854738353
1789125292984393000,8.27739306640625,4.817535306772589,8.399958324980735,-1.5499853165797888
1789125292994335000,8.2873349609375,4.725481000192463,8.458909695643186,-1.5123141959637403
1789125293004277000,8.297277099609374,4.666190606833994,8.499136492091417,-1.470279473310709
1789125293014218000,8.307218017578125,4.596787108001113,8.538927235209941,-1.4583108030974865
1789125293024160000,8.317159912109375,4.516183000718057,8.580814073824882,-1.4642717573285102
1789125293034102000,8.32710205078125,4.44479388102591,8.6159181204319,-1.476538241444528
1789125293044044000,8.3370439453125,4.422701291683316,8.627852303853631,-1.473189953929931
1789125293053986000,8.346986083984374,4.424101221609115,8.627696821030973,-1.4698814139038323
1789125293063927800,8.356927734375,4.417149795036018,8.628360837897658,-1.4867865176059305
1789125293073869800,8.366869873046875,4.404703862699866,8.629045313030481,-1.519383842089027
1789125293083812000,8.37681201171875,4.418091167539358,8.617196469804645,-1.547511181551218
1789125293093754000,8.386754150390624,4.460587662485241,8.590061794641613,-1.5761977623313665
1789125293103696000,8.39669580078125,4.519056510327756,8.551232590031624,-1.6201744128324091
1789125293113638000,8.406637939453125,4.584452819345891,8.5047256904006,-1.6801127487055956
1789125293123580000,8.416579833984375,4.662201829458773,8.448807403823732,-1.7469770844496786
1789125293133522000,8.42652197265625,4.750884613779187,8.383716215232015,-1.8201082255035639
1789125293143464200,8.436464111328124,4.8337344541624185,8.316568094110488,-1.907905605291575
1789125293153406000,8.446406005859375,4.902926356071234,8.25229640520811,-2.00780448789224
1789125293163348000,8.456347900390625,4.968896081063151,8.188425113800168,-2.1047978583097455
1789125293173290000,8.4662900390625,5.029078454825282,8.128425110867619,-2.1925926077492535
1789125293183232000,8.47623193359375,5.132157136505842,8.05153008723557,-2.2370130564950403
1789125293193173800,8.486173828125,5.310265047946572,7.938954678413271,-2.2236229751765726
1789125293203116000,8.496115966796875,5.455659607309102,7.857768095067143,-2.159090443380922
1789125293213058000,8.50605810546875,5.520004945969581,7.832959817025065,-2.084399505664408
1789125293223000000,8.516,5.573769269382954,7.79859811321795,-2.070103123155981
1789125293232942000,8.525942138671875,5.610415284734964,7.769374356821179,-2.0809797603487965
1789125293242883800,8.5358837890625,5.639770558556914,7.740098577976227,-2.1105207660011946
1789125293252825900,8.545825927734375,5.657745775708555,7.713691048043966,-2.1585405544131993
1789125293262768000,8.55576806640625,5.668210471099615,7.688981554201245,-2.2184094783119854
1789125293272710100,8.565710205078124,5.68821339468658,7.6574483518183225,-2.275545762376487
1789125293282652000,8.57565185546875,5.73026916012764,7.613440283265709,-2.317306198132783
1789125293292594000,8.585593994140625,5.785308325782418,7.561127912226319,-2.35158168496117
1789125293302536000,8.595535888671876,5.84343727414608,7.503841259905696,-2.391028436947614
1789125293312478000,8.60547802734375,5.905909804672002,7.440026082599163,-2.4365114003583788
1789125293322420000,8.615419921875,5.970999824219942,7.371516025474667,-2.485616499789059
1789125293332362000,8.625362060546875,6.0407765402793885,7.297792033094168,-2.5340894387960433
1789125293342303000,8.635302978515625,6.12050298794508,7.2163517672479145,-2.5756822629004716
1789125293352245000,8.645244873046876,6.221031985142827,7.1195993659794325,-2.603938343308866
1789125293362187000,8.65518701171875,6.341037251704931,7.00395521723628,-2.6279654078453776
1789125293372129000,8.66512890625,6.471359329620003,6.870356894129515,-2.6627263401031493
1789125293382071000,8.675071044921875,6.602263591337204,6.724962334766984,-2.7120836607292294
1789125293392013000,8.685012939453125,6.7276365224123,6.575394289112091,-2.7701073951527473
1789125293401954800,8.694954833984376,6.844260914364456,6.426174033981561,-2.833864704792201
1789125293411896800,8.704896728515624,6.958302888607978,6.274763575330376,-2.894780361264944
1789125293421839000,8.714839111328125,7.07303459868133,6.120712246781587,-2.9460981683090326
1789125293431781000,8.724781005859375,7.193342647582292,5.960896363356709,-2.9822715977132317
1789125293441723000,8.734722900390626,7.315289695861935,5.794509284847974,-3.013404110340774
1789125293451664600,8.74466455078125,7.433239783459902,5.623689776849746,-3.04818403955996
1789125293461606400,8.7546064453125,7.539646732780337,5.457036156359314,-3.0894734968036413
1789125293471548700,8.764548583984375,7.638353775247931,5.29573909446597,-3.127468880937993
1789125293481490700,8.77449072265625,7.739730329185724,5.130526320433616,-3.1535151763424274
1789125293491432700,8.7844326171875,7.844362670049071,4.95927368171513,-3.1689053454369303
1789125293501374500,8.79437451171875,7.947507987225055,4.78711620311141,-3.1766338938623666
1789125293511316500,8.80431640625,8.046784938535094,4.616706152696907,-3.178938371412456
1789125293521258500,8.814258544921875,8.138451999363303,4.452573867377638,-3.1797172468304633
1789125293531200800,8.82420068359375,8.217313354632259,4.30116019385606,-3.185307321922481
1789125293541142500,8.834142578125,8.278884552404284,4.16936102912575,-3.2010672011122105
1789125293551084500,8.84408447265625,8.325053598383068,4.058930523377657,-3.2231863862007852
1789125293561026600,8.854026611328125,8.36531663518846,3.957550170047581,-3.2449440445005893
1789125293570968600,8.863968505859376,8.406410277599095,3.851214824658632,-3.266628053042292
1789125293580910600,8.87391064453125,8.44246943297386,3.7425761707633733,-3.2997312812209127
1789125293590852600,8.8838525390625,8.458460198310018,3.657834817545116,-3.3533781157344578
1789125293600794600,8.893794677734375,8.453594638100267,3.6188550985485315,-3.4074911064550277
1789125293610736600,8.903736572265625,8.446495035228132,3.6097771813407538,-3.434615552484989
1789125293620678700,8.9136787109375,8.442273618140817,3.604023732380569,-3.451003208184242
1789125293630620400,8.923620361328124,8.425432957977057,3.6065044432803988,-3.489353689366579
1789125293640562400,8.9335625,8.399849603909253,3.622754736335575,-3.5339211453676223
1789125293650504700,8.943504638671875,8.377695639768243,3.64846493165344,-3.559957211638987
1789125293660446700,8.95344677734375,8.362903144305944,3.676413845808804,-3.565977202580869
1789125293670388500,8.963388427734374,8.345579669061303,3.7137107262849804,-3.5679210301250217
1789125293680330500,8.97333056640625,8.318157993650436,3.773721835133433,-3.5689901206612586
1789125293690272500,8.9832724609375,8.277844103440643,3.860327813179791,-3.5700907753795383
1789125293700214500,8.993214599609376,8.220710011333226,3.9670921976357696,-3.58503612331599
1789125293710156800,9.00315673828125,8.15574332590401,4.083671289141476,-3.602484393984079
1789125293720098600,9.0130986328125,8.094189079266785,4.203064561285078,-3.6039942140251395
1789125293730040600,9.02304052734375,8.039049960368871,4.324510966566205,-3.5836680498331783
1789125293739982600,9.032982666015625,7.979947198536991,4.455562820060551,-3.555105387693643
1789125293749924600,9.042924560546876,7.9016709496796125,4.603778866584599,-3.5410710171222686
1789125293759865600,9.052865478515624,7.810213147687912,4.764196807555854,-3.5317663054212924
1789125293769808600,9.06280859375,7.716272296708822,4.928583359897137,-3.5126351962327953
1789125293779749600,9.07274951171875,7.621917019709945,5.09226936275363,-3.485045470778644
1789125293789691600,9.082691650390625,7.534589449390769,5.248739442881941,-3.442543715135753
1789125293799633400,9.09263330078125,7.446604876467585,5.40271770619452,-3.395449663266539
1789125293809575700,9.10257568359375,7.340072839462756,5.569932467699051,-3.357021732933819
1789125293819517700,9.112517578125,7.208537878626585,5.761323639082908,-3.318813875092566
1789125293829459700,9.122459716796875,7.061712409678101,5.962924654313921,-3.2781349509626625
1789125293839401500,9.1324013671875,6.920817499822378,6.150258074739575,-3.2321792554736137
1789125293849343500,9.142343505859374,6.796276343396306,6.32035511368215,-3.167667620335519
1789125293859285500,9.152285400390625,6.681096305033564,6.483765222206712,-3.081252488686144
1789125293869227500,9.1622275390625,6.564651361301541,6.646669134774804,-2.982867517779767
1789125293879169500,9.17216943359375,6.447095825979114,6.8050213753879065,-2.880451391661167
1789125293889111600,9.182111572265624,6.33656332116127,6.952742916393279,-2.77086727360934
1789125293899053600,9.192053466796875,6.232641174393892,7.091856788051128,-2.6514459444150327
1789125293908995600,9.20199560546875,6.127276427602768,7.22842682044506,-2.525212597118318
1789125293918937600,9.2119375,6.014020050778985,7.36490859003365,-2.400018529741466
1789125293928879600,9.221879638671876,5.890234096634388,7.499751944765448,-2.286754554133117
1789125293938821600,9.231821533203124,5.758349007186293,7.6301435807853935,-2.1892207932285963
1789125293948763600,9.241763671875,5.626532306799292,7.752483427774906,-2.100363236863166
1789125293958705700,9.25170556640625,5.501565618437528,7.864284929615259,-2.0140071419246492
1789125293968647400,9.2616474609375,5.380770662802457,7.967439599141478,-1.9332941674396396
1789125293978589400,9.27158935546875,5.251771942445635,8.070433525148033,-1.8593933571875094
1789125293988531700,9.28153173828125,5.11377100046575,8.175062358880043,-1.7855157816804945
1789125293998473700,9.2914736328125,4.987287477800249,8.27029675680101,-1.7028098798125981
1789125294008415500,9.30141552734375,4.871962185747921,8.354041792458295,-1.6261511491544545
1789125294018357500,9.311357421875,4.7556677564024925,8.43206494333744,-1.5666237321697174
1789125294028299500,9.321299560546874,4.648597959259152,8.499716922327876,-1.5217456027843057
1789125294038241500,9.331241455078125,4.561719301751256,8.55159324003756,-1.4937754997104407
1789125294048183600,9.34118359375,4.489877177594602,8.590596047648788,-1.4876428421743213
1789125294058125600,9.35112548828125,4.420329594115913,8.623941267889737,-1.5029014938436447
1789125294068067600,9.361067626953124,4.359730456246435,8.65079361898005,-1.5254244374275208
1789125294078009600,9.371009521484375,4.317703040117025,8.668593479564786,-1.5437996136821805
1789125294087951600,9.38095166015625,4.278206311509013,8.684517024883627,-1.564130746310204
1789125294097893400,9.390893310546875,4.2500525224313135,8.695860256674885,-1.5778073894850908
1789125294107835600,9.400835693359374,4.254484951920807,8.692752938309312,-1.5829665258139372
1789125294117777700,9.410777587890625,4.276675740940869,8.679905147174,-1.5936472020432353
1789125294127719700,9.4207197265625,4.3011537641152735,8.663848915386199,-1.614995256628841
1789125294137661400,9.430661376953125,4.314626116889715,8.651634745979308,-1.6442678206034003
1789125294147603500,9.440603515625,4.345563106945157,8.631649358049035,-1.667667839282751
1789125294157545500,9.45054541015625,4.416902834537625,8.592336169314384,-1.6831984397612512
1789125294167487700,9.46048779296875,4.508144071169197,8.540816409957408,-1.7033775966979563
1789125294177429800,9.4704296875,4.591394601307809,8.488188397097588,-1.7435969404920935
1789125294187371500,9.48037158203125,4.648627769875526,8.442558280301094,-1.8121417766690253
1789125294197313500,9.4903134765625,4.691232109110057,8.398751287278532,-1.9035981173560022
1789125294207255600,9.500255615234375,4.753507655759155,8.343022970315813,-1.9921165048949419
1789125294217197600,9.510197509765625,4.8332536849081515,8.278062714627385,-2.069716900317371
1789125294227139600,9.5201396484375,4.912599024301767,8.21331756299436,-2.1396621048115194
1789125294237081600,9.53008154296875,4.9818981859773395,8.154131214532256,-2.2048133530274034
1789125294247023600,9.540023681640625,5.040968214583397,8.100669088935852,-2.266749000197649
1789125294256965600,9.549965576171875,5.094374226078391,8.052217484977842,-2.319376866926998
1789125294266907400,9.559907470703125,5.146435837227106,8.008257931742072,-2.3563474380582567
1789125294276849400,9.569849365234376,5.201070513734221,7.96717481072545,-2.375585953143984
1789125294286791700,9.579791748046874,5.261111433199048,7.927313924980163,-2.376719633349031
1789125294296733700,9.589733642578125,5.329104772973061,7.887154348549246,-2.358782410120219
1789125294306675700,9.59967578125,5.397990677672624,7.846718877786397,-2.336894403439015
1789125294316617500,9.609617431640626,5.471192107483744,7.801061872982978,-2.3194614764705297
1789125294326559500,9.6195595703125,5.549858232441545,7.745653289493918,-2.318262037552893
1789125294336501500,9.62950146484375,5.621724029734731,7.683402292764186,-2.3520037097655235
1789125294346443800,9.63944384765625,5.703163711059093,7.606203317749499,-2.4062289286889134
1789125294356385500,9.649385498046875,5.8037909079343075,7.51123663085401,-2.4632678898587823
1789125294366327600,9.65932763671875,5.905592993807792,7.412891991958022,-2.51860633072108
1789125294376269600,9.66926953125,6.004578268694877,7.317458272072672,-2.563241591261327
1789125294386211600,9.679211669921875,6.10052812140882,7.2246215829432,-2.5997666105821726
1789125294396153600,9.689153564453125,6.199872877258062,7.127609653955697,-2.6323323708832262
1789125294406095600,9.699095703125,6.308230376124381,7.021805346703529,-2.6591172096952795
1789125294416037600,9.70903759765625,6.419511653482914,6.911462226977944,-2.681777954314649
1789125294425979600,9.718979736328125,6.534082035514712,6.796743960908055,-2.6982278615951536
1789125294435921700,9.728921630859375,6.658340283346176,6.671918142321705,-2.7059882664635775
1789125294445863400,9.738863525390625,6.791798905721307,6.535733309853077,-2.706662512463331
1789125294455805700,9.7488056640625,6.931468073174357,6.388930637258291,-2.7030884533688426
1789125294465747700,9.758747802734375,7.069346850079298,6.237229086706042,-2.700321619004011
1789125294475689700,9.768689697265625,7.204266777178645,6.0821641972005365,-2.697443433219194
1789125294485631700,9.7786318359375,7.3397045906722544,5.9186792698740955,-2.6959976183250545
1789125294495573800,9.78857373046875,7.47496354046762,5.7459723406940695,-2.697978855270147
1789125294505515500,9.798515625,7.596409068965912,5.57411179921031,-2.719229148569703
1789125294515457500,9.80845751953125,7.692378210902214,5.41435495249629,-2.7717186297416685
1789125294525399800,9.81839990234375,7.771952098354697,5.269082558208703,-2.8291137108728286
1789125294535341800,9.828341796875,7.856805972036719,5.128475233122706,-2.8530186103343964
1789125294545283800,9.838283935546874,7.947524938359856,4.981830381438136,-2.8615786411479114
1789125294555225600,9.8482255859375,8.036863263979553,4.821659693226218,-2.8863144384756683
1789125294565167600,9.858167724609375,8.126384544950723,4.6444908162012695,-2.925921933981776
1789125294575109600,9.868109619140625,8.21496065402627,4.463281431613862,-2.960389436250925
1789125294585051600,9.8780517578125,8.288897996896505,4.305513128368556,-2.9878286473184823
1789125294594992600,9.88799267578125,8.339169802018999,4.183166851638258,-3.0215432853937148
1789125294604935700,9.897935791015625,8.3793416534096,4.079049766820669,-3.052593672695756
1789125294614876700,9.907876708984375,8.41505652539134,3.9779704422637816,-3.0875545114398
1789125294624819700,9.91781982421875,8.44120511212647,3.8805896799638866,-3.1396622998178003
1789125294634760700,9.9277607421875,8.451947455415128,3.80483593532145,-3.2028470702663063
1789125294644702700,9.93770263671875,8.444207801073789,3.7706539719954133,-3.2631133229196068
1789125294654644700,9.947644775390625,8.425622343069314,3.7719662236377594,-3.3093104259490964
1789125294664587800,9.957587890625,8.406542379546165,3.785315242293477,-3.3424326510891316
1789125294674528500,9.967528564453126,8.391730594861507,3.8008229002878067,-3.3619837392553684
1789125294684470500,9.977470458984374,8.372258417150377,3.827117617495358,-3.380659213630855
1789125294694412800,9.987412841796875,8.332596268847585,3.8861750788807865,-3.4111358926981685
1789125294704354800,9.997354736328125,8.275044243589043,3.976470266833901,-3.446993388020992
1789125294714296600,10.007296630859376,8.209324693965911,4.078985177151859,-3.484144722546637
1789125294724238600,10.017238525390624,8.145673767310381,4.179890021924674,-3.5138095007091756
1789125294734180600,10.0271806640625,8.087856369113922,4.278742610342801,-3.5283582505434747
1789125294744122600,10.03712255859375,8.025820476439595,4.3855709999457,-3.5388369744598864
1789125294754065000,10.04706494140625,7.942305742406845,4.514539909686148,-3.564984976673126
1789125294764006700,10.057006591796876,7.841040832149982,4.663115437172353,-3.5977535660699007
1789125294773948700,10.06694873046875,7.744055206647515,4.809615327428281,-3.614910452575981
1789125294783890700,10.076890625,7.657426139986515,4.942349434921145,-3.620409342253208
1789125294793832700,10.086832763671875,7.564150474917888,5.085357975929975,-3.618442133833468
1789125294803774700,10.096774658203126,7.459656665742397,5.249965185284614,-3.6002459674075245
1789125294813716700,10.106716796875,7.346497319552302,5.424896220254897,-3.5734959076479074
1789125294823658800,10.11665869140625,7.231721770337224,5.600062817546725,-3.537218725608289
1789125294833600800,10.126600830078125,7.1239061232626435,5.766815806758403,-3.4877243345990774
1789125294843542500,10.13654248046875,7.0276429668158285,5.921968374547362,-3.4224081050798296
1789125294853484500,10.146484619140624,6.933226315018534,6.0721028219133615,-3.3511762217760084
1789125294863426600,10.156426513671875,6.831105664715171,6.223163151952624,-3.2830805906713008
1789125294873368800,10.166368896484375,6.716533529117703,6.381561569795012,-3.2146836385324598
1789125294883310800,10.176310791015625,6.592529548308253,6.544210046297311,-3.1436016850933433
1789125294893252600,10.186252685546876,6.467478104272485,6.7038681088119745,-3.0659903298854827
1789125294903194600,10.196194580078124,6.344613941147923,6.857302182245254,-2.9822271740496156
1789125294913136600,10.20613671875,6.22160364755094,7.00809480125904,-2.8893969146609306
1789125294923078700,10.21607861328125,6.090245796847343,7.161764437013864,-2.790767029082775
1789125294933020700,10.226020751953126,5.94888268495798,7.317789111462235,-2.6890686958447096
1789125294942962700,10.235962646484374,5.805471992889046,7.467012873724102,-2.590489955931902
1789125294952904700,10.24590478515625,5.670330531993508,7.602427890864014,-2.494159579467773
1789125294962846700,10.2558466796875,5.543530198463797,7.728035799738764,-2.3910554710850116
1789125294972788700,10.265788818359376,5.422232554003596,7.848100687533616,-2.27532145210132
1789125294982730800,10.275730712890624,5.305050528168678,7.9626143709421155,-2.1502472117118536
1789125294992672800,10.2856728515625,5.197129667153955,8.066538855797052,-2.022668148894608
1789125295002614800,10.29561474609375,5.107051336821914,8.15423525942862,-1.896544253321737
1789125295012556800,10.305556884765625,5.031977683398127,8.227203465005754,-1.7783979124993086
1789125295022498600,10.31549853515625,4.95599276034832,8.29409498101771,-1.6782475393556058
1789125295032440600,10.325440673828124,4.870675068546832,8.358647824949026,-1.6062237750217319
1789125295042382600,10.335382568359375,4.779400514167547,8.41915928453505,-1.5637996146596966
1789125295052324900,10.345324951171875,4.691300498171151,8.47260855064988,-1.5417479418493807
1789125295062266600,10.3552666015625,4.599878059753776,8.524402450773119,-1.5316862743012607
1789125295072208600,10.365208740234374,4.5069989927873015,8.576341312325,-1.5178011029422283
1789125295082150700,10.375150634765625,4.431899620400369,8.619905728763342,-1.4919351325407624
1789125295092092700,10.3850927734375,4.3746068305999035,8.654250481435657,-1.461897721673548
1789125295102034700,10.39503466796875,4.325577719014883,8.684122472608088,-1.4303015370570122
1789125295111976700,10.404976806640626,4.2875516474813224,8.707735403385758,-1.4009335498839617
1789125295121918700,10.414918701171874,4.26410442865938,8.722309287661313,-1.3817208998918533
1789125295131860700,10.42486083984375,4.253598232214152,8.729015507301687,-1.3717036560073494
1789125295141802800,10.434802734375,4.248300418066978,8.731596171444654,-1.3716940113961695
1789125295151744500,10.44474462890625,4.264025810465216,8.72367706888318,-1.373291509720683
1789125295161686800,10.454686767578124,4.291849344675243,8.708435660609602,-1.3833239511743187
1789125295171628800,10.46462890625,4.306194973152875,8.696851021277904,-1.4113267874740063
1789125295181570800,10.47457080078125,4.307861152799427,8.689103768151998,-1.4533390060342848
1789125295191512600,10.4845126953125,4.323395114278793,8.673795724382996,-1.4979662293985485
1789125295201454600,10.49445458984375,4.380798963238298,8.638385972827672,-1.5353333986319602
1789125295211396600,10.504396728515625,4.467832226786017,8.58639333526194,-1.5756600021928548
1789125295221338600,10.514338623046875,4.556925637733936,8.531555829659103,-1.617836033012718
1789125295231281000,10.524281005859375,4.6433995138332245,8.477470019206404,-1.6558217725358901
1789125295241222700,10.53422265625,4.725544713078439,8.424721010315418,-1.6922545835286378
1789125295251165700,10.544165771484375,4.804662673456966,8.371253039500116,-1.7342834609627722
1789125295261107700,10.554107666015625,4.877044019056856,8.31742208059132,-1.790352700317651
1789125295271048700,10.564048583984375,4.936399586606026,8.265993506649137,-1.8643162005424498
1789125295280991700,10.57399169921875,4.997677354389428,8.21128518038392,-1.9412324130930005
1789125295290933500,10.58393359375,5.079340323075652,8.145071125242113,-2.0071086145825685
1789125295300875800,10.593875732421875,5.176271588042378,8.073356134596466,-2.048784879186749
1789125295310817800,10.60381787109375,5.259790998250246,8.013882201364636,-2.0694633639477193
1789125295320759800,10.613759765625,5.347147794663906,7.956894824251532,-2.0654858386188746
1789125295330701600,10.62370166015625,5.433808425506949,7.89994251845181,-2.057922417627275
1789125295340643600,10.6336435546875,5.513669897729158,7.84395408924818,-2.059660931857675
1789125295350585600,10.643585693359375,5.59871198745966,7.779595891106128,-2.0742845004938544
1789125295360528000,10.65352783203125,5.691389686635136,7.701203906914591,-2.1142142136916515
1789125295370470000,10.663469970703124,5.790447442236542,7.609568410268426,-2.1761505915142596
1789125295380411600,10.67341162109375,5.8926721374362705,7.509668358623981,-2.2475946562640368
1789125295390353700,10.683353759765625,5.998485212516784,7.4054603806525465,-2.3125151644639668
1789125295400295700,10.693295654296875,6.106827513813972,7.300356915146112,-2.3626012377560137
1789125295410237700,10.70323779296875,6.213570563220977,7.197199907532334,-2.400462474116683
1789125295420179700,10.7131796875,6.32302345610857,7.092825340822339,-2.425203970532864
1789125295430121700,10.723121826171875,6.445795264774561,6.979088487005233,-2.431962358751893
1789125295440063700,10.733063720703125,6.584658376541733,6.851137814396619,-2.4237482187665997
1789125295450005200,10.743005126953125,6.727090578967332,6.714288380539417,-2.415576895009726
1789125295459947300,10.752947265625,6.863244431775808,6.574969926220178,-2.415783815758675
1789125295469889300,10.76288916015625,6.992561716562509,6.4317755072504275,-2.43037815830037
1789125295479831300,10.772831298828125,7.120160506993532,6.280905146825313,-2.4543705899149177
1789125295489773300,10.782773193359375,7.240948448365926,6.127303315609693,-2.4890286463201043
1789125295499715300,10.79271533203125,7.355449272292852,5.973457738766074,-2.526963532438874
1789125295509657000,10.802656982421874,7.475320098820328,5.811366311624646,-2.553030870631337
1789125295519599000,10.81259912109375,7.6060899205029004,5.635233499649167,-2.5616306489333507
1789125295529541400,10.822541259765625,7.739398905274271,5.448891428348421,-2.565477972011268
1789125295539483400,10.8324833984375,7.865973613354563,5.257486228439212,-2.5798539956271647
1789125295549425200,10.842425048828124,7.982042709511518,5.064636674940586,-2.609003517743945
1789125295559367200,10.8523671875,8.098401728525758,4.863005264571309,-2.633898889547586
1789125295569309200,10.86230908203125,8.209597665688396,4.659975677841902,-2.6565961667850613
1789125295579251200,10.872251220703125,8.299483688318729,4.478947495040297,-2.6884964489147065
1789125295589193500,10.882193359375,8.378136953794955,4.313406804227829,-2.7151006704628466
1789125295599135200,10.89213525390625,8.456803663274645,4.149607111863792,-2.7264626069545743
1789125295609077200,10.9020771484375,8.535064714562893,3.980407314021885,-2.7348472812011835
1789125295619019300,10.912019287109375,8.601905961692333,3.816074245433509,-2.75956495835036
1789125295628961300,10.921961181640626,8.655055952599644,3.665988605645299,-2.79659471232295
1789125295638903000,10.931903076171874,8.697685718536377,3.5296085428655144,-2.8394524417966602
1789125295648845300,10.94184521484375,8.729524041345716,3.4079563858792183,-2.8899226921007037
1789125295658787300,10.951787353515625,8.74613264631927,3.3170331291556354,-2.944967410713434
1789125295668729300,10.961729248046876,8.750399656113983,3.2644270358666776,-2.990725537803769
1789125295678671000,10.971671142578124,8.749013754713534,3.235280436359346,-3.026240503299236
1789125295688613000,10.981613037109375,8.743459043195843,3.218750449579954,-3.0597315617516636
1789125295698555100,10.99155517578125,8.730427127665282,3.218424286365509,-3.097052407625317
1789125295708497400,11.001497314453125,8.705930399790406,3.241298381474614,-3.1418361367255447
1789125295718439400,11.011439453125,8.67513135690093,3.2823829637959596,-3.1840865479558706
1789125295728381200,11.021381103515624,8.642125159355997,3.336264483848214,-3.2176714221715925
1789125295738323200,11.0313232421875,8.60034295015931,3.412598950988054,-3.249410668520629
1789125295748265200,11.04126513671875,8.54154121710062,3.522718491090834,-3.2867730154484507
1789125295758207200,11.051207275390626,8.468665950503945,3.6612910954788327,-3.323705738787353
1789125295768149200,11.061149169921874,8.394489538180828,3.8101743737399576,-3.344465325960517
1789125295778091300,11.07109130859375,8.322393439263104,3.956996043296158,-3.3541470542803404
1789125295788033300,11.081033203125,8.247502741190791,4.107167607802152,-3.358603449167311
1789125295797975300,11.090975341796875,8.166798388403654,4.266985537053644,-3.3565745736882087
1789125295807917000,11.1009169921875,8.076143134966491,4.433179723338783,-3.3605288642719384
1789125295817859000,11.110859130859374,7.978649559941887,4.601531964440643,-3.3671091194450855
1789125295827801300,11.12080126953125,7.882686847746371,4.762101881103217,-3.369875953809917
1789125295837743400,11.130743408203125,7.791430121284723,4.917655138647556,-3.358672130489349
1789125295847685400,11.140685302734376,7.706676785367727,5.075516380873323,-3.3191371156975626
1789125295857627100,11.150627197265624,7.624962963277101,5.236570281660557,-3.257085440932214
1789125295867569200,11.160569091796875,7.539038830015063,5.404591683372855,-3.181777978752553
1789125295877511200,11.17051123046875,7.443420401212572,5.580110747364163,-3.102947895404696
1789125295887453400,11.180453369140626,7.341470431300998,5.754897405427694,-3.025626755315065
1789125295897395200,11.190395263671874,7.238955228722095,5.92378156144917,-2.9456337656676768
1789125295907337200,11.200337158203125,7.137722467169165,6.089072661414742,-2.854201390378177
1789125295917279200,11.210279296875,7.0340201006323095,6.25535920215845,-2.7501760754972695
1789125295927221200,11.22022119140625,6.923830125641822,6.424573613047599,-2.637390823316574
1789125295937163300,11.230163330078126,6.803197667092085,6.5974097215652465,-2.52211287753731
1789125295947105300,11.240105224609374,6.6733963981807225,6.771474495095014,-2.404853256421536
1789125295957047300,11.25004736328125,6.536797724214196,6.944680605968832,-2.2830092301249505
1789125295966989300,11.2599892578125,6.3990253302931785,7.112122746488452,-2.1541949264243243
1789125295976931300,11.269931396484376,6.265476107025146,7.2689721813231705,-2.018966517897695
1789125295986873000,11.279873046875,6.1375669354707,7.413522106555104,-1.881587361077964
1789125295996815000,11.289815185546875,6.009118834733963,7.549205419242382,-1.7522595548972486
1789125296006757400,11.29975732421875,5.875852520060539,7.679168016195296,-1.6355835788883268
1789125296016699400,11.309699462890626,5.741599532437324,7.8025652632832525,-1.5246033303029833
1789125296026641200,11.31964111328125,5.604170837387442,7.92150143930912,-1.4189688266597686
1789125296036583200,11.329583251953125,5.471226594275236,8.030600696453451,-1.321185182647407
1789125296046525200,11.339525146484375,5.342786676844955,8.129726841115952,-1.2379793684333562
1789125296056467200,11.34946728515625,5.206341147613525,8.227257825541496,-1.1733190455395728
1789125296066409500,11.359409423828126,5.064930104929209,8.322099424752592,-1.122294814614579
1789125296076351200,11.369351318359374,4.941738025024533,8.401472236675023,-1.0793129473045469
1789125296086293200,11.379293212890625,4.840018648998439,8.4625927680701,-1.062597520955652
1789125296096235300,11.3892353515625,4.744270748597383,8.5149443020761,-1.0761202156778424
1789125296106177300,11.39917724609375,4.65955862147361,8.558413441446422,-1.1011358528602868
1789125296116119000,11.409119140625,4.59458258369416,8.589791161006689,-1.1294539656542242
1789125296126061300,11.419061279296875,4.54930873298943,8.610240659317373,-1.1566822373848409
1789125296136003300,11.42900341796875,4.508942235809564,8.627543676295875,-1.1854674562338738
1789125296145945300,11.4389453125,4.473339884291589,8.642405145341158,-1.2117916187316178
1789125296155887000,11.44888720703125,4.43899425483644,8.656280525958538,-1.2387521063715219
1789125296165829000,11.4588291015625,4.408544756036997,8.667749429956078,-1.2669910895146428
1789125296175771100,11.468771240234375,4.393315038201212,8.671171221098303,-1.2961261447146535
1789125296185713400,11.47871337890625,4.411536923590302,8.657907834899426,-1.322628659453988
1789125296195655400,11.488655517578126,4.447916104699671,8.634165140262246,-1.355594524988532
1789125296205597200,11.49859716796875,4.493317088915408,8.604251063513756,-1.395484198436886
1789125296215539200,11.508539306640625,4.5572076695457095,8.564024267065525,-1.4351755728341637
1789125296225481200,11.518481201171875,4.617995900246501,8.522177175939083,-1.4889447185531257
1789125296235424300,11.52842431640625,4.663344862014055,8.484503571105003,-1.5610206514656544
1789125296245366300,11.5383662109375,4.711751457786559,8.443245093521476,-1.6374999339036642
1789125296255308000,11.54830810546875,4.797743103326857,8.383211772841214,-1.6952385677754878
1789125296265250300,11.558250244140625,4.907264677536487,8.310012681117653,-1.7415091744326054
1789125296275192300,11.5681923828125,5.005791102740169,8.241044358831644,-1.7881782788880167
1789125296285134300,11.57813427734375,5.090185542216897,8.177578725615144,-1.8405505634211003
1789125296295076000,11.588076171875,5.17141830279231,8.111576851919294,-1.9050284424200652
1789125296305018000,11.59801806640625,5.239918423044681,8.049228240033983,-1.9808100979827343
1789125296314960100,11.607960205078125,5.287625346115231,7.999185567492246,-2.055341899614781
1789125296324902400,11.61790234375,5.350132363432645,7.944469642442464,-2.1051910954110324
1789125296334844400,11.627844482421875,5.43151359256804,7.880739805331825,-2.13611274176687
1789125296344786200,11.6377861328125,5.505554980334639,7.821842210683226,-2.162878437487036
1789125296354728200,11.647728271484375,5.570993959450721,7.769504120680689,-2.183848452540487
1789125296364670200,11.657670166015626,5.636024357765913,7.716718871432542,-2.204051282613724
1789125296374612200,11.6676123046875,5.70606001702249,7.65791889193952,-2.2288014007277783
1789125296384554200,11.67755419921875,5.780813936972618,7.591120899429917,-2.2643806636311115
1789125296394496300,11.687496337890625,5.858640688496828,7.516790757849812,-2.3118280589826403
1789125296404438300,11.697438232421876,5.946722292053699,7.431199217543005,-2.363077623096108
1789125296414380300,11.70738037109375,6.047358841279149,7.332863346475363,-2.414319150033593
1789125296424322000,11.717322021484375,6.15524696906805,7.225220133358239,-2.46566881352067
1789125296434264000,11.72726416015625,6.265390182307362,7.111179328158498,-2.5192007894828916
1789125296444206300,11.737206298828125,6.373721962210536,6.993347898504138,-2.576656368629634
1789125296454148400,11.7471484375,6.4766165194958445,6.874555514863133,-2.639007903124392
1789125296464090400,11.75709033203125,6.5778130406916135,6.756532362028956,-2.6929613193690773
1789125296474032400,11.767032470703125,6.69320759858787,6.630061114323139,-2.7228029154032467
1789125296483974400,11.776974365234375,6.810809895661473,6.5001645683437586,-2.744285848414898
1789125296493916200,11.786916259765626,6.925676045769452,6.366221377322077,-2.770672043298185
1789125296503858400,11.7968583984375,7.052143786343931,6.216131938141584,-2.7923686190605164
1789125296513800400,11.806800537109375,7.183619125947356,6.054850073817372,-2.8115567191332578
1789125296523742500,11.816742431640625,7.305930915886163,5.8954252355366945,-2.8350968769356606
1789125296533684200,11.826684326171875,7.413761176007986,5.739814402586221,-2.8742133740544316
1789125296543626200,11.836626220703126,7.515008550608158,5.585653768444061,-2.914713434486091
1789125296553568300,11.846568359375,7.62830233683288,5.421816374418139,-2.9297280482664703
1789125296563510500,11.856510498046875,7.757028669989109,5.2391363327562805,-2.9240912114232778
1789125296573452500,11.86645263671875,7.880066436114907,5.0472173381060355,-2.9326646862402557
1789125296583394300,11.876394287109376,7.979810420414805,4.8648500156551595,-2.9708959249570963
1789125296593336300,11.88633642578125,8.066061885935067,4.6913133576527235,-3.0167125042364
1789125296603278300,11.8962783203125,8.14662536894679,4.524532603651285,-3.0547432519450783
1789125296613220400,11.906220458984375,8.223311133742332,4.365305333769321,-3.080855890583992
1789125296623162400,11.916162353515626,8.294284950631857,4.215474545525014,-3.099188542871177
1789125296633104400,11.9261044921875,8.358152150386571,4.072018260748684,-3.1193487028464673
1789125296643046400,11.93604638671875,8.411461131247878,3.9364486375689505,-3.1499349797680973
1789125296652988400,11.945988525390625,8.455330668112635,3.811889360964298,-3.185478879097104
1789125296662930200,11.95593017578125,8.484150519883633,3.7090824819624424,-3.229908680193126
1789125296672872200,11.9658720703125,8.494923842832446,3.6409047255322333,-3.27879195356667
1789125296682814500,11.975814453125,8.492769295147061,3.6076629656657575,-3.3208579481408
1789125296692756500,11.985756591796875,8.489523445093631,3.5899265257060526,-3.3482556581541894
1789125296702699500,11.995699462890625,8.485700087413191,3.575732872919738,-3.3730376327112315
1789125296712641500,12.0056416015625,8.47729115550816,3.5696895011022685,-3.400470998559892
1789125296722583300,12.015583251953124,8.45636760994494,3.585308218255639,-3.4359546921342607
1789125296732525300,12.025525390625,8.41703396294415,3.636860418577492,-3.4781007662072776
1789125296742467300,12.03546728515625,8.363510462549328,3.7215100018590688,-3.5174507798209786
1789125296752409300,12.045409423828126,8.301274663388728,3.8254099367946384,-3.5532308259934187
1789125296762351400,12.055351318359374,8.230245901441574,3.9367452824279665,-3.59659855081588
1789125296772293400,12.06529345703125,8.1554832136631,4.051901063132286,-3.6387598224580286
1789125296782235400,12.0752353515625,8.081133782860636,4.175996521617472,-3.664250237545371
1789125296792177400,12.085177490234376,8.008153886845708,4.311348702654242,-3.6677158678293225
1789125296802119200,12.095119140625,7.937268917283415,4.449737767168879,-3.6564959701567887
1789125296812061200,12.105061279296875,7.865741558164357,4.588068379494548,-3.64007178183943
1789125296822003500,12.11500341796875,7.785887100204825,4.731374442145228,-3.628284605672955
1789125296831945500,12.124945556640625,7.691839281719923,4.887542908978462,-3.6218648017585275
1789125296841887500,12.134887451171876,7.58833623714745,5.056284441658854,-3.6085312729328867
1789125296851829200,12.144829345703124,7.482053790989518,5.2342298560142515,-3.5766105325371025
1789125296861771300,12.154771240234375,7.376368726202845,5.414988574224711,-3.5266844721123576
1789125296871713300,12.16471337890625,7.266699560216069,5.596769621220231,-3.4701097674533723
1789125296881655600,12.174655517578126,7.144087910547852,5.786970121514797,-3.4122350861117243
1789125296891597300,12.184597412109374,7.009913248857855,5.982053717675805,-3.353593512050807
1789125296901539300,12.194539306640625,6.872749926745891,6.17311463419199,-3.2906396277487278
1789125296911481300,12.2044814453125,6.738444916674494,6.357645856678485,-3.216220931102335
1789125296921423400,12.21442333984375,6.613897915029526,6.529875815996527,-3.1284885793745514
1789125296931365400,12.224365478515624,6.495998680835962,6.688590460181236,-3.0389445020496844
1789125296941307400,12.234307373046875,6.37043168849349,6.847897809562086,-2.9486037213891745
1789125296951249400,12.24424951171875,6.2394321497082705,7.010497186225653,-2.8447818201258777
1789125296961191400,12.25419140625,6.098618488395214,7.174494739249348,-2.7393235498324033
1789125296971133400,12.264133544921876,5.95033872898519,7.332543028479814,-2.645319278228283
1789125296981075200,12.2740751953125,5.8127826081633565,7.474778247028588,-2.551397716471553
1789125296991017200,12.284017333984375,5.677533010718226,7.609809233286977,-2.4549536504998803
1789125297000959500,12.29395947265625,5.525331109428405,7.749456773430109,-2.3636880100794135
1789125297010901500,12.303901611328126,5.375335193750262,7.883904406842589,-2.262782142393291
1789125297020843300,12.31384326171875,5.242996515315771,8.00481275972426,-2.145777226690948
1789125297030785300,12.323785400390625,5.11461095842123,8.116906522509455,-2.031497790429741
1789125297040727300,12.333727294921875,4.980910343983769,8.223061542895437,-1.9344711022645233
1789125297050669300,12.34366943359375,4.8784357656762,8.302541906845569,-1.8544572159595787
1789125297060611300,12.353611328125,4.801964228153229,8.35664466843307,-1.8105403328217564
1789125297070553300,12.36355322265625,4.706505666087567,8.408673546355962,-1.82027393745929
1789125297080495400,12.373495361328125,4.574453695639968,8.47042769947946,-1.869935209468007
1789125297090437400,12.383437255859375,4.4564887027338145,8.525681969189643,-1.9033759990379213
1789125297100380400,12.39338037109375,4.415129395124316,8.547989662587643,-1.8997047631792723
1789125297110322400,12.403322509765625,4.416403068321943,8.552829503834246,-1.8747993083730339
1789125297120264200,12.41326416015625,4.417146872426569,8.558348559516668,-1.8476671174280344
1789125297130206500,12.42320654296875,4.420661018027365,8.561502055111527,-1.8244965235903858
1789125297140148500,12.4331484375,4.426941705732047,8.561399179258942,-1.8097089965641497
1789125297150090500,12.443090576171874,4.459897926655412,8.5462407730937,-1.8004131988219916
1789125297160032300,12.4530322265625,4.511591581274569,8.51858411988318,-1.8026656539238988
1789125297169974300,12.462974365234375,4.5692873989179725,8.483521574330329,-1.822602234276384
1789125297179916300,12.472916259765626,4.656194990259409,8.430250002869963,-1.849629941933602
1789125297189858600,12.482858642578124,4.74655155301094,8.369385492062568,-1.8957891971707344
1789125297199800300,12.49280029296875,4.835230830200016,8.304998652347923,-1.9539581852838397
1789125297209742300,12.502742431640625,4.936367437902093,8.22943341601491,-2.019667944165319
1789125297219684400,12.512684326171875,5.029203542509674,8.152098831921816,-2.1025626466035843
1789125297229626400,12.52262646484375,5.109246216517686,8.078005421707033,-2.193585418178886
1789125297239568400,12.532568359375,5.187758027696609,8.004159264251589,-2.27838025515005
1789125297249510400,12.542510498046875,5.276043629392981,7.92631380802691,-2.346770193026215
1789125297259452400,12.552452392578125,5.371585485827922,7.845186261391639,-2.401976239680499
1789125297269394400,12.56239453125,5.450798138752579,7.7724284836947914,-2.4593776044219733
1789125297279336400,12.57233642578125,5.488389326000213,7.720711740460992,-2.5374390414848924
1789125297289278200,12.5822783203125,5.500795803108811,7.68238931632936,-2.6253587324783205
1789125297299220200,12.59222021484375,5.536881846490502,7.637590389660001,-2.6796418190687894
1789125297309162500,12.60216259765625,5.597858585500717,7.58652655737698,-2.697962196396291
1789125297319104500,12.6121044921875,5.651127818873524,7.544717460173368,-2.7041405927702784
1789125297329046300,12.62204638671875,5.684285992109775,7.524623351171613,-2.6905945902377364
1789125297338988300,12.63198828125,5.7013744895547624,7.523670580491423,-2.6568907658174634
1789125297348930300,12.641930419921875,5.715948373830318,7.5237068208485836,-2.6252953118532893
1789125297358872300,12.651872314453126,5.7495963764101266,7.499123583734035,-2.622157598349452
1789125297368814600,12.661814697265624,5.816999349075555,7.437356571128964,-2.6492721075072883
1789125297378756400,12.67175634765625,5.901707676807046,7.352198746064305,-2.6991443919181823
1789125297388698400,12.681698486328125,5.978235620692372,7.266976039069891,-2.760817004238069
1789125297398640400,12.691640380859376,6.032859191283583,7.197029227140545,-2.8244875123769044
1789125297408582400,12.70158251953125,6.072935765606164,7.142987255829572,-2.8753432548671958
1789125297418524200,12.711524169921875,6.115825059261918,7.098154426890611,-2.895389725334942
1789125297428466400,12.721466552734375,6.168640703648329,7.0605965573906895,-2.875108861589432
1789125297438408400,12.731408447265625,6.230255740562081,7.028213460180163,-2.821080918803811
1789125297448350500,12.7413505859375,6.304277254584432,6.99041535218358,-2.749643576055765
1789125297458294000,12.7512939453125,6.400165732499957,6.932577495720982,-2.6735034624442457
1789125297468235800,12.76123583984375,6.517820052021741,6.848850580242276,-2.6041671836286784
1789125297478177800,12.771177734375,6.644981035557389,6.747058431240916,-2.5479008142665025
1789125297488119800,12.781119873046874,6.7663996760487555,6.639295391136407,-2.511167705152929
1789125297498061800,12.791061767578125,6.873699190294742,6.531611261487007,-2.502140349088609
1789125297508003600,12.801003662109375,6.973957553857565,6.421491429123282,-2.509727150955796
1789125297517945900,12.81094580078125,7.080707033005356,6.301361659398674,-2.515314303438365
1789125297527888000,12.820887939453126,7.188818448156118,6.173641872936487,-2.5253537591546773
1789125297537830000,12.830829833984374,7.281408469048142,6.052184069478511,-2.553927819471061
1789125297547772000,12.84077197265625,7.352165428316593,5.947334286472201,-2.5971660726949573
1789125297557713700,12.850713623046875,7.422261877849698,5.847618943744897,-2.6240774604961277
1789125297567655700,12.86065576171875,7.516292745199799,5.72745176461935,-2.621456172081828
1789125297577598000,12.870597900390624,7.625117861577868,5.584957018351554,-2.6146131743192673
1789125297587540000,12.8805400390625,7.729444497492909,5.438956894311309,-2.616069510607421
1789125297597481700,12.890481689453125,7.825424745345115,5.303688592165709,-2.608447637426853
1789125297607423700,12.900423828125,7.921987176999449,5.167605466505885,-2.590046011556685
1789125297617365800,12.91036572265625,8.024519915235041,5.012058346441388,-2.5800650080293415
1789125297627307800,12.920307861328125,8.122136824378371,4.84702998906523,-2.5898954971700907
