time,seconds_elapsed,z,y,x
1790266150939275500,0.099275634765625,10.243673324584961,1.301695466041565,-1.2705888748168945
1790266150956528600,0.116528564453125,9.908679008483887,1.423729419708252,0.349352091550827
1790266150973781800,0.13378173828125,12.102896690368652,2.344966173171997,0.380458801984787
1790266150991035000,0.151034912109375,14.055439949035645,2.9838497638702393,-0.24885354936122894
1790266151008288000,0.1682880859375,13.71805191040039,2.5363919734954834,-0.34217363595962524
1790266151025541000,0.185541015625,12.258430480957031,1.9716858863830566,-0.5288137793540955
1790266151042794200,0.202794189453125,11.365907669067383,1.3591232299804688,-2.093719720840454
1790266151060047400,0.22004736328125,8.135597229003906,1.0432707071304321,-3.9840497970581055
1790266151077300500,0.237300537109375,4.876572608947754,1.129412293434143,-3.996013879776001
1790266151094553600,0.2545537109375,4.773681163787842,2.438286304473877,-5.424529075622559
1790266151111807000,0.271806884765625,6.728617191314697,3.4959139823913574,-4.235296249389648
1790266151129060000,0.28906005859375,8.702695846557617,3.074777126312256,-2.242074728012085
1790266151146313200,0.306313232421875,9.78664493560791,1.820937991142273,-2.9623143672943115
1790266151163566300,0.32356640625,8.578269004821777,1.9932212829589844,-2.5124638080596924
1790266151180819500,0.3408193359375,7.386643409729004,2.5435705184936523,-2.6225335597991943
1790266151198072600,0.358072509765625,6.532405853271484,3.4193434715270996,-2.6368906497955322
1790266151215325700,0.37532568359375,4.811966419219971,3.651447296142578,-2.416750907897949
1790266151232578800,0.392578857421875,7.022934436798096,2.2229323387145996,-1.069591760635376
1790266151249832000,0.40983203125,9.784252166748047,2.392822742462158,-0.8877372145652771
1790266151267085000,0.4270849609375,11.184053421020508,2.043470621109009,-0.22492532432079315
1790266151284338200,0.444338134765625,11.825329780578613,1.8400806188583374,0.14356936514377594
1790266151301591300,0.46159130859375,11.294122695922852,1.911865234375,-0.4953143000602722
1790266151318844400,0.478844482421875,9.535398483276367,1.7228323221206665,-1.2203395366668701
1790266151336097500,0.49609765625,9.671789169311523,1.0289137363433838,-1.526620864868164
1790266151353351000,0.513350830078125,9.023334503173828,0.9355936646461487,-1.6534404754638672
1790266151370604000,0.53060400390625,10.999805450439453,1.4213366508483887,2.612962245941162
1790266151387857200,0.547857177734375,11.521441459655762,2.7900311946868896,2.7421748638153076
1790266151405110300,0.5651103515625,9.547362327575684,3.0317063331604004,0.9308080077171326
1790266151422363400,0.58236328125,7.365108013153076,3.3403804302215576,1.0480563640594482
1790266151439616500,0.599616455078125,5.467599868774414,4.211368083953857,1.6965112686157227
1790266151456869600,0.61686962890625,4.8813581466674805,4.29033088684082,2.7086751461029053
1790266151474122800,0.634122802734375,5.548955917358398,3.376272678375244,3.7878382205963135
1790266151491375900,0.6513759765625,7.458428382873535,3.239881753921509,3.651447296142578
1790266151508629000,0.66862890625,8.391629219055176,2.3880369663238525,3.421736478805542
1790266151525882000,0.685882080078125,7.733603000640869,1.00259268283844,2.0578274726867676
1790266151543135200,0.70313525390625,5.857629776000977,-1.1581261157989502,3.1824541091918945
1790266151560388400,0.720388427734375,5.989234924316406,-0.4426721930503845,2.462214469909668
1790266151577641500,0.737641357421875,6.754938125610352,-0.2799602448940277,-0.397208571434021
1790266151594894600,0.75489453125,6.3840508460998535,-2.469393014907837,0.7585247755050659
1790266151612147700,0.772147705078125,4.709074974060059,-4.563112735748291,1.1389836072921753
1790266151629400800,0.78940087890625,3.565305709838867,-4.180261135101318,1.3423734903335571
1790266151646654000,0.806654052734375,2.5220351219177246,-3.7016966342926025,4.431507587432861
1790266151663907300,0.8239072265625,2.287538528442383,-3.871587038040161,7.274180889129639
1790266151681160200,0.84116015625,2.1272194385528564,-3.8021950721740723,7.410571575164795
1790266151698413300,0.858413330078125,0.9571290612220764,-4.7234320640563965,6.723831653594971
1790266151715666700,0.875666748046875,-1.0289137363433838,-3.658625841140747,6.034698486328125
1790266151732919800,0.892919921875,-2.6536402702331543,-4.12761926651001,8.279166221618652
1790266151750173000,0.9101728515625,-3.25663161277771,-5.223531723022461,10.420742988586426
1790266151767426000,0.927426025390625,-3.869194269180298,-5.419743061065674,12.55992603302002
1790266151784679200,0.94467919921875,-5.230710506439209,-4.508078098297119,14.474184036254883
1790266151801932300,0.961932373046875,-8.164310455322266,-3.8500516414642334,17.316858291625977
1790266151819185400,0.979185302734375,0.9092726111412048,2.242074728012085,17.520246505737305
1790266151836438500,0.9964384765625,-4.754538536071777,1.887937068939209,15.926627159118652
1790266151853691600,1.013691650390625,-6.577869415283203,-0.5623133182525635,14.282758712768555
1790266151870944800,1.03094482421875,-8.207381248474121,-0.6915257573127747,18.367305755615234
1790266151888198000,1.048197998046875,-10.195816993713379,-0.380458801984787,20.676380157470703
1790266151905451000,1.065450927734375,-11.2247314453125,1.0289137363433838,19.669002532958984
1790266151922704100,1.0827041015625,-12.55274772644043,1.4787644147872925,16.986648559570312
1790266151939957200,1.099957275390625,-12.662817001342773,2.5698914527893066,13.581661224365234
1790266151957210400,1.11721044921875,-11.485548973083496,2.3090739250183105,10.38485050201416
1790266151974463500,1.13446337890625,-10.504491806030273,-0.02153540402650833,9.43489933013916
1790266151991716600,1.151716552734375,-8.303094863891602,-0.9284151792526245,12.39721393585205
1790266152008969700,1.1689697265625,-9.272188186645508,0.0023928226437419653,12.516855239868164
1790266152026222800,1.186222900390625,-9.7938232421875,0.3613162338733673,7.348358154296875
1790266152043476000,1.20347607421875,-6.25723123550415,0.7752745151519775,2.7900311946868896
1790266152060729000,1.22072900390625,-3.7184464931488037,0.8350951075553894,3.8261234760284424
1790266152077982200,1.237982177734375,-4.419543266296387,-0.9212366938591003,1.4380863904953003
1790266152095235300,1.2552353515625,-2.201396942138672,-1.8089739084243774,-1.5385849475860596
1790266152112488400,1.272488525390625,-4.144368648529053,-2.746960401535034,2.2540390491485596
1790266152129741600,1.289741455078125,-5.4795637130737305,-2.0243279933929443,4.371686935424805
1790266152146994200,1.306994140625,-8.94676399230957,-1.9381862878799438,3.7256247997283936
1790266152164247800,1.324247802734375,-9.21715259552002,-0.605384111404419,0.1818545162677765
1790266152181501000,1.3415009765625,-9.267401695251465,-6.4319071769714355,9.961320877075195
1790266152198754000,1.358754150390625,-1.5840486288070679,-6.175875186920166,9.346364974975586
1790266152216007200,1.376007080078125,0.43549370765686035,-5.194818019866943,12.78485107421875
1790266152233260300,1.39326025390625,0.14356936514377594,-7.724031448364258,11.193624496459961
1790266152250513400,1.410513427734375,-8.26241683959961,-8.240880966186523,8.714659690856934
1790266152267766500,1.4277666015625,-12.052647590637207,-9.276973724365234,8.717052459716797
1790266152285019600,1.44501953125,-9.990034103393555,-4.716253280639648,9.542576789855957
1790266152302272800,1.462272705078125,-7.226324558258057,-6.0777692794799805,4.419543266296387
1790266152319526000,1.47952587890625,-7.135396957397461,-4.244867324829102,6.565905570983887
1790266152336779000,1.496779052734375,-2.816352367401123,-4.811966419219971,7.066005229949951
1790266152354032000,1.5140322265625,-1.7371892929077148,-7.080362319946289,6.252445697784424
1790266152371285200,1.53128515625,-2.306680917739868,-10.48534870147705,7.893921852111816
1790266152388538400,1.548538330078125,-9.29611587524414,-12.56710433959961,15.38345718383789
1790266152405791500,1.56579150390625,-5.726024627685547,-9.449256896972656,9.284152030944824
1790266152423044600,1.583044677734375,-4.4482574462890625,-6.032305717468262,5.816951751708984
1790266152440297700,1.600297607421875,-4.493721008300781,-2.857030153274536,1.3208380937576294
1790266152457550800,1.61755078125,-5.223531723022461,-2.0195422172546387,0.9690931439399719
1790266152474804000,1.634803955078125,-6.463014125823975,-3.5341989994049072,2.2396819591522217
1790266152492057000,1.65205712890625,-6.281159400939941,-4.646861553192139,4.972285270690918
1790266152509310200,1.669310302734375,-5.00578498840332,-2.242074728012085,4.996213912963867
1790266152526563300,1.686563232421875,-2.9862427711486816,-3.31884503364563,4.120440483093262
1790266152543816400,1.70381640625,0.2153540402650833,-4.9986066818237305,1.2610175609588623
1790266152561069600,1.721069580078125,-2.66560435295105,-4.273581027984619,-0.7441678643226624
1790266152578322700,1.73832275390625,-5.618347644805908,-8.307880401611328,5.548955917358398
1790266152595575800,1.755575927734375,-9.140582084655762,-9.336793899536133,8.57348346710205
1790266152612829000,1.772828857421875,-5.883950710296631,-10.961520195007324,7.968099594116211
1790266152630081800,1.790081787109375,-2.809173822402954,-8.740981101989746,6.324230194091797
1790266152647334700,1.807334716796875,-2.1678972244262695,-6.10169792175293,3.3858439922332764
1790266152664587800,1.824587890625,-0.916451096534729,-5.678168296813965,3.1034910678863525
1790266152681841000,1.8418408203125,-4.902893543243408,-7.417750358581543,0.6915257573127747
1790266152699094000,1.859093994140625,-4.058227062225342,-7.159325122833252,-3.326023578643799
1790266152716347100,1.87634716796875,-2.531606435775757,-7.927421569824219,-0.1052841991186142
1790266152733600500,1.8936005859375,1.6414763927459717,-6.845865726470947,1.3471591472625732
1790266152750853600,1.910853515625,3.845266103744507,-7.841279983520508,3.019742250442505
1790266152768106800,1.928106689453125,-1.9381862878799438,-10.332208633422852,3.146561861038208
1790266152785360000,1.94535986328125,-6.6831536293029785,-13.658231735229492,-1.820937991142273
1790266152802613000,1.962613037109375,-7.518248558044434,-18.075382232666016,-4.06540584564209
1790266152819866000,1.9798662109375,1.3040883541107178,-18.01077651977539,0.4713860750198364
1790266152837119200,1.997119140625,-1.7395820617675781,-16.23051643371582,1.7850457429885864
1790266152854372400,2.014372314453125,-3.4552359580993652,-12.04786205291748,2.0099709033966064
1790266152871625500,2.03162548828125,-1.404586911201477,-10.552348136901855,0.9858429431915283
1790266152888878600,2.048878662109375,-1.7467604875564575,-7.8077802658081055,-0.06699903309345245
1790266152906131700,2.066131591796875,-1.7611174583435059,-5.127819061279297,1.246660590171814
1790266152923384800,2.083384765625,-1.5601203441619873,-4.419543266296387,0.03349951654672623
1790266152940638000,2.100637939453125,-4.8502516746521,-7.334001541137695,1.8664016723632812
1790266152957891000,2.11789111328125,-4.577469825744629,-9.525827407836914,0.2584248483181
1790266152975144200,2.135144287109375,-0.8638089895248413,-10.810772895812988,0.05024927482008934
1790266152992397300,2.152397216796875,-1.8616160154342651,-12.437891960144043,-0.6460621356964111
1790266153009650400,2.169650390625,-4.273581027984619,-13.174881935119629,-2.6057839393615723
1790266153026903600,2.186903564453125,-3.8739798069000244,-12.17228889465332,-3.689732551574707
1790266153044156700,2.20415673828125,-3.273381471633911,-9.748359680175781,-1.9070796966552734
1790266153061409800,2.221409912109375,-4.716253280639648,-7.82692289352417,1.8903298377990723
1790266153078663000,2.238662841796875,-4.295116424560547,-5.682953834533691,6.159125328063965
1790266153095916000,2.255916015625,-2.311466693878174,-5.00578498840332,2.7661030292510986
1790266153113169200,2.273169189453125,-5.19960355758667,-8.118846893310547,-1.5625132322311401
1790266153130422300,2.29042236328125,-5.099104881286621,-10.868200302124023,-3.6083765029907227
1790266153147675400,2.30767529296875,-4.268795490264893,-11.351551055908203,-0.6293123364448547
1790266153164928500,2.324928466796875,-6.927221775054932,-10.75813102722168,-1.3615161180496216
1790266153182181600,2.342181640625,-9.91825008392334,-10.238887786865234,-1.7515461444854736
1790266153199434800,2.359434814453125,-10.887343406677246,-8.23848819732666,-1.4979069232940674
1790266153216687900,2.37668798828125,-3.2159535884857178,-5.213960647583008,-2.3641088008880615
1790266153233941000,2.39394091796875,2.0482561588287354,-5.522634506225586,-3.586841106414795
1790266153251194000,2.411194091796875,2.1272194385528564,-9.059226989746094,-3.4480574131011963
1790266153268447200,2.428447265625,-0.4546363055706024,-7.795815944671631,-3.864408493041992
1790266153285700400,2.445700439453125,-0.727418065071106,-5.044070243835449,-0.7561319470405579
1790266153302953500,2.462953369140625,-2.933600664138794,-10.62413215637207,-0.5910272002220154
1790266153320206600,2.48020654296875,-10.114460945129395,-12.04068374633789,1.5936198234558105
1790266153337459700,2.497459716796875,-12.5742826461792,-11.392229080200195,4.07258415222168
1790266153354712800,2.514712890625,-3.239881753921509,-9.741181373596191,5.082355499267578
1790266153371966000,2.531966064453125,-4.871787071228027,-9.77707290649414,-0.4043870270252228
1790266153389219000,2.549218994140625,-10.825129508972168,-13.167702674865723,-5.647061347961426
1790266153406472200,2.56647216796875,-11.710474014282227,-14.383256912231445,-2.940778970718384
1790266153423725300,2.583725341796875,-6.065805435180664,-15.663416862487793,-1.648654818534851
1790266153440978400,2.600978515625,-2.4765713214874268,-11.040483474731445,-2.5459632873535156
1790266153458231600,2.6182314453125,-3.2829527854919434,-11.243873596191406,-4.161118507385254
1790266153475484700,2.635484619140625,-1.7539390325546265,-3.7232320308685303,-1.1485549211502075
1790266153492737800,2.65273779296875,-0.004785645287483931,-1.0217353105545044,1.373480200767517
1790266153509991000,2.669990966796875,-3.326023578643799,-7.118647575378418,3.9912281036376953
1790266153527244000,2.687244140625,-5.670989513397217,-9.973284721374512,4.957928657531738
1790266153544497200,2.7044970703125,-5.412564754486084,-9.34157943725586,3.5844483375549316
1790266153561750300,2.721750244140625,-6.876972198486328,-8.398807525634766,0.8709874153137207
1790266153579003400,2.73900341796875,-6.640082836151123,-10.085747718811035,0.20338992774486542
1790266153596256500,2.756256591796875,-7.365108013153076,-11.389835357666016,0.7728816866874695
1790266153613510000,2.773510009765625,-8.523234367370605,-12.119647026062012,0.5623133182525635
1790266153630762800,2.7907626953125,-8.193024635314941,-13.048062324523926,-0.45942193269729614
1790266153648016000,2.808015869140625,-7.590033531188965,-11.138589859008789,-0.9810572862625122
1790266153665268700,2.825268798828125,-8.221738815307617,-11.93779182434082,-0.9260223507881165
1790266153682521600,2.842521484375,-8.520841598510742,-10.547562599182129,-0.2153540402650833
1790266153699774500,2.8597744140625,-8.46341323852539,-7.769495010375977,-0.11006984114646912
1790266153717027300,2.87702734375,-6.405586242675781,-3.8524444103240967,-0.9427721500396729
1790266153734280400,2.894280517578125,-6.278766632080078,-3.737588882446289,-0.7393822073936462
1790266153751533600,2.911533447265625,-6.7692952156066895,-3.0029923915863037,0.9786644577980042
1790266153768786700,2.92878662109375,-6.747759819030762,-2.1367905139923096,2.210968017578125
1790266153786039800,2.946039794921875,-8.410771369934082,-0.6556333899497986,4.5391845703125
1790266153803293000,2.96329296875,-8.039883613586426,-1.4691931009292603,3.352344512939453
1790266153820546000,2.980546142578125,-7.252645492553711,-3.8763725757598877,1.8496519327163696
1790266153837799200,2.997799072265625,-7.680960655212402,-4.6301116943359375,2.1296122074127197
1790266153855052300,3.01505224609375,-7.805387496948242,-5.036891460418701,1.7587246894836426
1790266153872305400,3.032305419921875,-7.056434154510498,-4.845465660095215,1.1126625537872314
1790266153889558500,3.04955859375,-8.233702659606934,-4.211368083953857,0.20578274130821228
1790266153906811600,3.066811767578125,-7.1234331130981445,-3.524627685546875,-0.4139583110809326
1790266153924064800,3.084064697265625,-6.953542709350586,-1.8855443000793457,-0.7848458290100098
1790266153941318000,3.10131787109375,-8.128418922424316,-0.7154539823532104,-0.8709874153137207
1790266153958571000,3.118571044921875,-8.343772888183594,-0.2632105052471161,-0.48095735907554626
1790266153975824100,3.13582421875,-8.01356315612793,-0.6771687865257263,0.24646073579788208
1790266153993077200,3.1530771484375,-8.446663856506348,-1.5840486288070679,0.038285162299871445
1790266154010330400,3.170330322265625,-7.824530124664307,-2.2061824798583984,0.6436693072319031
1790266154027583500,3.18758349609375,-7.869993686676025,-1.7850457429885864,0.7250252366065979
1790266154044836600,3.204836669921875,-8.274380683898926,-0.5455635786056519,-0.2727817893028259
1790266154062089700,3.22208984375,-7.9250288009643555,0.5790630578994751,0.1698904037475586
1790266154079342800,3.2393427734375,-6.819544315338135,1.0528420209884644,1.7276179790496826
1790266154096596000,3.256595947265625,-6.403193473815918,1.1222338676452637,1.5098711252212524
1790266154113849000,3.27384912109375,-7.846065521240234,0.5455635786056519,1.2681959867477417
1790266154131102200,3.291102294921875,-8.214560508728027,-0.6125625967979431,1.1150553226470947
1790266154148355300,3.308355224609375,-7.877171993255615,-0.7896314859390259,0.8279166221618652
1790266154165608400,3.3256083984375,-8.621339797973633,-0.5958128571510315,1.887937068939209
1790266154182861600,3.342861572265625,-9.559326171875,-3.6131622791290283,1.4715858697891235
1790266154200114700,3.36011474609375,-8.384450912475586,0.15314064919948578,2.5914268493652344
1790266154217368000,3.3773681640625,-8.740981101989746,0.9355936646461487,2.179861545562744
1790266154234621000,3.394620849609375,-8.310273170471191,-0.8973084688186646,1.8592232465744019
1790266154251874000,3.4118740234375,-9.107083320617676,-2.65842604637146,1.1318050622940063
1790266154269127200,3.429127197265625,-8.71226692199707,-2.6273193359375,1.155733346939087
1790266154286380300,3.44638037109375,-7.685746192932129,-2.100898265838623,1.4500504732131958
1790266154303633400,3.46363330078125,-7.81974458694458,-2.888136863708496,1.6558332443237305
1790266154320886500,3.480886474609375,-8.042277336120605,-2.6871397495269775,1.4931213855743408
1790266154338139600,3.4981396484375,-7.168896675109863,-1.1222338676452637,1.2011969089508057
1790266154355392800,3.515392822265625,-7.960920810699463,-0.7369893789291382,1.672582983970642
1790266154372646000,3.53264599609375,-6.9104719161987305,-1.0001999139785767,1.25144624710083
1790266154389899000,3.54989892578125,-7.080362319946289,-2.854637384414673,1.2658032178878784
1790266154407152000,3.567152099609375,-7.77188777923584,-4.381258487701416,0.672383189201355
1790266154424405200,3.5844052734375,-7.683353424072266,-4.567898273468018,0.8279166221618652
1790266154441658400,3.601658447265625,-7.3292155265808105,-3.8811583518981934,1.765903115272522
1790266154458911500,3.618911376953125,-8.173882484436035,-2.988635540008545,2.63449764251709
1790266154476164600,3.63616455078125,-8.063812255859375,-5.015356063842773,3.431307554244995
1790266154493417700,3.653417724609375,-7.927421569824219,-7.489534854888916,3.407379388809204
1790266154510670800,3.6706708984375,-8.104490280151367,-9.097511291503906,3.0388846397399902
1790266154527924000,3.687924072265625,-8.427521705627441,-8.193024635314941,2.366501569747925
1790266154545177000,3.705177001953125,-9.128618240356445,-7.6666035652160645,1.3471591472625732
1790266154562430200,3.72243017578125,-8.135597229003906,-7.616354465484619,1.3567304611206055
1790266154579683300,3.739683349609375,-6.5874409675598145,-6.7310099601745605,1.5146567821502686
1790266154596936400,3.7569365234375,-4.625326156616211,-1.4835500717163086,0.13160525262355804
1790266154614189600,3.774189453125,-7.195217609405518,-4.445864677429199,0.24646073579788208
1790266154631442700,3.791442626953125,-5.328815937042236,-8.482556343078613,1.8783657550811768
1790266154648695800,3.80869580078125,-5.9509501457214355,-9.80817985534668,2.4598217010498047
1790266154665949000,3.825948974609375,-7.322037220001221,-9.286544799804688,4.022335052490234
1790266154683202000,3.8432021484375,-6.786045074462891,-10.083354949951172,4.151547431945801
1790266154700455200,3.860455078125,-4.584648132324219,-11.69133186340332,4.474578380584717
1790266154717708300,3.877708251953125,-6.915257453918457,-11.72722339630127,4.716253280639648
1790266154734961400,3.89496142578125,-6.585047721862793,-10.372885704040527,5.099104881286621
1790266154752214500,3.912214599609375,-6.405586242675781,-9.992427825927734,5.252245903015137
1790266154769467600,3.929467529296875,-6.1399827003479,-10.834700584411621,5.2977094650268555
1790266154786720800,3.946720703125,-5.556134223937988,-10.894521713256836,4.438685894012451
1790266154803974000,3.963973876953125,-5.170889854431152,-11.59561824798584,3.7663028240203857
1790266154821227000,3.98122705078125,-4.230510234832764,-10.571490287780762,3.0580272674560547
1790266154838480100,3.998480224609375,-3.814159393310547,-8.530412673950195,1.852044701576233
1790266154855733200,4.015733154296875,-3.8500516414642334,-7.384250640869141,0.9044869542121887
1790266154872986400,4.032986328125,-4.785645484924316,-8.788837432861328,1.3806586265563965
1790266154890239500,4.050239501953125,-5.3455657958984375,-9.114261627197266,0.885344386100769
1790266154907492600,4.06749267578125,-4.752145767211914,-9.454042434692383,1.1318050622940063
1790266154924746000,4.08474609375,-5.036891460418701,-9.097511291503906,1.153340458869934
1790266154941999000,4.1019990234375,-3.7902309894561768,-10.040284156799316,1.0217353105545044
1790266154959252200,4.119252197265625,-4.828716278076172,-10.660024642944336,1.9573289155960083
1790266154976505300,4.13650537109375,-5.31685209274292,-8.970691680908203,0.9499505758285522
1790266154993758500,4.153758544921875,-5.434100151062012,-7.214360237121582,-0.3517449200153351
1790266155011011600,4.171011474609375,-3.6466617584228516,-6.364908218383789,-0.2727817893028259
1790266155028264700,4.1882646484375,-3.352344512939453,-7.869993686676025,1.0408778190612793
1790266155045517800,4.205517822265625,-5.848058700561523,-10.664810180664062,2.256431818008423
1790266155062771000,4.22277099609375,-5.824130535125732,-10.526026725769043,3.601198196411133
1790266155080024000,4.240024169921875,-5.467599868774414,-9.236295700073242,4.431507587432861
1790266155097277200,4.257277099609375,-4.919643402099609,-8.477770805358887,4.3310089111328125
1790266155114530300,4.2745302734375,-3.2590243816375732,-8.123632431030273,4.599005222320557
1790266155131783400,4.291783447265625,-4.42193603515625,-6.836294174194336,3.170490026473999
1790266155149036500,4.30903662109375,-5.4628143310546875,-7.755138397216797,3.7710886001586914
1790266155166289700,4.32628955078125,-6.733402729034424,-9.619147300720215,4.247260093688965
1790266155183542800,4.343542724609375,-6.685546398162842,-10.470992088317871,5.2737812995910645
1790266155200796000,4.3607958984375,-2.9623143672943115,-9.638289451599121,6.8865437507629395
1790266155218049000,4.378049072265625,-1.5050854682922363,-7.759923934936523,5.113461971282959
1790266155235302100,4.39530224609375,-5.00578498840332,-9.410971641540527,4.867001056671143
1790266155252555300,4.41255517578125,-5.194818019866943,-10.102497100830078,6.245266914367676
1790266155269808400,4.429808349609375,-4.689932346343994,-9.322437286376953,4.615755081176758
1790266155287061500,4.4470615234375,-2.8498518466949463,-7.7838521003723145,4.053441524505615
1790266155304314600,4.464314697265625,-4.120440483093262,-6.503692150115967,4.3070807456970215
1790266155321567700,4.481567626953125,-4.6995038986206055,-6.307480335235596,4.350151538848877
1790266155338820900,4.49882080078125,-3.9218363761901855,-6.278766632080078,3.6155550479888916
1790266155356074000,4.516073974609375,-5.309673309326172,-5.058426856994629,2.390429735183716
1790266155373327000,4.5333271484375,-6.317051887512207,-3.6777684688568115,2.313859462738037
1790266155390580200,4.550580322265625,-6.51326322555542,-3.129812002182007,2.526820659637451
1790266155407833300,4.567833251953125,-7.18086051940918,-3.610769271850586,2.8211379051208496
1790266155425086500,4.58508642578125,-7.487142086029053,-5.436492919921875,5.182853698730469
1790266155442339600,4.602339599609375,-7.412964344024658,-9.322437286376953,6.967899322509766
1790266155459592700,4.6195927734375,-8.831908226013184,-13.981263160705566,9.174081802368164
1790266155476845800,4.636845703125,-8.606983184814453,-9.109476089477539,2.3856441974639893
1790266155494099000,4.654098876953125,-5.893522262573242,-5.539384365081787,2.4741785526275635
1790266155511352000,4.67135205078125,-7.293323516845703,-4.098905086517334,3.7088751792907715
1790266155528605200,4.688605224609375,-8.324629783630371,-2.376072883605957,3.4791641235351562
1790266155545858300,4.7058583984375,-6.845865726470947,-2.3569302558898926,3.469592809677124
1790266155563111400,4.723111328125,-6.221338748931885,-2.414358139038086,3.445664644241333
1790266155580364500,4.740364501953125,-6.32662296295166,-1.2681959867477417,2.754138946533203
1790266155597617700,4.75761767578125,-7.724031448364258,-1.1581261157989502,2.438286304473877
1790266155614870800,4.774870849609375,-7.551748275756836,-2.368894338607788,2.3018953800201416
1790266155632124000,4.7921240234375,-6.025127410888672,-3.84765887260437,3.0340991020202637
1790266155649376800,4.809376708984375,-6.051448345184326,-3.988835334777832,1.672582983970642
1790266155666629600,4.826629638671875,-8.078168869018555,-3.4241292476654053,1.1772687435150146
1790266155683882500,4.843882568359375,-6.908079147338867,-2.287538528442383,2.6943182945251465
1790266155701135600,4.861135498046875,-6.530013084411621,-0.8159525394439697,3.046063184738159
1790266155718388500,4.878388427734375,-6.733402729034424,0.6364908218383789,2.172683000564575
1790266155735641600,4.8956416015625,-5.793023586273193,-0.05503492057323456,2.337787628173828
1790266155752894700,4.912894775390625,-6.190232276916504,-1.2873386144638062,2.526820659637451
1790266155770147800,4.93014794921875,-6.45822811126709,-1.1054840087890625,2.854637384414673
1790266155787401000,4.94740087890625,-6.896114826202393,-0.6747759580612183,3.8021950721740723
1790266155804654000,4.964654052734375,-8.264809608459473,-1.2251251935958862,3.3332018852233887
1790266155821907200,4.9819072265625,-8.02074146270752,-0.28953152894973755,2.754138946533203
1790266155839160300,4.999160400390625,-6.474977970123291,-0.41874396800994873,2.816352367401123
1790266155856413400,5.016413330078125,-7.601997375488281,-1.919043779373169,4.319045066833496
1790266155873666600,5.03366650390625,-8.300702095031738,-3.1417760848999023,4.589433670043945
1790266155890919700,5.050919677734375,-7.491927623748779,-4.902893543243408,2.053041934967041
1790266155908172800,5.0681728515625,-6.905686378479004,-5.072783946990967,3.845266103744507
1790266155925426000,5.085426025390625,-7.171289443969727,-3.8356947898864746,0.8063812255859375
1790266155942678800,5.1026787109375,-7.013363361358643,-1.9022940397262573,0.7848458290100098
1790266155959932000,5.119931884765625,-7.405786037445068,-2.287538528442383,2.4335005283355713
1790266155977185000,5.13718505859375,-6.10169792175293,-0.5670989751815796,2.3306093215942383
1790266155994438100,5.154438232421875,-6.197410583496094,-2.3952155113220215,2.7972097396850586
1790266156011691300,5.171691162109375,-7.913064479827881,-4.2281174659729,3.421736478805542
1790266156028944400,5.1889443359375,-6.807580471038818,-6.1328043937683105,3.129812002182007
1790266156046197500,5.206197509765625,-5.304887771606445,-7.95134973526001,6.786045074462891
1790266156063451000,5.223450927734375,-9.18843936920166,-5.438885688781738,6.293123722076416
1790266156080704000,5.2407041015625,-6.573083877563477,-5.687739372253418,4.910071849822998
1790266156097957000,5.25795703125,-5.558526992797852,-8.003992080688477,3.8213376998901367
1790266156115210200,5.275210205078125,-6.673582553863525,-8.161917686462402,3.7016966342926025
1790266156132463400,5.29246337890625,-7.389036178588867,-6.774080753326416,5.745167255401611
1790266156149716500,5.309716552734375,-7.015756130218506,-5.546562671661377,7.202396392822266
1790266156166969600,5.326969482421875,-7.618747234344482,-5.477170944213867,5.589633464813232
1790266156184222700,5.34422265625,-7.135396957397461,-6.726224422454834,3.38105845451355
1790266156201475800,5.361475830078125,-6.343372821807861,-6.872186660766602,2.2133610248565674
1790266156218729000,5.37872900390625,-7.774280548095703,-6.075376510620117,1.3591232299804688
1790266156235982000,5.395982177734375,-9.822537422180176,-8.405985832214355,1.892722725868225
1790266156253235200,5.413235107421875,-7.759923934936523,-11.009376525878906,3.809373617172241
1790266156270488300,5.43048828125,-4.984249591827393,-10.353743553161621,5.498706340789795
1790266156287741400,5.447741455078125,-5.3312087059021,-9.487542152404785,6.367300987243652
1790266156304994600,5.46499462890625,-6.422336101531982,-9.961320877075195,7.843672752380371
1790266156322247700,5.48224755859375,-6.285944938659668,-9.884750366210938,7.226324558258057
1790266156339500500,5.49950048828125,-6.723831653594971,-8.726624488830566,6.10169792175293
1790266156356753400,5.51675341796875,-6.4510498046875,-7.11146879196167,5.304887771606445
1790266156374006500,5.534006591796875,-5.948556900024414,-6.068198204040527,4.098905086517334
1790266156391259400,5.55125927734375,-5.099104881286621,-5.97727108001709,2.6368906497955322
1790266156408512300,5.56851220703125,-4.6995038986206055,-6.965506553649902,2.0961127281188965
1790266156425765000,5.58576513671875,-3.1752755641937256,-7.70249605178833,3.077169895172119
1790266156443018200,5.603018310546875,-3.6059837341308594,-8.21695327758789,3.304488182067871
1790266156460271400,5.620271240234375,-5.091926574707031,-8.817551612854004,2.974278450012207
1790266156477524500,5.6375244140625,-6.321837425231934,-8.492127418518066,3.1417760848999023
1790266156494777600,5.654777587890625,-6.510870456695557,-8.50169849395752,3.345165967941284
1790266156512030700,5.67203076171875,-6.6113691329956055,-9.233902931213379,4.773681163787842
1790266156529283800,5.689283935546875,-6.262016773223877,-10.131211280822754,5.816951751708984
1790266156546537000,5.706536865234375,-5.4173502922058105,-10.310672760009766,5.840879917144775
1790266156563790000,5.7237900390625,-5.166104316711426,-9.65503978729248,4.917250633239746
1790266156581043200,5.741043212890625,-5.513063430786133,-9.245866775512695,4.101297855377197
1790266156598296300,5.75829638671875,-5.1182475090026855,-8.563912391662598,3.067598581314087
1790266156615549400,5.775549560546875,-4.610969066619873,-7.223931789398193,2.287538528442383
1790266156632802600,5.792802490234375,-4.06540584564209,-5.900700569152832,2.9288148880004883
1790266156650055700,5.8100556640625,-3.9601213932037354,-5.254638671875,3.9194436073303223
1790266156667309000,5.82730908203125,-5.077569484710693,-5.249852657318115,3.462414264678955
1790266156684562200,5.844562255859375,-5.869594097137451,-6.558726787567139,2.8139593601226807
1790266156701815300,5.861815185546875,-6.173482418060303,-8.654839515686035,3.376272678375244
1790266156719068400,5.879068359375,-6.577869415283203,-10.466206550598145,4.515256404876709
1790266156736321300,5.8963212890625,-7.286144733428955,-10.447063446044922,5.663811206817627
1790266156753574100,5.91357421875,-8.171489715576172,-9.343972206115723,6.240481376647949
1790266156770827000,5.930826904296875,-7.628318786621094,-9.241081237792969,5.843272686004639
1790266156788080000,5.948080078125,-5.912664890289307,-9.229117393493652,5.008177757263184
1790266156805333000,5.9653330078125,-6.573083877563477,-8.585447311401367,3.524627685546875
1790266156822585900,5.9825859375,-6.321837425231934,-7.506284713745117,3.517449378967285
1790266156839838700,5.999838623046875,-6.072983741760254,-6.589833736419678,4.1036906242370605
1790266156857091800,6.017091796875,-7.161718368530273,-6.192625045776367,4.742574691772461
1790266156874345000,6.034344970703125,-7.527820110321045,-6.223731517791748,4.6061835289001465
1790266156891598000,6.05159814453125,-7.013363361358643,-5.883950710296631,4.108476638793945
1790266156908851200,6.068851318359375,-6.893722057342529,-5.551348686218262,4.12761926651001
1790266156926104300,6.086104248046875,-7.2813591957092285,-5.577669620513916,4.869394302368164
1790266156943357400,6.103357421875,-7.365108013153076,-5.769095420837402,5.371886730194092
1790266156960610600,6.120610595703125,-6.427121639251709,-5.912664890289307,4.8574299812316895
1790266156977863700,6.13786376953125,-6.005984783172607,-5.544169902801514,4.053441524505615
1790266156995116800,6.15511669921875,-6.812366008758545,-5.103890895843506,4.34536600112915
1790266157012370000,6.172369873046875,-8.0350980758667,-4.357329845428467,4.543970108032227
1790266157029623000,6.189623046875,-7.623532772064209,-3.304488182067871,5.017749309539795
1790266157046876200,6.206876220703125,-7.520641803741455,-2.407179594039917,4.685146808624268
1790266157064129300,6.22412939453125,-6.8482584953308105,-2.1846470832824707,3.414557933807373
1790266157081382400,6.24138232421875,-7.286144733428955,-2.0003998279571533,2.6967110633850098
1790266157098635500,6.258635498046875,-6.719046115875244,-1.9166508913040161,2.0338993072509766
1790266157115889000,6.275888916015625,-7.073183536529541,-1.8544375896453857,2.9599215984344482
1790266157133142000,6.29314208984375,-6.951149940490723,-1.6582261323928833,3.7088751792907715
1790266157150395100,6.31039501953125,-5.9676995277404785,-1.6701902151107788,3.483949661254883
1790266157167648300,6.327648193359375,-5.965306758880615,-1.6845471858978271,2.691925525665283
1790266157184901400,6.3449013671875,-7.101897716522217,-1.100698471069336,2.6488547325134277
1790266157202154500,6.362154541015625,-7.027719974517822,-0.23688943684101105,3.806980848312378
1790266157219407600,6.37940771484375,-6.57547664642334,-0.0933200865983963,3.675375461578369
1790266157236660700,6.39666064453125,-5.9916276931762695,0.2512463629245758,2.9048867225646973
1790266157253913600,6.41391357421875,-6.3529438972473145,0.3445664644241333,2.7038896083831787
1790266157271166500,6.43116650390625,-5.996413707733154,0.8207381963729858,3.0795626640319824
1790266157288419300,6.44841943359375,-5.154139995574951,0.6293123364448547,3.38105845451355
1790266157305672200,6.465672119140625,-5.867201328277588,0.3900300860404968,3.634697675704956
1790266157322925300,6.48292529296875,-5.7858452796936035,0.035892341285943985,4.204189300537109
1790266157340178200,6.50017822265625,-5.824130535125732,-0.16031911969184875,4.536791801452637
1790266157357431300,6.517431396484375,-5.474778175354004,-0.4259224236011505,5.06082010269165
1790266157374684400,6.534684326171875,-5.2354960441589355,-0.6293123364448547,4.555934429168701
1790266157391937500,6.5519375,-5.682953834533691,-0.49292147159576416,3.8356947898864746
1790266157409190700,6.569190673828125,-6.113661766052246,-0.42352959513664246,4.175475597381592
1790266157426443800,6.58644384765625,-6.5252275466918945,-0.605384111404419,4.091726779937744
1790266157443697000,6.60369677734375,-7.63310432434082,-1.0648061037063599,4.500899314880371
1790266157460950000,6.620949951171875,-7.087540626525879,-1.7276179790496826,4.4721856117248535
1790266157478203100,6.638203125,-6.159125328063965,-2.7397818565368652,3.8428730964660645
1790266157495456300,6.655456298828125,-6.03948450088501,-4.206582069396973,4.199403762817383
1790266157512709400,6.67270947265625,-6.285944938659668,-5.723631858825684,4.8191447257995605
1790266157529962500,6.68996240234375,-6.099305152893066,-6.484549522399902,5.13021183013916
1790266157547215600,6.707215576171875,-4.893322467803955,-6.891329288482666,4.204189300537109
1790266157564468700,6.72446875,-5.4795637130737305,-7.010970115661621,3.326023578643799
1790266157581721900,6.741721923828125,-7.920242786407471,-6.951149940490723,3.8811583518981934
1790266157598975000,6.75897509765625,-7.642675399780273,-6.929614543914795,4.314259052276611
1790266157616228000,6.77622802734375,-7.458428382873535,-6.865008354187012,4.204189300537109
1790266157633481200,6.793481201171875,-6.1328043937683105,-6.927221775054932,4.101297855377197
1790266157650734300,6.810734375,-6.049055576324463,-7.056434154510498,4.130012035369873
1790266157667987200,6.8279873046875,-6.757331371307373,-7.274180889129639,4.096512317657471
1790266157685240000,6.845239990234375,-6.6113691329956055,-7.542177200317383,3.548556089401245
1790266157702493000,6.862492919921875,-6.175875186920166,-8.338987350463867,3.345165967941284
1790266157719745800,6.879745849609375,-6.671189308166504,-9.028120040893555,4.680361270904541
1790266157736999000,6.8969990234375,-6.005984783172607,-9.272188186645508,5.800201892852783
1790266157754596900,6.914596923828125,-6.099305152893066,-9.174081802368164,5.850451469421387
1790266157772194800,6.93219482421875,-6.453442573547363,-9.080761909484863,5.546562671661377
1790266157789792800,6.949792724609375,-6.482156753540039,-8.707481384277344,5.2977094650268555
1790266157807390500,6.967390380859375,-7.0061845779418945,-8.468199729919434,4.938786029815674
1790266157824988400,6.984988525390625,-6.331408500671387,-8.599804878234863,4.838287353515625
1790266157842586400,7.00258642578125,-5.458028316497803,-9.047262191772461,4.862215518951416
1790266157860184300,7.020184326171875,-5.816951751708984,-9.183652877807617,4.8574299812316895
1790266157877782300,7.0377822265625,-5.197210788726807,-9.255437850952148,4.493721008300781
1790266157895380200,7.055380126953125,-4.78803825378418,-9.21715259552002,4.098905086517334
1790266157912978200,7.072978271484375,-5.087141036987305,-8.934800148010254,3.6323046684265137
1790266157930576000,7.090575927734375,-5.764309883117676,-8.38684368133545,3.3332018852233887
1790266157948031700,7.10803173828125,-6.125626087188721,-7.874779224395752,3.603590965270996
1790266157965345300,7.12534521484375,-5.91505765914917,-7.506284713745117,4.137190341949463
1790266157982658800,7.142658935546875,-5.340780258178711,-7.549355506896973,4.3788652420043945
1790266157999972400,7.159972412109375,-5.149354457855225,-7.735995769500732,3.78544545173645
1790266158017286000,7.177285888671875,-5.101497650146484,-8.159524917602539,3.3786656856536865
1790266158034599400,7.194599365234375,-5.2043890953063965,-8.511270523071289,3.4552359580993652
1790266158051867600,7.21186767578125,-5.608776092529297,-9.183652877807617,3.9529430866241455
1790266158069120800,7.229120849609375,-5.838487148284912,-9.678967475891113,4.213760852813721
1790266158086374000,7.246373779296875,-5.749952793121338,-9.934999465942383,4.034298896789551
1790266158103627000,7.263626953125,-5.893522262573242,-9.540184020996094,3.737588882446289
1790266158120880000,7.280880126953125,-6.673582553863525,-9.20997428894043,4.438685894012451
1790266158138133200,7.29813330078125,-6.857829570770264,-8.927620887756348,4.807180881500244
1790266158155386000,7.31538623046875,-6.154339790344238,-8.267202377319336,5.472385406494141
1790266158172639200,7.33263916015625,-5.410171985626221,-7.798209190368652,6.666403770446777
1790266158189892000,7.34989208984375,-5.079962253570557,-7.140182971954346,6.190232276916504
1790266158207145000,7.36714501953125,-4.697110652923584,-6.479763507843018,6.2668023109436035
1790266158224397800,7.384397705078125,-4.515256404876709,-6.309873104095459,6.118447303771973
1790266158241651000,7.40165087890625,-5.5728840827941895,-6.391229152679443,5.888736724853516
1790266158258904000,7.418904052734375,-6.374479293823242,-6.190232276916504,5.72123908996582
1790266158276157200,7.4361572265625,-7.456035137176514,-6.230910301208496,5.615954875946045
1790266158293410300,7.453410400390625,-7.537391185760498,-5.893522262573242,5.6446685791015625
1790266158310663400,7.470663330078125,-7.568498134613037,-5.4556355476379395,6.305087566375732
1790266158327916500,7.48791650390625,-7.460821151733398,-4.974678039550781,6.695117950439453
1790266158345169700,7.505169677734375,-7.144968509674072,-4.66361141204834,5.9437713623046875
1790266158362422800,7.5224228515625,-7.106683254241943,-4.965106964111328,4.902893543243408
1790266158379676000,7.539676025390625,-7.520641803741455,-6.367300987243652,4.323830604553223
1790266158396929000,7.556928955078125,-6.597012042999268,-7.271788120269775,3.2925238609313965
1790266158414182100,7.57418212890625,-6.999006271362305,-6.271588325500488,2.304288148880005
1790266158431435300,7.591435302734375,-8.109275817871094,-5.410171985626221,2.744567632675171
1790266158448688000,7.608688232421875,-8.025527000427246,-5.4867424964904785,3.9840497970581055
1790266158465941000,7.62594091796875,-7.085147857666016,-5.795416355133057,5.106283664703369
1790266158483194000,7.643194091796875,-6.881757736206055,-5.879165172576904,5.881557941436768
1790266158500447000,7.660447021484375,-6.608976364135742,-5.548955917358398,5.917450428009033
1790266158517699800,7.677699951171875,-6.0370917320251465,-4.555934429168701,4.948357105255127
1790266158534952700,7.69495263671875,-4.752145767211914,-3.8021950721740723,4.235296249389648
1790266158552205800,7.712205810546875,-3.9290146827697754,-2.809173822402954,2.8211379051208496
1790266158569459000,7.729458984375,-5.302495002746582,-0.6771687865257263,2.6225335597991943
1790266158586712000,7.746712158203125,-5.752345561981201,0.33020952343940735,2.3784656524658203
1790266158603965200,7.763965087890625,-5.424529075622559,0.6364908218383789,2.715853691101074
1790266158621218300,7.78121826171875,-6.561119556427002,0.4666004180908203,3.0340991020202637
1790266158638471400,7.798471435546875,-6.898507595062256,-0.3517449200153351,3.345165967941284
1790266158655724500,7.815724609375,-7.3914289474487305,-1.4811571836471558,3.84765887260437
1790266158672977700,7.832977783203125,-6.690331935882568,-1.8376877307891846,3.517449378967285
1790266158690230800,7.850230712890625,-7.4225358963012695,-1.4452649354934692,2.462214469909668
1790266158707484000,7.86748388671875,-6.905686378479004,-0.7226324677467346,2.4358935356140137
1790266158724737000,7.884737060546875,-6.0849480628967285,-0.4091726839542389,2.8426733016967773
1790266158741990100,7.901990234375,-5.285745143890381,0.11724831163883209,2.423929452896118
1790266158759243000,7.919242919921875,-5.580062389373779,0.08135596662759781,2.612962245941162
1790266158776495900,7.936495849609375,-7.089933395385742,-0.22013968229293823,3.421736478805542
1790266158793749000,7.9537490234375,-6.6831536293029785,-0.8398807644844055,4.393222332000732
1790266158811001900,7.971001953125,-4.213760852813721,-1.1030912399291992,4.42193603515625
1790266158828254700,7.988254638671875,-4.814359188079834,-1.2442678213119507,3.5294134616851807
1790266158845507800,8.0055078125,-5.419743061065674,-1.5553346872329712,3.4337005615234375
1790266158862761000,8.022760986328125,-5.259424209594727,-2.0410776138305664,2.7397818565368652
1790266158880014000,8.04001416015625,-5.513063430786133,-2.3784656524658203,2.6775684356689453
1790266158897267200,8.05726708984375,-5.496313571929932,-2.9312076568603516,3.0939197540283203
1790266158914520300,8.074520263671875,-5.446064472198486,-3.6777684688568115,3.656233072280884
1790266158931773400,8.0917734375,-5.910272121429443,-4.42193603515625,3.8739798069000244
1790266158949026600,8.109026611328124,-6.664011001586914,-4.907679080963135,3.8261234760284424
1790266158966279700,8.12627978515625,-7.8628153800964355,-5.395814895629883,4.084548473358154
1790266158983532800,8.14353271484375,-7.238288402557373,-5.927021503448486,4.862215518951416
1790266159000786000,8.160785888671874,-6.448657035827637,-6.8482584953308105,4.666004180908203
1790266159018039000,8.1780390625,-7.884350776672363,-7.5565338134765625,5.06799840927124
1790266159035292200,8.195292236328125,-7.601997375488281,-8.078168869018555,5.706881999969482
1790266159052545000,8.212544921875,-7.0061845779418945,-8.662017822265625,6.585047721862793
1790266159069798000,8.2297978515625,-6.728617191314697,-8.556734085083008,7.130611419677734
1790266159087051000,8.247051025390626,-6.183053493499756,-8.157132148742676,6.522834300994873
1790266159104303900,8.264303955078125,-5.936593055725098,-8.044670104980469,5.539384365081787
1790266159121556700,8.281556640625,-5.900700569152832,-7.9585280418396,4.902893543243408
1790266159138809600,8.2988095703125,-4.721039295196533,-7.8628153800964355,4.543970108032227
1790266159156062700,8.316062744140625,-4.893322467803955,-7.70249605178833,4.436293125152588
1790266159173315800,8.33331591796875,-5.154139995574951,-7.8317084312438965,4.596612453460693
1790266159190569000,8.35056884765625,-6.080162525177002,-8.059026718139648,4.680361270904541
1790266159207822000,8.367822021484375,-6.6831536293029785,-8.315058708190918,5.350351333618164
1790266159225075200,8.3850751953125,-5.687739372253418,-8.989834785461426,6.199803352355957
1790266159242328300,8.402328369140625,-5.828916072845459,-10.16710376739502,7.5565338134765625
1790266159259581400,8.41958154296875,-6.628118515014648,-10.738987922668457,9.095118522644043
1790266159276834800,8.436834716796875,-7.176074981689453,-10.97587776184082,8.714659690856934
1790266159294088000,8.454087890625,-5.19242525100708,-10.805987358093262,6.833901405334473
1790266159311341000,8.471341064453124,-3.9864425659179688,-10.322636604309082,3.902693748474121
1790266159328594200,8.48859423828125,-3.9385859966278076,-10.13599681854248,2.469393014907837
1790266159345847000,8.505846923828125,-3.972085475921631,-9.260223388671875,2.0003998279571533
1790266159363100000,8.523099853515625,-4.575077056884766,-8.616554260253906,2.555534601211548
1790266159380352800,8.540352783203126,-4.919643402099609,-7.8819580078125,3.263810157775879
1790266159397606000,8.55760595703125,-4.78803825378418,-7.324429988861084,3.421736478805542
1790266159414858800,8.574858642578125,-4.488935470581055,-7.025327205657959,3.13220477104187
1790266159432111600,8.592111572265624,-4.536791801452637,-6.778866767883301,2.7086751461029053
1790266159449364700,8.60936474609375,-4.948357105255127,-6.522834300994873,2.414358139038086
1790266159466617900,8.626617919921875,-5.5968122482299805,-6.565905570983887,2.8498518466949463
1790266159483871000,8.64387109375,-6.599404811859131,-7.341179847717285,3.335594654083252
1790266159501124000,8.6611240234375,-6.39601469039917,-8.449056625366211,3.9385859966278076
1790266159518377200,8.678377197265625,-5.836094379425049,-9.205188751220703,4.704289436340332
1790266159535630300,8.69563037109375,-6.951149940490723,-9.391828536987305,5.283352375030518
1790266159552883500,8.712883544921874,-8.872586250305176,-9.461220741271973,5.836094379425049
1790266159570136600,8.730136474609376,-8.030312538146973,-9.975677490234375,6.424728870391846
1790266159587389700,8.7473896484375,-6.836294174194336,-10.116853713989258,6.771687984466553
1790266159604642800,8.764642822265625,-5.601597785949707,-9.492327690124512,6.809973239898682
1790266159621896000,8.78189599609375,-6.017949104309082,-8.090133666992188,6.290730953216553
1790266159639149000,8.799149169921876,-7.025327205657959,-6.850651264190674,6.0610198974609375
1790266159656402000,8.81640185546875,-7.204789161682129,-5.965306758880615,5.824130535125732
1790266159673654800,8.83365478515625,-6.436692714691162,-5.3216376304626465,5.426921844482422
1790266159690907600,8.85090771484375,-6.7310099601745605,-4.73300313949585,5.522634506225586
1790266159708160800,8.868160888671875,-7.025327205657959,-4.491328239440918,5.201996326446533
1790266159725413600,8.88541357421875,-6.618547439575195,-4.273581027984619,4.7234320640563965
1790266159742666500,8.90266650390625,-5.766702651977539,-4.244867324829102,4.201796531677246
1790266159759919600,8.919919677734375,-5.166104316711426,-4.47697114944458,3.5988051891326904
1790266159777172700,8.9371728515625,-4.823930263519287,-4.709074974060059,3.2207393646240234
1790266159794425900,8.95442578125,-5.352744102478027,-4.6061835289001465,2.586641311645508
1790266159811679000,8.971678955078126,-8.365307807922363,-4.709074974060059,3.2279176712036133
1790266159828932000,8.98893212890625,-8.748159408569336,-5.548955917358398,4.225724697113037
1790266159846185200,9.006185302734375,-7.530212879180908,-5.946164131164551,4.524827480316162
1790266159863438300,9.023438232421874,-8.86780071258545,-5.139782905578613,4.29033088684082
1790266159880691500,9.04069140625,-7.853243827819824,-3.656233072280884,4.701896667480469
1790266159897944600,9.057944580078125,-6.623332977294922,-2.667997360229492,4.156332969665527
1790266159915197700,9.07519775390625,-8.109275817871094,-1.5146567821502686,3.5270206928253174
1790266159932450800,9.092450927734374,-5.582455158233643,-1.3112667798995972,2.806781053543091
1790266159949704000,9.109703857421875,-5.034498691558838,-1.1150553226470947,2.0003998279571533
1790266159966956800,9.126956787109375,-6.118447303771973,-1.5194423198699951,1.7850457429885864
1790266159984209700,9.144209716796874,-4.900500774383545,-2.1511476039886475,1.4141582250595093
1790266160001462800,9.161462890625,-3.9194436073303223,-1.0648061037063599,0.5958128571510315
1790266160018715600,9.178715576171875,-4.409972190856934,-0.10049854964017868,-1.1174482107162476
1790266160035968500,9.195968505859375,-6.589833736419678,1.0001999139785767,-1.129412293434143
1790266160053221600,9.2132216796875,-7.690532207489014,1.612762451171875,1.1126625537872314
1790266160070474800,9.230474853515625,-6.850651264190674,1.1341979503631592,2.6560330390930176
1790266160087727900,9.247727783203125,-7.755138397216797,0.45942193269729614,3.28773832321167
1790266160104981000,9.26498095703125,-6.690331935882568,-0.30628129839897156,3.6873397827148438
1790266160122234000,9.282234130859376,-5.606383323669434,-1.0480563640594482,4.517649173736572
1790266160139487200,9.2994873046875,-5.357530117034912,-1.770688772201538,4.431507587432861
1790266160156740000,9.316739990234375,-4.467400074005127,-2.6153552532196045,4.596612453460693
1790266160173993000,9.333992919921876,-3.4504501819610596,-3.012563705444336,4.113262176513672
1790266160191245800,9.351245849609375,-4.833501815795898,-2.9288148880004883,3.6227335929870605
1790266160208499000,9.3684990234375,-5.742774486541748,-2.60339093208313,4.1036906242370605
1790266160225751800,9.385751708984374,-7.154539585113525,-2.2683959007263184,4.498506546020508
1790266160243004700,9.403004638671876,-6.702296257019043,-2.5148565769195557,4.677968502044678
1790266160260257800,9.4202578125,-6.400800704956055,-3.067598581314087,4.450650215148926
1790266160277511200,9.43751123046875,-6.120840549468994,-4.163511276245117,4.534399032592773
1790266160294764300,9.454764404296874,-7.740781307220459,-5.333601474761963,5.623133182525635
1790266160312017400,9.472017333984375,-6.166304111480713,-6.300302028656006,5.190032482147217
1790266160329270500,9.4892705078125,-5.020142078399658,-7.293323516845703,4.086941242218018
1790266160346523400,9.5065234375,-6.656832695007324,-8.432307243347168,3.7950167655944824
1790266160363776500,9.523776611328126,-7.501499176025391,-9.040083885192871,5.125426292419434
1790266160381029600,9.541029541015625,-7.130611419677734,-9.571290969848633,5.6685967445373535
1790266160398282800,9.55828271484375,-6.728617191314697,-9.913464546203613,6.013163089752197
1790266160415535900,9.575535888671874,-6.515655994415283,-10.222138404846191,6.005984783172607
1790266160432789000,9.5927890625,-7.403393268585205,-10.50209903717041,6.2500529289245605
1790266160450042000,9.6100419921875,-6.723831653594971,-10.179067611694336,6.020341873168945
1790266160467295000,9.627294921875,-6.309873104095459,-9.722038269042969,6.0777692794799805
1790266160484547800,9.6445478515625,-4.42193603515625,-9.29611587524414,5.982056617736816
1790266160501801000,9.661801025390625,-3.799802303314209,-9.1716890335083,5.745167255401611
1790266160519053800,9.6790537109375,-4.543970108032227,-8.896514892578125,5.489135265350342
1790266160536306700,9.696306640625,-6.489335060119629,-8.614161491394043,5.38624382019043
1790266160553559800,9.713559814453125,-6.695117950439453,-8.48734188079834,5.826523303985596
1790266160570813000,9.73081298828125,-5.395814895629883,-8.135597229003906,5.759523868560791
1790266160588066000,9.748066162109374,-5.563312530517578,-7.264609336853027,4.445864677429199
1790266160605319200,9.765319091796876,-5.170889854431152,-7.142575740814209,3.7567315101623535
1790266160622572300,9.782572265625,-5.032105922698975,-7.936992645263672,3.335594654083252
1790266160639825400,9.799825439453125,-4.742574691772461,-8.61894702911377,2.651247501373291
1790266160657078300,9.817078369140624,-4.826323509216309,-8.913264274597168,2.00518536567688
1790266160674331100,9.8343310546875,-4.7473602294921875,-9.032905578613281,2.3880369663238525
1790266160691584000,9.851583984375,-5.1804609298706055,-9.358329772949219,3.6849467754364014
1790266160708837000,9.868837158203124,-5.587240695953369,-9.336793899536133,4.735395908355713
1790266160726090000,9.886090087890626,-5.9198431968688965,-9.31047248840332,5.31685209274292
1790266160743342800,9.9033427734375,-5.769095420837402,-9.245866775512695,5.029713153839111
1790266160760596000,9.920595947265625,-4.886143684387207,-9.214759826660156,4.474578380584717
1790266160777849000,9.93784912109375,-4.766502857208252,-8.941978454589844,4.0797624588012695
1790266160795102200,9.955102294921875,-6.03948450088501,-8.295916557312012,4.4650068283081055
1790266160812355300,9.972355224609375,-7.922635555267334,-8.015955924987793,5.9198431968688965
1790266160829608400,9.9896083984375,-6.4510498046875,-8.724231719970703,7.197610378265381
1790266160846861600,10.006861572265626,-4.993820667266846,-9.006584167480469,5.484349727630615
1790266160864114700,10.02411474609375,-6.305087566375732,-8.638090133666992,4.728217601776123
1790266160881367800,10.041367919921875,-7.5086774826049805,-8.422736167907715,4.402793884277344
1790266160898621000,10.058620849609374,-6.558726787567139,-8.444271087646484,3.8739798069000244
1790266160915874000,10.0758740234375,-7.013363361358643,-8.264809608459473,4.005585193634033
1790266160933127200,10.093127197265625,-7.154539585113525,-7.858029365539551,5.065605640411377
1790266160950380300,10.11038037109375,-6.436692714691162,-8.336593627929688,6.183053493499756
1790266160967633200,10.127633056640626,-5.821737289428711,-8.3629150390625,5.623133182525635
1790266160984886000,10.144885986328125,-6.173482418060303,-7.410571575164795,5.048855781555176
1790266161002139100,10.16213916015625,-6.3529438972473145,-6.429514408111572,4.713860511779785
1790266161019392000,10.17939208984375,-6.0538411140441895,-5.7164530754089355,4.051048755645752
1790266161036644900,10.196644775390626,-5.898307800292969,-5.144568920135498,3.445664644241333
1790266161053898000,10.21389794921875,-6.240481376647949,-4.508078098297119,3.242274761199951
1790266161071151000,10.231151123046875,-6.1950178146362305,-3.9840497970581055,2.526820659637451
1790266161088404200,10.248404296875,-6.92482852935791,-3.570091485977173,2.486142635345459
1790266161105657300,10.2656572265625,-9.078369140625,-3.297309637069702,3.084348440170288
1790266161122910500,10.282910400390625,-9.784252166748047,-3.5341989994049072,4.285545349121094
1790266161140163600,10.30016357421875,-7.396214962005615,-4.974678039550781,4.436293125152588
1790266161157416400,10.31741650390625,-6.379265308380127,-4.560719966888428,3.2374889850616455
1790266161174669300,10.33466943359375,-7.288537979125977,-3.3619158267974854,2.8977081775665283
1790266161191922200,10.351922119140625,-6.029912948608398,-2.4191436767578125,2.5698914527893066
1790266161209175300,10.36917529296875,-5.31685209274292,-1.8305093050003052,2.069791555404663
1790266161226428200,10.38642822265625,-5.508277893066406,-1.1102696657180786,1.8831514120101929
1790266161243681000,10.403680908203125,-4.60857629776001,-0.4211367964744568,1.667797327041626
1790266161260934100,10.42093408203125,-5.218746185302734,0.4450650215148926,1.4811571836471558
1790266161278187500,10.4381875,-5.752345561981201,0.5431707501411438,1.4835500717163086
1790266161295440600,10.455440673828125,-5.288137912750244,0.2871387302875519,2.045863389968872
1790266161312693800,10.47269384765625,-4.816751956939697,-0.29431718587875366,1.6821542978286743
1790266161329947000,10.48994677734375,-5.618347644805908,0.20099709928035736,1.0791629552841187
1790266161347199700,10.50719970703125,-6.082555294036865,0.5838487148284912,0.4091726839542389
1790266161364452600,10.52445263671875,-6.757331371307373,0.3852444589138031,1.3830515146255493
1790266161381705500,10.54170556640625,-6.666403770446777,-0.062213387340307236,2.132004976272583
1790266161398958600,10.55895849609375,-6.56829833984375,-0.5312066078186035,3.510270833969116
1790266161416211500,10.57621142578125,-6.1950178146362305,-1.2203395366668701,4.768895626068115
1790266161433464300,10.59346435546875,-6.376872539520264,-2.0267207622528076,4.716253280639648
1790266161450717400,10.610717529296876,-5.848058700561523,-2.7182464599609375,5.245067119598389
1790266161467970600,10.627970458984375,-5.106283664703369,-3.1178479194641113,5.0225348472595215
1790266161485223700,10.6452236328125,-5.879165172576904,-3.2207393646240234,4.644468784332275
1790266161502476800,10.662476806640624,-6.3601226806640625,-3.3332018852233887,4.807180881500244
1790266161519730000,10.67972998046875,-6.348158359527588,-3.744767427444458,4.862215518951416
1790266161536983000,10.696983154296875,-5.395814895629883,-4.180261135101318,4.3788652420043945
1790266161554236000,10.71423583984375,-5.357530117034912,-4.429114818572998,3.4121651649475098
1790266161571488800,10.73148876953125,-6.178267955780029,-4.756931304931641,2.715853691101074
1790266161588742000,10.748741943359375,-7.077969551086426,-5.886343479156494,2.4909284114837646
1790266161605994800,10.765994873046875,-6.795616149902344,-7.41535758972168,2.830709218978882
1790266161623247600,10.78324755859375,-5.891129493713379,-8.38684368133545,2.7110681533813477
1790266161640500700,10.800500732421876,-6.6352972984313965,-8.812766075134277,2.8283164501190186
1790266161657753900,10.81775390625,-6.556334018707275,-9.037691116333008,3.242274761199951
1790266161675007000,10.835007080078125,-6.9583282470703125,-9.55214786529541,3.981656789779663
1790266161692260000,10.852260009765626,-6.534798622131348,-10.470992088317871,5.010570526123047
1790266161709513200,10.86951318359375,-5.941378593444824,-11.088339805603027,5.223531723022461
1790266161726766300,10.886766357421875,-7.001399040222168,-10.978270530700684,5.891129493713379
1790266161744019200,10.904019287109374,-7.743174076080322,-10.217352867126465,5.888736724853516
1790266161761272000,10.92127197265625,-7.872386455535889,-9.485149383544922,6.175875186920166
1790266161778525000,10.93852490234375,-6.317051887512207,-9.870393753051758,6.235695838928223
1790266161795778000,10.955778076171875,-5.594419479370117,-10.834700584411621,6.56829833984375
1790266161813031000,10.973031005859376,-6.080162525177002,-10.817951202392578,6.879364967346191
1790266161830283800,10.99028369140625,-5.874379634857178,-9.4660062789917,6.247660160064697
1790266161847537000,11.007536865234375,-5.4556355476379395,-8.200202941894531,5.178068161010742
1790266161864790000,11.0247900390625,-4.9986066818237305,-7.611568927764893,4.709074974060059
1790266161882043100,11.042043212890626,-4.089334011077881,-7.223931789398193,3.538984775543213
1790266161899296300,11.059296142578125,-3.6299118995666504,-7.2813591957092285,3.036491870880127
1790266161916549400,11.07654931640625,-3.6873397827148438,-7.63310432434082,2.7254250049591064
1790266161933802500,11.093802490234374,-4.716253280639648,-8.13798999786377,2.4287149906158447
1790266161951055400,11.111055419921875,-5.469992637634277,-9.109476089477539,3.060420274734497
1790266161968308200,11.12830810546875,-5.474778175354004,-9.69093132019043,3.9194436073303223
1790266161985561300,11.145561279296874,-5.197210788726807,-9.592825889587402,3.146561861038208
1790266162002814200,11.162814208984376,-5.742774486541748,-8.740981101989746,2.586641311645508
1790266162020067000,11.180067138671875,-6.881757736206055,-8.2695951461792,3.345165967941284
1790266162037320000,11.19731982421875,-7.156932353973389,-8.489734649658203,5.0464630126953125
1790266162054573000,11.214572998046876,-6.678368091583252,-9.317651748657227,6.608976364135742
1790266162071826200,11.231826171875,-5.697310924530029,-10.1216402053833,7.566105365753174
1790266162089079300,11.249079345703125,-5.182853698730469,-10.614561080932617,7.221538543701172
1790266162106332400,11.26633251953125,-5.501099109649658,-9.90149974822998,6.491727828979492
1790266162123585500,11.28358544921875,-5.513063430786133,-8.779266357421875,5.747560024261475
1790266162140838700,11.300838623046875,-6.26440954208374,-7.561319351196289,5.678168296813965
1790266162158091800,11.318091796875,-6.417550563812256,-6.92482852935791,5.615954875946045
1790266162175345000,11.335344970703124,-5.690132141113281,-6.798008918762207,4.9052863121032715
1790266162192598000,11.352597900390625,-6.233303070068359,-6.2428741455078125,4.847858905792236
1790266162209851100,11.36985107421875,-7.29093074798584,-5.986842155456543,5.352744102478027
1790266162227104300,11.387104248046874,-6.98704195022583,-6.209374904632568,6.2500529289245605
1790266162244357400,11.404357421875,-6.372086524963379,-6.297909259796143,6.424728870391846
1790266162261610200,11.4216103515625,-5.484349727630615,-6.489335060119629,5.893522262573242
1790266162278863000,11.438863037109375,-5.601597785949707,-6.51326322555542,5.07517671585083
1790266162296116200,11.4561162109375,-5.869594097137451,-6.4701924324035645,3.7184464931488037
1790266162313369000,11.473369140625,-7.343572616577148,-5.8337016105651855,3.170490026473999
1790266162330622000,11.4906220703125,-8.142775535583496,-4.919643402099609,4.457828521728516
1790266162347875000,11.507875,-7.798209190368652,-4.192225456237793,4.677968502044678
1790266162365128200,11.525128173828126,-6.932007312774658,-4.409972190856934,4.697110652923584
1790266162382381300,11.54238134765625,-7.5708909034729,-4.534399032592773,4.780859470367432
1790266162399634400,11.559634521484375,-7.429714202880859,-4.1730828285217285,4.130012035369873
1790266162416887600,11.576887451171874,-7.046862602233887,-3.81655216217041,3.531806230545044
1790266162434140700,11.594140625,-5.458028316497803,-3.321237802505493,3.029313564300537
1790266162451393500,11.6113935546875,-6.206982135772705,-2.304288148880005,2.531606435775757
1790266162468646400,11.628646484375,-5.041677474975586,-1.2538390159606934,1.887937068939209
1790266162485899500,11.6458994140625,-4.168296813964844,-0.41156548261642456,0.8422735929489136
1790266162503152400,11.66315234375,-5.4867424964904785,0.0023928226437419653,-0.2225325107574463
1790266162520405200,11.6804052734375,-4.749752998352051,0.5886343717575073,0.3684946894645691
1790266162537658000,11.697658203125,-4.744967460632324,1.5601203441619873,1.4261223077774048
1790266162554911200,11.7149111328125,-4.314259052276611,1.301695466041565,2.029113531112671
1790266162572164400,11.732164306640625,-7.247859954833984,0.6029912829399109,1.9692929983139038
1790266162589417500,11.74941748046875,-6.996613502502441,-0.30628129839897156,2.4526431560516357
1790266162606670600,11.766670654296876,-5.759523868560791,-0.49292147159576416,2.919243574142456
1790266162623923700,11.783923828125,-5.532206058502197,-0.7010970115661621,3.28773832321167
1790266162641176800,11.8011767578125,-5.869594097137451,-0.15553347766399384,2.5986053943634033
1790266162658429700,11.8184296875,-6.929614543914795,0.016749758273363113,1.9980069398880005
1790266162675682800,11.835682861328126,-5.350351333618164,-0.5527420043945312,3.1657042503356934
1790266162692935700,11.852935791015625,-6.556334018707275,-1.2370892763137817,3.9840497970581055
1790266162710188500,11.8701884765625,-6.417550563812256,-1.97407865524292,4.716253280639648
1790266162727441400,11.88744140625,-5.651846885681152,-3.1824541091918945,4.864608287811279
1790266162744694500,11.904694580078125,-4.945964336395264,-3.9672999382019043,4.369294166564941
1790266162761947600,11.92194775390625,-5.3312087059021,-4.2592244148254395,4.319045066833496
1790266162779200800,11.93920068359375,-5.9676995277404785,-4.6301116943359375,3.864408493041992
1790266162796454000,11.956453857421875,-6.25723123550415,-5.2115678787231445,3.627519130706787
1790266162813707000,11.97370703125,-5.661418437957764,-5.529813289642334,3.8117663860321045
1790266162830960000,11.990960205078125,-4.321437835693359,-5.718846321105957,3.6131622791290283
1790266162848213000,12.008212890625,-5.295316696166992,-6.156732559204102,3.352344512939453
1790266162865466000,12.025466064453125,-7.70967435836792,-6.807580471038818,4.096512317657471
1790266162882719000,12.042718994140625,-8.37009334564209,-7.23589563369751,4.826323509216309
1790266162899971800,12.059971923828124,-6.8171515464782715,-8.063812255859375,5.312066078186035
1790266162917224700,12.077224609375,-6.238088607788086,-9.77707290649414,5.0943193435668945
1790266162934477600,12.0944775390625,-6.221338748931885,-11.777473449707031,5.460421085357666
1790266162951730700,12.111730712890624,-6.7692952156066895,-12.868599891662598,6.38165807723999
1790266162968983800,12.12898388671875,-7.152146816253662,-11.808579444885254,5.98444938659668
1790266162986237000,12.14623681640625,-6.742974281311035,-9.741181373596191,5.2283172607421875
1790266163003490000,12.163489990234375,-6.673582553863525,-7.8795647621154785,4.871787071228027
1790266163020743200,12.1807431640625,-5.886343479156494,-6.867401123046875,4.938786029815674
1790266163037996300,12.197996337890626,-5.905486106872559,-6.386443614959717,5.278566837310791
1790266163055249200,12.215249267578125,-6.032305717468262,-6.8554368019104,5.520241737365723
1790266163072502300,12.232502197265624,-6.479763507843018,-8.173882484436035,5.6925249099731445
1790266163089755100,12.249755126953126,-6.3122663497924805,-9.734002113342285,5.927021503448486
1790266163107008000,12.267008056640625,-6.666403770446777,-10.04985523223877,6.178267955780029
1790266163124260900,12.2842607421875,-5.838487148284912,-9.80100154876709,5.867201328277588
1790266163141513700,12.301513671875,-5.2283172607421875,-9.123832702636719,4.6301116943359375
1790266163158767000,12.31876708984375,-5.144568920135498,-8.271987915039062,3.5030922889709473
1790266163176020200,12.336020263671875,-4.742574691772461,-7.793423175811768,3.438486099243164
1790266163193273300,12.3532734375,-4.88853645324707,-7.75753116607666,4.175475597381592
1790266163210526500,12.3705263671875,-5.5345988273620605,-8.453842163085938,4.804787635803223
1790266163227779600,12.387779541015625,-5.670989513397217,-9.075976371765137,4.938786029815674
1790266163245032400,12.405032470703125,-5.1565327644348145,-9.410971641540527,5.527420520782471
1790266163262285600,12.42228564453125,-5.575276851654053,-9.829715728759766,6.486942291259766
1790266163279538400,12.439538330078125,-5.996413707733154,-10.38485050201416,7.592426300048828
1790266163296791300,12.456791259765625,-4.6540398597717285,-10.712666511535645,7.64028263092041
1790266163314044200,12.474044189453124,-3.7782669067382812,-10.229316711425781,6.446264266967773
1790266163331297000,12.491297119140626,-3.94097900390625,-8.745766639709473,5.38624382019043
1790266163348550100,12.508550048828125,-4.082155227661133,-7.3292155265808105,4.996213912963867
1790266163365803000,12.525802978515625,-4.264009952545166,-6.367300987243652,4.893322467803955
1790266163383056000,12.543055908203126,-5.027320384979248,-5.491528034210205,4.53200626373291
1790266163400308700,12.560308837890625,-4.945964336395264,-5.044070243835449,4.182653903961182
1790266163417561600,12.5775615234375,-5.134997367858887,-5.170889854431152,4.146761417388916
1790266163434814700,12.594814697265624,-5.4867424964904785,-6.034698486328125,4.187439441680908
1790266163452067600,12.612067626953126,-5.742774486541748,-6.759724140167236,4.78803825378418
1790266163469321000,12.629321044921875,-7.211967468261719,-7.190432071685791,5.838487148284912
1790266163486574000,12.646573974609375,-7.915457248687744,-7.970492362976074,6.888936519622803
1790266163503827200,12.6638271484375,-8.051848411560059,-8.666803359985352,7.216753005981445
1790266163521080300,12.681080322265625,-9.4660062789917,-8.884550094604492,7.774280548095703
1790266163538333400,12.69833349609375,-9.724431037902832,-8.944371223449707,7.379465103149414
1790266163555586300,12.71558642578125,-7.872386455535889,-8.023134231567383,5.7786664962768555
1790266163572839200,12.732839111328126,-8.147561073303223,-6.111268997192383,5.6207404136657715
1790266163590092000,12.750092041015625,-7.64028263092041,-4.512863636016846,5.450850009918213
1790266163607345000,12.767344970703125,-6.666403770446777,-3.862015724182129,4.8191447257995605
1790266163624598000,12.784597900390626,-6.290730953216553,-4.230510234832764,4.551148891448975
1790266163641851000,12.801850830078125,-4.802394866943359,-4.613361835479736,4.242474555969238
1790266163659104000,12.81910400390625,-3.751945972442627,-4.168296813964844,3.9290146827697754
1790266163676357000,12.836357177734374,-4.7952165603637695,-2.7972097396850586,3.328416347503662
1790266163693610200,12.8536103515625,-2.651247501373291,-1.588834285736084,3.2303106784820557
1790266163710863400,12.87086328125,-1.3519448041915894,-0.49292147159576416,2.3258235454559326
1790266163728116500,12.888116455078125,-3.0029923915863037,0.04785645380616188,0.6652047038078308
1790266163745369600,12.90536962890625,-3.9074792861938477,0.8925228714942932,-0.8614161610603333
1790266163762622500,12.92262255859375,-5.709274768829346,2.0817556381225586,0.03349951654672623
1790266163779875300,12.939875244140625,-8.288737297058105,1.679761528968811,1.3232308626174927
1790266163797128200,12.957128173828124,-7.817351341247559,-0.47617170214653015,4.852644443511963
1790266163814381300,12.97438134765625,-9.09990406036377,-2.093719720840454,6.094519138336182
1790266163831634200,12.99163427734375,-9.150154113769531,-2.8043880462646484,5.675775527954102
1790266163848887000,13.008886962890625,-7.369893550872803,-2.4598217010498047,4.266402721405029
1790266163866140200,13.02614013671875,-6.747759819030762,-0.21774685382843018,3.0963125228881836
1790266163883393300,13.043393310546875,-5.017749309539795,1.3088740110397339,2.9551360607147217
1790266163900646400,13.060646484375,-4.508078098297119,0.8183453679084778,2.249253273010254
1790266163917899500,13.0778994140625,-3.809373617172241,-0.1459621787071228,1.7084753513336182
1790266163935152600,13.095152587890626,-4.9124650955200195,-0.8614161610603333,1.923829436302185
1790266163952405800,13.11240576171875,-5.438885688781738,-1.4644074440002441,2.6799614429473877
1790266163969658600,13.12965869140625,-4.493721008300781,-2.2229323387145996,3.2350962162017822
1790266163986911500,13.146911376953126,-4.60857629776001,-2.495713949203491,3.3619158267974854
1790266164004164600,13.16416455078125,-5.6685967445373535,-2.555534601211548,3.5198421478271484
1790266164021417500,13.18141748046875,-5.536991596221924,-2.8043880462646484,3.3379876613616943
1790266164038670300,13.19867041015625,-4.9531426429748535,-3.160918712615967,3.2757742404937744
1790266164055923500,13.21592333984375,-5.941378593444824,-3.3786656856536865,3.6442689895629883
1790266164073176600,13.233176513671875,-7.2430739402771,-3.665804386138916,4.570291042327881
1790266164090429700,13.2504296875,-6.606583118438721,-4.680361270904541,5.280959606170654
1790266164107682800,13.267682861328124,-5.584847927093506,-6.321837425231934,5.300102233886719
1790266164124936000,13.28493603515625,-6.675975322723389,-8.209774017333984,5.759523868560791
1790266164142189000,13.30218896484375,-8.286344528198242,-10.387243270874023,6.874579429626465
1790266164159442000,13.31944189453125,-7.154539585113525,-11.861222267150879,7.073183536529541
1790266164176694800,13.33669482421875,-5.400600910186768,-11.866007804870605,6.104090690612793
1790266164193947600,13.35394775390625,-5.484349727630615,-11.12901782989502,5.970092296600342
1790266164211200800,13.37120068359375,-6.8410797119140625,-9.714859962463379,5.938985824584961
1790266164228453600,13.38845361328125,-6.553941249847412,-8.109275817871094,5.2737812995910645
1790266164245706500,13.40570654296875,-6.853044033050537,-6.939185619354248,4.9052863121032715
1790266164262959400,13.42295947265625,-5.996413707733154,-6.348158359527588,4.5822553634643555
1790266164280212200,13.440212158203124,-5.010570526123047,-6.486942291259766,4.675575256347656
1790266164297465300,13.45746533203125,-5.201996326446533,-7.061219692230225,5.398207664489746
1790266164314718200,13.47471826171875,-5.7164530754089355,-8.011170387268066,6.209374904632568
1790266164331971000,13.49197119140625,-5.149354457855225,-9.274580955505371,6.833901405334473
1790266164349224200,13.50922412109375,-4.73300313949585,-10.344172477722168,6.920042991638184
1790266164366477300,13.526477294921875,-4.9363932609558105,-10.882556915283203,6.448657035827637
1790266164383730400,13.54373046875,-4.9531426429748535,-10.439885139465332,5.560919761657715
1790266164400983600,13.560983642578124,-5.051248550415039,-9.480362892150879,4.8502516746521
1790266164418236700,13.578236572265626,-6.001199245452881,-8.6907320022583,4.426722049713135
1790266164435489800,13.59548974609375,-6.845865726470947,-8.26241683959961,4.175475597381592
1790266164452742700,13.61274267578125,-6.819544315338135,-8.288737297058105,4.362115859985352
1790266164469995500,13.62999560546875,-6.3840508460998535,-8.654839515686035,4.634897232055664
1790266164487248600,13.64724853515625,-5.711667537689209,-9.047262191772461,4.275974273681641
1790266164504501500,13.66450146484375,-4.409972190856934,-9.030512809753418,4.082155227661133
1790266164521754400,13.68175439453125,-3.972085475921631,-8.650053977966309,4.041477680206299
1790266164539007200,13.69900732421875,-4.3549370765686035,-8.070990562438965,4.163511276245117
1790266164556260400,13.71626025390625,-4.584648132324219,-7.611568927764893,4.869394302368164
1790266164573513500,13.733513427734374,-4.675575256347656,-7.496713161468506,5.802595138549805
1790266164590766600,13.7507666015625,-5.259424209594727,-7.893921852111816,6.429514408111572
1790266164608020000,13.76802001953125,-5.168497085571289,-8.415556907653809,6.56829833984375
1790266164625273000,13.785273193359375,-5.053641319274902,-8.798408508300781,6.850651264190674
1790266164642526000,13.80252587890625,-5.515456199645996,-8.927620887756348,6.721438884735107
1790266164659778800,13.81977880859375,-5.312066078186035,-8.606983184814453,6.496513366699219
1790266164677032000,13.837031982421875,-5.501099109649658,-7.8317084312438965,6.008377552032471
1790266164694284800,13.854284912109375,-6.539584159851074,-7.121040344238281,5.855237007141113
1790266164711537700,13.87153759765625,-7.113861560821533,-7.015756130218506,5.843272686004639
1790266164728790500,13.88879052734375,-7.066005229949951,-7.135396957397461,5.606383323669434
1790266164746043600,13.906043701171875,-7.465606689453125,-7.087540626525879,5.876772403717041
1790266164763296800,13.923296875,-7.513463020324707,-7.188039302825928,6.4079790115356445
1790266164780550000,13.9405498046875,-7.76470947265625,-7.467999458312988,6.97268533706665
1790266164797803000,13.957802978515625,-7.939385414123535,-7.6737823486328125,7.369893550872803
1790266164815056100,13.97505615234375,-7.061219692230225,-7.659425258636475,6.357729911804199
1790266164832309200,13.992309326171876,-6.955935478210449,-6.853044033050537,5.099104881286621
1790266164849562000,14.00956201171875,-5.72841739654541,-5.091926574707031,4.443471431732178
1790266164866815000,14.02681494140625,-6.238088607788086,-3.1250264644622803,4.364508628845215
1790266164884068000,14.044068115234374,-6.104090690612793,-2.2683959007263184,4.302295207977295
1790266164901321000,14.061321044921876,-5.6925249099731445,-2.170290231704712,4.120440483093262
1790266164918573800,14.07857373046875,-3.900300979614258,-2.706282377243042,4.350151538848877
1790266164935826700,14.09582666015625,-4.694717884063721,-3.0580272674560547,4.443471431732178
1790266164953079800,14.113079833984376,-4.960321426391602,-3.0317063331604004,3.397808074951172
1790266164970332700,14.130332763671875,-3.7399818897247314,-2.203789710998535,2.644068956375122
1790266164987585500,14.14758544921875,-4.323830604553223,-0.1052841991186142,2.053041934967041
1790266165004838400,14.16483837890625,-5.615954875946045,1.4620146751403809,1.0432707071304321
1790266165022091300,14.18209130859375,-4.386044025421143,2.3617160320281982,0.5024927258491516
1790266165039344400,14.199344482421875,-6.776473522186279,1.5960127115249634,0.3158525824546814
1790266165056597500,14.216597412109374,-8.312665939331055,-0.275174617767334,1.454836130142212
1790266165073850600,14.2338505859375,-7.0923261642456055,-1.9214365482330322,3.0317063331604004
1790266165091103700,14.251103759765625,-6.293123722076416,-1.9286150932312012,3.8261234760284424
1790266165108356900,14.26835693359375,-7.915457248687744,-0.7058826684951782,2.6177480220794678
1790266165125610000,14.28560986328125,-6.63769006729126,0.062213387340307236,2.376072883605957
1790266165142862800,14.30286279296875,-4.347758769989014,0.6628118753433228,2.2779672145843506
1790266165160116000,14.320115966796875,-4.833501815795898,0.4713860750198364,1.191625714302063
1790266165177368800,14.337368896484374,-6.075376510620117,-0.11246266216039658,1.9621145725250244
1790266165194621700,14.35462158203125,-5.326423168182373,-0.6556333899497986,3.1417760848999023
1790266165211874600,14.37187451171875,-4.60139799118042,-1.179661512374878,3.6634113788604736
1790266165229127700,14.389127685546875,-4.67078971862793,-1.612762451171875,4.48414945602417
1790266165246380500,14.406380615234376,-5.663811206817627,-2.0793628692626953,5.553741455078125
1790266165263633400,14.42363330078125,-5.802595138549805,-2.9288148880004883,5.484349727630615
1790266165280886300,14.44088623046875,-4.800002098083496,-3.900300979614258,4.522434711456299
1790266165298139100,14.45813916015625,-3.548556089401245,-4.491328239440918,4.493721008300781
1790266165315392300,14.475392333984376,-4.847858905792236,-4.809573650360107,4.60857629776001
1790266165332645000,14.49264501953125,-7.405786037445068,-5.178068161010742,5.063212871551514
1790266165349898200,14.509898193359374,-7.3746795654296875,-5.388636589050293,5.38624382019043
1790266165367151400,14.5271513671875,-5.388636589050293,-5.642275810241699,5.096712112426758
1790266165384404500,14.544404541015625,-5.979663848876953,-6.070590972900391,4.88853645324707
1790266165401657600,14.56165771484375,-7.389036178588867,-6.805187702178955,5.2115678787231445
1790266165418910700,14.57891064453125,-7.76470947265625,-8.602197647094727,6.422336101531982
1790266165436163800,14.596163818359376,-6.867401123046875,-10.8969144821167,6.597012042999268
1790266165453416700,14.613416748046875,-5.98444938659668,-12.416357040405273,6.128018856048584
1790266165470669600,14.630669677734375,-6.206982135772705,-11.7056884765625,6.472585201263428
1790266165487922400,14.64792236328125,-5.800201892852783,-9.616754531860352,5.66620397567749
1790266165505175300,14.66517529296875,-6.197410583496094,-7.70249605178833,5.089533805847168
1790266165522428400,14.682428466796875,-7.025327205657959,-6.417550563812256,5.039284706115723
1790266165539681300,14.699681396484374,-5.867201328277588,-6.305087566375732,5.362315654754639
1790266165556934100,14.71693408203125,-6.118447303771973,-7.8556365966796875,6.91765022277832
1790266165574187000,14.73418701171875,-6.183053493499756,-9.253045082092285,8.176275253295898
1790266165591440000,14.75143994140625,-5.824130535125732,-10.229316711425781,7.750352382659912
1790266165608693000,14.76869287109375,-5.426921844482422,-10.585846900939941,6.159125328063965
1790266165625945900,14.78594580078125,-5.101497650146484,-10.217352867126465,5.86002254486084
1790266165643198700,14.80319873046875,-5.01296329498291,-9.133403778076172,5.015356063842773
1790266165660451800,14.820451904296876,-4.910071849822998,-8.080561637878418,4.59421968460083
1790266165677705000,14.837705078125,-4.706682205200195,-7.637889862060547,4.41475772857666
1790266165694958000,14.8549580078125,-5.017749309539795,-7.5086774826049805,3.311666488647461
1790266165712211200,14.872211181640624,-6.003592014312744,-7.168896675109863,3.297309637069702
1790266165729464300,14.88946435546875,-6.50608491897583,-8.425128936767578,5.1876397132873535
1790266165746717400,14.906717529296875,-5.065605640411377,-9.559326171875,5.307280540466309
1790266165763970300,14.92397021484375,-4.094119548797607,-9.482755661010742,4.323830604553223
1790266165781223200,14.94122314453125,-5.2354960441589355,-8.200202941894531,3.94815731048584
1790266165798476300,14.958476318359375,-6.439085960388184,-7.657032489776611,4.194618225097656
1790266165815729200,14.975729248046875,-7.032505512237549,-8.044670104980469,5.639883041381836
1790266165832982000,14.99298193359375,-5.938985824584961,-8.879764556884766,6.960721015930176
1790266165850235100,15.010235107421876,-5.082355499267578,-9.322437286376953,7.314858913421631
1790266165867488300,15.02748828125,-5.946164131164551,-9.56650447845459,7.752745151519775
1790266165884741400,15.044741455078125,-6.5491557121276855,-9.399007797241211,7.140182971954346
1790266165901994500,15.061994384765624,-5.146961688995361,-9.011369705200195,6.307480335235596
1790266165919247600,15.07924755859375,-4.199403762817383,-8.185846328735352,5.182853698730469
1790266165936500700,15.096500732421875,-4.6540398597717285,-6.967899322509766,4.412364959716797
1790266165953753600,15.113753662109374,-6.094519138336182,-5.759523868560791,4.67078971862793
1790266165971006500,15.13100634765625,-7.247859954833984,-5.450850009918213,5.508277893066406
1790266165988259600,15.148259521484375,-7.482356548309326,-5.558526992797852,6.051448345184326
1790266166005512400,15.165512451171875,-9.379864692687988,-5.812166213989258,6.776473522186279
1790266166022765300,15.182765380859376,-7.668996810913086,-6.757331371307373,6.975078105926514
1790266166040018200,15.20001806640625,-7.8628153800964355,-7.645068168640137,7.106683254241943
1790266166057271000,15.21727099609375,-8.702695846557617,-7.5708909034729,6.668796539306641
1790266166074524200,15.234524169921874,-6.2428741455078125,-6.771687984466553,5.1182475090026855
1790266166091777000,15.251777099609376,-6.642475605010986,-5.209175109863281,4.5583271980285645
1790266166109030000,15.26902978515625,-6.908079147338867,-3.4672000408172607,4.12761926651001
1790266166126282800,15.28628271484375,-5.635097503662109,-1.7587246894836426,4.369294166564941
1790266166143535900,15.303535888671876,-5.010570526123047,-0.7561319470405579,4.280759811401367
1790266166160789000,15.3207890625,-5.414957523345947,-0.6556333899497986,4.034298896789551
1790266166178042000,15.3380419921875,-3.6442689895629883,-1.5481562614440918,4.01037073135376
1790266166195295200,15.355295166015624,-4.596612453460693,-1.7850457429885864,3.507878065109253
1790266166212548400,15.37254833984375,-4.553541660308838,-1.6869399547576904,2.7086751461029053
1790266166229801500,15.389801513671875,-3.4815568923950195,-1.1078768968582153,2.2085752487182617
1790266166247054300,15.407054443359375,-4.706682205200195,-0.02392822690308094,1.667797327041626
1790266166264307500,15.424307373046876,-5.477170944213867,0.8159525394439697,1.5170495510101318
1790266166281560300,15.441560302734375,-6.252445697784424,1.337587833404541,1.3471591472625732
1790266166298813200,15.458813232421875,-7.795815944671631,1.2610175609588623,2.148754835128784
1790266166316066000,15.476066162109374,-6.91765022277832,1.0336993932724,3.218346357345581
1790266166333319000,15.49331884765625,-6.51326322555542,0.11964113265275955,3.1728827953338623
1790266166350572000,15.510572021484375,-7.04207706451416,-1.2131611108779907,3.476771354675293
1790266166367825200,15.5278251953125,-6.537191390991211,-0.849452018737793,3.2590243816375732
1790266166385078300,15.545078369140626,-3.9601213932037354,-0.2967100143432617,3.620340585708618
1790266166402331400,15.562331298828125,-4.491328239440918,-0.08853443711996078,3.160918712615967
1790266166419584500,15.57958447265625,-5.3216376304626465,-0.2512463629245758,2.7182464599609375
1790266166436837600,15.596837646484374,-5.271388053894043,-0.16271193325519562,2.9001009464263916
1790266166454090800,15.6140908203125,-5.869594097137451,-0.5910272002220154,3.5150563716888428
1790266166471343600,15.631343505859375,-5.6207404136657715,-1.4333007335662842,4.01037073135376
1790266166488596500,15.648596435546875,-5.2043890953063965,-2.3258235454559326,3.6466617584228516
1790266166505849300,15.665849365234376,-6.166304111480713,-3.187239646911621,3.680161237716675
1790266166523102200,15.683102294921875,-6.137589931488037,-3.9768712520599365,3.4672000408172607
1790266166540355300,15.700355224609375,-5.300102233886719,-4.534399032592773,3.19441819190979
1790266166557608200,15.717608154296874,-5.946164131164551,-4.72582483291626,2.9048867225646973
1790266166574861000,15.734861083984375,-7.073183536529541,-4.893322467803955,4.1730828285217285
1790266166592114000,15.752114013671875,-6.975078105926514,-5.443671703338623,5.737988471984863
1790266166609366800,15.76936669921875,-7.142575740814209,-6.51326322555542,6.5419769287109375
1790266166626620000,15.786619873046876,-5.994020938873291,-7.70249605178833,6.223731517791748
1790266166643872800,15.803872802734375,-6.467799663543701,-9.521040916442871,7.188039302825928
1790266166661126000,15.8211259765625,-6.405586242675781,-11.37069320678711,8.02074146270752
1790266166678379000,15.83837890625,-5.163711071014404,-12.490533828735352,6.908079147338867
1790266166695632100,15.855632080078125,-4.393222332000732,-11.746366500854492,6.936792850494385
1790266166712885200,15.87288525390625,-5.381458282470703,-9.408578872680664,6.9583282470703125
1790266166730138400,15.890138427734374,-6.273981094360352,-6.908079147338867,6.496513366699219
1790266166747391500,15.9073916015625,-6.977470874786377,-5.395814895629883,6.173482418060303
1790266166764644400,15.924644287109375,-6.400800704956055,-5.077569484710693,6.247660160064697
1790266166781897200,15.941897216796875,-5.9916276931762695,-6.118447303771973,6.26440954208374
1790266166799150000,15.959150146484374,-6.238088607788086,-8.331808090209961,6.230910301208496
1790266166816403000,15.97640283203125,-6.771687984466553,-10.308279991149902,6.144768714904785
1790266166833656000,15.993656005859375,-6.546762943267822,-10.688738822937012,4.919643402099609
1790266166850909000,16.010908935546876,-5.515456199645996,-9.585647583007812,3.431307554244995
1790266166868161800,16.028161865234374,-5.101497650146484,-8.4562349319458,2.801995277404785
1790266166885414700,16.04541455078125,-5.26899528503418,-7.960920810699463,3.1202406883239746
1790266166902667800,16.062667724609376,-5.702096462249756,-8.831908226013184,4.249652862548828
1790266166919920600,16.079920654296874,-6.216553211212158,-10.389636039733887,5.702096462249756
1790266166937173500,16.097173583984375,-6.544369697570801,-11.365907669067383,6.338587284088135
1790266166954426400,16.11442626953125,-6.51326322555542,-11.428120613098145,6.747759819030762
1790266166971679200,16.13167919921875,-4.867001056671143,-10.140782356262207,6.154339790344238
1790266166988932400,16.148932373046875,-4.084548473358154,-8.841479301452637,5.194818019866943
1790266167006185200,16.166185302734377,-4.47697114944458,-7.89631462097168,4.709074974060059
1790266167023438000,16.18343798828125,-4.991427898406982,-6.963113784790039,4.646861553192139
1790266167040691000,16.20069091796875,-4.742574691772461,-5.91505765914917,5.527420520782471
1790266167057944000,16.217944091796873,-4.137190341949463,-5.166104316711426,6.305087566375732
1790266167075197200,16.235197265625,-5.01296329498291,-5.103890895843506,6.03948450088501
1790266167092450300,16.2524501953125,-5.151747226715088,-5.608776092529297,5.6207404136657715
1790266167109703400,16.269703369140625,-4.613361835479736,-6.510870456695557,5.580062389373779
1790266167126956500,16.28695654296875,-5.017749309539795,-7.599604606628418,5.694917678833008
1790266167144209700,16.304209716796876,-5.996413707733154,-8.396414756774902,6.1088762283325195
1790266167161462500,16.321462646484374,-7.0061845779418945,-9.123832702636719,7.477570533752441
1790266167178715600,16.338715576171875,-8.26241683959961,-9.499505996704102,8.128418922424316
1790266167195968500,16.355968505859376,-9.437292098999023,-9.513862609863281,8.499305725097656
1790266167213221400,16.373221435546874,-9.324830055236816,-9.719645500183105,8.437092781066895
1790266167230474200,16.39047412109375,-8.305487632751465,-9.221938133239746,7.456035137176514
1790266167247727000,16.40772705078125,-8.374878883361816,-7.625925540924072,6.429514408111572
1790266167264980200,16.424980224609374,-7.8556365966796875,-6.180660724639893,5.78345251083374
1790266167282233000,16.442233154296876,-7.341179847717285,-5.276174068450928,5.182853698730469
1790266167299486000,16.45948583984375,-5.252245903015137,-4.878965377807617,4.0079779624938965
1790266167316738800,16.47673876953125,-4.575077056884766,-4.2592244148254395,3.321237802505493
1790266167333991700,16.49399169921875,-4.180261135101318,-3.4552359580993652,2.500499725341797
1790266167351244800,16.511244873046873,-3.7423746585845947,-2.7326035499572754,2.0745773315429688
1790266167368498000,16.528497802734375,-3.565305709838867,-2.2157537937164307,1.6534404754638672
1790266167385751000,16.5457509765625,-3.9122650623321533,-1.6630117893218994,1.3878371715545654
1790266167403004200,16.563004150390626,-2.871387243270874,-0.5958128571510315,1.5314065217971802
1790266167420257300,16.58025732421875,-5.453242778778076,1.0815558433532715,2.644068956375122
1790266167437510400,16.597510498046876,-7.661818027496338,1.3926228284835815,4.783252239227295
1790266167454763300,16.61476318359375,-6.38165807723999,0.5000999569892883,5.008177757263184
1790266167472016400,16.632016357421875,-8.190631866455078,-0.02632104977965355,4.335794448852539
1790266167489269200,16.649269287109377,-8.80798053741455,-0.5168496966362,4.9292144775390625
1790266167506522000,16.666522216796874,-6.86261510848999,0.007178467698395252,2.857030153274536
1790266167523775000,16.68377490234375,-7.054041385650635,0.31106695532798767,2.5220351219177246
1790266167541027800,16.70102783203125,-5.237888813018799,0.24406790733337402,2.7349963188171387
1790266167558281000,16.718281005859374,-3.1992039680480957,0.5431707501411438,2.469393014907837
1790266167575533800,16.735533935546876,-3.610769271850586,1.1126625537872314,2.3162522315979004
1790266167592786700,16.75278662109375,-4.60857629776001,1.1940184831619263,2.7589244842529297
1790266167610039600,16.77003955078125,-3.783052682876587,1.0097711086273193,1.5074782371520996
1790266167627292700,16.787292724609376,-3.3547372817993164,0.5838487148284912,1.5960127115249634
1790266167644545500,16.804545654296874,-5.548955917358398,0.2679961323738098,2.4119651317596436
1790266167661798700,16.821798583984375,-7.740781307220459,-0.6867401003837585,3.476771354675293
1790266167679051800,16.8390517578125,-7.386643409729004,-2.0961127281188965,3.9601213932037354
1790266167696305000,16.856304931640626,-6.082555294036865,-3.1250264644622803,4.338187217712402
1790266167713558000,16.87355810546875,-6.522834300994873,-3.9218363761901855,4.924428939819336
1790266167730811100,16.89081103515625,-7.381857872009277,-5.087141036987305,5.26181697845459
1790266167748064300,16.908064208984374,-5.149354457855225,-6.204588890075684,4.132404804229736
1790266167765317000,16.925317138671875,-4.074976921081543,-6.474977970123291,4.639683246612549
1790266167782570000,16.942570068359377,-5.359922885894775,-6.020341873168945,4.957928657531738
1790266167799822800,16.95982275390625,-5.558526992797852,-5.737988471984863,5.292923450469971
1790266167817075700,16.97707568359375,-5.06082010269165,-5.630311489105225,5.869594097137451
1790266167834328800,16.994328857421873,-4.481756687164307,-5.568098068237305,5.711667537689209
1790266167851581700,17.011581787109375,-5.314459323883057,-5.661418437957764,5.422136306762695
1790266167868834600,17.02883447265625,-5.625525951385498,-6.003592014312744,4.694717884063721
1790266167886087400,17.04608740234375,-6.448657035827637,-6.874579429626465,4.12761926651001
1790266167903340500,17.063340576171875,-6.343372821807861,-8.441878318786621,4.237689018249512
1790266167920593400,17.080593505859376,-6.943971157073975,-10.490134239196777,4.41475772857666
1790266167937846300,17.09784619140625,-7.606783390045166,-12.191431045532227,5.288137912750244
1790266167955099100,17.11509912109375,-7.200003147125244,-13.210773468017578,6.7692952156066895
1790266167972352000,17.13235205078125,-6.034698486328125,-13.337593078613281,7.779066562652588
1790266167989605000,17.149605224609374,-5.876772403717041,-12.882957458496094,8.561519622802734
1790266168006858000,17.16685791015625,-6.2500529289245605,-11.270195007324219,8.989834785461426
1790266168024110800,17.18411083984375,-6.324230194091797,-9.164510726928711,8.791230201721191
1790266168041363700,17.20136376953125,-5.747560024261475,-7.599604606628418,8.159524917602539
1790266168058616800,17.218616943359375,-5.0703911781311035,-6.628118515014648,6.838686943054199
1790266168075870000,17.235869873046877,-4.931607246398926,-5.558526992797852,4.716253280639648
1790266168093123000,17.253123046875,-5.003392219543457,-5.257031440734863,3.0556344985961914
1790266168110376200,17.270376220703124,-5.438885688781738,-6.3529438972473145,3.108276605606079
1790266168127629300,17.28762939453125,-6.3122663497924805,-8.3629150390625,3.6059837341308594
1790266168144882400,17.30488232421875,-6.364908218383789,-10.236495018005371,4.084548473358154
1790266168162135300,17.32213525390625,-5.730810165405273,-11.499905586242676,4.00319242477417
1790266168179388200,17.33938818359375,-5.314459323883057,-12.076576232910156,3.6777684688568115
1790266168196641300,17.356641357421875,-5.431707382202148,-11.636296272277832,4.108476638793945
1790266168213894100,17.37389404296875,-4.900500774383545,-10.16710376739502,5.024927616119385
1790266168231147000,17.39114697265625,-4.429114818572998,-8.21695327758789,5.757131099700928
1790266168248400000,17.40839990234375,-4.979464054107666,-6.735795974731445,6.142375946044922
1790266168265652700,17.42565283203125,-5.182853698730469,-6.293123722076416,6.367300987243652
1790266168282905900,17.44290576171875,-5.017749309539795,-6.4701924324035645,6.223731517791748
1790266168300158700,17.46015869140625,-5.376672267913818,-6.867401123046875,6.690331935882568
1790266168317411600,17.47741162109375,-5.438885688781738,-7.357929706573486,7.357929706573486
1790266168334664400,17.49466455078125,-5.259424209594727,-7.513463020324707,7.027719974517822
1790266168351917600,17.51191748046875,-5.883950710296631,-7.221538543701172,6.307480335235596
1790266168369170700,17.529170654296873,-6.573083877563477,-7.056434154510498,5.460421085357666
1790266168386423800,17.546423828125,-7.1856465339660645,-7.207181930541992,5.340780258178711
1790266168403677000,17.563677001953124,-7.2430739402771,-7.369893550872803,5.752345561981201
1790266168420930000,17.580929931640625,-7.496713161468506,-7.159325122833252,6.31944465637207
1790266168438183200,17.59818310546875,-7.843672752380371,-7.008577346801758,6.754938125610352
1790266168455436000,17.61543603515625,-6.838686943054199,-7.128218650817871,6.798008918762207
1790266168472689200,17.632689208984374,-7.125825881958008,-6.805187702178955,6.798008918762207
1790266168489942000,17.64994189453125,-8.051848411560059,-6.362515449523926,6.577869415283203
1790266168507195000,17.66719482421875,-6.565905570983887,-6.321837425231934,5.615954875946045
1790266168524447700,17.68444775390625,-5.903093338012695,-5.374279499053955,4.362115859985352
1790266168541700600,17.70170068359375,-6.144768714904785,-3.675375461578369,3.5222349166870117
1790266168558953700,17.71895361328125,-4.826323509216309,-2.6608188152313232,2.864208698272705
1790266168576206600,17.73620654296875,-3.5772697925567627,-1.8903298377990723,1.8089739084243774
1790266168593459500,17.75345947265625,-5.079962253570557,-0.7752745151519775,0.9954141974449158
1790266168610712300,17.77071240234375,-4.457828521728516,-0.576670229434967,1.1461620330810547
1790266168627965400,17.78796533203125,-5.319244861602783,-0.35892340540885925,1.7563318014144897
1790266168645218300,17.80521826171875,-6.790830612182617,-0.35892340540885925,2.242074728012085
1790266168662471200,17.82247119140625,-5.735595703125,-1.0360921621322632,2.4909284114837646
1790266168679724000,17.83972412109375,-6.350551128387451,-0.4977070987224579,2.3497519493103027
1790266168696977000,17.856976806640624,-6.829115867614746,0.9379864931106567,2.146361827850342
1790266168714230000,17.87422998046875,-6.465406894683838,1.160519003868103,1.7443677186965942
1790266168731483000,17.89148291015625,-5.223531723022461,0.7896314859390259,2.723032236099243
1790266168748736000,17.908736083984376,-4.395615100860596,0.27038896083831787,3.830909013748169
1790266168765989000,17.925989013671874,-5.498706340789795,0.019142581149935722,3.4241292476654053
1790266168783242200,17.9432421875,-5.675775527954102,-0.019142581149935722,3.7663028240203857
1790266168800495400,17.960495361328125,-3.900300979614258,-0.2967100143432617,4.455435752868652
1790266168817748500,17.97774853515625,-2.775674343109131,-0.7585247755050659,3.9936211109161377
1790266168835001600,17.995001708984375,-3.7974095344543457,-1.1629117727279663,2.557927370071411
1790266168852254500,18.01225439453125,-5.546562671661377,-1.3806586265563965,2.7637102603912354
1790266168869507300,18.02950732421875,-5.580062389373779,-1.332802176475525,3.996013879776001
1790266168886760200,18.04676025390625,-5.5034918785095215,-1.3806586265563965,4.393222332000732
1790266168904013000,18.064012939453125,-5.898307800292969,-1.7635103464126587,4.398007869720459
1790266168921266200,18.08126611328125,-5.962913990020752,-2.3784656524658203,4.59421968460083
1790266168938519000,18.09851904296875,-6.094519138336182,-3.187239646911621,4.8574299812316895
1790266168955772000,18.11577197265625,-5.974878311157227,-4.555934429168701,4.500899314880371
1790266168973024800,18.133024658203126,-5.522634506225586,-5.927021503448486,4.2281174659729
1790266168990277600,18.150277587890624,-5.553741455078125,-7.077969551086426,4.426722049713135
1790266169007530800,18.16753076171875,-6.833901405334473,-7.8795647621154785,5.32403039932251
1790266169024783600,18.18478369140625,-6.128018856048584,-8.09252643585205,5.788238048553467
1790266169042036500,18.202036376953124,-5.938985824584961,-8.327022552490234,5.544169902801514
1790266169059289300,18.219289306640626,-5.867201328277588,-8.69791030883789,5.843272686004639
1790266169076542500,18.23654248046875,-6.142375946044922,-9.34157943725586,6.752545356750488
1790266169093795300,18.25379541015625,-6.025127410888672,-10.076175689697266,7.336394309997559
1790266169111048200,18.271048095703126,-6.63769006729126,-10.74138069152832,7.365108013153076
1790266169128301000,18.288301025390624,-7.357929706573486,-10.559526443481445,7.652246952056885
1790266169145554000,18.305553955078125,-6.51326322555542,-9.844072341918945,7.774280548095703
1790266169162807000,18.32280712890625,-6.98704195022583,-8.709874153137207,8.054241180419922
1790266169180060000,18.340059814453124,-7.276573657989502,-8.204988479614258,8.207381248474121
1790266169197312800,18.357312744140625,-6.32662296295166,-8.884550094604492,7.802994728088379
1790266169214565600,18.374565673828126,-4.5583271980285645,-9.882357597351074,7.568498134613037
1790266169231818500,18.391818603515624,-3.9529430866241455,-9.93260669708252,7.080362319946289
1790266169249071600,18.409071533203125,-3.7782669067382812,-8.764909744262695,4.577469825744629
1790266169266324700,18.42632470703125,-3.7328033447265625,-7.982456207275391,3.242274761199951
1790266169283577900,18.443577880859376,-3.8811583518981934,-7.791030406951904,2.8594231605529785
1790266169300831000,18.4608310546875,-4.5583271980285645,-7.8795647621154785,3.1178479194641113
1790266169318084000,18.478083984375,-5.874379634857178,-8.346165657043457,4.216153621673584
1790266169335337200,18.495337158203125,-6.089733600616455,-8.733802795410156,5.024927616119385
1790266169352590300,18.51259033203125,-4.814359188079834,-8.219346046447754,4.101297855377197
1790266169369843200,18.52984326171875,-5.864808082580566,-7.657032489776611,3.6993038654327393
1790266169387096000,18.547095947265625,-7.9968132972717285,-8.039883613586426,4.431507587432861
1790266169404349000,18.564348876953126,-7.03489875793457,-8.817551612854004,6.120840549468994
1790266169421601800,18.581601806640624,-4.567898273468018,-8.62612533569336,6.491727828979492
1790266169438855000,18.59885498046875,-4.862215518951416,-8.439485549926758,6.781259536743164
1790266169456107800,18.616107666015626,-6.317051887512207,-8.439485549926758,7.077969551086426
1790266169473360600,18.633360595703124,-5.759523868560791,-8.188239097595215,7.77188777923584
1790266169490613500,18.650613525390625,-5.955735683441162,-7.719245910644531,8.420342445373535
1790266169507866400,18.667866455078126,-6.113661766052246,-7.657032489776611,8.35573673248291
1790266169525119500,18.685119384765624,-5.958128452301025,-8.01356315612793,7.992027759552002
1790266169542372400,18.702372314453125,-5.907878875732422,-8.001599311828613,7.858029365539551
1790266169559625200,18.719625244140627,-5.690132141113281,-7.678567886352539,7.451249599456787
1790266169576878000,18.736878173828124,-5.26181697845459,-7.109076023101807,6.776473522186279
1790266169594131000,18.754130859375,-5.685346603393555,-6.278766632080078,6.742974281311035
1790266169611384000,18.771384033203127,-5.661418437957764,-5.924628734588623,6.144768714904785
1790266169628637000,18.788636962890624,-5.965306758880615,-5.589633464813232,5.3934221267700195
1790266169645889800,18.805889892578126,-6.429514408111572,-4.9292144775390625,4.991427898406982
1790266169663143000,18.823142822265623,-7.164111137390137,-4.453042984008789,5.056034088134766
1790266169680396000,18.84039599609375,-6.441478729248047,-4.895715236663818,5.084748268127441
1790266169697649200,18.857649169921874,-5.998806476593018,-5.288137912750244,4.505684852600098
1790266169714902300,18.87490234375,-6.183053493499756,-5.044070243835449,3.720839262008667
1790266169732155400,18.8921552734375,-6.087340831756592,-4.4650068283081055,3.06999135017395
1790266169749408500,18.909408447265626,-4.845465660095215,-3.19441819190979,3.022135019302368
1790266169766661400,18.926661376953124,-6.281159400939941,-1.8640087842941284,2.4670002460479736
1790266169783914200,18.943914306640625,-6.814758777618408,-1.2442678213119507,2.179861545562744
1790266169801167400,18.96116748046875,-5.481956481933594,-0.605384111404419,2.383251428604126
1790266169818420200,18.978420166015624,-6.3601226806640625,-0.13639089465141296,2.847458839416504
1790266169835673000,18.995673095703125,-6.628118515014648,-0.7369893789291382,3.5270206928253174
1790266169852926000,19.012926025390627,-3.689732551574707,-0.5527420043945312,2.586641311645508
1790266169870178800,19.0301787109375,-5.041677474975586,0.6699903607368469,1.2251251935958862
1790266169887432000,19.047431884765626,-3.926621913909912,1.1748759746551514,0.3900300860404968
1790266169904684800,19.064684814453123,-4.668396949768066,1.7156537771224976,-0.5264210104942322
1790266169921937700,19.081937744140625,-5.2737812995910645,1.7324036359786987,1.423729419708252
1790266169939190500,19.0991904296875,-4.649254322052002,1.1581261157989502,2.495713949203491
1790266169956788500,19.11678857421875,-5.364708423614502,-0.6484549641609192,3.570091485977173
1790266169974386400,19.134386474609375,-4.60139799118042,-1.2083754539489746,3.809373617172241
1790266169991984400,19.151984375,-4.256831645965576,-1.7132610082626343,4.1347975730896
1790266170009582300,19.169582275390624,-4.682754039764404,-1.9046868085861206,3.0269205570220947
1790266170027180300,19.18718017578125,-5.5034918785095215,-1.6534404754638672,3.1585259437561035
1790266170044778200,19.2047783203125,-5.383851051330566,-0.9906286001205444,3.8333017826080322
1790266170062376200,19.222376220703126,-7.200003147125244,-0.7154539823532104,5.008177757263184
1790266170079974000,19.239973876953126,-6.750152587890625,-1.2346965074539185,5.704489231109619
1790266170097571800,19.25757177734375,-5.233103275299072,-2.4837498664855957,5.7619171142578125
1790266170115169800,19.275169677734375,-5.079962253570557,-4.335794448852539,5.900700569152832
1790266170132767700,19.292767822265624,-6.26440954208374,-6.776473522186279,5.812166213989258
1790266170150223400,19.310223388671876,-5.946164131164551,-9.176474571228027,4.776073932647705
1790266170167536400,19.327536376953127,-5.948556900024414,-10.176674842834473,4.34536600112915
1790266170184849400,19.344849365234374,-6.278766632080078,-9.34157943725586,4.962714195251465
1790266170202162700,19.36216259765625,-6.321837425231934,-7.221538543701172,5.72123908996582
1790266170219475700,19.379475830078125,-6.087340831756592,-5.398207664489746,5.639883041381836
1790266170236789000,19.3967890625,-6.97986364364624,-5.123033046722412,5.960521221160889
1790266170254057000,19.414056884765625,-6.31944465637207,-6.738188743591309,6.436692714691162
1790266170271309800,19.431309814453126,-5.412564754486084,-9.339186668395996,7.1162543296813965
1790266170288562700,19.448562744140624,-4.977071285247803,-11.60279655456543,7.843672752380371
1790266170305815600,19.465815673828125,-5.089533805847168,-12.351750373840332,7.590033531188965
1790266170323068400,19.483068359375,-5.9198431968688965,-10.636096954345703,6.51326322555542
1790266170340321500,19.500321533203124,-7.501499176025391,-9.001798629760742,5.824130535125732
1790266170357574400,19.517574462890625,-6.453442573547363,-9.293723106384277,6.905686378479004
1790266170374827300,19.5348271484375,-4.821537494659424,-10.691131591796875,8.030312538146973
1790266170392080100,19.552080078125,-4.9986066818237305,-10.64088249206543,7.324429988861084
1790266170409333200,19.569333251953125,-6.300302028656006,-8.975478172302246,5.714060306549072
1790266170426586000,19.586586181640627,-6.185446739196777,-7.439285755157471,4.816751956939697
1790266170443839000,19.6038388671875,-5.548955917358398,-6.9344000816345215,4.498506546020508
1790266170461092000,19.621092041015626,-5.718846321105957,-7.334001541137695,3.91705060005188
1790266170478345200,19.63834521484375,-6.5419769287109375,-8.075776100158691,4.390829563140869
1790266170495598300,19.655598388671876,-6.221338748931885,-8.906085968017578,4.515256404876709
1790266170512851500,19.6728515625,-5.2115678787231445,-9.702896118164062,3.696911096572876
1790266170530104600,19.6901044921875,-4.508078098297119,-9.90149974822998,3.1800613403320312
1790266170547357700,19.707357666015625,-4.955535888671875,-9.755537986755371,3.421736478805542
1790266170564610600,19.724610595703126,-6.034698486328125,-9.688538551330566,5.015356063842773
1790266170581863400,19.741863525390624,-5.682953834533691,-9.286544799804688,6.764509677886963
1790266170599116300,19.7591162109375,-6.1950178146362305,-8.6907320022583,7.264609336853027
1790266170616369400,19.776369384765626,-7.719245910644531,-8.240880966186523,8.2695951461792
1790266170633622300,19.793622314453124,-6.697510719299316,-7.934599876403809,9.559326171875
1790266170650875100,19.810875244140625,-5.410171985626221,-7.377072334289551,8.578269004821777
1790266170668128000,19.8281279296875,-4.902893543243408,-6.742974281311035,7.085147857666016
1790266170685380900,19.845380859375,-4.615755081176758,-6.340980052947998,6.221338748931885
1790266170702634000,19.862634033203125,-5.271388053894043,-6.25723123550415,5.814558982849121
1790266170719886800,19.879886962890627,-5.709274768829346,-6.565905570983887,5.769095420837402
1790266170737139700,19.8971396484375,-6.120840549468994,-6.477370738983154,5.513063430786133
1790266170754392600,19.914392578125,-6.869793891906738,-5.79780912399292,6.3840508460998535
1790266170771645700,19.931645751953123,-6.372086524963379,-5.0225348472595215,7.642675399780273
1790266170788898600,19.948898681640625,-7.121040344238281,-4.462614059448242,8.018348693847656
1790266170806151400,19.9661513671875,-7.685746192932129,-4.898108005523682,7.968099594116211
1790266170823404300,19.983404296875,-5.623133182525635,-6.228517532348633,6.652047157287598
1790266170840657200,20.0006572265625,-6.4510498046875,-6.695117950439453,5.886343479156494
1790266170857910300,20.01791015625,-7.178467750549316,-6.774080753326416,4.618147850036621
1790266170875163100,20.0351630859375,-5.132604598999023,-6.290730953216553,3.1417760848999023
1790266170892416000,20.052416015625,-2.9312076568603516,-4.132404804229736,1.698904037475586
1790266170909668900,20.0696689453125,-5.66620397567749,-1.1126625537872314,0.4019941985607147
1790266170926921700,20.086921630859376,-6.687939167022705,1.0839486122131348,-0.46899324655532837
1790266170944174800,20.1041748046875,-4.364508628845215,1.8759729862213135,0.2153540402650833
1790266170961427700,20.121427734375,-4.541577339172363,0.8111668825149536,1.797009825706482
1790266170978680600,20.1386806640625,-5.434100151062012,-0.9690931439399719,2.8043880462646484
1790266170995933400,20.155933349609374,-5.424529075622559,-2.2396819591522217,2.0721843242645264
1790266171013186300,20.173186279296875,-4.618147850036621,-1.7635103464126587,1.404586911201477
1790266171030439400,20.190439453125,-3.775874137878418,0.8063812255859375,0.6843472719192505
1790266171047692300,20.2076923828125,-5.190032482147217,3.4121651649475098,0.2512463629245758
1790266171064945400,20.2249453125,-5.2043890953063965,4.53200626373291,2.754138946533203
1790266171082198500,20.242198486328125,-4.596612453460693,3.0484559535980225,3.1130621433258057
1790266171099451600,20.25945166015625,-3.9792640209198,0.48574298620224,4.180261135101318
1790266171116704800,20.276704833984375,-6.412764549255371,-1.5290136337280273,5.527420520782471
1790266171133958000,20.2939580078125,-4.95074987411499,-2.266003131866455,5.335994720458984
1790266171151211000,20.3112109375,-3.7663028240203857,-2.3018953800201416,4.555934429168701
1790266171168464000,20.3284638671875,-3.91705060005188,-2.1128623485565186,3.7782669067382812
1790266171185716700,20.345716796875,-4.9986066818237305,-1.9070796966552734,4.034298896789551
1790266171202969600,20.362969482421875,-6.276373863220215,-1.5960127115249634,4.721039295196533
1790266171220222700,20.38022265625,-5.800201892852783,-1.4979069232940674,5.536991596221924
1790266171237475600,20.3974755859375,-5.946164131164551,-2.0315065383911133,4.922036170959473
1790266171254728400,20.414728515625,-6.534798622131348,-3.0652058124542236,5.089533805847168
1790266171271981300,20.431981201171876,-5.704489231109619,-4.563112735748291,5.335994720458984
1790266171289234200,20.449234130859374,-5.838487148284912,-7.293323516845703,5.927021503448486
1790266171306487300,20.4664873046875,-6.589833736419678,-9.497113227844238,5.443671703338623
1790266171323740200,20.483740234375,-5.814558982849121,-10.25324535369873,4.919643402099609
1790266171340993000,20.500992919921874,-6.235695838928223,-11.157732009887695,5.580062389373779
1790266171358246000,20.518245849609375,-7.652246952056885,-11.499905586242676,7.424928665161133
1790266171375498800,20.535498779296876,-6.7070817947387695,-10.918449401855469,7.716853141784668
1790266171392751900,20.552751953125,-7.010970115661621,-10.210174560546875,7.204789161682129
1790266171410004700,20.570004638671875,-6.204588890075684,-9.738788604736328,7.10429048538208
1790266171427257600,20.587257568359377,-5.163711071014404,-9.040083885192871,6.853044033050537
1790266171444510500,20.604510498046874,-4.335794448852539,-7.860422611236572,6.9344000816345215
1790266171461763300,20.621763427734376,-4.551148891448975,-6.4319071769714355,6.369693756103516
1790266171479016400,20.639016357421873,-5.831308841705322,-5.2354960441589355,5.594419479370117
1790266171496269300,20.656269287109374,-6.013163089752197,-4.488935470581055,5.663811206817627
1790266171513522200,20.673522216796876,-5.01296329498291,-6.051448345184326,6.675975322723389
1790266171530775000,20.690775146484373,-4.579862594604492,-8.506484031677246,7.039684295654297
1790266171548028000,20.70802783203125,-4.783252239227295,-9.640682220458984,6.608976364135742
1790266171565281000,20.725281005859376,-5.245067119598389,-10.418350219726562,6.1399827003479
1790266171582534000,20.742533935546874,-5.288137912750244,-11.32522964477539,5.881557941436768
1790266171599786800,20.759786865234375,-5.493920803070068,-11.715259552001953,6.1710896492004395
1790266171617039600,20.77703955078125,-5.170889854431152,-10.882556915283203,6.034698486328125
1790266171634292500,20.79429248046875,-5.979663848876953,-9.29611587524414,6.379265308380127
1790266171651545600,20.811545654296875,-7.010970115661621,-8.13798999786377,6.001199245452881
1790266171668798700,20.828798828125,-6.577869415283203,-8.539983749389648,5.443671703338623
1790266171686051800,20.8460517578125,-3.5341989994049072,-8.571090698242188,4.718646049499512
1790266171703305000,20.863304931640624,-3.029313564300537,-8.202595710754395,4.615755081176758
1790266171720558000,20.88055810546875,-4.66361141204834,-7.989634990692139,4.2831525802612305
1790266171737811200,20.897811279296874,-6.068198204040527,-7.465606689453125,5.687739372253418
1790266171755064300,20.915064208984376,-6.7310099601745605,-7.066005229949951,7.240681171417236
1790266171772317200,20.932317138671873,-6.857829570770264,-7.76470947265625,8.250452041625977
1790266171789570000,20.949570068359375,-5.419743061065674,-9.34157943725586,7.262216567993164
1790266171806823000,20.966822998046876,-4.938786029815674,-9.614361763000488,5.9509501457214355
1790266171824075800,20.98407568359375,-6.403193473815918,-8.506484031677246,6.4319071769714355
1790266171841329000,21.001328857421875,-6.429514408111572,-7.6043901443481445,7.611568927764893
1790266171858581800,21.018581787109376,-6.628118515014648,-7.3292155265808105,8.312665939331055
1790266171875834600,21.035834716796874,-6.795616149902344,-6.97986364364624,7.860422611236572
1790266171893087500,21.05308740234375,-5.467599868774414,-6.345765590667725,6.6592254638671875
1790266171910340400,21.07034033203125,-6.008377552032471,-5.747560024261475,6.898507595062256
1790266171927593500,21.087593505859374,-7.051648139953613,-5.72123908996582,7.396214962005615
1790266171944846300,21.104846435546875,-5.718846321105957,-5.618347644805908,6.453442573547363
1790266171962099200,21.12209912109375,-5.065605640411377,-4.347758769989014,5.024927616119385
1790266171979352000,21.13935205078125,-6.302694797515869,-2.7278177738189697,4.804787635803223
1790266171996605000,21.15660498046875,-6.544369697570801,-2.423929452896118,5.1182475090026855
1790266172013858000,21.173858154296877,-5.5968122482299805,-3.328416347503662,4.730610370635986
1790266172031111000,21.19111083984375,-4.292723655700684,-3.460021495819092,4.400400638580322
1790266172048363800,21.20836376953125,-4.778466701507568,-2.163111686706543,3.8045880794525146
1790266172065616600,21.22561669921875,-3.8045880794525146,-0.7848458290100098,2.179861545562744
1790266172082869800,21.242869873046875,-3.438486099243164,0.25363919138908386,0.9068797826766968
1790266172100122600,21.26012255859375,-4.591826438903809,1.2299108505249023,0.8781659007072449
1790266172117375500,21.27737548828125,-5.340780258178711,2.115255117416382,1.3854442834854126
1790266172134628400,21.29462841796875,-4.161118507385254,1.8161523342132568,2.837887763977051
1790266172151881200,21.311881103515624,-4.213760852813721,0.6939185857772827,2.8354947566986084
1790266172169134300,21.32913427734375,-3.2470602989196777,0.5982056856155396,2.0482561588287354
1790266172186387200,21.34638720703125,-2.8833513259887695,1.25144624710083,1.0552347898483276
1790266172203640000,21.36364013671875,-4.776073932647705,1.2801600694656372,1.521835207939148
1790266172220893000,21.380892822265626,-7.752745151519775,0.5000999569892883,2.0985054969787598
1790266172238145800,21.398145751953123,-6.025127410888672,-0.2799602448940277,3.7328033447265625
1790266172255399000,21.41539892578125,-5.44845724105835,-0.7322037220001221,5.120640277862549
1790266172272651800,21.43265185546875,-6.594619274139404,-1.435693621635437,5.663811206817627
1790266172289904600,21.449904541015623,-5.656632900238037,-2.775674343109131,4.902893543243408
1790266172307157500,21.467157470703125,-3.8285162448883057,-3.8117663860321045,3.799802303314209
1790266172324410400,21.484410400390626,-4.015156269073486,-4.175475597381592,3.1657042503356934
1790266172341663500,21.50166357421875,-6.833901405334473,-4.232903480529785,4.213760852813721
1790266172358916400,21.518916259765625,-7.372286796569824,-3.926621913909912,5.015356063842773
1790266172376169200,21.536169189453126,-5.19960355758667,-3.4265220165252686,4.553541660308838
1790266172393422000,21.553422119140624,-4.972285270690918,-3.239881753921509,4.335794448852539
1790266172410675000,21.570675048828125,-5.405386447906494,-4.084548473358154,4.673182487487793
1790266172427928000,21.587927978515626,-5.266602516174316,-5.639883041381836,4.701896667480469
1790266172445181000,21.605180908203124,-4.287938117980957,-6.984649181365967,4.287938117980957
1790266172462433800,21.622433837890625,-5.675775527954102,-8.097311973571777,3.895515203475952
1790266172479686700,21.639686767578127,-7.64028263092041,-8.346165657043457,4.689932346343994
1790266172496939500,21.656939453125,-6.967899322509766,-8.147561073303223,5.623133182525635
1790266172514192600,21.674192626953126,-5.419743061065674,-8.82951545715332,5.962913990020752
1790266172531445500,21.691445556640623,-5.388636589050293,-10.942378044128418,7.716853141784668
1790266172548698400,21.708698486328124,-5.7858452796936035,-13.861621856689453,9.401400566101074
1790266172565951500,21.725951416015626,-5.850451469421387,-14.419149398803711,9.906285285949707
1790266172583204900,21.743204833984375,-6.570691108703613,-12.390035629272461,8.803194046020508
1790266172600458000,21.7604580078125,-6.532405853271484,-9.91825008392334,7.623532772064209
1790266172617711000,21.777711181640626,-5.769095420837402,-8.288737297058105,6.999006271362305
1790266172634964200,21.794964111328124,-5.115854740142822,-7.137789726257324,5.864808082580566
1790266172652217000,21.812217041015625,-5.398207664489746,-6.585047721862793,4.398007869720459
1790266172669470000,21.829469970703126,-5.979663848876953,-7.178467750549316,3.2997024059295654
1790266172686722800,21.846722900390624,-5.560919761657715,-8.25523853302002,4.386044025421143
1790266172703976000,21.863975830078125,-4.907679080963135,-8.46580696105957,5.01296329498291
1790266172721228800,21.881228759765627,-4.878965377807617,-7.984848976135254,4.4721856117248535
1790266172738481700,21.898481689453124,-5.556134223937988,-7.791030406951904,4.577469825744629
1790266172755734500,21.915734619140625,-5.79063081741333,-7.963313579559326,5.158925533294678
1790266172772987400,21.9329873046875,-4.945964336395264,-8.293522834777832,5.216353416442871
1790266172790240500,21.950240478515624,-3.7088751792907715,-8.583054542541504,4.022335052490234
1790266172807493400,21.967493408203126,-3.7256247997283936,-8.133204460144043,3.7567315101623535
1790266172824746200,21.984746337890623,-7.822137355804443,-7.262216567993164,4.579862594604492
1790266172841999000,22.0019990234375,-11.794222831726074,-10.265209197998047,8.669196128845215
1790266172859252000,22.019251953125,-5.326423168182373,-13.765908241271973,10.205389022827148
1790266172876505000,22.036505126953124,-4.721039295196533,-14.979069709777832,9.710074424743652
