time,seconds_elapsed,z,y,x
1789038126578076700,0.07207666015625,0,0,0
1789038126588076500,0.08207666015625,0.16452407836914062,-0.024689912796020508,0.0247308611869812
1789038126598076700,0.09207666015625,0.30092811584472656,-0.07691097259521484,-0.06954854726791382
1789038126608076500,0.10207666015625,0.20290851593017578,-0.20087790489196777,-0.2582787275314331
1789038126618076700,0.11207666015625,-0.038665771484375,-0.3640329837799072,-0.5131964683532715
1789038126628076500,0.12207666015625,-0.24190425872802734,-0.3783698081970215,-0.697009801864624
1789038126638076700,0.13207666015625,-0.7699251174926758,-0.22913670539855957,-0.5153177976608276
1789038126648076500,0.14207666015625,-1.2693204879760742,0.024400949478149414,-0.08652234077453613
1789038126658076700,0.15207666015625,-1.2711057662963867,0.3602283000946045,0.3414355516433716
1789038126668076500,0.16207666015625,-1.0776996612548828,0.10851240158081055,0.5731779336929321
1789038126678076700,0.17207666015625,-0.6879720687866211,-0.48659443855285645,0.5129531621932983
1789038126688076500,0.18207666015625,0.07689285278320312,-1.3520950078964233,1.0447884798049927
1789038126698076700,0.19207666015625,-0.06966686248779297,-1.6140031814575195,1.833655834197998
1789038126708076500,0.20207666015625,0.01100921630859375,-1.536332607269287,1.7424131631851196
1789038126718076700,0.21207666015625,0.22748661041259766,-0.9950978755950928,1.2520670890808105
1789038126728076500,0.22207666015625,0.20868682861328125,-0.4804666042327881,0.7746584415435791
1789038126738076700,0.23207666015625,0.40988922119140625,0.11974728107452393,-0.3798947334289551
1789038126748076500,0.24207666015625,0.04651927947998047,0.40373384952545166,-0.739185094833374
1789038126758076700,0.25207666015625,-0.0743246078491211,0.641645073890686,-0.9914377927780151
1789038126768076500,0.26207666015625,-0.3795185089111328,0.6446325778961182,-0.8920896053314209
1789038126778076700,0.27207666015625,-0.9864931106567383,0.517267107963562,-0.8433923125267029
1789038126788076500,0.28207666015625,-0.4896564483642578,1.0548090934753418,-1.9394465684890747
1789038126798076700,0.29207666015625,1.6393013000488281,2.378443717956543,-5.577051162719727
1789038126808076500,0.30207666015625,0.8150386810302734,2.8244593143463135,-7.339069366455078
1789038126818076700,0.31207666015625,-1.903900146484375,1.7301256656646729,-4.879480361938477
1789038126828076500,0.32207666015625,-1.5102977752685547,-0.0867464542388916,-2.127431869506836
1789038126838076700,0.33207666015625,-0.9097995758056641,-0.8288984298706055,-0.32323241233825684
1789038126848076500,0.34207666015625,-2.475330352783203,-2.0687179565429688,1.048507809638977
1789038126858076700,0.35207666015625,-2.126152515411377,-1.5932992696762085,0.531222939491272
1789038126868076500,0.36207666015625,-2.2485036849975586,-0.5044105052947998,0.4092899560928345
1789038126878076700,0.37207666015625,-1.888979434967041,0.32140684127807617,0.29357051849365234
1789038126888076500,0.38207666015625,-1.3758821487426758,0.8564250469207764,0.49870985746383667
1789038126898076700,0.39207666015625,-0.4898080825805664,1.0328245162963867,0.9695590138435364
1789038126908076500,0.40207666015625,1.1552448272705078,1.0915210247039795,1.0630980730056763
1789038126918076700,0.41207666015625,2.476191520690918,1.0360794067382812,1.1138279438018799
1789038126928076500,0.42207666015625,2.8711681365966797,0.8993010520935059,0.6389495134353638
1789038126938076700,0.43207666015625,2.3750123977661133,0.5888757705688477,0.244145929813385
1789038126948076500,0.44207666015625,1.116342544555664,-0.11510324478149414,0.5921621322631836
1789038126958076700,0.45207666015625,0.2175464630126953,-0.3786590099334717,0.8471832275390625
1789038126968076500,0.46207666015625,-0.4085540771484375,-0.1742544174194336,0.853783130645752
1789038126978076700,0.47207666015625,-0.07000350952148438,0.14580559730529785,0.813096821308136
1789038126988076500,0.48207666015625,-0.6362075805664062,-0.0068280696868896484,0.8186723589897156
1789038126998076700,0.49207666015625,-0.6723060607910156,0.46532440185546875,0.12135893851518631
1789038127008076500,0.50207666015625,-0.5575122833251953,1.03421950340271,-0.6735326051712036
1789038127018076700,0.51207666015625,-0.4744148254394531,0.8927154541015625,-1.2515414953231812
1789038127028076500,0.52207666015625,0.2084035873413086,0.402618408203125,-1.536475658416748
1789038127038076700,0.53207666015625,1.274749755859375,0.1470947265625,-1.4195530414581299
1789038127048076500,0.54207666015625,1.9473590850830078,-0.12461352348327637,-0.5043107867240906
1789038127058076700,0.55207666015625,1.7279224395751953,-0.2523305416107178,0.4575713872909546
1789038127068076500,0.56207666015625,1.0238800048828125,-0.17891860008239746,1.1394131183624268
1789038127078076700,0.57207666015625,0.545842170715332,-0.019350528717041016,1.4469166994094849
1789038127088076500,0.58207666015625,0.03651905059814453,0.20615172386169434,0.700700044631958
1789038127098076700,0.59207666015625,-0.10580158233642578,0.1404407024383545,-0.013854384422302246
1789038127108076500,0.60207666015625,-0.06277942657470703,0.3715324401855469,-0.7949647903442383
1789038127118076700,0.61207666015625,0.4487638473510742,0.434741735458374,-1.037669062614441
1789038127128076500,0.62207666015625,0.6194076538085938,-0.02055048942565918,-0.5769175887107849
1789038127138076700,0.63207666015625,0.6130142211914062,-0.36125361919403076,-0.01825857162475586
1789038127148076500,0.64207666015625,0.6599044799804688,-0.1871504783630371,0.3738054037094116
1789038127158076700,0.65207666015625,0.4464845657348633,0.09713244438171387,0.41187024116516113
1789038127168076500,0.66207666015625,0.515101432800293,0.24444222450256348,0.5396913290023804
1789038127178076700,0.67207666015625,0.7041130065917969,0.3246772289276123,0.9238427877426147
1789038127188076500,0.68207666015625,0.7240724563598633,0.3841671943664551,1.1217875480651855
1789038127198076700,0.69207666015625,0.4854469299316406,0.6420633792877197,1.30778169631958
1789038127208076500,0.70207666015625,-0.028018951416015625,0.5087912082672119,1.158347725868225
1789038127218076700,0.71207666015625,-0.21427440643310547,0.14263916015625,0.48790132999420166
1789038127228076500,0.72207666015625,-0.005940437316894531,-0.030766963958740234,-0.3635982275009155
1789038127238076700,0.73207666015625,0.4434394836425781,0.01930832862854004,-0.7106657028198242
1789038127248076500,0.74207666015625,0.6800403594970703,0.044671058654785156,-0.5162261128425598
1789038127258076700,0.75207666015625,0.6401386260986328,0.07608270645141602,-0.017446458339691162
1789038127268076500,0.76207666015625,0.6393108367919922,0.2273261547088623,0.5608980655670166
1789038127278076700,0.77207666015625,0.7194709777832031,0.2959725856781006,0.7014221549034119
1789038127288076500,0.78207666015625,0.9116897583007812,0.1646738052368164,0.4662591218948364
1789038127298076700,0.79207666015625,0.9775934219360352,0.010263681411743164,0.04956698417663574
1789038127308076500,0.80207666015625,0.7997989654541016,0.019042015075683594,-0.12402325868606567
1789038127318076700,0.81207666015625,0.5103721618652344,0.1480700969696045,-0.10623276233673096
1789038127328076500,0.82207666015625,0.07631587982177734,0.2029857635498047,0.11216810345649719
1789038127338076700,0.83207666015625,-0.48839664459228516,0.20988225936889648,0.2371203601360321
1789038127348076500,0.84207666015625,-0.7105798721313477,0.22925806045532227,0.056357741355895996
1789038127358076700,0.85207666015625,-0.4168872833251953,0.1709287166595459,-0.2067491114139557
1789038127368076500,0.86207666015625,-0.09308338165283203,0.1265239715576172,-0.3593083620071411
1789038127378076700,0.87207666015625,0.03374004364013672,-0.13355159759521484,-0.23648136854171753
1789038127388076500,0.88207666015625,-0.012856483459472656,-0.13713812828063965,0.3341871500015259
1789038127398076700,0.89207666015625,-0.3164854049682617,0.06765294075012207,0.6793633699417114
1789038127408076500,0.90207666015625,-0.4990062713623047,0.18338608741760254,0.6391648054122925
1789038127418076700,0.91207666015625,-0.515284538269043,0.18520689010620117,0.45840656757354736
1789038127428076500,0.92207666015625,-0.47263240814208984,0.13933920860290527,0.3297014832496643
1789038127438076700,0.93207666015625,-0.6265287399291992,0.08502030372619629,0.07936146855354309
1789038127448076500,0.94207666015625,-0.8235816955566406,0.02672576904296875,-0.06280851364135742
1789038127458076700,0.95207666015625,-1.062331199645996,0.005965471267700195,-0.19027835130691528
1789038127468076500,0.96207666015625,-1.1829051971435547,-0.04504728317260742,-0.44531503319740295
1789038127478076700,0.97207666015625,-1.0453968048095703,-0.23928475379943848,-0.5700576305389404
1789038127488076500,0.98207666015625,-0.4921102523803711,-0.5159807205200195,-0.4000139534473419
1789038127498076700,0.99207666015625,-0.017769813537597656,-0.5029852390289307,0.022704660892486572
1789038127508076500,1.00207666015625,0.1804819107055664,-0.27300214767456055,0.5024209022521973
1789038127518076700,1.01207666015625,0.1253948211669922,-0.09176087379455566,0.851971447467804
1789038127528076500,1.02207666015625,0.15409469604492188,0.018004894256591797,0.546956479549408
1789038127538076700,1.03207666015625,0.23459815979003906,-0.018802165985107422,-0.06867736577987671
1789038127548076500,1.04207666015625,0.49009227752685547,-0.3267323970794678,-0.5017200112342834
1789038127558076700,1.05207666015625,0.7455739974975586,-0.5702214241027832,-0.9374791383743286
1789038127568076500,1.06207666015625,0.5296869277954102,-0.6967670917510986,-1.5572656393051147
1789038127578076700,1.07207666015625,0.6454582214355469,-0.9758532047271729,-1.4134808778762817
1789038127588076500,1.08207666015625,0.1683950424194336,-1.065725564956665,-1.2256743907928467
1789038127598076700,1.09207666015625,-0.7842569351196289,-0.5028214454650879,-0.7909518480300903
1789038127608076500,1.10207666015625,-1.8339743614196777,-0.022142410278320312,-0.49443793296813965
1789038127618076700,1.11207666015625,-2.024521827697754,-0.21477818489074707,-0.08929038047790527
1789038127628076500,1.12207666015625,-1.2987608909606934,-0.3854827880859375,-0.32486283779144287
1789038127638076700,1.13207666015625,-0.6844348907470703,-0.4913818836212158,-0.6667450070381165
1789038127648076500,1.14207666015625,-0.5189304351806641,-0.5605027675628662,-0.734551727771759
1789038127658076700,1.15207666015625,-0.8614568710327148,-0.461702823638916,-0.8153871297836304
1789038127668076500,1.16207666015625,-1.4519405364990234,-0.6050539016723633,-1.1167036294937134
1789038127678076700,1.17207666015625,-1.715466022491455,-1.010601282119751,-1.7161051034927368
1789038127688076500,1.18207666015625,-1.9767045974731445,-1.1802394390106201,-1.946904182434082
1789038127698076700,1.19207666015625,-2.556994915008545,-1.0992953777313232,-1.8013616800308228
1789038127708076500,1.20207666015625,-2.944246292114258,-0.9321482181549072,-1.7407028675079346
1789038127718076700,1.21207666015625,-2.8211746215820312,0.0010106563568115234,-3.2033374309539795
1789038127728076500,1.22207666015625,-2.3364901542663574,-1.8191642761230469,-2.6846492290496826
1789038127738076700,1.23207666015625,-2.3120760917663574,-4.831219673156738,-1.9559261798858643
1789038127748076500,1.24207666015625,-2.7440409660339355,-5.50869083404541,-2.1433255672454834
1789038127758076700,1.25207666015625,-2.68411922454834,-5.209970474243164,-3.3024611473083496
1789038127768076500,1.26207666015625,-2.352445602416992,-4.25147819519043,-4.5369873046875
1789038127778076700,1.27207666015625,-1.6074953079223633,-3.5896201133728027,-6.1231584548950195
1789038127788076500,1.28207666015625,0.1657876968383789,-3.9931607246398926,-7.288623809814453
1789038127798076700,1.29207666015625,-0.11743831634521484,-4.962221145629883,-7.924579620361328
1789038127808076500,1.30207666015625,-1.435403823852539,-5.987697601318359,-8.63758659362793
1789038127818076700,1.31207666015625,-2.494962692260742,-6.844892978668213,-9.028129577636719
1789038127828076500,1.32207666015625,-3.152606964111328,-7.221701622009277,-8.282005310058594
1789038127838076700,1.33207666015625,-3.584257125854492,-7.085029602050781,-7.302178382873535
1789038127848076500,1.34207666015625,-4.74925422668457,-6.695630073547363,-6.984881401062012
1789038127858076700,1.35207666015625,-6.91580867767334,-5.823842525482178,-5.558973789215088
1789038127868076500,1.36207666015625,-7.065731048583984,-4.6696624755859375,-2.9815216064453125
1789038127878076700,1.37207666015625,-6.511993885040283,-4.114227294921875,-0.5900211334228516
1789038127888076500,1.38207666015625,-6.289833068847656,-4.780706405639648,-0.18544864654541016
1789038127898076700,1.39207666015625,-7.322420120239258,-6.589602470397949,-0.21982908248901367
1789038127908076500,1.40207666015625,-8.041552543640137,-8.013189315795898,2.7313690185546875
1789038127918076700,1.41207666015625,-7.954018592834473,-7.764801979064941,7.544187068939209
1789038127928076500,1.42207666015625,-7.010265350341797,-6.682514190673828,12.418718338012695
1789038127938076700,1.43207666015625,-5.942239284515381,-5.409300327301025,14.202934265136719
1789038127948076500,1.44207666015625,-5.443324565887451,-3.5126984119415283,12.30870246887207
1789038127958076700,1.45207666015625,-5.243152618408203,-1.5122442245483398,9.452138900756836
1789038127968076500,1.46207666015625,-5.089390754699707,-1.066011905670166,8.503376007080078
1789038127978076700,1.47207666015625,-4.206634044647217,-1.4994583129882812,9.143264770507812
1789038127988076500,1.48207666015625,-3.2555088996887207,-1.80275297164917,8.961861610412598
1789038127998076700,1.49207666015625,-2.8009567260742188,-2.4871954917907715,7.700943470001221
1789038128008076500,1.50207666015625,-2.0874319076538086,-2.502249240875244,6.244705677032471
1789038128018076700,1.51207666015625,-0.9481117725372314,-1.6858820915222168,5.231472492218018
1789038128028076500,1.52207666015625,0.2519245147705078,-0.5912075042724609,5.705922603607178
1789038128038076700,1.53207666015625,0.41663312911987305,-0.596285343170166,7.374800205230713
1789038128048076500,1.54207666015625,-0.4505600929260254,-0.5560283660888672,8.992130279541016
1789038128058076700,1.55207666015625,1.7106988430023193,-0.21243906021118164,9.044351577758789
1789038128068076500,1.56207666015625,3.008392810821533,-1.0875072479248047,9.17613410949707
1789038128078076700,1.57207666015625,1.2913155555725098,-1.7735538482666016,7.625613212585449
1789038128088076500,1.58207666015625,1.9938476085662842,-2.161518096923828,5.457226276397705
1789038128098076700,1.59207666015625,2.9534671306610107,-1.8497047424316406,4.985897064208984
1789038128108076500,1.60207666015625,2.9576141834259033,-1.990288257598877,4.39911413192749
1789038128118076700,1.61207666015625,2.6877825260162354,-2.044983386993408,3.747757911682129
1789038128128076500,1.62207666015625,3.407705545425415,-2.0576839447021484,3.818876266479492
1789038128138076700,1.63207666015625,5.437849998474121,-2.54526948928833,3.6732444763183594
1789038128148076500,1.64207666015625,6.71872615814209,-2.8631577491760254,4.142519474029541
1789038128158076700,1.65207666015625,6.449987411499023,-2.497622489929199,4.2693281173706055
1789038128168076500,1.66207666015625,4.254283905029297,-1.7007036209106445,2.43392276763916
1789038128178076700,1.67207666015625,1.7161720991134644,-0.9249024391174316,0.1586756706237793
1789038128188076500,1.68207666015625,-0.09151697158813477,-0.3981513977050781,-1.5616345405578613
1789038128198076700,1.69207666015625,-0.8029619455337524,-0.19666242599487305,-1.8943524360656738
1789038128208076500,1.70207666015625,0.4173184633255005,-1.0632424354553223,-2.2207157611846924
1789038128218076700,1.71207666015625,0.15961134433746338,-0.5048646926879883,-2.200990676879883
1789038128228076500,1.72207666015625,-0.9801543951034546,0.8578171730041504,-1.395606517791748
1789038128238076700,1.73207666015625,-1.4983329772949219,0.5645971298217773,-0.09555387496948242
1789038128248076500,1.74207666015625,-1.2598047256469727,0.6030426025390625,-4.087568759918213
1789038128258076700,1.75207666015625,-2.2742037773132324,0.9542045593261719,-3.3529324531555176
1789038128268076500,1.76207666015625,-3.1488261222839355,-0.005138397216796875,-1.9020776748657227
1789038128278076700,1.77207666015625,-2.236339807510376,-0.35047054290771484,-0.49968957901000977
1789038128298076700,1.79207666015625,0.011462569236755371,-0.1799612045288086,-0.3011198043823242
1789038128308076500,1.80207666015625,-0.1579398512840271,0.25296592712402344,-0.017377853393554688
1789038128318076700,1.81207666015625,-0.14640407264232635,0.43012332916259766,0.28424882888793945
1789038128328076500,1.82207666015625,0.1505960077047348,-0.06898784637451172,1.760972023010254
1789038128338076700,1.83207666015625,1.2473918199539185,-0.5816555023193359,2.9864327907562256
1789038128348076500,1.84207666015625,1.9892174005508423,-0.8452138900756836,4.087944030761719
1789038128358076700,1.85207666015625,2.987790584564209,-0.5835189819335938,4.296281814575195
1789038128368076500,1.86207666015625,2.940441370010376,-0.5517301559448242,4.147224426269531
1789038128378076700,1.87207666015625,2.6312365531921387,-0.46491050720214844,3.573235511779785
1789038128388076500,1.88207666015625,1.8300058841705322,-0.13916301727294922,2.6087756156921387
1789038128398076700,1.89207666015625,0.7473260164260864,0.07251548767089844,1.2775804996490479
1789038128408076500,1.90207666015625,0.3111763596534729,-0.2569131851196289,0.8630547523498535
1789038128418076700,1.91207666015625,1.2142163515090942,-0.42281246185302734,1.0676600933074951
1789038128428076500,1.92207666015625,2.007695198059082,0.09885311126708984,1.2167479991912842
1789038128438076700,1.93207666015625,2.021825075149536,0.7200851440429688,0.3179144859313965
1789038128448076500,1.94207666015625,0.7105286717414856,1.047760009765625,-0.39434075355529785
1789038128458076700,1.95207666015625,-0.15094950795173645,-0.0037097930908203125,-0.6563315391540527
1789038128468076500,1.96207666015625,0.586294412612915,-0.6734046936035156,-0.15782451629638672
1789038128478076700,1.97207666015625,1.8897154331207275,-0.2608919143676758,1.4266092777252197
1789038128488076500,1.98207666015625,1.7822763919830322,0.09636497497558594,1.102247953414917
1789038128498076700,1.99207666015625,1.2243049144744873,0.3581056594848633,0.871694803237915
1789038128508076500,2.00207666015625,0.904024064540863,0.6844921112060547,0.9187612533569336
1789038128518076700,2.01207666015625,-0.11056755483150482,0.33736419677734375,1.586747646331787
1789038128528076500,2.02207666015625,-0.5098339915275574,0.49817466735839844,1.4050872325897217
1789038128538076700,2.03207666015625,-0.8159765601158142,-0.11439037322998047,1.6072373390197754
1789038128548076500,2.04207666015625,-0.35305970907211304,-0.14348793029785156,2.9718658924102783
1789038128558076700,2.05207666015625,0.6680254340171814,-0.10033893585205078,3.1733529567718506
1789038128568076500,2.06207666015625,-0.2953363060951233,0.212066650390625,2.0057601928710938
1789038128578076700,2.07207666015625,-2.029897451400757,0.34610843658447266,0.45876455307006836
1789038128588076500,2.08207666015625,-2.661496877670288,0.3727254867553711,0.732926607131958
1789038128598076700,2.09207666015625,-2.8695101737976074,-0.1464986801147461,2.0550477504730225
1789038128608076500,2.10207666015625,-1.4676337242126465,-0.20947837829589844,3.8409409523010254
1789038128618076700,2.11207666015625,0.291048526763916,-0.030425071716308594,4.500766754150391
1789038128628076500,2.12207666015625,0.6316580176353455,0.9771251678466797,2.989339590072632
1789038128638076700,2.13207666015625,-1.7576385736465454,1.1794052124023438,3.732853412628174
1789038128648076500,2.14207666015625,-2.3192825317382812,0.876673698425293,5.711673736572266
1789038128658076700,2.15207666015625,-0.5276837348937988,-0.13317394256591797,6.242816925048828
1789038128668076500,2.16207666015625,-1.4028147459030151,-1.5494508743286133,6.430994033813477
1789038128678076700,2.17207666015625,-2.8514902591705322,-1.4915275573730469,5.5632710456848145
1789038128688076500,2.18207666015625,-2.4082837104797363,-0.7523250579833984,4.311164855957031
1789038128698076700,2.19207666015625,-1.8525657653808594,-0.5056085586547852,0.06473827362060547
1789038128708076500,2.20207666015625,-3.715977191925049,0.3658285140991211,-3.957801103591919
1789038128718076700,2.21207666015625,-5.360262870788574,1.182316780090332,-5.4115447998046875
1789038128728076500,2.22207666015625,-5.570056438446045,1.276064395904541,-4.824355125427246
1789038128738076700,2.23207666015625,-4.219452381134033,1.2645673751831055,-1.5803394317626953
1789038128748076500,2.24207666015625,-2.0111303329467773,1.1209673881530762,1.5914134979248047
1789038128758076700,2.25207666015625,-1.4987810850143433,1.1362571716308594,0.36733245849609375
1789038128768076500,2.26207666015625,-2.495863676071167,1.1727981567382812,-5.219472885131836
1789038128778076700,2.27207666015625,-2.063770294189453,0.24779939651489258,-5.092312335968018
1789038128788076500,2.28207666015625,-1.8305472135543823,0.18399620056152344,-4.140527725219727
1789038128798076700,2.29207666015625,-2.073488235473633,0.5515623092651367,-0.916466236114502
1789038128808076500,2.30207666015625,-2.6514649391174316,1.104487419128418,3.8170828819274902
1789038128818076700,2.31207666015625,-1.6018714904785156,0.8483362197875977,5.700796127319336
1789038128828076500,2.32207666015625,-0.2269909381866455,-0.4413795471191406,6.338376998901367
1789038128838076700,2.33207666015625,-0.8355995416641235,-0.7885313034057617,2.9074931144714355
1789038128848076500,2.34207666015625,-1.7112171649932861,-0.7986278533935547,-1.5181145668029785
1789038128858076700,2.35207666015625,-1.8823362588882446,-0.876762866973877,-1.319239616394043
1789038128868076500,2.36207666015625,-1.7382179498672485,-0.6603918075561523,1.6184792518615723
1789038128878076700,2.37207666015625,0.16846156120300293,-1.3803706169128418,1.8323845863342285
1789038128888076500,2.38207666015625,2.0338993072509766,-2.197601795196533,0.8864927291870117
1789038128898076700,2.39207666015625,3.325870990753174,-2.050586700439453,0.9416723251342773
1789038128908076500,2.40207666015625,2.1138079166412354,-1.6910920143127441,3.8522891998291016
1789038128918076700,2.41207666015625,0.17615211009979248,-1.175147533416748,6.749992847442627
1789038128928076500,2.42207666015625,-2.9888722896575928,-0.6161818504333496,6.064676284790039
1789038128938076700,2.43207666015625,-6.546602725982666,-0.49009227752685547,7.459123611450195
1789038128948076500,2.44207666015625,-3.2425174713134766,-1.7372322082519531,18.87419891357422
1789038128958076700,2.45207666015625,-3.0214481353759766,-1.0700831413269043,-4.771289825439453
1789038128968076500,2.46207666015625,1.7385162115097046,1.0446114540100098,-14.421123504638672
1789038128978076700,2.47207666015625,3.4321136474609375,-0.8818650245666504,-18.836702346801758
1789038128988076500,2.48207666015625,3.538815975189209,-2.9995245933532715,-11.625935554504395
1789038128998076700,2.49207666015625,1.8122564554214478,-2.5090889930725098,-6.589310646057129
1789038129008076500,2.50207666015625,-1.8075919151306152,1.3895033597946167,-1.4871845245361328
1789038129018076700,2.51207666015625,-5.127477169036865,1.4098129272460938,-3.139604091644287
1789038129028076500,2.52207666015625,-2.993314743041992,3.800421953201294,-4.329967498779297
1789038129038076700,2.53207666015625,-3.3294026851654053,3.9289402961730957,-3.4041123390197754
1789038129048076500,2.54207666015625,-3.686776876449585,1.616894245147705,-3.491879463195801
1789038129058076700,2.55207666015625,-1.9591305255889893,0.03507733345031738,-7.356467247009277
1789038129068076500,2.56207666015625,0.13860857486724854,-1.6377099752426147,-9.641409873962402
1789038129078076700,2.57207666015625,0.9909499287605286,-3.704152822494507,-9.440074920654297
1789038129088076500,2.58207666015625,2.480451822280884,-3.8942785263061523,-10.376672744750977
1789038129098076700,2.59207666015625,4.304769039154053,-4.645662307739258,-6.893136024475098
1789038129108076500,2.60207666015625,4.4469523429870605,-3.583291530609131,-3.3836517333984375
1789038129118076700,2.61207666015625,1.9878911972045898,-4.086305618286133,0.8854179382324219
1789038129128076500,2.62207666015625,-0.17272377014160156,-4.33697509765625,4.4226531982421875
1789038129138076700,2.63207666015625,0.16531085968017578,-3.870286226272583,7.115291595458984
1789038129148076500,2.64207666015625,1.3621375560760498,-3.755047559738159,8.01948070526123
1789038129158076700,2.65207666015625,1.0424206256866455,-4.787471771240234,8.644416809082031
1789038129168076500,2.66207666015625,0.4162706136703491,-5.347065448760986,7.760982513427734
1789038129178076700,2.67207666015625,-0.9091039896011353,-5.087841033935547,7.226784706115723
1789038129188076500,2.68207666015625,-4.174263954162598,-3.935415267944336,3.118366241455078
1789038129198076700,2.69207666015625,-3.673391580581665,-3.1129603385925293,1.144235610961914
1789038129208076500,2.70207666015625,-1.2945582866668701,-2.5662994384765625,-0.10683822631835938
1789038129218076700,2.71207666015625,-1.5800471305847168,-0.8507771492004395,-1.463632583618164
1789038129228076500,2.72207666015625,-0.8234589099884033,0.9895288944244385,-4.402327537536621
1789038129238076700,2.73207666015625,0.03676903247833252,0.5541648864746094,-4.799812316894531
1789038129248076500,2.74207666015625,0.00458216667175293,-0.7620720863342285,-4.688625335693359
1789038129258076700,2.75207666015625,1.066702961921692,-1.6144652366638184,-3.8956446647644043
1789038129268076500,2.76207666015625,1.3653126955032349,-0.9653787612915039,-4.377439498901367
1789038129278076700,2.77207666015625,1.2968451976776123,-0.11295175552368164,-5.481001853942871
1789038129288076500,2.78207666015625,1.8446844816207886,0.5911874771118164,-5.184512615203857
1789038129298076700,2.79207666015625,2.5353329181671143,1.1807703971862793,-3.7909674644470215
1789038129308076500,2.80207666015625,2.5982916355133057,1.4375252723693848,0.9812088012695312
1789038129318076700,2.81207666015625,3.171983242034912,1.84378981590271,5.700999736785889
1789038129328076500,2.82207666015625,2.9322152137756348,2.1837592124938965,9.196333885192871
1789038129338076700,2.83207666015625,0.22053098678588867,1.926680088043213,10.619783401489258
1789038129348076500,2.84207666015625,-4.5181474685668945,1.0545358657836914,10.167255401611328
1789038129358076700,2.85207666015625,-5.515522003173828,0.05882120132446289,5.965716361999512
1789038129368076500,2.86207666015625,-5.052923202514648,-0.2863955497741699,0.3474411964416504
1789038129378076700,2.87207666015625,-2.7825820446014404,-0.6157879829406738,-1.5456695556640625
1789038129388076500,2.88207666015625,0.3574986457824707,-0.7683558464050293,-2.0898332595825195
1789038129398076700,2.89207666015625,1.2343075275421143,-0.656456470489502,-1.4221315383911133
1789038129408076500,2.90207666015625,0.20316600799560547,-0.5594649314880371,0.49121999740600586
1789038129418076700,2.91207666015625,-0.2502748966217041,-0.37326717376708984,0.5448293685913086
1789038129428076500,2.92207666015625,-0.40423083305358887,-0.23088598251342773,0.3196287155151367
1789038129438076700,2.93207666015625,-0.28002429008483887,-0.05145740509033203,0.3117351531982422
1789038129448076500,2.94207666015625,0.08974218368530273,-0.00881052017211914,-0.004071712493896484
1789038129458076700,2.95207666015625,0.7677605152130127,-0.07835960388183594,-0.7474913597106934
1789038129468076500,2.96207666015625,1.0946437120437622,-0.18487167358398438,-1.4210925102233887
1789038129478076700,2.97207666015625,0.2673511505126953,-0.23901033401489258,-1.3217225074768066
1789038129488076500,2.98207666015625,-0.6829276084899902,-0.05683755874633789,-0.25346946716308594
1789038129498076700,2.99207666015625,-0.746178388595581,0.0409092903137207,0.5008792877197266
1789038129508076500,3.00207666015625,0.1614830493927002,0.20777511596679688,0.5565681457519531
1789038129518076700,3.01207666015625,0.15166902542114258,0.4768648147583008,0.26337718963623047
1789038129528076500,3.02207666015625,0.2941620349884033,1.1802692413330078,-0.13303470611572266
1789038129538076700,3.03207666015625,0.06964230537414551,1.4595026969909668,-0.2840895652770996
1789038129548076500,3.04207666015625,-0.8253154754638672,1.190171241760254,0.11370277404785156
1789038129558076700,3.05207666015625,-1.1110954284667969,0.7806410789489746,-0.10492992401123047
1789038129568076500,3.06207666015625,-0.5065546035766602,0.646306037902832,-0.8525857925415039
1789038129578076700,3.07207666015625,0.22706472873687744,0.5380282402038574,-1.6121912002563477
1789038129588076500,3.08207666015625,0.2431173324584961,0.24184322357177734,-1.808969497680664
1789038129598076700,3.09207666015625,0.24582576751708984,0.3183631896972656,-1.6535148620605469
1789038129608076500,3.10207666015625,-0.018651366233825684,0.09468507766723633,-0.6020841598510742
1789038129618076700,3.11207666015625,-0.23436224460601807,-0.16212081909179688,0.8772006034851074
1789038129628076500,3.12207666015625,0.12136685848236084,-0.06287479400634766,1.7933645248413086
1789038129638076700,3.13207666015625,0.8262335658073425,-0.12403631210327148,1.1076850891113281
1789038129648076500,3.14207666015625,0.9627859592437744,-0.5594167709350586,-0.3774895668029785
1789038129658076700,3.15207666015625,0.25819289684295654,-0.8139748573303223,-1.5561027526855469
1789038129668076500,3.16207666015625,-1.0232031345367432,-0.5761008262634277,-1.5074143409729004
1789038129678076700,3.17207666015625,-1.830480933189392,-0.45673418045043945,-0.2917509078979492
1789038129688076500,3.18207666015625,-1.7068746089935303,-0.4885096549987793,0.7951574325561523
1789038129698076700,3.19207666015625,-1.1181018352508545,-0.5675177574157715,0.46805477142333984
1789038129708076500,3.20207666015625,-0.2613590955734253,-0.7172040939331055,0.15908288955688477
1789038129718076700,3.21207666015625,0.22427058219909668,-0.8150496482849121,0.017904281616210938
1789038129728076500,3.22207666015625,0.5186072587966919,-0.697723388671875,0.0011210441589355469
1789038129738076700,3.23207666015625,0.3910045623779297,-0.15825557708740234,0.07565927505493164
1789038129748076500,3.24207666015625,0.1091163158416748,-0.0812978744506836,-0.22194194793701172
1789038129758076700,3.25207666015625,0.8408987522125244,-0.19599103927612305,-0.5937442779541016
1789038129768076500,3.26207666015625,0.82896888256073,-0.10359382629394531,-0.7345981597900391
1789038129778076700,3.27207666015625,0.05281400680541992,0.09670782089233398,-0.4823169708251953
1789038129788076500,3.28207666015625,-0.8147659301757812,0.3796529769897461,-0.41071224212646484
1789038129798076700,3.29207666015625,-1.2520592212677002,0.9615325927734375,-0.3023552894592285
1789038129808076500,3.30207666015625,-0.5345590114593506,1.6152496337890625,0.05072450637817383
1789038129818076700,3.31207666015625,-0.12266230583190918,1.7080802917480469,0.7044711112976074
1789038129828076500,3.32207666015625,-0.25672030448913574,2.030648708343506,0.5104451179504395
1789038129838076700,3.33207666015625,-0.3781869411468506,1.7939996719360352,0.05632781982421875
1789038129848076500,3.34207666015625,0.17487883567810059,1.087120532989502,0.0171661376953125
1789038129858076700,3.35207666015625,0.7931699752807617,0.41962623596191406,0.7748961448669434
1789038129868076500,3.36207666015625,0.9345502853393555,0.24396085739135742,1.458160400390625
1789038129878076700,3.37207666015625,0.8248114585876465,0.5574359893798828,2.1322789192199707
1789038129888076500,3.38207666015625,-0.13775849342346191,3.7883012294769287,2.2892298698425293
1789038129898076700,3.39207666015625,-0.8421504497528076,5.534256935119629,1.7848477363586426
1789038129908076500,3.40207666015625,-1.0971144437789917,2.5688233375549316,0.28407907485961914
1789038129918076700,3.41207666015625,-0.9818743467330933,-1.8529295921325684,-0.2741541862487793
1789038129928076500,3.42207666015625,1.4690791368484497,-1.6102051734924316,-0.7148308753967285
1789038129938076700,3.43207666015625,2.538942813873291,0.5233221054077148,-1.5205116271972656
1789038129948076500,3.44207666015625,-0.5261434316635132,4.611774444580078,-2.1544108390808105
1789038129958076700,3.45207666015625,-0.1007605791091919,7.987030029296875,-2.1520752906799316
1789038129968076500,3.46207666015625,1.2125054597854614,7.305047988891602,-2.807952880859375
1789038129978076700,3.47207666015625,-1.8551603555679321,2.077024459838867,-3.197909355163574
1789038129988076500,3.48207666015625,-2.190168619155884,-4.9265289306640625,-0.5432171821594238
1789038129998076700,3.49207666015625,-1.1035351753234863,-6.0194621086120605,-0.22595548629760742
1789038130008076500,3.50207666015625,0.8987897634506226,-2.2761316299438477,-2.126802444458008
1789038130018076700,3.51207666015625,1.311898112297058,2.3732638359069824,-5.7924652099609375
1789038130028076500,3.52207666015625,1.810013771057129,-0.22124719619750977,-3.2747669219970703
1789038130038076700,3.53207666015625,-0.8642497062683105,-5.640411376953125,4.135602951049805
1789038130048076500,3.54207666015625,0.02018815279006958,-5.730701923370361,4.758515357971191
1789038130058076700,3.55207666015625,1.4734410047531128,-2.440704822540283,1.647904872894287
1789038130068076500,3.56207666015625,2.4477224349975586,-0.3633766174316406,-0.6386399269104004
1789038130078076700,3.57207666015625,1.6083073616027832,3.15848970413208,-2.1206367015838623
1789038130088076500,3.58207666015625,-0.7157243490219116,5.086510181427002,-1.6066086292266846
1789038130098076700,3.59207666015625,-0.9418063163757324,4.590756416320801,-1.4656500816345215
1789038130108076500,3.60207666015625,-2.2306008338928223,0.464444637298584,-1.2879259586334229
1789038130118076700,3.61207666015625,-2.906689167022705,-2.6642494201660156,-1.218144416809082
1789038130128076500,3.62207666015625,0.03339409828186035,-2.363492012023926,-1.8483924865722656
1789038130138076700,3.63207666015625,1.5383397340774536,-2.9849042892456055,-1.5958871841430664
1789038130148076500,3.64207666015625,1.1701279878616333,-3.386871337890625,-1.816633701324463
1789038130158076700,3.65207666015625,1.2363801002502441,-3.6956911087036133,-0.4265258312225342
1789038130168076500,3.66207666015625,0.42486798763275146,-2.5995397567749023,1.2884869575500488
1789038130178076700,3.67207666015625,0.1388026475906372,-2.2613353729248047,0.9330987930297852
1789038130188076500,3.68207666015625,-1.3263019323349,-3.1064863204956055,0.4327576160430908
1789038130198076700,3.69207666015625,-1.8483006954193115,-2.588521957397461,0.3576936721801758
1789038130208076500,3.70207666015625,-1.4256367683410645,-2.5560989379882812,1.2944560050964355
1789038130218076700,3.71207666015625,-0.7140684127807617,-1.881591796875,1.687790870666504
1789038130228076500,3.72207666015625,0.07210099697113037,-1.772465705871582,1.9271891117095947
1789038130238076700,3.73207666015625,1.0099856853485107,-0.4712047576904297,0.7552213668823242
1789038130248076500,3.74207666015625,1.6904850006103516,-0.3043947219848633,-0.5499138832092285
1789038130258076700,3.75207666015625,1.3012746572494507,0.028510093688964844,-1.0653674602508545
1789038130268076500,3.76207666015625,0.2574961185455322,-0.604670524597168,-0.3914527893066406
1789038130278076700,3.77207666015625,-1.0513070821762085,-0.6447353363037109,-0.6779606342315674
1789038130288076500,3.78207666015625,-2.044705867767334,0.9758358001708984,0.23243260383605957
1789038130298076700,3.79207666015625,-1.0088629722595215,1.1855778694152832,0.7673203945159912
1789038130308076500,3.80207666015625,-0.628595232963562,0.9133729934692383,-2.216729164123535
1789038130318076700,3.81207666015625,0.9395082592964172,-2.5301923751831055,-2.848745584487915
1789038130328076500,3.82207666015625,-0.4584897756576538,0.7155551910400391,-1.4502978324890137
1789038130338076700,3.83207666015625,-0.6950273513793945,1.5536308288574219,0.13695526123046875
1789038130348076500,3.84207666015625,-0.11601722240447998,0.9938135147094727,0.9189543724060059
1789038130358076700,3.85207666015625,-0.0576704740524292,1.8182086944580078,-0.012117147445678711
1789038130368076500,3.86207666015625,-0.1460627317428589,2.4164514541625977,-0.28412795066833496
1789038130378076700,3.87207666015625,0.09054946899414062,2.08212947845459,0.0982818603515625
1789038130388076500,3.88207666015625,0.5983675718307495,1.4444265365600586,-0.45543861389160156
1789038130398076700,3.89207666015625,1.1619573831558228,1.6631555557250977,-0.8633171319961548
1789038130408076500,3.90207666015625,1.2689640522003174,2.44895076751709,-0.38011956214904785
1789038130418076700,3.91207666015625,1.2559715509414673,3.531418800354004,-0.5110981464385986
1789038130428076500,3.92207666015625,1.3172543048858643,3.882171630859375,-0.8531687259674072
1789038130438076700,3.93207666015625,0.7192884683609009,2.2407360076904297,-1.610050916671753
1789038130448076500,3.94207666015625,-0.3576720952987671,-0.81402587890625,-1.1836363077163696
1789038130458076700,3.95207666015625,-2.255767345428467,-3.8808717727661133,0.12772202491760254
1789038130468076500,3.96207666015625,-2.6906113624572754,-5.5367326736450195,2.32582950592041
1789038130478076700,3.97207666015625,-2.3928472995758057,-4.99262809753418,2.3435003757476807
1789038130488076500,3.98207666015625,-1.771748661994934,-3.3752222061157227,1.8285527229309082
1789038130498076700,3.99207666015625,0.6882632970809937,-2.045069694519043,1.237396001815796
1789038130508076500,4.00207666015625,1.5988117456436157,-0.7009658813476562,0.5004652738571167
1789038130518076700,4.01207666015625,2.598712205886841,-0.7612218856811523,0.2503163814544678
1789038130528076500,4.02207666015625,0.9419106245040894,-1.8342018127441406,-0.6246474981307983
1789038130538076700,4.03207666015625,-0.9891477823257446,-2.338425636291504,-0.5164781808853149
1789038130548076500,4.04207666015625,-1.0391688346862793,-2.5116615295410156,0.016007661819458008
1789038130558076700,4.05207666015625,0.24669557809829712,-1.6063623428344727,0.11376464366912842
1789038130568076500,4.06207666015625,0.586592435836792,-0.07200241088867188,-0.4075601100921631
1789038130578076700,4.07207666015625,1.3035120964050293,0.5229854583740234,-0.9043838977813721
1789038130588076500,4.08207666015625,1.3848090171813965,0.9008750915527344,-1.298234224319458
1789038130598076700,4.09207666015625,0.9305452108383179,1.0511646270751953,-0.695203423500061
1789038130608076500,4.10207666015625,0.010508298873901367,1.1314277648925781,0.23346304893493652
1789038130618076700,4.11207666015625,-1.5101841688156128,0.7358989715576172,0.6774290800094604
1789038130628076500,4.12207666015625,-0.9812074899673462,0.2499866485595703,1.598876953125
1789038130638076700,4.13207666015625,-0.6800886392593384,0.2729511260986328,1.1539123058319092
1789038130648076500,4.14207666015625,-0.13583505153656006,0.5828714370727539,0.2724471092224121
1789038130658076700,4.15207666015625,0.6004989147186279,0.3174924850463867,-0.19870305061340332
1789038130668076500,4.16207666015625,0.863517165184021,0.4657430648803711,-0.3947153091430664
1789038130678076700,4.17207666015625,1.1789623498916626,0.49765682220458984,-0.6132903099060059
1789038130688076500,4.18207666015625,0.2563774585723877,0.22901439666748047,-0.3778879642486572
1789038130698076700,4.19207666015625,-0.2653416395187378,-0.49941158294677734,0.3041973114013672
1789038130708076500,4.20207666015625,-0.24987292289733887,-0.958073616027832,0.5698838233947754
1789038130718076700,4.21207666015625,0.48167532682418823,-0.7342071533203125,0.4181699752807617
1789038130728076500,4.22207666015625,0.6175180077552795,-0.7494497299194336,-0.40163207054138184
1789038130738076700,4.23207666015625,-0.7099746465682983,-0.3328266143798828,-0.8534114360809326
1789038130748076500,4.24207666015625,-1.1409192085266113,0.30803585052490234,-0.6110148429870605
1789038130758076700,4.25207666015625,-0.7245947122573853,0.9592294692993164,-0.3361537456512451
1789038130768076500,4.26207666015625,0.7243741750717163,0.21360301971435547,-1.015032172203064
1789038130778076700,4.27207666015625,1.128950834274292,-0.47257328033447266,-1.1575148105621338
1789038130788076500,4.28207666015625,0.008305788040161133,0.07198524475097656,0.3956437110900879
1789038130798076700,4.29207666015625,-0.5630593299865723,0.6740913391113281,0.5956273078918457
1789038130808076500,4.30207666015625,-0.1672983169555664,0.7062673568725586,0.368588924407959
1789038130818076700,4.31207666015625,0.03541207313537598,0.557403564453125,0.5086936950683594
1789038130828076500,4.32207666015625,-0.03051590919494629,0.3967113494873047,1.0003201961517334
1789038130838076700,4.33207666015625,-0.10123670101165771,0.3329744338989258,0.46533846855163574
1789038130848076500,4.34207666015625,-0.21906006336212158,0.16742420196533203,-0.49516892433166504
1789038130858076700,4.35207666015625,-0.15428650379180908,0.2850818634033203,0.8018162250518799
1789038130868076500,4.36207666015625,-0.4467657804489136,0.3490438461303711,1.4726200103759766
1789038130878076700,4.37207666015625,-0.8047106862068176,-0.035022735595703125,1.2197105884552002
1789038130888076500,4.38207666015625,-0.8089840412139893,-0.8121223449707031,0.6820106506347656
1789038130898076700,4.39207666015625,-0.02532750368118286,-1.0729560852050781,-0.19269537925720215
1789038130908076500,4.40207666015625,0.6100346446037292,-0.1650228500366211,-0.867821455001831
1789038130918076700,4.41207666015625,0.3426799774169922,0.20764827728271484,-0.31653523445129395
1789038130928076500,4.42207666015625,0.03499472141265869,0.2595396041870117,0.3160722255706787
1789038130938076700,4.43207666015625,-0.10022830963134766,0.11697578430175781,0.467975378036499
1789038130948076500,4.44207666015625,0.15939533710479736,0.48526954650878906,0.29096245765686035
1789038130958076700,4.45207666015625,0.20128750801086426,0.7001323699951172,0.13778018951416016
1789038130968076500,4.46207666015625,-0.18364572525024414,0.2396697998046875,-0.7807953357696533
1789038130978076700,4.47207666015625,-0.2892378568649292,0.13028430938720703,-0.7479948997497559
1789038130988076500,4.48207666015625,-0.19436120986938477,0.00344085693359375,-0.48569798469543457
1789038130998076700,4.49207666015625,-0.10199761390686035,0.15499019622802734,-0.4107053279876709
1789038131008076500,4.50207666015625,-0.3089146614074707,0.054398536682128906,-0.48049449920654297
1789038131018076700,4.51207666015625,-1.3025007247924805,-0.4658527374267578,0.2808105945587158
1789038131028076500,4.52207666015625,-1.0278332233428955,-0.5242700576782227,0.2467358112335205
1789038131038076700,4.53207666015625,-0.8050827383995056,-0.3894157409667969,0.5996108055114746
1789038131048076500,4.54207666015625,-0.3226664066314697,-0.17270278930664062,-0.3872413635253906
1789038131058076700,4.55207666015625,0.365119993686676,-0.15717315673828125,-1.31121826171875
1789038131068076500,4.56207666015625,0.5890808701515198,-0.07564067840576172,-1.2985029220581055
1789038131078076700,4.57207666015625,0.41430044174194336,-0.12060928344726562,-0.8750817775726318
1789038131088076500,4.58207666015625,0.09987330436706543,-0.1551351547241211,-0.0776662826538086
1789038131098076700,4.59207666015625,-0.13881003856658936,0.0861959457397461,-0.18982625007629395
1789038131108076500,4.60207666015625,-0.44878435134887695,0.1526346206665039,0.4187171459197998
1789038131118076700,4.61207666015625,-0.6386210918426514,0.010272979736328125,0.3365495204925537
1789038131128076500,4.62207666015625,-0.5849227905273438,-0.23511028289794922,0.7363102436065674
1789038131138076700,4.63207666015625,-0.49117279052734375,-0.2863903045654297,0.9708390235900879
1789038131148076500,4.64207666015625,-0.3579690456390381,-0.20832538604736328,0.3711202144622803
1789038131158076700,4.65207666015625,0.06508505344390869,0.04033851623535156,0.2104504108428955
1789038131168076500,4.66207666015625,0.4624617099761963,0.17096614837646484,-0.3038597106933594
1789038131178076700,4.67207666015625,0.14673256874084473,0.09848594665527344,-0.15342378616333008
1789038131188076500,4.68207666015625,-0.14663195610046387,-0.29459095001220703,-0.5769808292388916
1789038131198076700,4.69207666015625,0.026054739952087402,-0.3972034454345703,-0.7051365375518799
1789038131208076500,4.70207666015625,0.2273092269897461,0.1230020523071289,-0.7740762233734131
1789038131218076700,4.71207666015625,0.2589339017868042,0.48253822326660156,-0.4134528636932373
1789038131228076500,4.72207666015625,0.2712571620941162,0.6492528915405273,-0.12096357345581055
1789038131238076700,4.73207666015625,0.34967947006225586,0.5658426284790039,-0.4149346351623535
1789038131248076500,4.74207666015625,0.5566979646682739,0.5147972106933594,-0.1252439022064209
1789038131258076700,4.75207666015625,0.30098384618759155,0.24777507781982422,-0.8293015956878662
1789038131268076500,4.76207666015625,0.27950191497802734,0.2360382080078125,-0.003810882568359375
1789038131278076700,4.77207666015625,0.1814941167831421,0.3505868911743164,-0.2634596824645996
1789038131288076500,4.78207666015625,0.853757381439209,0.3775787353515625,0.8260214328765869
1789038131298076700,4.79207666015625,1.037155032157898,-0.10916423797607422,0.2545003890991211
1789038131308076500,4.80207666015625,0.5750410556793213,-0.418853759765625,-0.34269165992736816
1789038131318076700,4.81207666015625,-0.12328696250915527,-0.31502437591552734,-0.34743237495422363
1789038131328076500,4.82207666015625,-0.4113370180130005,-0.35823726654052734,-0.41875553131103516
1789038131338076700,4.83207666015625,-0.4598749876022339,-0.3145027160644531,-0.3314344882965088
1789038131348076500,4.84207666015625,-0.3984605073928833,-0.22098350524902344,-0.19305109977722168
1789038131358076700,4.85207666015625,-0.1942044496536255,-0.1314706802368164,-0.014580011367797852
1789038131368076500,4.86207666015625,-0.03690969944000244,-0.034424781799316406,-0.06895565986633301
1789038131378076700,4.87207666015625,-0.05538952350616455,-0.07883262634277344,0.0036690235137939453
1789038131388076500,4.88207666015625,-0.09494483470916748,-0.12474822998046875,-0.22038984298706055
1789038131398076700,4.89207666015625,-0.18974125385284424,-0.10959529876708984,-0.19797849655151367
1789038131408076500,4.90207666015625,-0.12742257118225098,-0.0014772415161132812,-0.12518835067749023
1789038131418076700,4.91207666015625,0.02336418628692627,0.10482120513916016,-0.08795046806335449
1789038131428076500,4.92207666015625,0.013612151145935059,0.21774768829345703,0.01657271385192871
1789038131438076700,4.93207666015625,-0.04044008255004883,0.1835193634033203,0.03916668891906738
1789038131448076500,4.94207666015625,-0.1365565061569214,0.0819845199584961,0.08030509948730469
1789038131458076700,4.95207666015625,-0.26657330989837646,-0.013528823852539062,0.23218107223510742
1789038131468076500,4.96207666015625,-0.3730655908584595,-0.06241798400878906,0.2986001968383789
1789038131478076700,4.97207666015625,-0.34352922439575195,-0.05997180938720703,0.31732726097106934
1789038131488076500,4.98207666015625,-0.3300602436065674,-0.0568084716796875,0.26085662841796875
1789038131498076700,4.99207666015625,-0.26354503631591797,0.009509086608886719,0.37587642669677734
1789038131508076500,5.00207666015625,-0.18468666076660156,-0.0004425048828125,0.04204583168029785
1789038131518076700,5.01207666015625,-0.14000701904296875,0.029291152954101562,0.2221219539642334
1789038131528076500,5.02207666015625,-0.14388442039489746,0.12078094482421875,0.18427538871765137
1789038131538076700,5.03207666015625,-0.16316139698028564,0.22743797302246094,0.14369416236877441
1789038131548076500,5.04207666015625,-0.18688654899597168,0.2873573303222656,-0.023575544357299805
1789038131558076700,5.05207666015625,-0.1641608476638794,0.3539009094238281,-0.03145027160644531
1789038131568076500,5.06207666015625,-0.10487079620361328,0.3393411636352539,-0.05408525466918945
1789038131578076700,5.07207666015625,-0.06650447845458984,0.26016712188720703,-0.07884764671325684
1789038131588076500,5.08207666015625,-0.050621986389160156,0.16220569610595703,0.013204097747802734
1789038131598076700,5.09207666015625,-0.0792701244354248,-0.0004444122314453125,0.02077317237854004
1789038131608076500,5.10207666015625,-0.06540942192077637,-0.0859975814819336,0.10380172729492188
1789038131618076700,5.11207666015625,-0.0006911754608154297,-0.16332149505615234,0.16313743591308594
1789038131628076500,5.12207666015625,0.07843315601348877,-0.2547025680541992,0.21408343315124512
1789038131638076700,5.13207666015625,0.12358486652374268,-0.27347469329833984,0.1801915168762207
1789038131648076500,5.14207666015625,0.14903974533081055,-0.28262996673583984,0.09556007385253906
1789038131658076700,5.15207666015625,0.15769219398498535,-0.19634723663330078,0.053225040435791016
1789038131668076500,5.16207666015625,0.10909128189086914,-0.14531517028808594,0.026330947875976562
1789038131678076700,5.17207666015625,0.01029360294342041,-0.1389608383178711,-0.07581377029418945
1789038131688076500,5.18207666015625,-0.0033721923828125,-0.08089447021484375,-0.05211806297302246
1789038131698076700,5.19207666015625,0.009701967239379883,-0.029715538024902344,-0.07324337959289551
1789038131708076500,5.20207666015625,0.00980532169342041,0.03612995147705078,-0.08186030387878418
1789038131718076700,5.21207666015625,-0.00017893314361572266,0.040836334228515625,-0.11628413200378418
1789038131728076500,5.22207666015625,0.022574186325073242,0.12766170501708984,0.03670096397399902
1789038131738076700,5.23207666015625,0.017328500747680664,0.10157585144042969,0.06407475471496582
1789038131748076500,5.24207666015625,0.0382387638092041,0.022721290588378906,-0.05072617530822754
1789038131758076700,5.25207666015625,0.06182408332824707,-0.040169715881347656,-0.11376738548278809
1789038131768076500,5.26207666015625,0.038251280784606934,-0.18949031829833984,-0.16428589820861816
1789038131778076700,5.27207666015625,0.014220237731933594,-0.22922325134277344,-0.07221174240112305
1789038131788076500,5.28207666015625,-0.03202700614929199,-0.24263477325439453,-0.02959156036376953
1789038131798076700,5.29207666015625,-0.08542072772979736,-0.21412277221679688,-0.1483609676361084
1789038131808076500,5.30207666015625,-0.11190056800842285,-0.031250953674316406,0.1652522087097168
1789038131818076700,5.31207666015625,-0.14549386501312256,0.15617847442626953,0.12836027145385742
1789038131828076500,5.32207666015625,-0.18513798713684082,0.20174026489257812,0.11925435066223145
1789038131838076700,5.33207666015625,-0.1392914056777954,0.07402324676513672,0.19326043128967285
1789038131848076500,5.34207666015625,-0.055135250091552734,0.036400794982910156,0.18668198585510254
1789038131858076700,5.35207666015625,-0.12695765495300293,-0.037957191467285156,0.2011408805847168
1789038131868076500,5.36207666015625,-0.17602157592773438,-0.16377544403076172,0.23181819915771484
1789038131878076700,5.37207666015625,-0.19122576713562012,-0.18928813934326172,0.1886577606201172
1789038131888076500,5.38207666015625,-0.22295796871185303,-0.10557174682617188,0.08822202682495117
1789038131898076700,5.39207666015625,-0.22929024696350098,0.020120620727539062,0.2778940200805664
1789038131908076500,5.40207666015625,-0.31439685821533203,-0.00849151611328125,0.10388398170471191
1789038131918076700,5.41207666015625,-0.46528875827789307,-0.07018756866455078,0.20467829704284668
1789038131928076500,5.42207666015625,-0.6401954889297485,-0.5827426910400391,-0.022263050079345703
1789038131938076700,5.43207666015625,-0.9006290435791016,-1.2984228134155273,0.8903143405914307
1789038131948076500,5.44207666015625,-0.957312822341919,-0.3746061325073242,-0.1588575839996338
1789038131958076700,5.45207666015625,-0.5427244901657104,0.7404632568359375,-0.07413029670715332
1789038131968076500,5.46207666015625,-0.8685206174850464,0.8369541168212891,0.672731876373291
1789038131978076700,5.47207666015625,-1.0559709072113037,0.6021232604980469,1.2062113285064697
1789038131988076500,5.48207666015625,-1.1030217409133911,0.28578948974609375,1.2218282222747803
1789038131998076700,5.49207666015625,-0.925073504447937,0.2356863021850586,1.1978940963745117
1789038132008076500,5.50207666015625,-0.9090112447738647,0.25538063049316406,0.9378252029418945
1789038132018076700,5.51207666015625,-0.8685942888259888,0.34442806243896484,0.6205286979675293
1789038132028076500,5.52207666015625,-1.0313873291015625,0.2256002426147461,0.5757155418395996
1789038132038076700,5.53207666015625,-0.7876044511795044,0.14979934692382812,0.702362060546875
1789038132048076500,5.54207666015625,-0.6213748455047607,0.11190223693847656,0.8331785202026367
1789038132058076700,5.55207666015625,-0.4510505199432373,0.06553268432617188,0.9080946445465088
1789038132068076500,5.56207666015625,-0.3295027017593384,0.07864761352539062,0.9611794948577881
1789038132078076700,5.57207666015625,-0.17290818691253662,-0.04502296447753906,0.9383454322814941
1789038132088076500,5.58207666015625,0.010690689086914062,0.1001901626586914,0.9608626365661621
1789038132098076700,5.59207666015625,0.17202401161193848,0.17592239379882812,0.9301762580871582
1789038132108076500,5.60207666015625,0.31844067573547363,0.2500782012939453,0.810504674911499
1789038132118076700,5.61207666015625,0.4583146572113037,0.31372833251953125,0.6437711715698242
1789038132128076500,5.62207666015625,0.4173450469970703,0.2829246520996094,0.4680354595184326
1789038132138076700,5.63207666015625,0.26830196380615234,0.2652750015258789,0.5524301528930664
1789038132148076500,5.64207666015625,0.331170916557312,0.3008432388305664,0.3829953670501709
1789038132158076700,5.65207666015625,0.4830828905105591,0.5286159515380859,0.40953683853149414
1789038132168076500,5.66207666015625,0.3995429277420044,0.5544109344482422,0.24579071998596191
1789038132178076700,5.67207666015625,0.37282276153564453,0.6019134521484375,0.14129638671875
1789038132188076500,5.68207666015625,0.43060529232025146,0.7038459777832031,0.05986738204956055
1789038132198076700,5.69207666015625,0.43349695205688477,0.6804018020629883,0.1693429946899414
1789038132208076500,5.70207666015625,0.5740108489990234,0.5908603668212891,0.12577080726623535
1789038132218076700,5.71207666015625,0.7267230749130249,0.534235954284668,-0.03336620330810547
1789038132228076500,5.72207666015625,0.7923147678375244,0.5018501281738281,-0.2159879207611084
1789038132238076700,5.73207666015625,0.7564436793327332,0.4702730178833008,-0.0725698471069336
1789038132248076500,5.74207666015625,0.6591719388961792,0.5036420822143555,-0.14579319953918457
1789038132258076700,5.75207666015625,0.4915616512298584,0.44917869567871094,-0.05950164794921875
1789038132268076500,5.76207666015625,0.39391064643859863,0.36733245849609375,0.003570556640625
1789038132278076700,5.77207666015625,0.40639257431030273,0.3338050842285156,0.11994552612304688
1789038132288076500,5.78207666015625,0.3194531202316284,0.3856229782104492,0.18094420433044434
1789038132298076700,5.79207666015625,0.26406848430633545,0.381378173828125,0.2861185073852539
1789038132308076500,5.80207666015625,0.1502993106842041,0.37482547760009766,0.34294891357421875
1789038132318076700,5.81207666015625,0.09000492095947266,0.36972808837890625,0.588651180267334
1789038132328076500,5.82207666015625,-0.016979336738586426,0.31507301330566406,0.6746511459350586
1789038132338076700,5.83207666015625,-0.20565664768218994,0.14400577545166016,0.7205936908721924
1789038132348076500,5.84207666015625,-0.4155759811401367,-0.06638145446777344,0.6304824352264404
1789038132358076700,5.85207666015625,-0.4572916030883789,-0.2149505615234375,0.9301581382751465
1789038132368076500,5.86207666015625,-0.5170236825942993,-0.2543048858642578,1.079714298248291
1789038132378076700,5.87207666015625,-0.705010175704956,-0.22580432891845703,1.0087707042694092
1789038132388076500,5.88207666015625,-0.9611251354217529,-0.22799015045166016,1.3254411220550537
1789038132398076700,5.89207666015625,-1.1811940670013428,-0.2581453323364258,1.2871382236480713
1789038132408076500,5.90207666015625,-1.4540157318115234,-0.26686668395996094,1.3886747360229492
1789038132418076700,5.91207666015625,-1.621101975440979,-0.440521240234375,1.735091209411621
1789038132428076500,5.92207666015625,-1.8857200145721436,-0.5853796005249023,1.9738707542419434
1789038132438076700,5.93207666015625,-2.2080774307250977,-0.6642904281616211,1.8823702335357666
1789038132448076500,5.94207666015625,-2.5138332843780518,-0.7500953674316406,1.8954088687896729
1789038132458076700,5.95207666015625,-2.681915760040283,-0.7308692932128906,1.9244229793548584
1789038132468076500,5.96207666015625,-2.8480441570281982,-0.5787467956542969,1.9559602737426758
1789038132478076700,5.97207666015625,-2.909330368041992,-0.4289283752441406,2.030379295349121
1789038132488076500,5.98207666015625,-2.8369431495666504,-0.25782203674316406,2.011782646179199
1789038132498076700,5.99207666015625,-2.804452419281006,-0.19808673858642578,2.0012283325195312
1789038132508076500,6.00207666015625,-2.7765519618988037,-0.2240276336669922,2.0084691047668457
1789038132518076700,6.01207666015625,-2.6546547412872314,-0.5228633880615234,2.2373886108398438
1789038132528076500,6.02207666015625,-2.1808786392211914,-0.6569309234619141,2.107780933380127
1789038132538076700,6.03207666015625,-1.6773219108581543,-0.7419118881225586,2.048523426055908
1789038132548076500,6.04207666015625,-1.213878870010376,-0.8782539367675781,1.4379615783691406
1789038132558076700,6.05207666015625,-0.7896888256072998,-1.0313358306884766,1.6881136894226074
1789038132568076500,6.06207666015625,-0.3448317050933838,-1.0728607177734375,1.7006888389587402
1789038132578076700,6.07207666015625,0.21344614028930664,-0.8173551559448242,1.6670246124267578
1789038132588076500,6.08207666015625,0.9788472652435303,-0.4288644790649414,1.7968883514404297
1789038132598076700,6.09207666015625,1.9539095163345337,0.08270740509033203,1.440138816833496
1789038132608076500,6.10207666015625,2.3616247177124023,0.046905517578125,1.0069785118103027
1789038132618076700,6.11207666015625,2.6863129138946533,0.1293048858642578,1.0314183235168457
1789038132628076500,6.12207666015625,2.394061326980591,0.08595085144042969,1.2965278625488281
1789038132638076700,6.13207666015625,1.4349486827850342,-0.34618473052978516,1.427076816558838
1789038132648076500,6.14207666015625,0.35504579544067383,-0.6724672317504883,1.4666938781738281
1789038132658076700,6.15207666015625,-0.2716836929321289,-0.7916321754455566,1.1103096008300781
1789038132668076500,6.16207666015625,-0.49195408821105957,-0.8971524238586426,0.8502206802368164
1789038132678076700,6.17207666015625,-0.4727647304534912,-0.9187507629394531,0.5093889236450195
1789038132688076500,6.18207666015625,-0.48105764389038086,-0.8713788986206055,0.4799675941467285
1789038132698076700,6.19207666015625,-0.46616530418395996,-0.9073138236999512,0.6610593795776367
1789038132708076500,6.20207666015625,-0.6391181945800781,-0.8655366897583008,0.8574981689453125
1789038132718076700,6.21207666015625,-0.6892976760864258,-0.9837398529052734,0.8692836761474609
1789038132728076500,6.22207666015625,0.09090566635131836,-0.7209277153015137,0.7910423278808594
1789038132738076700,6.23207666015625,0.9081966876983643,-0.5300760269165039,0.047342777252197266
1789038132748076500,6.24207666015625,0.7135636806488037,-0.6736588478088379,-0.43164682388305664
1789038132758076700,6.25207666015625,0.48941993713378906,-1.0204901695251465,-0.677607536315918
1789038132768076500,6.26207666015625,0.5275318622589111,-1.3057451248168945,-0.7614479064941406
1789038132778076700,6.27207666015625,0.7046518325805664,-1.4090194702148438,-0.08976364135742188
1789038132788076500,6.28207666015625,0.9343030452728271,-1.3174266815185547,-0.023922443389892578
1789038132798076700,6.29207666015625,0.8918728828430176,-1.443709373474121,0.15584182739257812
1789038132808076500,6.30207666015625,0.838263988494873,-1.3844952583312988,-0.6500439643859863
1789038132818076700,6.31207666015625,0.4477105140686035,-1.2062129974365234,-1.5448894500732422
1789038132828076500,6.32207666015625,0.5409822463989258,-1.4811272621154785,-0.6549563407897949
1789038132838076700,6.33207666015625,0.941770076751709,-1.7943382263183594,0.3727898597717285
1789038132848076500,6.34207666015625,1.2483787536621094,-1.894134521484375,0.5986185073852539
1789038132858076700,6.35207666015625,1.3760089874267578,-1.6711087226867676,-0.4260406494140625
1789038132868076500,6.36207666015625,1.6842164993286133,-0.979672908782959,-1.5079936981201172
1789038132878076700,6.37207666015625,1.1543893814086914,-0.30750250816345215,-2.070486545562744
1789038132888076500,6.38207666015625,0.43717241287231445,0.45246195793151855,-2.0685887336730957
1789038132898076700,6.39207666015625,0.3857865333557129,1.056886911392212,-2.079329490661621
1789038132908076500,6.40207666015625,0.7397751808166504,1.4501705169677734,-1.925520420074463
1789038132918076700,6.41207666015625,0.9641685485839844,1.6397784948349,-2.5868520736694336
1789038132928076500,6.42207666015625,0.9630928039550781,1.8264758586883545,-2.9928336143493652
1789038132938076700,6.43207666015625,1.265958309173584,1.9841036796569824,-3.561063289642334
1789038132948076500,6.44207666015625,1.2282238006591797,2.0663328170776367,-3.732008457183838
1789038132958076700,6.45207666015625,1.0311918258666992,1.9571027755737305,-3.422135353088379
1789038132968076500,6.46207666015625,0.7453899383544922,1.7753098011016846,-3.254791259765625
1789038132978076700,6.47207666015625,0.4273390769958496,1.629828929901123,-1.6994519233703613
1789038132988076500,6.48207666015625,0.5618400573730469,1.2916152477264404,-1.5734577178955078
1789038132998076700,6.49207666015625,1.2067508697509766,1.1815173625946045,-1.0111913681030273
1789038133008076500,6.50207666015625,1.2342219352722168,0.6483749151229858,-0.6872820854187012
1789038133018076700,6.51207666015625,0.951683521270752,0.0005724430084228516,-1.3102812767028809
1789038133028076500,6.52207666015625,0.5057721138000488,-0.2013561725616455,-0.9608626365661621
1789038133038076700,6.53207666015625,0.13014602661132812,-0.03706932067871094,-0.5344982147216797
1789038133048076500,6.54207666015625,0.14175891876220703,0.12761998176574707,-0.3310885429382324
1789038133058076700,6.55207666015625,-0.007393360137939453,0.3466966152191162,-0.14303159713745117
1789038133068076500,6.56207666015625,-0.48459625244140625,0.4854656457901001,-0.24758005142211914
1789038133078076700,6.57207666015625,-0.954289436340332,0.7620285749435425,0.35967206954956055
1789038133088076500,6.58207666015625,-1.8664627075195312,0.953122615814209,1.2390241622924805
1789038133098076700,6.59207666015625,-2.4591288566589355,0.5450470447540283,3.3222970962524414
1789038133108076500,6.60207666015625,-0.9466891288757324,-0.41037750244140625,5.395596027374268
1789038133118076700,6.61207666015625,-0.5187854766845703,-0.9745550155639648,5.359615802764893
1789038133128076500,6.62207666015625,-1.636031150817871,-0.6494350433349609,3.299875259399414
1789038133138076700,6.63207666015625,-1.6091609001159668,0.17042851448059082,2.3833770751953125
1789038133148076500,6.64207666015625,-0.5581364631652832,0.6682310104370117,0.8346023559570312
1789038133158076700,6.65207666015625,0.5270395278930664,0.7454216480255127,-1.1124444007873535
1789038133168076500,6.66207666015625,0.8779087066650391,0.276913046836853,-2.6863884925842285
1789038133178076700,6.67207666015625,1.1442317962646484,-0.21306312084197998,-3.5619616508483887
1789038133188076500,6.68207666015625,1.4599599838256836,-0.38445091247558594,-3.8627586364746094
1789038133198076700,6.69207666015625,1.742082118988037,-0.2749466896057129,-4.022675514221191
1789038133208076500,6.70207666015625,1.558354377746582,-0.033095359802246094,-3.6665000915527344
1789038133218076700,6.71207666015625,0.9462590217590332,0.2732731103897095,-2.3314208984375
1789038133228076500,6.72207666015625,0.39714527130126953,0.28141772747039795,-1.0124225616455078
1789038133238076700,6.73207666015625,0.2803220748901367,0.2085496187210083,-0.047888755798339844
1789038133248076500,6.74207666015625,0.8146934509277344,-0.29714977741241455,0.09390878677368164
1789038133258076700,6.75207666015625,1.0900616645812988,-0.7715221643447876,0.4312753677368164
1789038133268076500,6.76207666015625,0.9236388206481934,-0.9788373708724976,1.0390381813049316
1789038133278076700,6.77207666015625,0.6311626434326172,-1.0482292175292969,1.4818878173828125
1789038133288076500,6.78207666015625,0.12607622146606445,-0.9016083478927612,1.7318224906921387
1789038133298076700,6.79207666015625,-0.4048027992248535,-0.7847782373428345,1.5576329231262207
1789038133308076500,6.80207666015625,-0.6503000259399414,-0.7900547385215759,0.8736305236816406
1789038133318076700,6.81207666015625,-0.8014240264892578,-0.8680620193481445,-0.7071905136108398
1789038133328076500,6.82207666015625,-0.6590733528137207,-0.678459107875824,-1.6551570892333984
1789038133338076700,6.83207666015625,-0.386322021484375,-0.4061044454574585,-2.1497302055358887
1789038133348076500,6.84207666015625,-0.3312044143676758,-0.4697091579437256,-1.8571033477783203
1789038133358076700,6.85207666015625,-0.2207489013671875,-0.9713978171348572,-1.5701537132263184
1789038133368076500,6.86207666015625,-0.3562302589416504,-1.4075011014938354,-0.3920469284057617
1789038133378076700,6.87207666015625,-0.09070825576782227,-1.8342759609222412,0.10454177856445312
1789038133388076500,6.88207666015625,0.7528290748596191,-1.8610807657241821,0.3500814437866211
1789038133398076700,6.89207666015625,1.6522517204284668,-1.1896250247955322,-0.25026941299438477
1789038133408076500,6.90207666015625,2.0515990257263184,-0.12170440703630447,0.6053142547607422
1789038133418076700,6.91207666015625,1.7224602699279785,0.7281798124313354,0.9404721260070801
1789038133428076500,6.92207666015625,0.9628415107727051,0.9708055853843689,-0.17861604690551758
1789038133438076700,6.93207666015625,0.5343084335327148,0.8362411260604858,-1.5981736183166504
1789038133448076500,6.94207666015625,0.29401445388793945,0.36445388197898865,-2.6503334045410156
1789038133458076700,6.95207666015625,1.0066218376159668,0.01563018560409546,-2.478452205657959
1789038133468076500,6.96207666015625,0.9725241661071777,0.043021559715270996,-2.0359325408935547
1789038133478076700,6.97207666015625,0.32245540618896484,-0.11737531423568726,-1.0543556213378906
1789038133488076500,6.98207666015625,0.1761608123779297,-0.1437475085258484,0.06083965301513672
1789038133498076700,6.99207666015625,0.3939237594604492,-0.3592127561569214,0.09066629409790039
1789038133508076500,7.00207666015625,0.6718063354492188,-0.11692136526107788,0.40934228897094727
1789038133518076700,7.01207666015625,0.5721144676208496,0.41485053300857544,0.4360237121582031
1789038133528076500,7.02207666015625,0.11661434173583984,0.4195094704627991,0.3223586082458496
1789038133538076700,7.03207666015625,-0.04493379592895508,0.0041158199310302734,0.13879919052124023
1789038133548076500,7.04207666015625,-0.12695932388305664,-0.42730772495269775,0.04244804382324219
1789038133558076700,7.05207666015625,-0.055909156799316406,-0.6863340735435486,0.027738094329833984
1789038133568076500,7.06207666015625,0.07153511047363281,-0.7201565504074097,0.11127138137817383
1789038133578076700,7.07207666015625,-0.00830221176147461,-0.771349310874939,0.36249494552612305
1789038133588076500,7.08207666015625,0.0005769729614257812,-0.8661782145500183,0.5024819374084473
1789038133598076700,7.09207666015625,0.39313268661499023,-0.9142126441001892,0.37285280227661133
1789038133608076500,7.10207666015625,0.8185968399047852,-0.458919882774353,0.27321767807006836
1789038133618076700,7.11207666015625,0.8786807060241699,0.035633862018585205,0.3792128562927246
1789038133628076500,7.12207666015625,0.7994532585144043,-0.11871713399887085,0.08819198608398438
1789038133638076700,7.13207666015625,1.2085003852844238,-0.6305398941040039,-0.7640590667724609
1789038133648076500,7.14207666015625,1.9000401496887207,-0.3138659596443176,-1.4031486511230469
1789038133658076700,7.15207666015625,2.6668457984924316,0.9656634330749512,-1.9478154182434082
1789038133668076500,7.16207666015625,3.139822006225586,1.4465150833129883,-1.654721736907959
1789038133678076700,7.17207666015625,3.1237165927886963,1.3775665760040283,-1.6520428657531738
1789038133688076500,7.18207666015625,2.9459047317504883,0.8683412075042725,-2.3151817321777344
1789038133698076700,7.19207666015625,2.2109622955322266,0.3529956340789795,-2.1807732582092285
1789038133708076500,7.20207666015625,0.7708020210266113,-0.15484213829040527,-1.7563047409057617
1789038133718076700,7.21207666015625,-0.8764309883117676,0.19524109363555908,1.274266242980957
1789038133728076500,7.22207666015625,-2.312866687774658,0.190790057182312,3.923140525817871
1789038133738076700,7.23207666015625,-3.9871859550476074,-1.5599141120910645,4.484799861907959
1789038133748076500,7.24207666015625,-2.302894115447998,-2.885104179382324,2.9988393783569336
1789038133758076700,7.25207666015625,-1.2621378898620605,-2.7105512619018555,2.81906795501709
1789038133768076500,7.26207666015625,-1.3413457870483398,-2.681748390197754,4.746036052703857
1789038133778076700,7.27207666015625,-0.33408403396606445,-1.3509207963943481,4.909268379211426
1789038133788076500,7.28207666015625,1.2151079177856445,1.601210117340088,2.0779595375061035
1789038133798076700,7.29207666015625,0.664741039276123,3.018510103225708,-0.540245532989502
1789038133808076500,7.30207666015625,0.2937932014465332,1.3589987754821777,-2.1816201210021973
1789038133818076700,7.31207666015625,0.49479198455810547,0.44470489025115967,-3.4569287300109863
1789038133828076500,7.32207666015625,0.9469280242919922,-0.25721824169158936,-3.553215503692627
1789038133838076700,7.33207666015625,1.780167579650879,-0.7709053754806519,-2.5942201614379883
1789038133848076500,7.34207666015625,1.5164365768432617,-1.1444979906082153,-1.6499366760253906
1789038133858076700,7.35207666015625,-0.22027063369750977,-1.183996319770813,-0.42710065841674805
1789038133868076500,7.36207666015625,-0.6195254325866699,-0.7336404323577881,1.009077548980713
1789038133878076700,7.37207666015625,0.1546459197998047,0.05662912130355835,0.8999552726745605
1789038133888076500,7.38207666015625,0.21586847305297852,0.15030968189239502,0.28647422790527344
1789038133898076700,7.39207666015625,-0.0128173828125,-0.16077464818954468,0.08153629302978516
1789038133908076500,7.40207666015625,-0.023700714111328125,-0.594525158405304,-0.27412986755371094
1789038133918076700,7.41207666015625,0.3686561584472656,-0.6285061240196228,-0.4326634407043457
1789038133928076500,7.42207666015625,0.2984766960144043,-0.4192507565021515,-0.3509635925292969
1789038133938076700,7.43207666015625,0.6109542846679688,-0.1742023229598999,-0.3024559020996094
1789038133948076500,7.44207666015625,1.234898567199707,0.166251540184021,-0.2992095947265625
1789038133958076700,7.45207666015625,1.048325538635254,0.30906978249549866,-0.1943955421447754
1789038133968076500,7.46207666015625,1.1125068664550781,0.3858095109462738,-0.14052629470825195
1789038133978076700,7.47207666015625,0.516657829284668,0.4672155976295471,-0.13272333145141602
1789038133988076500,7.48207666015625,0.029437541961669922,0.45875221490859985,-0.18284940719604492
1789038133998076700,7.49207666015625,-0.06592273712158203,0.4295884966850281,0.025676727294921875
1789038134008076500,7.50207666015625,-0.24646854400634766,0.35785797238349915,0.21503686904907227
1789038134018076700,7.51207666015625,0.32361745834350586,0.21398261189460754,0.4758114814758301
1789038134028076500,7.52207666015625,0.4544801712036133,0.022234946489334106,0.14906692504882812
1789038134038076700,7.53207666015625,0.7943978309631348,-0.1401371955871582,-0.17715215682983398
1789038134048076500,7.54207666015625,0.5367422103881836,-0.23175017535686493,-0.7130684852600098
1789038134058076700,7.55207666015625,0.2350616455078125,-0.20818433165550232,-0.7899174690246582
1789038134068076500,7.56207666015625,0.40920495986938477,-0.14915934205055237,-0.43491649627685547
1789038134078076700,7.57207666015625,0.833437442779541,-0.14758414030075073,-0.3157005310058594
1789038134088076500,7.58207666015625,0.6044168472290039,-0.21809804439544678,-0.3665752410888672
1789038134098076700,7.59207666015625,0.4695711135864258,-0.20951029658317566,-0.33871984481811523
1789038134108076500,7.60207666015625,0.3916134834289551,-0.13385418057441711,-0.18892145156860352
1789038134118076700,7.61207666015625,0.4680790901184082,0.04167052358388901,-0.14316511154174805
1789038134128076500,7.62207666015625,0.43938589096069336,0.19071194529533386,-0.1123647689819336
1789038134138076700,7.63207666015625,0.48983240127563477,0.4413816034793854,-0.06166267395019531
1789038134148076500,7.64207666015625,0.42986059188842773,0.47531747817993164,-0.0752248764038086
1789038134158076700,7.65207666015625,0.5393209457397461,0.5172051787376404,-0.43982934951782227
1789038134168076500,7.66207666015625,0.3660593032836914,0.4770965576171875,-0.4715847969055176
1789038134178076700,7.67207666015625,0.26334142684936523,0.4648050367832184,-0.4969668388366699
1789038134188076500,7.68207666015625,0.2239670753479004,0.45823562145233154,-0.5941104888916016
1789038134198076700,7.69207666015625,-0.007906436920166016,0.5171183347702026,-0.5241508483886719
1789038134208076500,7.70207666015625,0.0011401176452636719,0.5083658695220947,-0.4545612335205078
1789038134218076700,7.71207666015625,0.03656005859375,0.3164076507091522,-0.3484935760498047
1789038134228076500,7.72207666015625,-0.09744119644165039,0.3002648949623108,-0.5832090377807617
1789038134238076700,7.73207666015625,-0.09183502197265625,0.3133247494697571,-0.41037607192993164
1789038134248076500,7.74207666015625,0.05424976348876953,0.794528603553772,-0.9397735595703125
1789038134258076700,7.75207666015625,-0.45743370056152344,1.0395331382751465,-0.7170825004577637
1789038134268076500,7.76207666015625,-0.249114990234375,1.1036025285720825,-0.4471397399902344
1789038134278076700,7.77207666015625,-0.5188155174255371,1.0896457433700562,-0.2103099822998047
1789038134288076500,7.78207666015625,-0.32770490646362305,0.9731788635253906,-0.08007526397705078
1789038134298076700,7.79207666015625,0.26892614364624023,0.7936173677444458,-0.28060150146484375
1789038134308076500,7.80207666015625,0.05197954177856445,0.9116786122322083,-0.25518321990966797
1789038134318076700,7.81207666015625,0.00154876708984375,0.7330158948898315,-0.2777128219604492
1789038134328076500,7.82207666015625,0.17355012893676758,0.35236406326293945,-0.029628753662109375
1789038134338076700,7.83207666015625,0.5010948181152344,0.07001495361328125,0.05759716033935547
1789038134348076500,7.84207666015625,0.11209249496459961,-0.13016080856323242,-0.031615257263183594
1789038134358076700,7.85207666015625,-0.29478931427001953,-0.18281519412994385,-0.226776123046875
1789038134368076500,7.86207666015625,-0.21781158447265625,-0.11203694343566895,-0.4407196044921875
1789038134378076700,7.87207666015625,-0.3545875549316406,0.027541637420654297,-0.47544193267822266
1789038134388076500,7.88207666015625,-0.7419595718383789,0.1585843563079834,-0.42801380157470703
1789038134398076700,7.89207666015625,-0.3203914165496826,0.3381991386413574,-0.5638141632080078
1789038134408076500,7.90207666015625,-0.3374338150024414,0.47553086280822754,-0.5204639434814453
1789038134418076700,7.91207666015625,-1.1064462661743164,0.29812419414520264,0.023316383361816406
1789038134428076500,7.92207666015625,-1.6260361671447754,-0.35505056381225586,0.35405445098876953
1789038134438076700,7.93207666015625,-1.0331907272338867,-0.6706418991088867,0.5569868087768555
1789038134448076500,7.94207666015625,-0.9265139102935791,-0.5263681411743164,0.4407358169555664
1789038134458076700,7.95207666015625,-0.9081599712371826,-0.2401747703552246,0.12603282928466797
1789038134468076500,7.96207666015625,-0.5868587493896484,-0.1330958604812622,-0.1836719512939453
1789038134478076700,7.97207666015625,-0.838146448135376,-0.05388200283050537,-0.5347805023193359
1789038134488076500,7.98207666015625,-0.10857987403869629,0.020371198654174805,-0.40130138397216797
1789038134498076700,7.99207666015625,-0.284759521484375,0.27241015434265137,-0.5249109268188477
1789038134508076500,8.00207666015625,-0.288616418838501,0.6832878589630127,-0.6739587783813477
1789038134518076700,8.01207666015625,-0.4096965789794922,0.9853019714355469,-0.40754032135009766
1789038134528076500,8.02207666015625,-0.41011667251586914,0.7746584415435791,0.49250030517578125
1789038134538076700,8.03207666015625,0.032566070556640625,0.5188990831375122,1.109400749206543
1789038134548076500,8.04207666015625,-0.023424148559570312,0.3609433174133301,1.107508659362793
1789038134558076700,8.05207666015625,-0.12006402015686035,0.15945935249328613,0.7720174789428711
1789038134568076500,8.06207666015625,-0.14218544960021973,0.057420969009399414,0.3348360061645508
1789038134578076700,8.07207666015625,-0.13418173789978027,-0.07391071319580078,0.01984119415283203
1789038134588076500,8.08207666015625,-0.558732271194458,-0.2623710632324219,-0.14037322998046875
1789038134598076700,8.09207666015625,-1.4040477275848389,-0.5245883464813232,0.04969501495361328
1789038134608076500,8.10207666015625,-1.0201547145843506,-0.6348462104797363,0.06161975860595703
1789038134618076700,8.11207666015625,-2.1189334392547607,-1.1329011917114258,-0.17086410522460938
1789038134628076500,8.12207666015625,-0.20537281036376953,-1.4751548767089844,0.14999961853027344
1789038134638076700,8.13207666015625,1.5500751733779907,-1.365354061126709,0.6929073333740234
1789038134648076500,8.14207666015625,-0.24673223495483398,-0.8331894874572754,0.48725128173828125
1789038134658076700,8.15207666015625,-1.3841869831085205,-0.2747814655303955,0.3517160415649414
1789038134668076500,8.16207666015625,-0.9753279685974121,-0.051966190338134766,-0.12447738647460938
1789038134678076700,8.17207666015625,-0.5149297714233398,0.18544864654541016,-1.1015262603759766
1789038134688076500,8.18207666015625,0.6131056547164917,0.7108333110809326,-1.3454670906066895
1789038134698076700,8.19207666015625,1.147674560546875,1.1813619136810303,-1.756230354309082
1789038134708076500,8.20207666015625,0.8817657232284546,1.5496101379394531,-2.5122313499450684
1789038134718076700,8.21207666015625,-0.0013086795806884766,1.7762718200683594,-2.3228673934936523
1789038134728076500,8.22207666015625,-0.5383236408233643,1.7208895683288574,-1.2847871780395508
1789038134738076700,8.23207666015625,-0.2765805721282959,1.2433192729949951,-0.27468109130859375
1789038134748076500,8.24207666015625,0.05822873115539551,0.7984743118286133,0.6534404754638672
1789038134758076700,8.25207666015625,-0.19050920009613037,0.646268367767334,1.0985689163208008
1789038134768076500,8.26207666015625,-0.5231966972351074,0.6423306465148926,1.052567481994629
1789038134778076700,8.27207666015625,-0.6992191076278687,0.3161606788635254,1.3780088424682617
1789038134788076500,8.28207666015625,-0.8241698741912842,-0.22254657745361328,2.1804885864257812
1789038134798076700,8.29207666015625,-0.7406624555587769,-0.7208695411682129,2.5478782653808594
1789038134808076500,8.30207666015625,-0.6847971677780151,-1.0042719841003418,2.5447187423706055
1789038134818076700,8.31207666015625,-0.7558547258377075,-1.035900592803955,1.5789356231689453
1789038134828076500,8.32207666015625,-0.7507927417755127,-0.754061222076416,0.6497926712036133
1789038134838076700,8.33207666015625,-1.144714117050171,-0.35539770126342773,0.25755786895751953
1789038134848076500,8.34207666015625,-1.4664256572723389,0.023844242095947266,0.45925140380859375
1789038134858076700,8.35207666015625,-1.1286259889602661,0.1714344024658203,0.7722654342651367
1789038134868076500,8.36207666015625,-0.7666760683059692,0.19917774200439453,0.7195034027099609
1789038134878076700,8.37207666015625,-0.5659788846969604,0.25366640090942383,0.6836585998535156
1789038134888076500,8.38207666015625,-0.4950566291809082,0.32582569122314453,0.8941860198974609
1789038134898076700,8.39207666015625,-0.4963644742965698,0.5420660972595215,0.8973388671875
1789038134908076500,8.40207666015625,-0.34792351722717285,0.7309818267822266,0.5357627868652344
1789038134918076700,8.41207666015625,0.3350100517272949,0.7603664398193359,0.3242225646972656
1789038134928076500,8.42207666015625,0.8406132459640503,0.5468587875366211,-0.04077434539794922
1789038134938076700,8.43207666015625,0.5025007724761963,0.07808685302734375,-0.37393665313720703
1789038134948076500,8.44207666015625,0.8478124141693115,-0.2879018783569336,-0.055434226989746094
1789038134958076700,8.45207666015625,1.2703520059585571,-0.5556912422180176,0.33454322814941406
1789038134968076500,8.46207666015625,-0.0616755485534668,-0.8528633117675781,0.6291294097900391
1789038134978076700,8.47207666015625,-1.7166647911071777,-1.307851791381836,0.7390708923339844
1789038134988076500,8.48207666015625,-0.888314962387085,-1.807548999786377,0.649144172668457
1789038134998076700,8.49207666015625,0.8907210826873779,-2.328367233276367,0.9825096130371094
1789038135008076500,8.50207666015625,1.7717777490615845,-2.5128064155578613,0.8559722900390625
1789038135018076700,8.51207666015625,2.1148722171783447,-2.211315631866455,0.4351644515991211
1789038135028076500,8.52207666015625,1.6799806356430054,-1.8005013465881348,-0.4672360420227051
1789038135038076700,8.53207666015625,0.9428591728210449,-1.6239466667175293,-0.8589162826538086
1789038135048076500,8.54207666015625,0.5820720195770264,-1.511643409729004,-0.24438190460205078
1789038135058076700,8.55207666015625,0.6943576335906982,-1.3853650093078613,0.9378566741943359
1789038135068076500,8.56207666015625,0.7493288516998291,-1.0049934387207031,1.3028316497802734
1789038135078076700,8.57207666015625,0.6709330081939697,-0.44321155548095703,0.14604759216308594
1789038135088076500,8.58207666015625,0.7099415063858032,-0.19401025772094727,-0.3880491256713867
1789038135098076700,8.59207666015625,0.8185124397277832,-0.3402695655822754,-0.44214820861816406
1789038135108076500,8.60207666015625,0.5343776941299438,-0.6518454551696777,-0.32387447357177734
1789038135118076700,8.61207666015625,0.1568291187286377,-0.6866292953491211,-0.2672843933105469
1789038135128076500,8.62207666015625,-0.24929237365722656,-0.5299363136291504,-0.41954708099365234
1789038135138076700,8.63207666015625,-0.3826560974121094,-0.3915286064147949,-0.5288300514221191
1789038135148076500,8.64207666015625,-0.4197406768798828,-0.30309200286865234,-0.4385700225830078
1789038135158076700,8.65207666015625,-0.3762834072113037,-0.21542692184448242,-0.3710174560546875
1789038135168076500,8.66207666015625,-0.31269145011901855,0.006312370300292969,-0.3626108169555664
1789038135178076700,8.67207666015625,-0.2222135066986084,0.3063168525695801,-0.4258747100830078
1789038135188076500,8.68207666015625,-0.1592543125152588,0.5952038764953613,-0.4845247268676758
1789038135198076700,8.69207666015625,-0.10308980941772461,0.7201509475708008,-0.39353036880493164
1789038135208076500,8.70207666015625,-0.022854328155517578,0.6402378082275391,-0.34145164489746094
1789038135218076700,8.71207666015625,0.1456294059753418,0.4252934455871582,-0.2623882293701172
1789038135228076500,8.72207666015625,0.37432408332824707,0.15862035751342773,-0.19861125946044922
1789038135238076700,8.73207666015625,0.3021082878112793,-0.07259416580200195,-0.023679733276367188
1789038135248076500,8.74207666015625,-0.0817556381225586,-0.19916534423828125,0.3325815200805664
1789038135258076700,8.75207666015625,-0.533421516418457,-0.1993846893310547,0.54278564453125
1789038135268076500,8.76207666015625,-0.6222047805786133,-0.06932258605957031,0.5670299530029297
1789038135278076700,8.77207666015625,-0.3318488597869873,0.11092662811279297,0.5579328536987305
1789038135288076500,8.78207666015625,0.25749754905700684,0.2647733688354492,0.5379772186279297
1789038135298076700,8.79207666015625,0.6291611194610596,0.292574405670166,0.5038490295410156
1789038135308076500,8.80207666015625,0.6985743045806885,0.10029125213623047,0.7010812759399414
1789038135318076700,8.81207666015625,0.4524662494659424,-0.17772245407104492,0.9387722015380859
1789038135328076500,8.82207666015625,0.11456775665283203,-0.3666095733642578,0.9676837921142578
1789038135338076700,8.83207666015625,-0.23444795608520508,-0.48476314544677734,0.7246770858764648
1789038135348076500,8.84207666015625,-0.0748600959777832,-0.4943971633911133,0.6219682693481445
1789038135358076700,8.85207666015625,0.3571045398712158,-0.3465428352355957,0.7478408813476562
1789038135368076500,8.86207666015625,0.5403802394866943,-0.19653987884521484,1.0848007202148438
1789038135378076700,8.87207666015625,0.5874404907226562,-0.13728833198547363,1.3486061096191406
1789038135388076500,8.88207666015625,0.5895676612854004,-0.05377054214477539,1.075819969177246
1789038135398076700,8.89207666015625,0.5810120105743408,0.12250804901123047,0.8954010009765625
1789038135408076500,8.90207666015625,0.5484988689422607,0.27480268478393555,0.6055526733398438
1789038135418076700,8.91207666015625,0.3883330821990967,0.4388771057128906,0.3512887954711914
1789038135428076500,8.92207666015625,0.42927122116088867,0.6319117546081543,0.09853363037109375
1789038135438076700,8.93207666015625,0.600949764251709,0.7556934356689453,-0.10827159881591797
1789038135448076500,8.94207666015625,0.567579984664917,0.8849308490753174,-0.0666952133178711
1789038135458076700,8.95207666015625,0.41658496856689453,0.9329400062561035,-0.13892555236816406
1789038135468076500,8.96207666015625,0.42830514907836914,0.9012289047241211,-0.32967376708984375
1789038135478076700,8.97207666015625,0.2749063968658447,0.8557918071746826,-0.39007568359375
1789038135488076500,8.98207666015625,0.1290433406829834,0.7521576881408691,-0.8014469146728516
1789038135498076700,8.99207666015625,-0.11916732788085938,0.6274206638336182,-1.0351953506469727
1789038135508076500,9.00207666015625,-0.33759450912475586,0.3490333557128906,-0.8663139343261719
1789038135518076700,9.01207666015625,-0.579230546951294,-0.006762504577636719,-0.32086849212646484
1789038135528076500,9.02207666015625,-0.5081028938293457,-0.18059706687927246,0.12702369689941406
1789038135538076700,9.03207666015625,-0.3119330406188965,-0.32859039306640625,0.26364994049072266
1789038135548076500,9.04207666015625,-0.1851491928100586,-0.293590784072876,0.08662700653076172
1789038135558076700,9.05207666015625,-0.08631205558776855,-0.05103611946105957,0.037200927734375
1789038135568076500,9.06207666015625,-0.312640905380249,0.21250176429748535,-0.042382240295410156
1789038135578076700,9.07207666015625,-0.5847768783569336,0.4451720714569092,0.16675758361816406
1789038135588076500,9.08207666015625,-0.6317312717437744,0.6424038410186768,0.5181751251220703
1789038135598076700,9.09207666015625,-0.4742715358734131,0.7118703126907349,0.8404436111450195
1789038135608076500,9.10207666015625,-0.3184511661529541,0.7219880819320679,1.8143634796142578
1789038135618076700,9.11207666015625,-0.12495255470275879,0.5471534729003906,2.205718994140625
1789038135628076500,9.12207666015625,0.17426848411560059,0.2596402168273926,2.0134687423706055
1789038135638076700,9.13207666015625,0.26086974143981934,-0.20108461380004883,1.5167016983032227
1789038135648076500,9.14207666015625,0.04922366142272949,-0.6961983442306519,0.7546625137329102
1789038135658076700,9.15207666015625,-0.20302915573120117,-1.1059461832046509,0.3820676803588867
1789038135668076500,9.16207666015625,-0.21139121055603027,-1.2063319683074951,0.04810523986816406
1789038135678076700,9.17207666015625,-0.020328521728515625,-0.9679422378540039,-0.17785930633544922
1789038135688076500,9.18207666015625,0.1477959156036377,-0.5648869276046753,-0.27857398986816406
1789038135698076700,9.19207666015625,0.1800522804260254,-0.14648938179016113,-0.2683238983154297
1789038135708076500,9.20207666015625,-0.03895139694213867,0.09770739078521729,-0.19542312622070312
1789038135718076700,9.21207666015625,-0.2540874481201172,0.2002214789390564,-0.04419136047363281
1789038135728076500,9.22207666015625,-0.2840158939361572,0.21075618267059326,0.0747518539428711
1789038135738076700,9.23207666015625,-0.17052197456359863,0.19342094659805298,0.1299591064453125
1789038135748076500,9.24207666015625,0.06377530097961426,0.19973579049110413,0.031057357788085938
1789038135758076700,9.25207666015625,0.14052963256835938,0.12119285762310028,-0.44858741760253906
1789038135768076500,9.26207666015625,-0.21510553359985352,-0.2934841215610504,-0.8951454162597656
1789038135778076700,9.27207666015625,-0.03762340545654297,-0.43404093384742737,-0.36426258087158203
1789038135788076500,9.28207666015625,0.4889061450958252,-0.38780978322029114,-0.5043754577636719
1789038135798076700,9.29207666015625,0.7349543571472168,-0.4297129213809967,-0.7138671875
1789038135808076500,9.30207666015625,0.8231706619262695,-0.29293274879455566,-0.6871776580810547
1789038135818076700,9.31207666015625,0.5268034934997559,-0.08046337962150574,-0.5724821090698242
1789038135828076500,9.32207666015625,0.3516721725463867,0.10373091697692871,-0.8988237380981445
1789038135838076700,9.33207666015625,0.5411958694458008,0.10447460412979126,-1.013869285583496
1789038135848076500,9.34207666015625,0.6377134323120117,-0.043909668922424316,-0.7164483070373535
1789038135858076700,9.35207666015625,0.9040493965148926,-0.272558331489563,-0.6456537246704102
1789038135868076500,9.36207666015625,0.39004945755004883,-0.4852590560913086,-0.45743846893310547
1789038135878076700,9.37207666015625,0.2330012321472168,-0.5813846588134766,-0.6116037368774414
1789038135888076500,9.38207666015625,0.6949944496154785,-0.6450031995773315,-0.7657012939453125
1789038135898076700,9.39207666015625,0.6053357124328613,-0.5109051465988159,-0.5682806968688965
1789038135908076500,9.40207666015625,0.1648411750793457,-0.36213040351867676,0.011530876159667969
1789038135918076700,9.41207666015625,0.4251399040222168,-0.3956547975540161,0.0982503890991211
1789038135928076500,9.42207666015625,1.1412992477416992,-0.28428542613983154,0.31802940368652344
1789038135938076700,9.43207666015625,0.7817490100860596,-0.11454617977142334,0.18761825561523438
1789038135948076500,9.44207666015625,0.8134572505950928,0.005424380302429199,-0.19036102294921875
1789038135958076700,9.45207666015625,0.9556107521057129,-0.10704433917999268,-0.36604881286621094
1789038135968076500,9.46207666015625,0.8988981246948242,-0.42740321159362793,-0.8036003112792969
1789038135978076700,9.47207666015625,0.16887664794921875,-0.7571932077407837,-1.5975427627563477
1789038135988076500,9.48207666015625,-0.4102907180786133,-0.9185130000114441,-2.1025390625
1789038135998076700,9.49207666015625,-0.7663264274597168,-1.1918261051177979,-2.0965681076049805
1789038136008076500,9.50207666015625,-1.2462496757507324,-1.4862080812454224,-1.7398428916931152
1789038136018076700,9.51207666015625,-1.3771300315856934,-1.5892643928527832,-1.596792221069336
1789038136028076500,9.52207666015625,-0.6849508285522461,-1.4781501293182373,-0.6874127388000488
1789038136038076700,9.53207666015625,-0.2114882469177246,-1.3204907178878784,0.03466606140136719
1789038136048076500,9.54207666015625,-0.35633087158203125,-0.8222708702087402,0.46915435791015625
1789038136058076700,9.55207666015625,-0.6667485237121582,-0.6059696674346924,0.49033641815185547
1789038136068076500,9.56207666015625,-0.049170494079589844,-0.3877108097076416,0.11021232604980469
1789038136078076700,9.57207666015625,0.042932987213134766,-0.2979586124420166,-0.7901787757873535
1789038136088076500,9.58207666015625,-0.14412784576416016,-0.4196971654891968,-1.1785602569580078
1789038136098076700,9.59207666015625,-0.006324291229248047,-0.7187614440917969,-1.704479694366455
1789038136108076500,9.60207666015625,0.18128252029418945,-0.8567600250244141,-1.7719955444335938
1789038136118076700,9.61207666015625,-0.01020050048828125,-0.8159133195877075,-1.5961875915527344
1789038136128076500,9.62207666015625,-0.5800719261169434,-0.901057243347168,-1.552534580230713
1789038136138076700,9.63207666015625,-0.037134647369384766,-0.5964066982269287,-1.3032121658325195
1789038136148076500,9.64207666015625,-0.21952199935913086,-0.4661811590194702,-1.1199464797973633
1789038136158076700,9.65207666015625,-0.7178640365600586,-0.40749454498291016,-0.7061071395874023
1789038136168076500,9.66207666015625,-0.7223334312438965,-0.15641391277313232,-0.42783546447753906
1789038136178076700,9.67207666015625,-0.49190807342529297,-0.1269385814666748,-0.4285459518432617
1789038136188076500,9.68207666015625,-0.6394739151000977,-0.2948392629623413,-0.5598278045654297
1789038136198076700,9.69207666015625,-0.48628950119018555,-0.3442504405975342,-0.4056835174560547
1789038136208076500,9.70207666015625,-0.024605751037597656,-0.3029979467391968,-0.49852514266967773
1789038136218076700,9.71207666015625,0.6555089950561523,-0.25935256481170654,-0.5118064880371094
1789038136228076500,9.72207666015625,0.8392171859741211,-0.014719486236572266,-0.8554601669311523
1789038136238076700,9.73207666015625,1.0085196495056152,0.11081814765930176,-1.1822810173034668
1789038136248076500,9.74207666015625,0.7964799404144287,0.28964853286743164,-1.592634677886963
1789038136258076700,9.75207666015625,0.5155196189880371,0.5579445362091064,-1.6773481369018555
1789038136268076500,9.76207666015625,0.48096561431884766,0.8014506101608276,-1.7317428588867188
1789038136278076700,9.77207666015625,0.27860593795776367,0.9874178171157837,-1.5666165351867676
1789038136288076500,9.78207666015625,0.6365652084350586,1.048689603805542,-1.1613550186157227
1789038136298076700,9.79207666015625,0.507622241973877,1.0289690494537354,-0.8067879676818848
1789038136308076500,9.80207666015625,0.45246267318725586,0.954211950302124,-0.5495014190673828
1789038136318076700,9.81207666015625,0.6216294765472412,0.6630289554595947,-0.27524757385253906
1789038136328076500,9.82207666015625,0.27797842025756836,0.22492170333862305,-0.14117050170898438
1789038136338076700,9.83207666015625,0.6179230213165283,-0.1695076823234558,0.16811466217041016
1789038136348076500,9.84207666015625,0.759361982345581,-0.3349953889846802,0.1927938461303711
1789038136358076700,9.85207666015625,0.5805792808532715,-0.41398778557777405,0.18959522247314453
1789038136368076500,9.86207666015625,0.4242594242095947,-0.16729092597961426,0.11211967468261719
1789038136378076700,9.87207666015625,0.3177056312561035,0.032755374908447266,0.19453144073486328
1789038136388076500,9.88207666015625,0.04003787040710449,0.18152397871017456,-0.04734992980957031
1789038136398076700,9.89207666015625,0.0008208751678466797,0.39504730701446533,-0.3190450668334961
1789038136408076500,9.90207666015625,-0.15457606315612793,0.5021517276763916,-0.6542873382568359
1789038136418076700,9.91207666015625,-0.26821112632751465,0.6615110039710999,-0.9707736968994141
1789038136428076500,9.92207666015625,-0.0499873161315918,0.8180567622184753,-0.6341047286987305
1789038136438076700,9.93207666015625,0.07116365432739258,0.8278765678405762,-0.5596141815185547
1789038136448076500,9.94207666015625,-0.045918941497802734,0.6619244813919067,-0.15041732788085938
1789038136458076700,9.95207666015625,-0.00007081031799316406,0.3597126007080078,0.40891170501708984
1789038136468076500,9.96207666015625,-0.03321957588195801,0.16908949613571167,0.5846748352050781
1789038136478076700,9.97207666015625,-0.22793245315551758,-0.14448848366737366,0.7722463607788086
1789038136488076500,9.98207666015625,-0.20389318466186523,-0.15642386674880981,0.6287317276000977
1789038136498076700,9.99207666015625,-0.3455953598022461,-0.15486103296279907,0.6638040542602539
1789038136508076500,10.00207666015625,-0.25489044189453125,-0.19216406345367432,1.0534648895263672
1789038136518076700,10.01207666015625,-0.20637178421020508,-0.2759026288986206,0.8871746063232422
1789038136528076500,10.02207666015625,-0.05393815040588379,-0.29398614168167114,0.582301139831543
1789038136538076700,10.03207666015625,-0.2810206413269043,-0.22016406059265137,0.47196292877197266
1789038136548076500,10.04207666015625,-0.27605152130126953,-0.14108753204345703,0.45229053497314453
1789038136558076700,10.05207666015625,-0.08335661888122559,0.05362868309020996,-0.28334903717041016
1789038136568076500,10.06207666015625,-0.49419164657592773,0.19823694229125977,-0.9544677734375
1789038136578076700,10.07207666015625,-1.1414525508880615,0.4009515047073364,-1.7872700691223145
1789038136588076500,10.08207666015625,-1.0184741020202637,0.42563652992248535,-1.5028257369995117
1789038136598076700,10.09207666015625,-0.8571381568908691,0.2745044231414795,-1.266911506652832
1789038136608076500,10.10207666015625,-0.7874491214752197,-0.04957091808319092,-0.9288129806518555
1789038136618076700,10.11207666015625,-0.7392797470092773,-0.24032604694366455,-0.4754371643066406
1789038136628076500,10.12207666015625,-0.37921929359436035,-0.17686891555786133,-0.23193359375
1789038136638076700,10.13207666015625,-0.24731898307800293,-0.15066635608673096,-0.4482307434082031
1789038136648076500,10.14207666015625,-0.30573534965515137,-0.1425795555114746,-0.26553821563720703
1789038136658076700,10.15207666015625,-0.17006540298461914,-0.28319644927978516,0.2105255126953125
1789038136668076500,10.16207666015625,-0.13170194625854492,-0.09620881080627441,0.24026775360107422
1789038136678076700,10.17207666015625,-0.08000969886779785,-0.4043147563934326,0.7960710525512695
1789038136688076500,10.18207666015625,0.1154470443725586,-0.5919418334960938,1.0690040588378906
1789038136698076700,10.19207666015625,-0.06450295448303223,-0.9401211738586426,1.8803386688232422
1789038136708076500,10.20207666015625,-0.28281664848327637,-1.1478166580200195,1.9291658401489258
1789038136718076700,10.21207666015625,0.0732109546661377,-1.678779125213623,2.5106401443481445
1789038136728076500,10.22207666015625,1.0662050247192383,-1.2489795684814453,2.3978185653686523
1789038136738076700,10.23207666015625,0.302762508392334,-0.8317699432373047,1.2052412033081055
1789038136748076500,10.24207666015625,-0.44315457344055176,-0.30270981788635254,0.11205482482910156
1789038136758076700,10.25207666015625,-0.37630629539489746,0.033373355865478516,-0.05777740478515625
1789038136768076500,10.26207666015625,-0.2888600826263428,0.17158293724060059,-0.5443897247314453
1789038136778076700,10.27207666015625,-0.16997838020324707,0.10665082931518555,-0.0634756088256836
1789038136788076500,10.28207666015625,-0.25867557525634766,-0.023959875106811523,0.5756359100341797
1789038136798076700,10.29207666015625,0.3678624629974365,-0.1970975399017334,1.087214469909668
1789038136808076500,10.30207666015625,1.1920106410980225,-0.3528099060058594,1.5121192932128906
1789038136818076700,10.31207666015625,1.289705514907837,-0.4549858570098877,1.365647315979004
1789038136828076500,10.32207666015625,0.2887740135192871,-0.523517370223999,1.0003700256347656
1789038136838076700,10.33207666015625,-0.1767139434814453,-0.4081079959869385,0.5628519058227539
1789038136848076500,10.34207666015625,-0.2091526985168457,-0.32917070388793945,0.8858766555786133
1789038136858076700,10.35207666015625,0.22418618202209473,-0.3574345111846924,0.9272212982177734
1789038136868076500,10.36207666015625,0.6542015075683594,-0.4740009307861328,1.0978288650512695
1789038136878076700,10.37207666015625,0.644585132598877,-0.6753642559051514,1.4183216094970703
1789038136888076500,10.38207666015625,0.155595064163208,-0.8145010471343994,1.4630661010742188
1789038136898076700,10.39207666015625,-0.3389265537261963,-0.9246046543121338,1.6664600372314453
1789038136908076500,10.40207666015625,-0.6760313510894775,-0.7007384300231934,1.3781766891479492
1789038136918076700,10.41207666015625,-0.5768461227416992,-0.40113162994384766,0.5632200241088867
1789038136928076500,10.42207666015625,0.15025806427001953,-0.08614778518676758,-0.1389627456665039
1789038136938076700,10.43207666015625,1.166144847869873,0.04243326187133789,-0.528803825378418
1789038136948076500,10.44207666015625,1.7380459308624268,0.08406925201416016,-0.8669800758361816
1789038136958076700,10.45207666015625,1.7004079818725586,0.17537951469421387,-1.3143091201782227
1789038136968076500,10.46207666015625,1.4890117645263672,0.24306559562683105,-1.615405559539795
1789038136978076700,10.47207666015625,1.0727416276931763,0.13449358940124512,-1.460261344909668
1789038136988076500,10.48207666015625,0.7594904899597168,-0.06259536743164062,-0.83624267578125
1789038136998076700,10.49207666015625,0.6431267261505127,-0.3322484493255615,0.03714561462402344
1789038137008076500,10.50207666015625,0.36394214630126953,-0.5218424797058105,0.1538400650024414
1789038137018076700,10.51207666015625,0.29888200759887695,-0.5565938949584961,0.5638847351074219
1789038137028076500,10.52207666015625,0.2903118133544922,-0.5450632572174072,0.2587089538574219
1789038137038076700,10.53207666015625,-0.07244348526000977,-0.43941688537597656,-0.09460163116455078
1789038137048076500,10.54207666015625,-0.3940098285675049,-0.3997533321380615,-0.008421897888183594
1789038137058076700,10.55207666015625,-0.4484083652496338,-0.39832592010498047,0.21650314331054688
1789038137068076500,10.56207666015625,-0.42983365058898926,-0.38813018798828125,0.38578319549560547
1789038137078076700,10.57207666015625,-0.5627334117889404,-0.42257261276245117,0.35816383361816406
1789038137088076500,10.58207666015625,-0.570793628692627,-0.4308586120605469,0.24782276153564453
1789038137098076700,10.59207666015625,-0.6750991344451904,-0.4580392837524414,0.11958694458007812
1789038137108076500,10.60207666015625,-0.6408460140228271,-0.45024752616882324,-0.012211799621582031
1789038137118076700,10.61207666015625,-0.4712224006652832,-0.4659767150878906,-0.03170204162597656
1789038137128076500,10.62207666015625,-0.2335796356201172,-0.5252640247344971,0.05854606628417969
1789038137138076700,10.63207666015625,0.1090083122253418,-0.6354222297668457,0.3719511032104492
1789038137148076500,10.64207666015625,0.29129791259765625,-0.735546350479126,0.556086540222168
1789038137158076700,10.65207666015625,0.2001190185546875,-0.7822697162628174,0.8593921661376953
1789038137168076500,10.66207666015625,0.18517065048217773,-0.7305984497070312,1.073751449584961
1789038137178076700,10.67207666015625,0.23761487007141113,-0.632645845413208,0.9254074096679688
1789038137188076500,10.68207666015625,0.607837438583374,-0.4428398609161377,0.7132778167724609
1789038137198076700,10.69207666015625,0.9805415868759155,-0.310793399810791,0.5997095108032227
1789038137208076500,10.70207666015625,1.0750805139541626,-0.2404460906982422,0.6280269622802734
1789038137218076700,10.71207666015625,0.8099119663238525,-0.22200655937194824,0.7099704742431641
1789038137228076500,10.72207666015625,0.4364593029022217,-0.20656538009643555,0.799138069152832
1789038137238076700,10.73207666015625,0.13973093032836914,-0.12344193458557129,0.7565956115722656
1789038137248076500,10.74207666015625,-0.18146872520446777,-0.06966567039489746,0.8384246826171875
1789038137258076700,10.75207666015625,-0.41611146926879883,0.04967617988586426,1.0783119201660156
1789038137268076500,10.76207666015625,-0.6839046478271484,0.12325143814086914,0.9355325698852539
1789038137278076700,10.77207666015625,-0.41388726234436035,0.09960508346557617,0.9016180038452148
1789038137288076500,10.78207666015625,-0.568854808807373,0.10968971252441406,1.024399757385254
1789038137298076700,10.79207666015625,-0.17119884490966797,-0.02640700340270996,1.0398006439208984
1789038137308076500,10.80207666015625,0.055716753005981445,-0.2965505123138428,0.7852153778076172
1789038137318076700,10.81207666015625,0.4592013359069824,-0.5272469520568848,1.4113693237304688
1789038137328076500,10.82207666015625,0.5900909900665283,-0.9911271333694458,1.5663681030273438
1789038137338076700,10.83207666015625,0.8802399635314941,-0.871425986289978,2.436579704284668
1789038137348076500,10.84207666015625,0.9909276962280273,-0.7240077257156372,2.20053768157959
1789038137358076700,10.85207666015625,0.8693361282348633,-0.44046008586883545,0.7931184768676758
1789038137368076500,10.86207666015625,0.6633179187774658,-0.13275504112243652,-0.16009521484375
1789038137378076700,10.87207666015625,0.5485744476318359,0.06743419170379639,-0.24796390533447266
1789038137388076500,10.88207666015625,0.32889246940612793,0.03303170204162598,-0.30287742614746094
1789038137398076700,10.89207666015625,0.15638232231140137,-0.25008106231689453,0.057358741760253906
1789038137408076500,10.90207666015625,0.19030451774597168,-0.4764781594276428,0.5881013870239258
1789038137418076700,10.91207666015625,0.049886226654052734,-0.5613445043563843,1.0501794815063477
1789038137428076500,10.92207666015625,0.11718297004699707,-0.48626771569252014,0.9663639068603516
1789038137438076700,10.93207666015625,0.32360148429870605,-0.5126800537109375,0.5695953369140625
1789038137448076500,10.94207666015625,0.39064741134643555,-0.5791118144989014,0.10254383087158203
1789038137458076700,10.95207666015625,0.4668259620666504,-0.5757169127464294,-0.37685585021972656
1789038137468076500,10.96207666015625,0.7100210189819336,-0.5083910822868347,-0.5385799407958984
1789038137478076700,10.97207666015625,1.0844736099243164,-0.25033703446388245,-0.3866739273071289
1789038137488076500,10.98207666015625,1.2756285667419434,-0.12599480152130127,-0.3224344253540039
1789038137498076700,10.99207666015625,0.41025543212890625,-0.25550204515457153,-0.6742238998413086
1789038137508076500,11.00207666015625,0.9093875885009766,-0.1407606601715088,-0.5772037506103516
1789038137518076700,11.01207666015625,1.1091477870941162,-0.05707007646560669,-0.8899674415588379
1789038137528076500,11.02207666015625,0.8586602210998535,-0.08608269691467285,-0.789952278137207
1789038137538076700,11.03207666015625,0.5678300857543945,-0.19621634483337402,-0.7003507614135742
1789038137548076500,11.04207666015625,0.912407636642456,-0.5102278590202332,-0.8270111083984375
1789038137558076700,11.05207666015625,1.2642545700073242,-0.5940291881561279,-0.50189208984375
1789038137568076500,11.06207666015625,1.1264519691467285,-0.28885865211486816,-0.6645135879516602
1789038137578076700,11.07207666015625,0.8098864555358887,-0.600471019744873,-1.8011016845703125
1789038137588076500,11.08207666015625,0.7530364990234375,-0.8360218405723572,-0.9120082855224609
1789038137598076700,11.09207666015625,0.9595522880554199,-0.5951172113418579,-0.3346076011657715
1789038137608076500,11.10207666015625,1.358936071395874,-0.5660512447357178,-0.3742084503173828
1789038137618076700,11.11207666015625,1.3214960098266602,-0.7185646295547485,-0.40288400650024414
1789038137628076500,11.12207666015625,1.229374647140503,-0.655963659286499,-0.757349967956543
1789038137638076700,11.13207666015625,0.9587750434875488,-0.40453481674194336,-0.7770395278930664
1789038137648076500,11.14207666015625,0.9749546051025391,-0.03471851348876953,-0.9393186569213867
1789038137658076700,11.15207666015625,1.148186206817627,0.02136993408203125,-1.2341909408569336
1789038137668076500,11.16207666015625,1.285107135772705,-0.2993896007537842,-1.7194948196411133
1789038137678076700,11.17207666015625,0.9326677322387695,-0.5472226142883301,-1.3223729133605957
1789038137688076500,11.18207666015625,0.3225393295288086,-0.6694657802581787,-1.369582176208496
1789038137698076700,11.19207666015625,-0.22217321395874023,-0.8128654956817627,-1.1543903350830078
1789038137708076500,11.20207666015625,-0.25895261764526367,-1.0997260808944702,-1.1238608360290527
1789038137718076700,11.21207666015625,-0.14820337295532227,-0.8962492942810059,-1.230290412902832
1789038137728076500,11.22207666015625,0.07115650177001953,-0.9111242294311523,-1.1817541122436523
1789038137738076700,11.23207666015625,0.13600683212280273,-0.6985678672790527,-1.3279218673706055
1789038137748076500,11.24207666015625,-0.3853635787963867,-0.3430211544036865,-1.4885525703430176
1789038137758076700,11.25207666015625,-0.29967498779296875,0.06047940254211426,-1.5521326065063477
1789038137768076500,11.26207666015625,0.2676982879638672,0.21893525123596191,-1.1603116989135742
1789038137778076700,11.27207666015625,0.48587942123413086,0.30420494079589844,-0.8834137916564941
1789038137788076500,11.28207666015625,0.9149789810180664,0.3188023567199707,-0.8608779907226562
1789038137798076700,11.29207666015625,1.128593921661377,0.08207297325134277,-0.9852123260498047
1789038137808076500,11.30207666015625,0.7473676204681396,-0.23799443244934082,-1.1115150451660156
1789038137818076700,11.31207666015625,0.7026698589324951,-0.38665246963500977,-0.9125251770019531
1789038137828076500,11.32207666015625,0.6049854755401611,-0.33697986602783203,-0.7780508995056152
1789038137838076700,11.33207666015625,0.7552614212036133,-0.2632484436035156,-1.0215415954589844
1789038137848076500,11.34207666015625,0.8794422149658203,-0.10487985610961914,-0.9310836791992188
1789038137858076700,11.35207666015625,0.6309061050415039,0.07752370834350586,-0.6963939666748047
1789038137868076500,11.36207666015625,0.42606115341186523,0.18448686599731445,-0.7900390625
1789038137878076700,11.37207666015625,0.44399547576904297,0.2014617919921875,-0.8307342529296875
1789038137888076500,11.38207666015625,0.5118775367736816,0.1802055835723877,-0.5463247299194336
1789038137898076700,11.39207666015625,0.3985581398010254,0.18245625495910645,-0.5833292007446289
1789038137908076500,11.40207666015625,0.35137414932250977,0.1783735752105713,-0.761500358581543
1789038137918076700,11.41207666015625,0.4334897994995117,0.1520838737487793,-0.8571176528930664
1789038137928076500,11.42207666015625,0.2971649169921875,0.2440398931503296,-1.2438507080078125
1789038137938076700,11.43207666015625,0.11551523208618164,0.14342999458312988,-1.3229761123657227
1789038137948076500,11.44207666015625,-0.13123488426208496,-0.080558180809021,-0.8784995079040527
1789038137958076700,11.45207666015625,-0.4128251075744629,-0.1699213981628418,-0.9657936096191406
1789038137968076500,11.46207666015625,-0.6234772205352783,-0.27904683351516724,-0.7597599029541016
1789038137978076700,11.47207666015625,-0.2678091526031494,-0.35176050662994385,-0.6739435195922852
1789038137988076500,11.48207666015625,-0.32280659675598145,-0.3986195921897888,-0.879852294921875
1789038137998076700,11.49207666015625,-0.3720219135284424,-0.6204875707626343,-0.6379470825195312
1789038138008076500,11.50207666015625,-0.3239157199859619,-0.8619266748428345,-0.11933326721191406
1789038138018076700,11.51207666015625,-0.19639897346496582,-0.9588168859481812,0.14685630798339844
1789038138028076500,11.52207666015625,-0.3036661148071289,-0.9222513437271118,-0.10692119598388672
1789038138038076700,11.53207666015625,-0.759894847869873,-0.755374014377594,-0.6537694931030273
1789038138048076500,11.54207666015625,-1.2058496475219727,-0.39385557174682617,-1.1630096435546875
1789038138058076700,11.55207666015625,-1.414398431777954,0.021154746413230896,-1.094191551208496
1789038138068076500,11.56207666015625,-1.670166015625,0.49195045232772827,-1.395899772644043
1789038138078076700,11.57207666015625,-1.8985848426818848,0.6900297403335571,-1.7138252258300781
1789038138088076500,11.58207666015625,-1.6113827228546143,0.7019646763801575,-1.082146167755127
1789038138098076700,11.59207666015625,-1.1914114952087402,0.41399267315864563,0.6566076278686523
1789038138108076500,11.60207666015625,-0.6897046566009521,-0.24622958898544312,2.600078582763672
1789038138118076700,11.61207666015625,-0.8554465770721436,-0.7049245238304138,2.702467918395996
1789038138128076500,11.62207666015625,-0.7779049873352051,-0.888356626033783,2.147793769836426
1789038138138076700,11.63207666015625,-0.5522286891937256,-1.0096540451049805,1.903512954711914
1789038138148076500,11.64207666015625,-0.7829539775848389,-1.034834861755371,1.2211971282958984
1789038138158076700,11.65207666015625,-0.8413276672363281,-0.9858795404434204,0.6011266708374023
1789038138168076500,11.66207666015625,-0.860266923904419,-0.5560377836227417,-1.1926875114440918
1789038138178076700,11.67207666015625,-1.1935482025146484,0.09865748882293701,-4.447107315063477
1789038138188076500,11.68207666015625,-1.26397705078125,0.6142860651016235,-5.635365962982178
1789038138198076700,11.69207666015625,-0.4082775115966797,0.7848852872848511,-3.939180374145508
1789038138208076500,11.70207666015625,0.5397002696990967,-0.47925400733947754,-0.4642333984375
1789038138218076700,11.71207666015625,0.9293639659881592,-1.2360442876815796,2.619034767150879
1789038138228076500,11.72207666015625,0.37209510803222656,-1.0760560035705566,2.5273332595825195
1789038138238076700,11.73207666015625,0.5769217014312744,-0.7214369773864746,2.3239736557006836
1789038138248076500,11.74207666015625,0.9954458475112915,-0.36008644104003906,1.7705087661743164
1789038138258076700,11.75207666015625,0.2085721492767334,-0.3634474277496338,-0.4524650573730469
1789038138268076500,11.76207666015625,0.07853841781616211,0.10089826583862305,-0.2857704162597656
1789038138278076700,11.77207666015625,-0.2275989055633545,0.18577313423156738,-0.22136688232421875
1789038138288076500,11.78207666015625,-0.3247992992401123,0.024364471435546875,-0.008048057556152344
1789038138298076700,11.79207666015625,-0.3427085876464844,-0.1255512237548828,0.09311294555664062
1789038138308076500,11.80207666015625,0.019762039184570312,-0.23743915557861328,0.5065603256225586
1789038138318076700,11.81207666015625,0.006604433059692383,-0.3692665100097656,0.9744720458984375
1789038138328076500,11.82207666015625,-0.6829006671905518,-0.48958587646484375,1.6252460479736328
1789038138338076700,11.83207666015625,-0.8149733543395996,-0.5590784549713135,2.157315254211426
1789038138348076500,11.84207666015625,-0.32361650466918945,-0.8074777126312256,2.470208168029785
1789038138358076700,11.85207666015625,0.0074770450592041016,-1.1261601448059082,1.926675796508789
1789038138368076500,11.86207666015625,0.10236406326293945,-1.32222580909729,1.3417987823486328
1789038138378076700,11.87207666015625,0.0437169075012207,-1.3229875564575195,0.9983968734741211
1789038138388076500,11.88207666015625,0.13172340393066406,-1.2250723838806152,0.986353874206543
1789038138398076700,11.89207666015625,0.360767126083374,-1.146125078201294,1.2551536560058594
1789038138408076500,11.90207666015625,0.3379859924316406,-0.9521992206573486,1.284794807434082
1789038138418076700,11.91207666015625,0.07460165023803711,-0.7984399795532227,1.1028738021850586
1789038138428076500,11.92207666015625,-0.31432414054870605,-0.717336893081665,0.8926448822021484
1789038138438076700,11.93207666015625,-0.7324273586273193,-0.6829555034637451,0.6360273361206055
1789038138448076500,11.94207666015625,-0.8167197704315186,-0.6839797496795654,0.7790393829345703
1789038138458076700,11.95207666015625,-0.9290792942047119,-0.7384662628173828,0.5880184173583984
1789038138468076500,11.96207666015625,-1.1203632354736328,-0.8350772857666016,0.34707069396972656
1789038138478076700,11.97207666015625,-1.2783005237579346,-0.9706325531005859,0.0816192626953125
1789038138488076500,11.98207666015625,-1.2023508548736572,-1.0976977348327637,-0.13274288177490234
1789038138498076700,11.99207666015625,-0.9762930870056152,-1.2115535736083984,-0.2389068603515625
1789038138508076500,12.00207666015625,-0.593827486038208,-1.2483384609222412,-0.2749290466308594
1789038138518076700,12.01207666015625,-0.20398926734924316,-1.128324031829834,-0.21423053741455078
1789038138528076500,12.02207666015625,-0.06416869163513184,-0.863030195236206,-0.17827796936035156
1789038138538076700,12.03207666015625,0.006351947784423828,-0.4223041534423828,-0.006525993347167969
1789038138548076500,12.04207666015625,-0.026549816131591797,0.0020720958709716797,0.26060962677001953
1789038138558076700,12.05207666015625,-0.1748349666595459,0.22624659538269043,0.4851112365722656
1789038138568076500,12.06207666015625,-0.40521955490112305,0.27402234077453613,0.6677131652832031
1789038138578076700,12.07207666015625,-0.48854994773864746,0.2471306324005127,0.7144260406494141
1789038138588076500,12.08207666015625,-0.39457154273986816,0.21013140678405762,0.6449041366577148
1789038138598076700,12.09207666015625,-0.3604750633239746,0.13399791717529297,0.3102998733520508
1789038138608076500,12.10207666015625,-0.2794489860534668,0.12256741523742676,0.1278667449951172
1789038138618076700,12.11207666015625,-0.2321329116821289,0.09392642974853516,-0.004528999328613281
1789038138628076500,12.12207666015625,-0.2357313632965088,0.023848772048950195,-0.0035877227783203125
1789038138638076700,12.13207666015625,-0.1614525318145752,-0.04396677017211914,-0.030687332153320312
1789038138648076500,12.14207666015625,-0.06856083869934082,-0.12047457695007324,-0.018446922302246094
1789038138658076700,12.15207666015625,0.006487369537353516,-0.1561412811279297,0.07377910614013672
1789038138668076500,12.16207666015625,-0.0011119842529296875,-0.211472749710083,0.24335098266601562
1789038138678076700,12.17207666015625,0.12824082374572754,-0.2640380859375,0.5865459442138672
1789038138688076500,12.18207666015625,0.2522907257080078,-0.21598553657531738,1.1568994522094727
1789038138698076700,12.19207666015625,0.320676326751709,-0.23859500885009766,1.5373563766479492
1789038138708076500,12.20207666015625,0.3391993045806885,-0.33455443382263184,1.7443256378173828
1789038138718076700,12.21207666015625,0.26459169387817383,-0.4067552089691162,1.9823665618896484
1789038138728076500,12.22207666015625,0.19680500030517578,-0.47086453437805176,1.6353216171264648
1789038138738076700,12.23207666015625,0.1391432285308838,-0.42374110221862793,1.1612987518310547
1789038138748076500,12.24207666015625,0.13025879859924316,-0.3453562259674072,1.2823963165283203
1789038138758076700,12.25207666015625,0.08507847785949707,-0.17008376121520996,0.5001602172851562
1789038138768076500,12.26207666015625,0.03369498252868652,0.10938715934753418,0.27548885345458984
1789038138778076700,12.27207666015625,-0.052355289459228516,0.27049851417541504,0.8107242584228516
1789038138788076500,12.28207666015625,-0.09236288070678711,0.12179791927337646,0.9175949096679688
1789038138798076700,12.29207666015625,0.07612323760986328,-0.15068793296813965,1.1402082443237305
1789038138808076500,12.30207666015625,0.6346940994262695,-0.24940931797027588,1.6468381881713867
1789038138818076700,12.31207666015625,0.5680854320526123,-0.36478328704833984,2.0162696838378906
1789038138828076500,12.32207666015625,0.09382462501525879,-0.49075937271118164,1.3064374923706055
1789038138838076700,12.33207666015625,0.2975780963897705,-0.3383067846298218,0.2628192901611328
1789038138848076500,12.34207666015625,0.4371373653411865,-0.1748826503753662,-0.11068344116210938
1789038138858076700,12.35207666015625,0.44956183433532715,-0.008944928646087646,-0.4845409393310547
1789038138868076500,12.36207666015625,0.44372010231018066,-0.057076096534729004,-0.23980140686035156
1789038138878076700,12.37207666015625,0.46398043632507324,-0.1856839656829834,0.0060825347900390625
1789038138888076500,12.38207666015625,0.12249898910522461,-0.2341098189353943,0.18462467193603516
1789038138898076700,12.39207666015625,-0.2136240005493164,-0.34295380115509033,0.050052642822265625
1789038138908076500,12.40207666015625,-0.23579835891723633,-0.43130141496658325,-0.14687728881835938
1789038138918076700,12.41207666015625,-0.13896846771240234,-0.4625898003578186,-0.2863483428955078
1789038138928076500,12.42207666015625,0.26062560081481934,-0.439993679523468,-0.11055755615234375
1789038138938076700,12.43207666015625,0.5850353240966797,-0.5279392004013062,0.13864994049072266
1789038138948076500,12.44207666015625,0.8563368320465088,-0.5303294062614441,0.7528219223022461
1789038138958076700,12.45207666015625,0.5903661251068115,-0.6082311272621155,1.2885065078735352
1789038138968076500,12.46207666015625,0.09065628051757812,-0.8228138089179993,0.6136207580566406
1789038138978076700,12.47207666015625,0.33635568618774414,-0.729160726070404,-0.049057960510253906
1789038138988076500,12.48207666015625,0.7771131992340088,-0.70485520362854,-0.9902048110961914
1789038138998076700,12.49207666015625,1.2150461673736572,-0.6376282572746277,-1.4375381469726562
1789038139008076500,12.50207666015625,0.8886370658874512,-0.44084078073501587,-1.1564440727233887
1789038139018076700,12.51207666015625,0.42090463638305664,-0.5016038417816162,-1.3301668167114258
1789038139028076500,12.52207666015625,0.3623802661895752,-0.36937785148620605,-1.5478925704956055
