time,seconds_elapsed,z,y,x
1789038126578076700,0.07207666015625,9.335436820983887,2.89835262298584,-0.7871217727661133
1789038126588076500,0.08207666015625,9.36528205871582,2.79789400100708,-0.7960392236709595
1789038126598076700,0.09207666015625,9.389166831970215,2.694767713546753,-0.8672758340835571
1789038126608076500,0.10207666015625,9.404431343078613,2.5922107696533203,-1.003745675086975
1789038126618076700,0.11207666015625,9.409392356872559,2.488502264022827,-1.2004473209381104
1789038126628076500,0.12207666015625,9.400473594665527,2.4053666591644287,-1.4197510480880737
1789038126638076700,0.13207666015625,9.380637168884277,2.36887264251709,-1.6007736921310425
1789038126648076500,0.14207666015625,9.360088348388672,2.3745152950286865,-1.7090378999710083
1789038126658076700,0.15207666015625,9.348326683044434,2.406261444091797,-1.7288895845413208
1789038126668076500,0.16207666015625,9.35873794555664,2.3926072120666504,-1.691107988357544
1789038126678076700,0.17207666015625,9.390449523925781,2.305450916290283,-1.6354650259017944
1789038126688076500,0.18207666015625,9.45765209197998,2.1276133060455322,-1.4820504188537598
1789038126698076700,0.19207666015625,9.535123825073242,1.9322906732559204,-1.2320955991744995
1789038126708076500,0.20207666015625,9.600666999816895,1.743749976158142,-0.9782190322875977
1789038126718076700,0.21207666015625,9.645344734191895,1.5992984771728516,-0.7615388035774231
1789038126728076500,0.22207666015625,9.672581672668457,1.5015758275985718,-0.5973378419876099
1789038126738076700,0.23207666015625,9.682903289794922,1.457700490951538,-0.5356200337409973
1789038126748076500,0.24207666015625,9.683602333068848,1.4534128904342651,-0.5346153378486633
1789038126758076700,0.25207666015625,9.675342559814453,1.4862661361694336,-0.5908814668655396
1789038126768076500,0.26207666015625,9.659132957458496,1.5462229251861572,-0.6933485865592957
1789038126778076700,0.27207666015625,9.632292747497559,1.62787926197052,-0.8598424196243286
1789038126788076500,0.28207666015625,9.5851411819458,1.7539780139923096,-1.104095220565796
1789038126798076700,0.29207666015625,9.512320518493652,1.9350574016571045,-1.3934522867202759
1789038126808076500,0.30207666015625,9.437514305114746,2.140810251235962,-1.5876505374908447
1789038126818076700,0.31207666015625,9.388893127441406,2.3301258087158203,-1.6092207431793213
1789038126828076500,0.32207666015625,9.372797012329102,2.453084707260132,-1.5177077054977417
1789038126838076700,0.33207666015625,9.365935325622559,2.5476114749908447,-1.3997634649276733
1789038126848076500,0.34207666015625,9.364809036254883,2.6023731231689453,-1.3032182455062866
1789038126858076700,0.35207666015625,9.360696792602539,2.641468048095703,-1.253147006034851
1789038126868076500,0.36207666015625,9.352559089660645,2.687321186065674,-1.2158688306808472
1789038126878076700,0.37207666015625,9.344996452331543,2.727424144744873,-1.184314489364624
1789038126888076500,0.38207666015625,9.343189239501953,2.7521047592163086,-1.1406669616699219
1789038126898076700,0.39207666015625,9.351720809936523,2.7495172023773193,-1.0751134157180786
1789038126908076500,0.40207666015625,9.368623733520508,2.7230539321899414,-0.992093563079834
1789038126918076700,0.41207666015625,9.3876953125,2.692298650741577,-0.8905501961708069
1789038126928076500,0.42207666015625,9.4026460647583,2.6719777584075928,-0.7881503701210022
1789038126938076700,0.43207666015625,9.41324520111084,2.662804126739502,-0.6860514879226685
1789038126948076500,0.44207666015625,9.425435066223145,2.6482248306274414,-0.5643346905708313
1789038126958076700,0.45207666015625,9.437766075134277,2.6283810138702393,-0.43653830885887146
1789038126968076500,0.46207666015625,9.447626113891602,2.608750104904175,-0.32734182476997375
1789038126978076700,0.47207666015625,9.457813262939453,2.58315110206604,-0.21790437400341034
1789038126988076500,0.48207666015625,9.469802856445312,2.545924663543701,-0.10723159462213516
1789038126998076700,0.49207666015625,9.480169296264648,2.509310722351074,-0.011515541933476925
1789038127008076500,0.50207666015625,9.488641738891602,2.4759135246276855,0.07704270631074905
1789038127018076700,0.51207666015625,9.498693466186523,2.432462453842163,0.16833709180355072
1789038127028076500,0.52207666015625,9.510997772216797,2.374647378921509,0.2689812481403351
1789038127038076700,0.53207666015625,9.521541595458984,2.316185712814331,0.3819928765296936
1789038127048076500,0.54207666015625,9.526716232299805,2.269507646560669,0.5112674236297607
1789038127058076700,0.55207666015625,9.524622917175293,2.2435879707336426,0.6467304825782776
1789038127068076500,0.56207666015625,9.515531539916992,2.2385141849517822,0.7836336493492126
1789038127078076700,0.57207666015625,9.502856254577637,2.2452845573425293,0.9081916213035583
1789038127088076500,0.58207666015625,9.490525245666504,2.253831148147583,1.0102219581604004
1789038127098076700,0.59207666015625,9.479610443115234,2.259275436401367,1.096834659576416
1789038127108076500,0.60207666015625,9.472187042236328,2.2656078338623047,1.1467704772949219
1789038127118076700,0.61207666015625,9.469531059265137,2.2671241760253906,1.1655592918395996
1789038127128076500,0.62207666015625,9.47205924987793,2.2551112174987793,1.1683156490325928
1789038127138076700,0.63207666015625,9.478148460388184,2.235173225402832,1.1571930646896362
1789038127148076500,0.64207666015625,9.483882904052734,2.2199387550354004,1.1394041776657104
1789038127158076700,0.65207666015625,9.487213134765625,2.2141764163970947,1.1227643489837646
1789038127168076500,0.66207666015625,9.487306594848633,2.217195510864258,1.115992784500122
1789038127178076700,0.67207666015625,9.4835844039917,2.2296981811523438,1.1227035522460938
1789038127188076500,0.68207666015625,9.477709770202637,2.2510275840759277,1.1297320127487183
1789038127198076700,0.69207666015625,9.471260070800781,2.2785468101501465,1.1286457777023315
1789038127208076500,0.70207666015625,9.468904495239258,2.298821449279785,1.107095718383789
1789038127218076700,0.71207666015625,9.473740577697754,2.3012709617614746,1.0596174001693726
1789038127228076500,0.72207666015625,9.484339714050293,2.2883548736572266,0.9905088543891907
1789038127238076700,0.73207666015625,9.496642112731934,2.270108699798584,0.9114760160446167
1789038127248076500,0.74207666015625,9.508148193359375,2.253450632095337,0.8291385769844055
1789038127258076700,0.75207666015625,9.518169403076172,2.2400596141815186,0.7463096380233765
1789038127268076500,0.76207666015625,9.526453971862793,2.2304396629333496,0.66497403383255
1789038127278076700,0.77207666015625,9.533317565917969,2.2247235774993896,0.5803764462471008
1789038127288076500,0.78207666015625,9.538349151611328,2.223731279373169,0.4952809810638428
1789038127298076700,0.79207666015625,9.540175437927246,2.2309584617614746,0.4222103953361511
1789038127308076500,0.80207666015625,9.537412643432617,2.2511727809906006,0.3746553063392639
1789038127318076700,0.81207666015625,9.529955863952637,2.285560131072998,0.355745792388916
1789038127328076500,0.82207666015625,9.519513130187988,2.328049898147583,0.3597743809223175
1789038127338076700,0.83207666015625,9.508564949035645,2.3697383403778076,0.3767210841178894
1789038127348076500,0.84207666015625,9.499072074890137,2.4040777683258057,0.39801856875419617
1789038127358076700,0.85207666015625,9.491340637207031,2.431779623031616,0.413875550031662
1789038127368076500,0.86207666015625,9.484320640563965,2.4576644897460938,0.42181992530822754
1789038127378076700,0.87207666015625,9.477540969848633,2.4835331439971924,0.42268481850624084
1789038127388076500,0.88207666015625,9.4694242477417,2.5142383575439453,0.4230978190898895
1789038127398076700,0.89207666015625,9.4596586227417,2.549967050552368,0.4277068078517914
1789038127408076500,0.90207666015625,9.44959831237793,2.5855698585510254,0.4362328052520752
1789038127418076700,0.91207666015625,9.439982414245605,2.6185264587402344,0.44769352674484253
1789038127428076500,0.92207666015625,9.430895805358887,2.6491265296936035,0.4590398967266083
1789038127438076700,0.93207666015625,9.422560691833496,2.677663564682007,0.4646008312702179
1789038127448076500,0.94207666015625,9.415051460266113,2.7032315731048584,0.46875542402267456
1789038127458076700,0.95207666015625,9.408432006835938,2.725144624710083,0.4747488796710968
1789038127468076500,0.96207666015625,9.40291690826416,2.7425527572631836,0.4836750626564026
1789038127478076700,0.97207666015625,9.398508071899414,2.7547967433929443,0.4995175302028656
1789038127488076500,0.98207666015625,9.394079208374023,2.7647247314453125,0.5272168517112732
1789038127498076700,0.99207666015625,9.387762069702148,2.7788026332855225,0.564426600933075
1789038127508076500,1.00207666015625,9.378952980041504,2.7997093200683594,0.6060240268707275
1789038127518076700,1.01207666015625,9.368431091308594,2.824946880340576,0.650059163570404
1789038127528076500,1.02207666015625,9.357572555541992,2.8517003059387207,0.688496470451355
1789038127538076700,1.03207666015625,9.347089767456055,2.8782904148101807,0.7195616364479065
1789038127548076500,1.04207666015625,9.336917877197266,2.901564359664917,0.7571513056755066
1789038127558076700,1.05207666015625,9.325181007385254,2.9207608699798584,0.824941873550415
1789038127568076500,1.06207666015625,9.30991268157959,2.9443705081939697,0.9091727137565613
1789038127578076700,1.07207666015625,9.290684700012207,2.9760749340057373,0.9982695579528809
1789038127588076500,1.08207666015625,9.268363952636719,3.0180680751800537,1.0766061544418335
1789038127598076700,1.09207666015625,9.244718551635742,3.0686593055725098,1.1352949142456055
1789038127608076500,1.10207666015625,9.224063873291016,3.112220287322998,1.183692455291748
1789038127618076700,1.11207666015625,9.20945930480957,3.1320247650146484,1.2436580657958984
1789038127628076500,1.12207666015625,9.200215339660645,3.132430076599121,1.3093204498291016
1789038127638076700,1.13207666015625,9.19393253326416,3.1275010108947754,1.364086389541626
1789038127648076500,1.14207666015625,9.187743186950684,3.126467227935791,1.4074629545211792
1789038127658076700,1.15207666015625,9.178882598876953,3.131067991256714,1.4542715549468994
1789038127668076500,1.16207666015625,9.167491912841797,3.1331052780151367,1.5202476978302002
1789038127678076700,1.17207666015625,9.156094551086426,3.124258518218994,1.6047776937484741
1789038127688076500,1.18207666015625,9.146059036254883,3.1042470932006836,1.6981303691864014
1789038127698076700,1.19207666015625,9.139379501342773,3.071218729019165,1.7915761470794678
1789038127708076500,1.20207666015625,9.13804817199707,3.0185091495513916,1.885485053062439
1789038127718076700,1.21207666015625,9.141858100891113,2.941208839416504,1.9864848852157593
1789038127728076500,1.22207666015625,9.153133392333984,2.815670967102051,2.1124730110168457
1789038127738076700,1.23207666015625,9.174294471740723,2.643212080001831,2.239675283432007
1789038127748076500,1.24207666015625,9.201983451843262,2.4486498832702637,2.344782590866089
1789038127758076700,1.25207666015625,9.23109245300293,2.248321294784546,2.4294815063476562
1789038127768076500,1.26207666015625,9.250354766845703,2.0504214763641357,2.529245615005493
1789038127778076700,1.27207666015625,9.246569633483887,1.8495458364486694,2.692676305770874
1789038127788076500,1.28207666015625,9.191350936889648,1.6464152336120605,2.996457099914551
1789038127798076700,1.29207666015625,9.07561206817627,1.4375275373458862,3.425957679748535
1789038127808076500,1.30207666015625,8.917304039001465,1.2125980854034424,3.8963663578033447
1789038127818076700,1.31207666015625,8.733284950256348,0.9687676429748535,4.354493618011475
1789038127828076500,1.32207666015625,8.52966594696045,0.7109996676445007,4.786403656005859
1789038127838076700,1.33207666015625,8.313079833984375,0.44440707564353943,5.18320369720459
1789038127848076500,1.34207666015625,8.106832504272461,0.16341830790042877,5.5157012939453125
1789038127858076700,1.35207666015625,7.963972091674805,-0.1457483023405075,5.720514297485352
1789038127868076500,1.36207666015625,7.888759613037109,-0.4806166887283325,5.80576229095459
1789038127878076700,1.37207666015625,7.826372146606445,-0.8400828838348389,5.849148750305176
1789038127888076500,1.38207666015625,7.712757110595703,-1.2343640327453613,5.929595947265625
1789038127898076700,1.39207666015625,7.529861927032471,-1.6803373098373413,6.053762435913086
1789038127908076500,1.40207666015625,7.287850379943848,-2.1610212326049805,6.195773124694824
1789038127918076700,1.41207666015625,7.003367900848389,-2.625335216522217,6.342779159545898
1789038127928076500,1.42207666015625,6.6822333335876465,-3.0335566997528076,6.505050182342529
1789038127938076700,1.43207666015625,6.32181453704834,-3.374140977859497,6.694791316986084
1789038127948076500,1.44207666015625,5.935739994049072,-3.656987428665161,6.8966522216796875
1789038127958076700,1.45207666015625,5.553023815155029,-3.9008514881134033,7.079383373260498
1789038127968076500,1.46207666015625,5.196537494659424,-4.127551555633545,7.220089912414551
1789038127978076700,1.47207666015625,4.872730255126953,-4.351611614227295,7.3137102127075195
1789038127988076500,1.48207666015625,4.564792633056641,-4.587652206420898,7.367938041687012
1789038127998076700,1.49207666015625,4.273441791534424,-4.841373443603516,7.38032341003418
1789038128008076500,1.50207666015625,4.0238776206970215,-5.100188255310059,7.346216201782227
1789038128018076700,1.51207666015625,3.8193116188049316,-5.351609230041504,7.2762298583984375
1789038128028076500,1.52207666015625,3.650679588317871,-5.583998680114746,7.187620162963867
1789038128038076700,1.53207666015625,3.4863152503967285,-5.795169830322266,7.101548671722412
1789038128048076500,1.54207666015625,3.3009986877441406,-5.988535404205322,7.0293121337890625
1789038128058076700,1.55207666015625,3.1115076541900635,-6.1616034507751465,6.965885162353516
1789038128068076500,1.56207666015625,2.917238235473633,-6.312134265899658,6.9149885177612305
1789038128078076700,1.57207666015625,2.7317872047424316,-6.46035099029541,6.853583812713623
1789038128088076500,1.58207666015625,2.5707452297210693,-6.624328136444092,6.758693218231201
1789038128098076700,1.59207666015625,2.429745674133301,-6.797883987426758,6.637431621551514
1789038128108076500,1.60207666015625,2.3118603229522705,-6.976262092590332,6.492878437042236
1789038128118076700,1.61207666015625,2.2250678539276123,-7.151381015777588,6.3306565284729
1789038128128076500,1.62207666015625,2.1514368057250977,-7.310585021972656,6.172281742095947
1789038128138076700,1.63207666015625,2.068983316421509,-7.4509453773498535,6.03101110458374
1789038128148076500,1.64207666015625,1.983499526977539,-7.559647083282471,5.923500061035156
1789038128158076700,1.65207666015625,1.9045249223709106,-7.628649711608887,5.860620498657227
1789038128168076500,1.66207666015625,1.8152703046798706,-7.678489685058594,5.823742866516113
1789038128178076700,1.67207666015625,1.704126238822937,-7.729227066040039,5.7901105880737305
1789038128188076500,1.68207666015625,1.57179856300354,-7.790266990661621,5.745569229125977
1789038128198076700,1.69207666015625,1.4256263971328735,-7.856796741485596,5.692866802215576
1789038128208076500,1.70207666015625,1.2735744714736938,-7.923493385314941,5.6361918449401855
1789038128218076700,1.71207666015625,1.120440125465393,-7.989295959472656,5.575495719909668
1789038128228076500,1.72207666015625,0.9791011214256287,-8.054733276367188,5.507543087005615
1789038128238076700,1.73207666015625,0.8731852173805237,-8.12031078338623,5.428487777709961
1789038128248076500,1.74207666015625,0.8010979890823364,-8.212475776672363,5.299421787261963
1789038128258076700,1.75207666015625,0.7220989465713501,-8.317388534545898,5.144901275634766
1789038128268076500,1.76207666015625,0.6146637797355652,-8.422595977783203,4.985223770141602
1789038128278076700,1.77207666015625,0.49586397409439087,-8.517776489257812,4.834458827972412
1789038128298076700,1.79207666015625,0.27083733677864075,-8.67678451538086,4.561845779418945
1789038128308076500,1.80207666015625,0.1714896261692047,-8.752903938293457,4.419007778167725
1789038128318076700,1.81207666015625,0.08150313049554825,-8.82984733581543,4.265857696533203
1789038128328076500,1.82207666015625,-0.008974782191216946,-8.90141487121582,4.115230083465576
1789038128338076700,1.83207666015625,-0.10500410944223404,-8.96418571472168,3.975263833999634
1789038128348076500,1.84207666015625,-0.20211268961429596,-9.015000343322754,3.8547768592834473
1789038128358076700,1.85207666015625,-0.28326961398124695,-9.057010650634766,3.7497615814208984
1789038128368076500,1.86207666015625,-0.3357526361942291,-9.091554641723633,3.6607775688171387
1789038128378076700,1.87207666015625,-0.35420963168144226,-9.120280265808105,3.58683705329895
1789038128388076500,1.88207666015625,-0.35313862562179565,-9.144965171813965,3.523531675338745
1789038128398076700,1.89207666015625,-0.35893014073371887,-9.170526504516602,3.4558634757995605
1789038128408076500,1.90207666015625,-0.3816523849964142,-9.197669982910156,3.380474328994751
1789038128418076700,1.91207666015625,-0.4093579947948456,-9.224226951599121,3.3040060997009277
1789038128428076500,1.92207666015625,-0.4249619245529175,-9.247981071472168,3.2349090576171875
1789038128438076700,1.93207666015625,-0.4203762710094452,-9.2734375,3.1618099212646484
1789038128448076500,1.94207666015625,-0.4095095098018646,-9.302373886108398,3.077097177505493
1789038128458076700,1.95207666015625,-0.40885084867477417,-9.33407211303711,2.9796512126922607
1789038128468076500,1.96207666015625,-0.4155864715576172,-9.365554809570312,2.878206491470337
1789038128478076700,1.97207666015625,-0.41050222516059875,-9.392684936523438,2.7891457080841064
1789038128488076500,1.98207666015625,-0.3871895670890808,-9.41907024383545,2.702144145965576
1789038128498076700,1.99207666015625,-0.34297966957092285,-9.445554733276367,2.6142404079437256
1789038128508076500,2.00207666015625,-0.2757990062236786,-9.470256805419922,2.5315120220184326
1789038128518076700,2.01207666015625,-0.19890691339969635,-9.490235328674316,2.4629733562469482
1789038128528076500,2.02207666015625,-0.12111715972423553,-9.505885124206543,2.4070475101470947
1789038128538076700,2.03207666015625,-0.05000787600874901,-9.518753051757812,2.3582234382629395
1789038128548076500,2.04207666015625,0.02058129757642746,-9.52547836303711,2.3313591480255127
1789038128558076700,2.05207666015625,0.11204344034194946,-9.52649211883545,2.324601173400879
1789038128568076500,2.06207666015625,0.21279525756835938,-9.52385139465332,2.328381061553955
1789038128578076700,2.07207666015625,0.29809361696243286,-9.521537780761719,2.3284835815429688
1789038128588076500,2.08207666015625,0.3643128275871277,-9.517973899841309,2.3336284160614014
1789038128598076700,2.09207666015625,0.4071422815322876,-9.509340286254883,2.3615775108337402
1789038128608076500,2.10207666015625,0.43973809480667114,-9.491532325744629,2.4264864921569824
1789038128618076700,2.11207666015625,0.4890974760055542,-9.463255882263184,2.5254604816436768
1789038128628076500,2.12207666015625,0.5692311525344849,-9.42911434173584,2.634038209915161
1789038128638076700,2.13207666015625,0.6666725873947144,-9.386728286743164,2.759575843811035
1789038128648076500,2.14207666015625,0.7801370024681091,-9.329316139221191,2.919870138168335
1789038128658076700,2.15207666015625,0.9274677634239197,-9.254673957824707,3.1082499027252197
1789038128668076500,2.16207666015625,1.0862698554992676,-9.162653923034668,3.3220741748809814
1789038128678076700,2.17207666015625,1.228894591331482,-9.055159568786621,3.558692455291748
1789038128688076500,2.18207666015625,1.3606245517730713,-8.932605743408203,3.811513900756836
1789038128698076700,2.19207666015625,1.4878569841384888,-8.807148933410645,4.048553943634033
1789038128708076500,2.20207666015625,1.5972929000854492,-8.692879676818848,4.248870372772217
1789038128718076700,2.21207666015625,1.6658382415771484,-8.600035667419434,4.408486843109131
1789038128728076500,2.22207666015625,1.6949430704116821,-8.526938438415527,4.537496089935303
1789038128738076700,2.23207666015625,1.7005670070648193,-8.455316543579102,4.667557716369629
1789038128748076500,2.24207666015625,1.6977183818817139,-8.370610237121582,4.818819046020508
1789038128758076700,2.25207666015625,1.6986167430877686,-8.28105354309082,4.970837116241455
1789038128768076500,2.26207666015625,1.7089136838912964,-8.222037315368652,5.064395904541016
1789038128778076700,2.27207666015625,1.7154648303985596,-8.189606666564941,5.114480495452881
1789038128788076500,2.28207666015625,1.711003065109253,-8.169449806213379,5.148100852966309
1789038128798076700,2.29207666015625,1.6948755979537964,-8.142711639404297,5.195577621459961
1789038128808076500,2.30207666015625,1.6455442905426025,-8.092142105102539,5.289592742919922
1789038128818076700,2.31207666015625,1.5716211795806885,-8.010757446289062,5.433983325958252
1789038128828076500,2.32207666015625,1.510434627532959,-7.8969879150390625,5.614850997924805
1789038128838076700,2.33207666015625,1.4704855680465698,-7.774150371551514,5.794018268585205
1789038128848076500,2.34207666015625,1.448799967765808,-7.671946048736572,5.93402099609375
1789038128858076700,2.35207666015625,1.44186270236969,-7.584518909454346,6.047023296356201
1789038128868076500,2.36207666015625,1.4338343143463135,-7.48375129699707,6.173165321350098
1789038128878076700,2.37207666015625,1.4159032106399536,-7.366625785827637,6.316521167755127
1789038128888076500,2.38207666015625,1.3937311172485352,-7.2389373779296875,6.467278003692627
1789038128898076700,2.39207666015625,1.3866057395935059,-7.0973968505859375,6.623796463012695
1789038128908076500,2.40207666015625,1.396479606628418,-6.920591354370117,6.806293964385986
1789038128918076700,2.41207666015625,1.4354593753814697,-6.6802849769592285,7.034460544586182
1789038128928076500,2.42207666015625,1.4935195446014404,-6.374082565307617,7.30142879486084
1789038128938076700,2.43207666015625,1.5413488149642944,-5.987403869628906,7.612201690673828
1789038128948076500,2.44207666015625,1.5554405450820923,-5.4227752685546875,8.021502494812012
1789038128958076700,2.45207666015625,1.4926317930221558,-4.877531051635742,8.375687599182129
1789038128968076500,2.46207666015625,1.3602373600006104,-4.412051677703857,8.651817321777344
1789038128978076700,2.47207666015625,1.176876187324524,-4.0744147300720215,8.842199325561523
1789038128988076500,2.48207666015625,0.9755102396011353,-3.807877779006958,8.984366416931152
1789038128998076700,2.49207666015625,0.7735660076141357,-3.576359748840332,9.098441123962402
1789038129008076500,2.50207666015625,0.5690416693687439,-3.3121140003204346,9.21284294128418
1789038129018076700,2.51207666015625,0.34738463163375854,-3.0393712520599365,9.317293167114258
1789038129028076500,2.52207666015625,0.12108446657657623,-2.7699332237243652,9.406550407409668
1789038129038076700,2.53207666015625,-0.1314430981874466,-2.4960505962371826,9.482765197753906
1789038129048076500,2.54207666015625,-0.4060570299625397,-2.22255539894104,9.542837142944336
1789038129058076700,2.55207666015625,-0.6764456629753113,-2.027491331100464,9.570897102355957
1789038129068076500,2.56207666015625,-0.8934847712516785,-1.9866447448730469,9.56165885925293
1789038129078076700,2.57207666015625,-1.0204644203186035,-2.0917108058929443,9.52647876739502
1789038129088076500,2.58207666015625,-1.127850890159607,-2.2986273765563965,9.466501235961914
1789038129098076700,2.59207666015625,-1.2878795862197876,-2.5616390705108643,9.378153800964355
1789038129108076500,2.60207666015625,-1.5341744422912598,-2.837023973464966,9.261100769042969
1789038129118076700,2.61207666015625,-1.8116090297698975,-3.102856159210205,9.124732971191406
1789038129128076500,2.62207666015625,-2.0242104530334473,-3.341686487197876,8.994781494140625
1789038129138076700,2.63207666015625,-2.139644145965576,-3.5458405017852783,8.889281272888184
1789038129148076500,2.64207666015625,-2.1677942276000977,-3.7292749881744385,8.807016372680664
1789038129158076700,2.65207666015625,-2.1330904960632324,-3.8840107917785645,8.74841594696045
1789038129168076500,2.66207666015625,-2.044076681137085,-3.9916114807128906,8.72119140625
1789038129178076700,2.67207666015625,-1.9888025522232056,-4.052321910858154,8.70595932006836
1789038129188076500,2.68207666015625,-1.9895539283752441,-4.085451126098633,8.690290451049805
1789038129198076700,2.69207666015625,-1.9946904182434082,-4.1046624183654785,8.6800537109375
1789038129208076500,2.70207666015625,-2.0032432079315186,-4.12320613861084,8.669289588928223
1789038129218076700,2.71207666015625,-2.0099048614501953,-4.137967109680176,8.660710334777832
1789038129228076500,2.72207666015625,-2.015580415725708,-4.165460586547852,8.646200180053711
1789038129238076700,2.73207666015625,-2.027193307876587,-4.214816570281982,8.619524002075195
1789038129248076500,2.74207666015625,-2.0218605995178223,-4.289034366607666,8.584092140197754
1789038129258076700,2.75207666015625,-2.0146584510803223,-4.391864776611328,8.53364372253418
1789038129268076500,2.76207666015625,-2.004284381866455,-4.521665573120117,8.46804428100586
1789038129278076700,2.77207666015625,-2.0048649311065674,-4.677375793457031,8.382903099060059
1789038129288076500,2.78207666015625,-2.047377347946167,-4.858212471008301,8.269002914428711
1789038129298076700,2.79207666015625,-2.130216598510742,-5.069179058074951,8.120098114013672
1789038129308076500,2.80207666015625,-2.219923734664917,-5.274707794189453,7.963653564453125
1789038129318076700,2.81207666015625,-2.287710428237915,-5.435279369354248,7.8354644775390625
1789038129328076500,2.82207666015625,-2.3385090827941895,-5.527055740356445,7.755864143371582
1789038129338076700,2.83207666015625,-2.3889825344085693,-5.542580604553223,7.7293572425842285
1789038129348076500,2.84207666015625,-2.447754383087158,-5.48395299911499,7.752750873565674
1789038129358076700,2.85207666015625,-2.5098204612731934,-5.387539863586426,7.800359725952148
1789038129368076500,2.86207666015625,-2.546957492828369,-5.304407119750977,7.845167636871338
1789038129378076700,2.87207666015625,-2.544743299484253,-5.253180980682373,7.880277156829834
1789038129388076500,2.88207666015625,-2.5217864513397217,-5.247189521789551,7.8916401863098145
1789038129398076700,2.89207666015625,-2.484025001525879,-5.276122570037842,7.8843231201171875
1789038129408076500,2.90207666015625,-2.447953701019287,-5.310415744781494,7.872572898864746
1789038129418076700,2.91207666015625,-2.426085948944092,-5.339256286621094,7.859824180603027
1789038129428076500,2.92207666015625,-2.422943115234375,-5.356616497039795,7.848974704742432
1789038129438076700,2.93207666015625,-2.4309260845184326,-5.354955196380615,7.847639083862305
1789038129448076500,2.94207666015625,-2.439558267593384,-5.334870338439941,7.8586320877075195
1789038129458076700,2.95207666015625,-2.441314458847046,-5.3113298416137695,7.874016761779785
1789038129468076500,2.96207666015625,-2.4404456615448,-5.305079936981201,7.878498554229736
1789038129478076700,2.97207666015625,-2.434133529663086,-5.322346210479736,7.868800163269043
1789038129488076500,2.98207666015625,-2.417687177658081,-5.350831985473633,7.8545379638671875
1789038129498076700,2.99207666015625,-2.4038426876068115,-5.380081653594971,7.838791370391846
1789038129508076500,3.00207666015625,-2.391892194747925,-5.407957077026367,7.823249816894531
1789038129518076700,3.01207666015625,-2.3655245304107666,-5.433295249938965,7.813704490661621
1789038129528076500,3.02207666015625,-2.3001224994659424,-5.460938930511475,7.81395959854126
1789038129538076700,3.03207666015625,-2.189728260040283,-5.494977951049805,7.821808815002441
1789038129548076500,3.04207666015625,-2.0699031352996826,-5.526145935058594,7.8324713706970215
1789038129558076700,3.05207666015625,-1.9704663753509521,-5.5412917137146,7.847403526306152
1789038129568076500,3.06207666015625,-1.9007049798965454,-5.539408206939697,7.865918159484863
1789038129578076700,3.07207666015625,-1.8598424196243286,-5.532464027404785,7.880558967590332
1789038129588076500,3.08207666015625,-1.839688777923584,-5.537346363067627,7.881860733032227
1789038129598076700,3.09207666015625,-1.8295202255249023,-5.570141792297363,7.8610920906066895
1789038129608076500,3.10207666015625,-1.8318538665771484,-5.632071018218994,7.816295146942139
1789038129618076700,3.11207666015625,-1.837062954902649,-5.703848361968994,7.76284122467041
1789038129628076500,3.12207666015625,-1.8320053815841675,-5.763683319091797,7.719720363616943
1789038129638076700,3.13207666015625,-1.826859712600708,-5.804502487182617,7.6902995109558105
1789038129648076500,3.14207666015625,-1.8385838270187378,-5.8339314460754395,7.665196895599365
1789038129658076700,3.15207666015625,-1.8655556440353394,-5.862468242645264,7.636855125427246
1789038129668076500,3.16207666015625,-1.8855253458023071,-5.895092487335205,7.606777667999268
1789038129678076700,3.17207666015625,-1.891266107559204,-5.929670810699463,7.578423500061035
1789038129688076500,3.18207666015625,-1.8938416242599487,-5.961708068847656,7.552602291107178
1789038129698076700,3.19207666015625,-1.890742540359497,-5.991326332092285,7.529906749725342
1789038129708076500,3.20207666015625,-1.8907108306884766,-6.019981861114502,7.507023334503174
1789038129718076700,3.21207666015625,-1.9068503379821777,-6.04984712600708,7.478881359100342
1789038129728076500,3.22207666015625,-1.9374186992645264,-6.081742286682129,7.445079326629639
1789038129738076700,3.23207666015625,-1.9662024974822998,-6.11567497253418,7.409651279449463
1789038129748076500,3.24207666015625,-1.9853951930999756,-6.1512322425842285,7.375020980834961
1789038129758076700,3.25207666015625,-2.006439447402954,-6.186685085296631,7.339585781097412
1789038129768076500,3.26207666015625,-2.032325029373169,-6.214794158935547,7.308650493621826
1789038129778076700,3.27207666015625,-2.0638790130615234,-6.2281622886657715,7.288400173187256
1789038129788076500,3.28207666015625,-2.09562087059021,-6.230955600738525,7.276947021484375
1789038129798076700,3.29207666015625,-2.11350679397583,-6.233364582061768,7.269707202911377
1789038129808076500,3.30207666015625,-2.1152260303497314,-6.243366718292236,7.260617733001709
1789038129818076700,3.31207666015625,-2.11832857131958,-6.261023044586182,7.2444915771484375
1789038129828076500,3.32207666015625,-2.119359016418457,-6.285562038421631,7.222908973693848
1789038129838076700,3.33207666015625,-2.114295721054077,-6.314507007598877,7.199106693267822
1789038129848076500,3.34207666015625,-2.1052422523498535,-6.343711853027344,7.1760478019714355
1789038129858076700,3.35207666015625,-2.0937705039978027,-6.36647367477417,7.159226417541504
1789038129868076500,3.36207666015625,-2.072706460952759,-6.384644985198975,7.149167060852051
1789038129878076700,3.37207666015625,-2.0347087383270264,-6.400597095489502,7.145817756652832
1789038129888076500,3.38207666015625,-1.9866997003555298,-6.405993461608887,7.154486179351807
1789038129898076700,3.39207666015625,-1.9512546062469482,-6.396670341491699,7.172558784484863
1789038129908076500,3.40207666015625,-1.9317628145217896,-6.383999347686768,7.189105033874512
1789038129918076700,3.41207666015625,-1.9150359630584717,-6.372420787811279,7.203837871551514
1789038129928076500,3.42207666015625,-1.8681590557098389,-6.361975193023682,7.225346088409424
1789038129938076700,3.43207666015625,-1.7805944681167603,-6.369006633758545,7.241244316101074
1789038129948076500,3.44207666015625,-1.7015756368637085,-6.392582416534424,7.239469528198242
1789038129958076700,3.45207666015625,-1.6514196395874023,-6.436572551727295,7.21205472946167
1789038129968076500,3.46207666015625,-1.5548608303070068,-6.51265811920166,7.165060520172119
1789038129978076700,3.47207666015625,-1.412459135055542,-6.621827125549316,7.09413480758667
1789038129988076500,3.48207666015625,-1.2537708282470703,-6.729815483093262,7.021968364715576
1789038129998076700,3.49207666015625,-1.1319153308868408,-6.819729328155518,6.955606460571289
1789038130008076500,3.50207666015625,-1.048011302947998,-6.915613174438477,6.873598098754883
1789038130018076700,3.51207666015625,-0.9647414088249207,-7.075761795043945,6.721104621887207
1789038130028076500,3.52207666015625,-0.854638397693634,-7.310225486755371,6.4807844161987305
1789038130038076700,3.53207666015625,-0.7414118051528931,-7.513715744018555,6.258177280426025
1789038130048076500,3.54207666015625,-0.7262820601463318,-7.6550140380859375,6.086349964141846
1789038130058076700,3.55207666015625,-0.8448140621185303,-7.757723331451416,5.9392266273498535
1789038130068076500,3.56207666015625,-1.0193848609924316,-7.849647521972656,5.789151668548584
1789038130078076700,3.57207666015625,-1.1756666898727417,-7.948734760284424,5.621905326843262
1789038130088076500,3.58207666015625,-1.2595936059951782,-8.049687385559082,5.457686424255371
1789038130098076700,3.59207666015625,-1.269014596939087,-8.151288986206055,5.302496433258057
1789038130108076500,3.60207666015625,-1.2387727499008179,-8.249369621276855,5.155940055847168
1789038130118076700,3.61207666015625,-1.215482473373413,-8.337060928344727,5.018607139587402
1789038130128076500,3.62207666015625,-1.202715516090393,-8.42420768737793,4.874072551727295
1789038130138076700,3.63207666015625,-1.1815109252929688,-8.519669532775879,4.710589408874512
1789038130148076500,3.64207666015625,-1.1548819541931152,-8.631853103637695,4.508630752563477
1789038130158076700,3.65207666015625,-1.1042433977127075,-8.748120307922363,4.292020797729492
1789038130168076500,3.66207666015625,-1.042739987373352,-8.848184585571289,4.097892761230469
1789038130178076700,3.67207666015625,-0.9740009307861328,-8.92995548248291,3.93415904045105
1789038130188076500,3.68207666015625,-0.9296906590461731,-8.993069648742676,3.79878306388855
1789038130198076700,3.69207666015625,-0.9321106672286987,-9.03906536102295,3.6873929500579834
1789038130208076500,3.70207666015625,-0.9833446741104126,-9.066529273986816,3.6057543754577637
1789038130218076700,3.71207666015625,-1.068268060684204,-9.077779769897461,3.552901029586792
1789038130228076500,3.72207666015625,-1.1582415103912354,-9.07687759399414,3.526918411254883
1789038130238076700,3.73207666015625,-1.228858470916748,-9.074116706848145,3.5100858211517334
1789038130248076500,3.74207666015625,-1.264204740524292,-9.07805347442627,3.487279176712036
1789038130258076700,3.75207666015625,-1.2601134777069092,-9.092508316040039,3.4509122371673584
1789038130268076500,3.76207666015625,-1.2347995042800903,-9.109945297241211,3.413876533508301
1789038130278076700,3.77207666015625,-1.222893476486206,-9.123229026794434,3.3825466632843018
1789038130288076500,3.78207666015625,-1.2506362199783325,-9.128267288208008,3.35872483253479
1789038130298076700,3.79207666015625,-1.295127511024475,-9.127684593200684,3.3434135913848877
1789038130308076500,3.80207666015625,-1.3238385915756226,-9.136460304260254,3.308009147644043
1789038130318076700,3.81207666015625,-1.318159580230713,-9.160497665405273,3.2431650161743164
1789038130328076500,3.82207666015625,-1.323122262954712,-9.186708450317383,3.166088581085205
1789038130338076700,3.83207666015625,-1.3460556268692017,-9.212386131286621,3.080658435821533
1789038130348076500,3.84207666015625,-1.367374062538147,-9.234709739685059,3.0034666061401367
1789038130358076700,3.85207666015625,-1.3799022436141968,-9.258864402770996,2.922274351119995
1789038130368076500,3.86207666015625,-1.3816094398498535,-9.286542892456055,2.83225417137146
1789038130378076700,3.87207666015625,-1.3739222288131714,-9.31342601776123,2.74642014503479
1789038130388076500,3.88207666015625,-1.3619062900543213,-9.339018821716309,2.6642680168151855
1789038130398076700,3.89207666015625,-1.340813159942627,-9.366775512695312,2.5760674476623535
1789038130408076500,3.90207666015625,-1.291758418083191,-9.396361351013184,2.4920167922973633
1789038130418076700,3.91207666015625,-1.2013357877731323,-9.427586555480957,2.4182205200195312
1789038130428076500,3.92207666015625,-1.0718504190444946,-9.459192276000977,2.3548240661621094
1789038130438076700,3.93207666015625,-0.9061962962150574,-9.491899490356445,2.2919492721557617
1789038130448076500,3.94207666015625,-0.7080670595169067,-9.524786949157715,2.224287748336792
1789038130458076700,3.95207666015625,-0.4930584728717804,-9.554004669189453,2.155987024307251
1789038130468076500,3.96207666015625,-0.30221500992774963,-9.573861122131348,2.102433919906616
1789038130478076700,3.97207666015625,-0.16925957798957825,-9.58605670928955,2.0613694190979004
1789038130488076500,3.98207666015625,-0.11243262141942978,-9.59477710723877,2.0243489742279053
1789038130498076700,3.99207666015625,-0.10098070651292801,-9.599559783935547,2.0021581649780273
1789038130508076500,4.00207666015625,-0.12713180482387543,-9.600833892822266,1.9945472478866577
1789038130518076700,4.01207666015625,-0.1737680584192276,-9.599230766296387,1.9987396001815796
1789038130528076500,4.02207666015625,-0.2402563840150833,-9.598234176635742,1.9966392517089844
1789038130538076700,4.03207666015625,-0.33108317852020264,-9.597102165222168,1.9890670776367188
1789038130548076500,4.04207666015625,-0.4551793038845062,-9.593005180358887,1.9843026399612427
1789038130558076700,4.05207666015625,-0.607101321220398,-9.583617210388184,1.9889947175979614
1789038130568076500,4.06207666015625,-0.7790824770927429,-9.568666458129883,2.001011371612549
1789038130578076700,4.07207666015625,-0.9487683773040771,-9.550422668457031,2.014857769012451
1789038130588076500,4.08207666015625,-1.0889925956726074,-9.534096717834473,2.021258592605591
1789038130598076700,4.09207666015625,-1.1816952228546143,-9.523183822631836,2.020630359649658
1789038130608076500,4.10207666015625,-1.2356151342391968,-9.5172758102417,2.016209602355957
1789038130618076700,4.11207666015625,-1.288335919380188,-9.512396812438965,2.0062079429626465
1789038130628076500,4.12207666015625,-1.3525669574737549,-9.504725456237793,2.0002851486206055
1789038130638076700,4.13207666015625,-1.4086326360702515,-9.494393348693848,2.0106310844421387
1789038130648076500,4.14207666015625,-1.4391639232635498,-9.483148574829102,2.041835308074951
1789038130658076700,4.15207666015625,-1.447981834411621,-9.47248363494873,2.084651470184326
1789038130668076500,4.16207666015625,-1.4455091953277588,-9.463360786437988,2.1273694038391113
1789038130678076700,4.17207666015625,-1.4320228099822998,-9.458351135253906,2.158536672592163
1789038130688076500,4.18207666015625,-1.4125308990478516,-9.456198692321777,2.180699110031128
1789038130698076700,4.19207666015625,-1.3931219577789307,-9.454039573669434,2.202439069747925
1789038130708076500,4.20207666015625,-1.3704458475112915,-9.45002555847168,2.2336714267730713
1789038130718076700,4.21207666015625,-1.33245050907135,-9.444425582885742,2.2798664569854736
1789038130728076500,4.22207666015625,-1.2775332927703857,-9.437583923339844,2.3388679027557373
1789038130738076700,4.23207666015625,-1.2256194353103638,-9.426421165466309,2.4105653762817383
1789038130748076500,4.24207666015625,-1.1949735879898071,-9.407754898071289,2.4973106384277344
1789038130758076700,4.25207666015625,-1.1953473091125488,-9.37973690032959,2.6003992557525635
1789038130768076500,4.26207666015625,-1.2138773202896118,-9.349066734313965,2.7003421783447266
1789038130778076700,4.27207666015625,-1.2299388647079468,-9.323038101196289,2.7818336486816406
1789038130788076500,4.28207666015625,-1.2386020421981812,-9.298274040222168,2.8597795963287354
1789038130798076700,4.29207666015625,-1.2404941320419312,-9.275714874267578,2.9313275814056396
1789038130808076500,4.30207666015625,-1.2338780164718628,-9.260416030883789,2.982051372528076
1789038130818076700,4.31207666015625,-1.2177993059158325,-9.25396728515625,3.0085625648498535
1789038130828076500,4.32207666015625,-1.1916346549987793,-9.2529878616333,3.022022008895874
1789038130838076700,4.33207666015625,-1.157504916191101,-9.25538158416748,3.027949094772339
1789038130848076500,4.34207666015625,-1.1202751398086548,-9.26257610321045,3.019944667816162
1789038130858076700,4.35207666015625,-1.0704398155212402,-9.270215034484863,3.0145742893218994
1789038130868076500,4.36207666015625,-1.015140175819397,-9.27477741241455,3.019665479660034
1789038130878076700,4.37207666015625,-0.9711891412734985,-9.275190353393555,3.032824993133545
1789038130888076500,4.38207666015625,-0.9549936652183533,-9.269584655761719,3.055027961730957
1789038130898076700,4.39207666015625,-0.9722914099693298,-9.25875473022461,3.082289457321167
1789038130908076500,4.40207666015625,-1.0115141868591309,-9.248432159423828,3.100604772567749
1789038130918076700,4.41207666015625,-1.0612927675247192,-9.239192008972168,3.1114919185638428
1789038130928076500,4.42207666015625,-1.108389973640442,-9.231401443481445,3.1181883811950684
1789038130938076700,4.43207666015625,-1.1420308351516724,-9.22562026977539,3.123152017593384
1789038130948076500,4.44207666015625,-1.1576532125473022,-9.222024917602539,3.128016948699951
1789038130958076700,4.45207666015625,-1.1578092575073242,-9.220901489257812,3.1312694549560547
1789038130968076500,4.46207666015625,-1.1501644849777222,-9.22313404083252,3.1275062561035156
1789038130978076700,4.47207666015625,-1.1385371685028076,-9.227859497070312,3.117809772491455
1789038130988076500,4.48207666015625,-1.1217432022094727,-9.234756469726562,3.1034417152404785
1789038130998076700,4.49207666015625,-1.0936000347137451,-9.243345260620117,3.087878942489624
1789038131008076500,4.50207666015625,-1.0550392866134644,-9.254919052124023,3.0665512084960938
1789038131018076700,4.51207666015625,-1.0202171802520752,-9.262811660766602,3.054485321044922
1789038131028076500,4.52207666015625,-0.9971022605895996,-9.26724624633789,3.048659086227417
1789038131038076700,4.53207666015625,-0.9966708421707153,-9.262276649475098,3.0638644695281982
1789038131048076500,4.54207666015625,-1.0267919301986694,-9.248909950256348,3.094146728515625
1789038131058076700,4.55207666015625,-1.0825592279434204,-9.232806205749512,3.1230976581573486
1789038131068076500,4.56207666015625,-1.1468229293823242,-9.217184066772461,3.146219491958618
1789038131078076700,4.57207666015625,-1.1986805200576782,-9.203594207763672,3.166609525680542
1789038131088076500,4.58207666015625,-1.2272785902023315,-9.192605018615723,3.187504529953003
1789038131098076700,4.59207666015625,-1.2316880226135254,-9.185647010803223,3.205810070037842
1789038131108076500,4.60207666015625,-1.2201881408691406,-9.180410385131836,3.2251498699188232
1789038131118076700,4.61207666015625,-1.2032203674316406,-9.176944732666016,3.241346836090088
1789038131128076500,4.62207666015625,-1.1906274557113647,-9.172167778015137,3.2594680786132812
1789038131138076700,4.63207666015625,-1.1855957508087158,-9.163691520690918,3.285043716430664
1789038131148076500,4.64207666015625,-1.186010718345642,-9.152694702148438,3.315410614013672
1789038131158076700,4.65207666015625,-1.1864203214645386,-9.140539169311523,3.3486318588256836
1789038131168076500,4.66207666015625,-1.183465600013733,-9.129691123962402,3.3791322708129883
1789038131178076700,4.67207666015625,-1.1783124208450317,-9.119421005249023,3.4085357189178467
1789038131188076500,4.68207666015625,-1.1729539632797241,-9.109993934631348,3.4354870319366455
1789038131198076700,4.69207666015625,-1.1687726974487305,-9.101390838623047,3.4596314430236816
1789038131208076500,4.70207666015625,-1.1671804189682007,-9.09530258178711,3.476140260696411
1789038131218076700,4.71207666015625,-1.1671040058135986,-9.091766357421875,3.4854021072387695
1789038131228076500,4.72207666015625,-1.1665630340576172,-9.089920997619629,3.4903953075408936
1789038131238076700,4.73207666015625,-1.1653491258621216,-9.090709686279297,3.4887454509735107
1789038131248076500,4.74207666015625,-1.1610850095748901,-9.092480659484863,3.4855520725250244
1789038131258076700,4.75207666015625,-1.1637334823608398,-9.097647666931152,3.471156120300293
1789038131268076500,4.76207666015625,-1.1756248474121094,-9.104098320007324,3.450171709060669
1789038131278076700,4.77207666015625,-1.1973296403884888,-9.11152458190918,3.422995090484619
1789038131288076500,4.78207666015625,-1.2171800136566162,-9.117308616638184,3.4005188941955566
1789038131298076700,4.79207666015625,-1.225089430809021,-9.122668266296387,3.383263111114502
1789038131308076500,4.80207666015625,-1.2234941720962524,-9.128422737121582,3.3682849407196045
1789038131318076700,4.81207666015625,-1.2189226150512695,-9.132808685302734,3.358039617538452
1789038131328076500,4.82207666015625,-1.2141590118408203,-9.13633918762207,3.350151777267456
1789038131338076700,4.83207666015625,-1.2099847793579102,-9.139742851257324,3.342369318008423
1789038131348076500,4.84207666015625,-1.2067930698394775,-9.143136978149414,3.3342297077178955
1789038131358076700,4.85207666015625,-1.2029800415039062,-9.146161079406738,3.3273065090179443
1789038131368076500,4.86207666015625,-1.1969776153564453,-9.149566650390625,3.320099115371704
1789038131378076700,4.87207666015625,-1.189455509185791,-9.15302562713623,3.313260555267334
1789038131388076500,4.88207666015625,-1.1823437213897705,-9.157224655151367,3.3041915893554688
1789038131398076700,4.89207666015625,-1.1787103414535522,-9.161940574645996,3.2923951148986816
1789038131408076500,4.90207666015625,-1.1773388385772705,-9.166709899902344,3.2795867919921875
1789038131418076700,4.91207666015625,-1.1772973537445068,-9.171710014343262,3.2655928134918213
1789038131428076500,4.92207666015625,-1.1782995462417603,-9.177197456359863,3.249779462814331
1789038131438076700,4.93207666015625,-1.1804885864257812,-9.18326473236084,3.231795072555542
1789038131448076500,4.94207666015625,-1.1832294464111328,-9.189986228942871,3.2116191387176514
1789038131458076700,4.95207666015625,-1.1865493059158325,-9.197054862976074,3.1900908946990967
1789038131468076500,4.96207666015625,-1.189687728881836,-9.203857421875,3.16923451423645
1789038131478076700,4.97207666015625,-1.1921827793121338,-9.210319519042969,3.1494598388671875
1789038131488076500,4.98207666015625,-1.1950610876083374,-9.216279983520508,3.1308786869049072
1789038131498076700,4.99207666015625,-1.1993249654769897,-9.220972061157227,3.1153926849365234
1789038131508076500,5.00207666015625,-1.20478355884552,-9.225826263427734,3.0988712310791016
1789038131518076700,5.01207666015625,-1.212937355041504,-9.228985786437988,3.086256742477417
1789038131528076500,5.02207666015625,-1.2214252948760986,-9.231766700744629,3.0745723247528076
1789038131538076700,5.03207666015625,-1.2291383743286133,-9.234465599060059,3.0633721351623535
1789038131548076500,5.04207666015625,-1.2358266115188599,-9.238241195678711,3.049265146255493
1789038131558076700,5.05207666015625,-1.2417399883270264,-9.242159843444824,3.0349531173706055
1789038131568076500,5.06207666015625,-1.2467398643493652,-9.246296882629395,3.0202701091766357
1789038131578076700,5.07207666015625,-1.2515230178833008,-9.250609397888184,3.005045175552368
1789038131588076500,5.08207666015625,-1.2566524744033813,-9.254243850708008,2.9916863441467285
1789038131598076700,5.09207666015625,-1.2622601985931396,-9.25794506072998,2.9778389930725098
1789038131608076500,5.10207666015625,-1.2671035528182983,-9.261453628540039,2.9648468494415283
1789038131618076700,5.11207666015625,-1.2689298391342163,-9.26504135131836,2.952831745147705
1789038131628076500,5.12207666015625,-1.2669470310211182,-9.268783569335938,2.94191837310791
1789038131638076700,5.13207666015625,-1.2624338865280151,-9.27279281616211,2.931204319000244
1789038131648076500,5.14207666015625,-1.257049560546875,-9.27724552154541,2.919405937194824
1789038131658076700,5.15207666015625,-1.2518404722213745,-9.281594276428223,2.9078004360198975
1789038131668076500,5.16207666015625,-1.2477091550827026,-9.285660743713379,2.8965718746185303
1789038131678076700,5.17207666015625,-1.245261549949646,-9.289984703063965,2.8837318420410156
1789038131688076500,5.18207666015625,-1.2431691884994507,-9.294010162353516,2.8716344833374023
1789038131698076700,5.19207666015625,-1.2409836053848267,-9.298032760620117,2.8595328330993652
1789038131708076500,5.20207666015625,-1.2397271394729614,-9.302070617675781,2.8469183444976807
1789038131718076700,5.21207666015625,-1.2399314641952515,-9.306539535522461,2.8321850299835205
1789038131728076500,5.22207666015625,-1.2405680418014526,-9.310274124145508,2.819605827331543
1789038131738076700,5.23207666015625,-1.2422630786895752,-9.3138427734375,2.807046890258789
1789038131748076500,5.24207666015625,-1.2444452047348022,-9.3182954788208,2.7912566661834717
1789038131758076700,5.25207666015625,-1.2470457553863525,-9.32325553894043,2.7734742164611816
1789038131768076500,5.26207666015625,-1.2509568929672241,-9.328498840332031,2.754016399383545
1789038131778076700,5.27207666015625,-1.2561352252960205,-9.332789421081543,2.7370681762695312
1789038131788076500,5.28207666015625,-1.2628718614578247,-9.336380004882812,2.7216804027557373
1789038131798076700,5.29207666015625,-1.270985722541809,-9.340332984924316,2.7042863368988037
1789038131808076500,5.30207666015625,-1.2797788381576538,-9.341998100280762,2.694371223449707
1789038131818076700,5.31207666015625,-1.2890396118164062,-9.343576431274414,2.684464931488037
1789038131828076500,5.32207666015625,-1.2983930110931396,-9.345450401306152,2.6734094619750977
1789038131838076700,5.33207666015625,-1.3054863214492798,-9.347742080688477,2.6619205474853516
1789038131848076500,5.34207666015625,-1.309736967086792,-9.350927352905273,2.648609161376953
1789038131858076700,5.35207666015625,-1.3140202760696411,-9.354308128356934,2.634514093399048
1789038131868076500,5.36207666015625,-1.318605899810791,-9.357281684875488,2.621631145477295
1789038131878076700,5.37207666015625,-1.3235102891921997,-9.360254287719727,2.6085145473480225
1789038131888076500,5.38207666015625,-1.329973816871643,-9.363587379455566,2.5932209491729736
1789038131898076700,5.39207666015625,-1.337548851966858,-9.365742683410645,2.5815131664276123
1789038131908076500,5.40207666015625,-1.347140908241272,-9.368773460388184,2.565479278564453
1789038131918076700,5.41207666015625,-1.3591008186340332,-9.370954513549805,2.5511691570281982
1789038131928076500,5.42207666015625,-1.3603236675262451,-9.372064590454102,2.54643177986145
1789038131938076700,5.43207666015625,-1.3316956758499146,-9.365283966064453,2.5861992835998535
1789038131948076500,5.44207666015625,-1.3111919164657593,-9.361162185668945,2.611473798751831
1789038131958076700,5.45207666015625,-1.3004828691482544,-9.35815143585205,2.6275713443756104
1789038131968076500,5.46207666015625,-1.3060832023620605,-9.352862358093262,2.643580198287964
1789038131978076700,5.47207666015625,-1.3208969831466675,-9.346099853515625,2.6600818634033203
1789038131988076500,5.48207666015625,-1.3380411863327026,-9.340486526489258,2.6712076663970947
1789038131998076700,5.49207666015625,-1.3504717350006104,-9.33598518371582,2.680669069290161
1789038132008076500,5.50207666015625,-1.360365867614746,-9.333078384399414,2.685786485671997
1789038132018076700,5.51207666015625,-1.3690129518508911,-9.331226348876953,2.6878252029418945
1789038132028076500,5.52207666015625,-1.3855786323547363,-9.327804565429688,2.6912107467651367
1789038132038076700,5.53207666015625,-1.4046945571899414,-9.322565078735352,2.6994447708129883
1789038132048076500,5.54207666015625,-1.4268628358840942,-9.315326690673828,2.7127745151519775
1789038132058076700,5.55207666015625,-1.4512954950332642,-9.306692123413086,2.729398727416992
1789038132068076500,5.56207666015625,-1.4783984422683716,-9.296854972839355,2.74831485748291
1789038132078076700,5.57207666015625,-1.507201910018921,-9.287034034729004,2.7658145427703857
1789038132088076500,5.58207666015625,-1.5362945795059204,-9.276829719543457,2.783993721008301
1789038132098076700,5.59207666015625,-1.5638786554336548,-9.26674747467041,2.802151918411255
1789038132108076500,5.60207666015625,-1.5927659273147583,-9.260335922241211,2.8070719242095947
1789038132118076700,5.61207666015625,-1.619012713432312,-9.254838943481445,2.8101871013641357
1789038132128076500,5.62207666015625,-1.6428003311157227,-9.250775337219238,2.8097567558288574
1789038132138076700,5.63207666015625,-1.6649134159088135,-9.247024536132812,2.8090898990631104
1789038132148076500,5.64207666015625,-1.6852456331253052,-9.243758201599121,2.8077142238616943
1789038132158076700,5.65207666015625,-1.7018353939056396,-9.241035461425781,2.806673288345337
1789038132168076500,5.66207666015625,-1.7151075601577759,-9.23915958404541,2.804771661758423
1789038132178076700,5.67207666015625,-1.724949598312378,-9.238781929016113,2.799971580505371
1789038132188076500,5.68207666015625,-1.7305957078933716,-9.240578651428223,2.790540933609009
1789038132198076700,5.69207666015625,-1.7312723398208618,-9.243680953979492,2.7798304557800293
1789038132208076500,5.70207666015625,-1.7265183925628662,-9.248079299926758,2.768127918243408
1789038132218076700,5.71207666015625,-1.7170639038085938,-9.25426959991455,2.7532835006713867
1789038132228076500,5.72207666015625,-1.7038284540176392,-9.262641906738281,2.733276128768921
1789038132238076700,5.73207666015625,-1.688428282737732,-9.272085189819336,2.710723876953125
1789038132248076500,5.74207666015625,-1.671937346458435,-9.282451629638672,2.6853513717651367
1789038132258076700,5.75207666015625,-1.6552352905273438,-9.293228149414062,2.6582906246185303
1789038132268076500,5.76207666015625,-1.638454794883728,-9.30423641204834,2.6300244331359863
1789038132278076700,5.77207666015625,-1.6219210624694824,-9.315725326538086,2.5994293689727783
1789038132288076500,5.78207666015625,-1.6067575216293335,-9.327652931213379,2.565854072570801
1789038132298076700,5.79207666015625,-1.5932191610336304,-9.339874267578125,2.5295815467834473
1789038132308076500,5.80207666015625,-1.5815086364746094,-9.352158546447754,2.491255760192871
1789038132318076700,5.81207666015625,-1.5719168186187744,-9.363873481750488,2.4530282020568848
1789038132328076500,5.82207666015625,-1.5636945962905884,-9.375182151794434,2.4147913455963135
1789038132338076700,5.83207666015625,-1.5556076765060425,-9.385824203491211,2.3783977031707764
1789038132348076500,5.84207666015625,-1.5470967292785645,-9.39592456817627,2.3438174724578857
1789038132358076700,5.85207666015625,-1.538072109222412,-9.405001640319824,2.3131487369537354
1789038132368076500,5.86207666015625,-1.5298548936843872,-9.412810325622559,2.2866878509521484
1789038132378076700,5.87207666015625,-1.524397611618042,-9.41933536529541,2.2633440494537354
1789038132388076500,5.88207666015625,-1.5240055322647095,-9.42367935180664,2.2454535961151123
1789038132398076700,5.89207666015625,-1.528902530670166,-9.426026344299316,2.2322347164154053
1789038132408076500,5.90207666015625,-1.5377775430679321,-9.42648696899414,2.224177122116089
1789038132418076700,5.91207666015625,-1.548813819885254,-9.424893379211426,2.2232754230499268
1789038132428076500,5.92207666015625,-1.5616503953933716,-9.421321868896484,2.2294273376464844
1789038132438076700,5.93207666015625,-1.578418254852295,-9.415641784667969,2.2415781021118164
1789038132448076500,5.94207666015625,-1.6025161743164062,-9.407024383544922,2.2605788707733154
1789038132458076700,5.95207666015625,-1.6362987756729126,-9.39500617980957,2.286212921142578
1789038132468076500,5.96207666015625,-1.6813809871673584,-9.37875747680664,2.3199687004089355
1789038132478076700,5.97207666015625,-1.7372065782546997,-9.357117652893066,2.3657643795013428
1789038132488076500,5.98207666015625,-1.8022648096084595,-9.329453468322754,2.425595760345459
1789038132498076700,5.99207666015625,-1.874733567237854,-9.295368194580078,2.5003809928894043
1789038132508076500,6.00207666015625,-1.952803373336792,-9.254701614379883,2.589872121810913
1789038132518076700,6.01207666015625,-2.0337300300598145,-9.206754684448242,2.6962921619415283
1789038132528076500,6.02207666015625,-2.116060972213745,-9.151504516601562,2.818267583847046
1789038132538076700,6.03207666015625,-2.2014126777648926,-9.088044166564941,2.9549293518066406
1789038132548076500,6.04207666015625,-2.2928500175476074,-9.015954971313477,3.1025431156158447
1789038132558076700,6.05207666015625,-2.3927557468414307,-8.932777404785156,3.2635254859924316
1789038132568076500,6.06207666015625,-2.500206470489502,-8.83708381652832,3.438793659210205
1789038132578076700,6.07207666015625,-2.6101832389831543,-8.728401184082031,3.6293723583221436
1789038132588076500,6.08207666015625,-2.7174386978149414,-8.6073579788208,3.8339667320251465
1789038132598076700,6.09207666015625,-2.821002721786499,-8.47779369354248,4.042194366455078
1789038132608076500,6.10207666015625,-2.9194159507751465,-8.346567153930664,4.240543365478516
1789038132618076700,6.11207666015625,-3.007258892059326,-8.217546463012695,4.427042007446289
1789038132628076500,6.12207666015625,-3.0832135677337646,-8.092501640319824,4.601695537567139
1789038132638076700,6.13207666015625,-3.153625249862671,-7.971102237701416,4.763041019439697
1789038132648076500,6.14207666015625,-3.225611448287964,-7.84987735748291,4.913780212402344
1789038132658076700,6.15207666015625,-3.3031508922576904,-7.726037979125977,5.056473255157471
1789038132668076500,6.16207666015625,-3.3883886337280273,-7.599003314971924,5.1907958984375
1789038132678076700,6.17207666015625,-3.480377435684204,-7.468647480010986,5.317579746246338
1789038132688076500,6.18207666015625,-3.5772287845611572,-7.332784175872803,5.440964221954346
1789038132698076700,6.19207666015625,-3.6775448322296143,-7.188411235809326,5.565320014953613
1789038132708076500,6.20207666015625,-3.7834789752960205,-7.031739711761475,5.693005084991455
1789038132718076700,6.21207666015625,-3.8931446075439453,-6.86200475692749,5.8246636390686035
1789038132728076500,6.22207666015625,-4.00039529800415,-6.682322978973389,5.959344863891602
1789038132738076700,6.23207666015625,-4.101088523864746,-6.500716686248779,6.090332508087158
1789038132748076500,6.24207666015625,-4.204923152923584,-6.317391395568848,6.211245536804199
1789038132758076700,6.25207666015625,-4.3102240562438965,-6.129959583282471,6.3258161544799805
1789038132768076500,6.26207666015625,-4.4116668701171875,-5.938298225402832,6.437716960906982
1789038132778076700,6.27207666015625,-4.509359359741211,-5.738992691040039,6.549810886383057
1789038132788076500,6.28207666015625,-4.605209827423096,-5.532900810241699,6.6595377922058105
1789038132798076700,6.29207666015625,-4.700562477111816,-5.321621894836426,6.76427698135376
1789038132808076500,6.30207666015625,-4.798404693603516,-5.112983703613281,6.855880260467529
1789038132818076700,6.31207666015625,-4.9025559425354,-4.914843559265137,6.926734447479248
1789038132828076500,6.32207666015625,-4.999029159545898,-4.724422454833984,6.989987373352051
1789038132838076700,6.33207666015625,-5.090954780578613,-4.535278797149658,7.048675537109375
1789038132848076500,6.34207666015625,-5.190999984741211,-4.343801021575928,7.096147060394287
1789038132858076700,6.35207666015625,-5.2883195877075195,-4.153742790222168,7.137960433959961
1789038132868076500,6.36207666015625,-5.369107246398926,-3.9709930419921875,7.18152379989624
1789038132878076700,6.37207666015625,-5.4354248046875,-3.7959890365600586,7.226134300231934
1789038132888076500,6.38207666015625,-5.494466304779053,-3.6257879734039307,7.268762111663818
1789038132898076700,6.39207666015625,-5.547860145568848,-3.461625337600708,7.308131217956543
1789038132908076500,6.40207666015625,-5.586165428161621,-3.303870916366577,7.351841449737549
1789038132918076700,6.41207666015625,-5.610264778137207,-3.157191753387451,7.397801399230957
1789038132928076500,6.42207666015625,-5.620882511138916,-3.0232858657836914,7.445522785186768
1789038132938076700,6.43207666015625,-5.620513439178467,-2.90675687789917,7.492061138153076
1789038132948076500,6.44207666015625,-5.622527599334717,-2.8091909885406494,7.527684211730957
1789038132958076700,6.45207666015625,-5.632275581359863,-2.7274861335754395,7.550409317016602
1789038132968076500,6.46207666015625,-5.651005744934082,-2.6590018272399902,7.560835361480713
1789038132978076700,6.47207666015625,-5.681745529174805,-2.599442481994629,7.558509349822998
1789038132988076500,6.48207666015625,-5.71787166595459,-2.5500128269195557,7.548096179962158
1789038132998076700,6.49207666015625,-5.734743118286133,-2.5121071338653564,7.548008441925049
1789038133008076500,6.50207666015625,-5.735047340393066,-2.4830760955810547,7.557377338409424
1789038133018076700,6.51207666015625,-5.727751731872559,-2.466780662536621,7.568239688873291
1789038133028076500,6.52207666015625,-5.718905925750732,-2.4565162658691406,7.57826042175293
1789038133038076700,6.53207666015625,-5.7094902992248535,-2.446514844894409,7.588589191436768
1789038133048076500,6.54207666015625,-5.699047088623047,-2.437030076980591,7.599482536315918
1789038133058076700,6.55207666015625,-5.686320781707764,-2.4295008182525635,7.611417770385742
1789038133068076500,6.56207666015625,-5.671428203582764,-2.423516035079956,7.624424457550049
1789038133078076700,6.57207666015625,-5.6619648933410645,-2.412033796310425,7.635091781616211
1789038133088076500,6.58207666015625,-5.66558837890625,-2.386397361755371,7.640459060668945
1789038133098076700,6.59207666015625,-5.682844161987305,-2.337292194366455,7.642822742462158
1789038133108076500,6.60207666015625,-5.702225685119629,-2.266474485397339,7.649712562561035
1789038133118076700,6.61207666015625,-5.724465847015381,-2.184199571609497,7.657033443450928
1789038133128076500,6.62207666015625,-5.7615966796875,-2.1014363765716553,7.652342796325684
1789038133138076700,6.63207666015625,-5.813464641571045,-2.0147511959075928,7.636412620544434
1789038133148076500,6.64207666015625,-5.876038074493408,-1.9273345470428467,7.6110405921936035
1789038133158076700,6.65207666015625,-5.945372104644775,-1.8491734266281128,7.576508522033691
1789038133168076500,6.66207666015625,-6.005082130432129,-1.7854806184768677,7.544629096984863
1789038133178076700,6.67207666015625,-6.058742046356201,-1.733315348625183,7.513830184936523
1789038133188076500,6.68207666015625,-6.111316204071045,-1.6862207651138306,7.481902599334717
1789038133198076700,6.69207666015625,-6.158555507659912,-1.6413460969924927,7.453091144561768
1789038133208076500,6.70207666015625,-6.196606636047363,-1.5976182222366333,7.431020736694336
1789038133218076700,6.71207666015625,-6.224312782287598,-1.5516245365142822,7.417598724365234
1789038133228076500,6.72207666015625,-6.243097305297852,-1.5003509521484375,7.412359714508057
1789038133238076700,6.73207666015625,-6.256289482116699,-1.4435725212097168,7.412511348724365
1789038133248076500,6.74207666015625,-6.260458946228027,-1.3864637613296509,7.4198899269104
1789038133258076700,6.75207666015625,-6.264777183532715,-1.3299459218978882,7.426587104797363
1789038133268076500,6.76207666015625,-6.278705596923828,-1.2718777656555176,7.4249958992004395
1789038133278076700,6.77207666015625,-6.302725315093994,-1.210145115852356,7.414957046508789
1789038133288076500,6.78207666015625,-6.336174964904785,-1.1425092220306396,7.397159099578857
1789038133298076700,6.79207666015625,-6.3774919509887695,-1.0698059797286987,7.372481346130371
1789038133308076500,6.80207666015625,-6.4256720542907715,-0.9930062890052795,7.341325283050537
1789038133318076700,6.81207666015625,-6.476598262786865,-0.9158153533935547,7.306528091430664
1789038133328076500,6.82207666015625,-6.523840427398682,-0.8387070894241333,7.273683547973633
1789038133338076700,6.83207666015625,-6.564427375793457,-0.7608645558357239,7.24567174911499
1789038133348076500,6.84207666015625,-6.5987629890441895,-0.6794667840003967,7.222537517547607
1789038133358076700,6.85207666015625,-6.626369476318359,-0.5939147472381592,7.204782009124756
1789038133368076500,6.86207666015625,-6.644957065582275,-0.5006581544876099,7.194739818572998
1789038133378076700,6.87207666015625,-6.652921676635742,-0.4008182883262634,7.193634033203125
1789038133388076500,6.88207666015625,-6.649387836456299,-0.2972266972064972,7.2019219398498535
1789038133398076700,6.89207666015625,-6.639492034912109,-0.1953565925359726,7.214524269104004
1789038133408076500,6.90207666015625,-6.628483772277832,-0.08864743262529373,7.226737022399902
1789038133418076700,6.91207666015625,-6.621469497680664,0.025597406551241875,7.233663082122803
1789038133428076500,6.92207666015625,-6.6206231117248535,0.1400335282087326,7.233127117156982
1789038133438076700,6.93207666015625,-6.628039836883545,0.2465163767337799,7.223483562469482
1789038133448076500,6.94207666015625,-6.638921737670898,0.34040367603302,7.209663391113281
1789038133458076700,6.95207666015625,-6.649616718292236,0.42053309082984924,7.1955647468566895
1789038133468076500,6.96207666015625,-6.662846088409424,0.4884207546710968,7.179019451141357
1789038133478076700,6.97207666015625,-6.6724653244018555,0.5496714115142822,7.165643692016602
1789038133488076500,6.98207666015625,-6.6826019287109375,0.6060798168182373,7.151634693145752
1789038133498076700,6.99207666015625,-6.699365139007568,0.6507435441017151,7.132000923156738
1789038133508076500,7.00207666015625,-6.7201151847839355,0.6817280650138855,7.109548568725586
1789038133518076700,7.01207666015625,-6.742363929748535,0.7051098346710205,7.086165428161621
1789038133528076500,7.02207666015625,-6.760613918304443,0.7270724773406982,7.066529273986816
1789038133538076700,7.03207666015625,-6.7762932777404785,0.7494602799415588,7.049151420593262
1789038133548076500,7.04207666015625,-6.792471885681152,0.7713420987129211,7.031197547912598
1789038133558076700,7.05207666015625,-6.806410312652588,0.7920672297477722,7.015397548675537
1789038133568076500,7.06207666015625,-6.818122863769531,0.8121310472488403,7.001715660095215
1789038133578076700,7.07207666015625,-6.829375743865967,0.8341537714004517,6.988147735595703
1789038133588076500,7.08207666015625,-6.838895797729492,0.8585161566734314,6.975876808166504
1789038133598076700,7.09207666015625,-6.847193241119385,0.8825793862342834,6.964725494384766
1789038133608076500,7.10207666015625,-6.8550286293029785,0.9048977494239807,6.954145431518555
1789038133618076700,7.11207666015625,-6.859645366668701,0.9266655445098877,6.94672155380249
1789038133628076500,7.12207666015625,-6.8581342697143555,0.9457653164863586,6.945639133453369
1789038133638076700,7.13207666015625,-6.853573322296143,0.9562411904335022,6.948707103729248
1789038133648076500,7.14207666015625,-6.8499674797058105,0.9540795087814331,6.952558994293213
1789038133658076700,7.15207666015625,-6.849913120269775,0.9388197660446167,6.9546895027160645
1789038133668076500,7.16207666015625,-6.845171928405762,0.9125153422355652,6.96285343170166
1789038133678076700,7.17207666015625,-6.834295749664307,0.8741249442100525,6.978445529937744
1789038133688076500,7.18207666015625,-6.816843032836914,0.8193126916885376,7.002125263214111
1789038133698076700,7.19207666015625,-6.7991623878479,0.7513693571090698,7.026893138885498
1789038133708076500,7.20207666015625,-6.775481700897217,0.6795881986618042,7.057010650634766
1789038133718076700,7.21207666015625,-6.752634525299072,0.6266316771507263,7.083759307861328
1789038133728076500,7.22207666015625,-6.7351508140563965,0.6094556450843811,7.101879119873047
1789038133738076700,7.23207666015625,-6.725361347198486,0.6213773488998413,7.110118865966797
1789038133748076500,7.24207666015625,-6.724887371063232,0.6299859285354614,7.109810829162598
1789038133758076700,7.25207666015625,-6.73392915725708,0.6288527846336365,7.101347923278809
1789038133768076500,7.26207666015625,-6.736891269683838,0.6357668042182922,7.097921371459961
1789038133778076700,7.27207666015625,-6.739939212799072,0.657724916934967,7.093023777008057
1789038133788076500,7.28207666015625,-6.752862453460693,0.6763225197792053,7.078970432281494
1789038133798076700,7.29207666015625,-6.753012180328369,0.682155191898346,7.078268051147461
1789038133808076500,7.30207666015625,-6.729004383087158,0.6710542440414429,7.1021528244018555
1789038133818076700,7.31207666015625,-6.7003302574157715,0.6426181793212891,7.131830215454102
1789038133828076500,7.32207666015625,-6.691679954528809,0.6054669618606567,7.143194675445557
1789038133838076700,7.33207666015625,-6.7023491859436035,0.5739927291870117,7.13578462600708
1789038133848076500,7.34207666015625,-6.709086894989014,0.554947018623352,7.130958557128906
1789038133858076700,7.35207666015625,-6.704638481140137,0.5490116477012634,7.135600566864014
1789038133868076500,7.36207666015625,-6.685645580291748,0.5500130653381348,7.153322219848633
1789038133878076700,7.37207666015625,-6.660778999328613,0.5509149432182312,7.176413059234619
1789038133888076500,7.38207666015625,-6.631954193115234,0.5487637519836426,7.20322322845459
1789038133898076700,7.39207666015625,-6.598270893096924,0.5449748039245605,7.234377861022949
1789038133908076500,7.40207666015625,-6.562195301055908,0.5385072827339172,7.267599582672119
1789038133918076700,7.41207666015625,-6.521098613739014,0.5293629765510559,7.305164813995361
1789038133928076500,7.42207666015625,-6.475450038909912,0.5210668444633484,7.346252918243408
1789038133938076700,7.43207666015625,-6.424461364746094,0.5142545104026794,7.391362190246582
1789038133948076500,7.44207666015625,-6.373233795166016,0.5059361457824707,7.436148643493652
1789038133958076700,7.45207666015625,-6.329188346862793,0.49506673216819763,7.474400997161865
1789038133968076500,7.46207666015625,-6.291598796844482,0.4796568751335144,7.507070064544678
1789038133978076700,7.47207666015625,-6.259085655212402,0.4594728946685791,7.535457134246826
1789038133988076500,7.48207666015625,-6.230827808380127,0.43446066975593567,7.5603179931640625
1789038133998076700,7.49207666015625,-6.202890396118164,0.40469980239868164,7.584903717041016
1789038134008076500,7.50207666015625,-6.171334743499756,0.37180301547050476,7.612277507781982
1789038134018076700,7.51207666015625,-6.13465690612793,0.33540552854537964,7.643551349639893
1789038134028076500,7.52207666015625,-6.096195220947266,0.2949548363685608,7.675922870635986
1789038134038076700,7.53207666015625,-6.059268474578857,0.2509959042072296,7.706663131713867
1789038134048076500,7.54207666015625,-6.024082183837891,0.2058734893798828,7.735531330108643
1789038134058076700,7.55207666015625,-5.988315582275391,0.1630227416753769,7.7642693519592285
1789038134068076500,7.56207666015625,-5.947360038757324,0.12432430684566498,7.796399116516113
1789038134078076700,7.57207666015625,-5.900744915008545,0.08738800138235092,7.83223819732666
1789038134088076500,7.58207666015625,-5.8525190353393555,0.051117412745952606,7.868659019470215
1789038134098076700,7.59207666015625,-5.801647186279297,0.01557866856455803,7.9063920974731445
1789038134108076500,7.60207666015625,-5.7494330406188965,-0.018095357343554497,7.944436550140381
1789038134118076700,7.61207666015625,-5.698269367218018,-0.04955245926976204,7.981081485748291
1789038134128076500,7.62207666015625,-5.64773416519165,-0.07894507795572281,8.01668643951416
1789038134138076700,7.63207666015625,-5.593967914581299,-0.10745784640312195,8.05396556854248
1789038134148076500,7.64207666015625,-5.539507865905762,-0.13561135530471802,8.091095924377441
1789038134158076700,7.65207666015625,-5.486793518066406,-0.1673896163702011,8.126344680786133
1789038134168076500,7.66207666015625,-5.4357171058654785,-0.20278312265872955,8.159794807434082
1789038134178076700,7.67207666015625,-5.383249759674072,-0.24042226374149323,8.193486213684082
1789038134188076500,7.68207666015625,-5.325457572937012,-0.27988824248313904,8.229918479919434
1789038134198076700,7.69207666015625,-5.261638641357422,-0.3211309611797333,8.269367218017578
1789038134208076500,7.70207666015625,-5.193701267242432,-0.3646187484264374,8.310408592224121
1789038134218076700,7.71207666015625,-5.125633239746094,-0.4096511900424957,8.35047721862793
1789038134228076500,7.72207666015625,-5.063638210296631,-0.457456111907959,8.3857421875
1789038134238076700,7.73207666015625,-5.0027360916137695,-0.5085924863815308,8.41928482055664
1789038134248076500,7.74207666015625,-4.9416961669921875,-0.5644551515579224,8.451711654663086
1789038134258076700,7.75207666015625,-4.877101898193359,-0.621545672416687,8.485159873962402
1789038134268076500,7.76207666015625,-4.8098883628845215,-0.6770259737968445,8.519213676452637
1789038134278076700,7.77207666015625,-4.7446208000183105,-0.729953408241272,8.55138111114502
1789038134288076500,7.78207666015625,-4.678866386413574,-0.7812919616699219,8.583017349243164
1789038134298076700,7.79207666015625,-4.611097812652588,-0.8346563577651978,8.614611625671387
1789038134308076500,7.80207666015625,-4.542851448059082,-0.8883134126663208,8.645448684692383
1789038134318076700,7.81207666015625,-4.475827217102051,-0.9413274526596069,8.674748420715332
1789038134328076500,7.82207666015625,-4.410789966583252,-0.9937582015991211,8.702170372009277
1789038134338076700,7.83207666015625,-4.348967552185059,-1.0458462238311768,8.72714614868164
1789038134348076500,7.84207666015625,-4.291507244110107,-1.0978995561599731,8.749170303344727
1789038134358076700,7.85207666015625,-4.232027530670166,-1.150789499282837,8.771317481994629
1789038134368076500,7.86207666015625,-4.164172649383545,-1.2072031497955322,8.796175956726074
1789038134378076700,7.87207666015625,-4.09254789352417,-1.2674490213394165,8.821282386779785
1789038134388076500,7.88207666015625,-4.028782844543457,-1.3286707401275635,8.841602325439453
1789038134398076700,7.89207666015625,-3.9729936122894287,-1.3929789066314697,8.85693645477295
1789038134408076500,7.90207666015625,-3.9191110134124756,-1.4603079557418823,8.870087623596191
1789038134418076700,7.91207666015625,-3.8632423877716064,-1.5243858098983765,8.883804321289062
1789038134428076500,7.92207666015625,-3.8125805854797363,-1.5823216438293457,8.895553588867188
1789038134438076700,7.93207666015625,-3.7626352310180664,-1.6353336572647095,8.907224655151367
1789038134448076500,7.94207666015625,-3.707090377807617,-1.685878872871399,8.921080589294434
1789038134458076700,7.95207666015625,-3.644106388092041,-1.73691987991333,8.937224388122559
1789038134468076500,7.96207666015625,-3.5812337398529053,-1.7932525873184204,8.951501846313477
1789038134478076700,7.97207666015625,-3.531747341156006,-1.8566169738769531,8.958243370056152
1789038134488076500,7.98207666015625,-3.4939637184143066,-1.92796790599823,8.957987785339355
1789038134498076700,7.99207666015625,-3.464730978012085,-2.0057923793792725,8.952252388000488
1789038134508076500,8.00207666015625,-3.4316577911376953,-2.0895273685455322,8.945836067199707
1789038134518076700,8.01207666015625,-3.3868138790130615,-2.176333427429199,8.942228317260742
1789038134528076500,8.02207666015625,-3.330510139465332,-2.2597856521606445,8.942676544189453
1789038134538076700,8.03207666015625,-3.2614047527313232,-2.3353211879730225,8.948738098144531
1789038134548076500,8.04207666015625,-3.1841938495635986,-2.4011924266815186,8.959105491638184
1789038134558076700,8.05207666015625,-3.1020419597625732,-2.459812641143799,8.972015380859375
1789038134568076500,8.06207666015625,-3.0170211791992188,-2.5152647495269775,8.98562240600586
1789038134578076700,8.07207666015625,-2.928814172744751,-2.5722830295562744,8.998655319213867
1789038134588076500,8.08207666015625,-2.8490378856658936,-2.6350817680358887,9.00609302520752
1789038134598076700,8.09207666015625,-2.7817578315734863,-2.706256151199341,9.006019592285156
1789038134608076500,8.10207666015625,-2.713026285171509,-2.790198564529419,9.00136947631836
1789038134618076700,8.11207666015625,-2.6429033279418945,-2.8901889324188232,8.990676879882812
1789038134628076500,8.12207666015625,-2.571465253829956,-3.003922462463379,8.97409725189209
1789038134638076700,8.13207666015625,-2.518132448196411,-3.123227596282959,8.948454856872559
1789038134648076500,8.14207666015625,-2.4922051429748535,-3.2409424781799316,8.913785934448242
1789038134658076700,8.15207666015625,-2.4696710109710693,-3.3566267490386963,8.877171516418457
1789038134668076500,8.16207666015625,-2.4272263050079346,-3.474414587020874,8.84349536895752
1789038134678076700,8.17207666015625,-2.36578106880188,-3.596433401107788,8.811307907104492
1789038134688076500,8.18207666015625,-2.2994651794433594,-3.7218728065490723,8.776702880859375
1789038134698076700,8.19207666015625,-2.241760015487671,-3.851030111312866,8.735815048217773
1789038134708076500,8.20207666015625,-2.1950879096984863,-3.9852943420410156,8.6873140335083
1789038134718076700,8.21207666015625,-2.1502790451049805,-4.123624801635742,8.633794784545898
1789038134728076500,8.22207666015625,-2.096266984939575,-4.262386798858643,8.579517364501953
1789038134738076700,8.23207666015625,-2.0259110927581787,-4.4003214836120605,8.526620864868164
1789038134748076500,8.24207666015625,-1.9456372261047363,-4.532444477081299,8.475955963134766
1789038134758076700,8.25207666015625,-1.8711986541748047,-4.652980804443359,8.427264213562012
1789038134768076500,8.26207666015625,-1.812334656715393,-4.761291027069092,8.379494667053223
1789038134778076700,8.27207666015625,-1.7724266052246094,-4.860400676727295,8.330989837646484
1789038134788076500,8.28207666015625,-1.7499027252197266,-4.948796272277832,8.283576965332031
1789038134798076700,8.29207666015625,-1.735382318496704,-5.025540351867676,8.240314483642578
1789038134808076500,8.30207666015625,-1.7229808568954468,-5.088220596313477,8.20437240600586
1789038134818076700,8.31207666015625,-1.7202372550964355,-5.1386518478393555,8.17345905303955
1789038134828076500,8.32207666015625,-1.7314902544021606,-5.177714824676514,8.146385192871094
1789038134838076700,8.33207666015625,-1.7548065185546875,-5.204720497131348,8.124156951904297
1789038134848076500,8.34207666015625,-1.7762759923934937,-5.218474388122559,8.110655784606934
1789038134858076700,8.35207666015625,-1.7879014015197754,-5.221068382263184,8.106432914733887
1789038134868076500,8.36207666015625,-1.7920113801956177,-5.2169880867004395,8.10815143585205
1789038134878076700,8.37207666015625,-1.7993714809417725,-5.206822395324707,8.113054275512695
1789038134888076500,8.38207666015625,-1.8156708478927612,-5.189457416534424,8.120545387268066
1789038134898076700,8.39207666015625,-1.8396730422973633,-5.163372039794922,8.131763458251953
1789038134908076500,8.40207666015625,-1.8668512105941772,-5.130773067474365,8.146190643310547
1789038134918076700,8.41207666015625,-1.8852436542510986,-5.094834804534912,8.16448974609375
1789038134928076500,8.42207666015625,-1.8900645971298218,-5.059589385986328,8.185267448425293
1789038134938076700,8.43207666015625,-1.8943575620651245,-5.02787971496582,8.2037935256958
1789038134948076500,8.44207666015625,-1.8971258401870728,-4.997564315795898,8.221656799316406
1789038134958076700,8.45207666015625,-1.8954167366027832,-4.967406272888184,8.240306854248047
1789038134968076500,8.46207666015625,-1.8960685729980469,-4.936964511871338,8.258431434631348
1789038134978076700,8.47207666015625,-1.9021797180175781,-4.906968116760254,8.274887084960938
1789038134988076500,8.48207666015625,-1.9091562032699585,-4.876166820526123,8.291472434997559
1789038134998076700,8.49207666015625,-1.9235165119171143,-4.842841625213623,8.30766773223877
1789038135008076500,8.50207666015625,-1.9513012170791626,-4.811220645904541,8.31955337524414
1789038135018076700,8.51207666015625,-1.9887843132019043,-4.787748336791992,8.324217796325684
1789038135028076500,8.52207666015625,-2.028371810913086,-4.778026103973389,8.320249557495117
1789038135038076700,8.53207666015625,-2.066493511199951,-4.782187461853027,8.308470726013184
1789038135048076500,8.54207666015625,-2.106232166290283,-4.792431354522705,8.292573928833008
1789038135058076700,8.55207666015625,-2.1543359756469727,-4.798648834228516,8.276605606079102
1789038135068076500,8.56207666015625,-2.2089083194732666,-4.79819393157959,8.262472152709961
1789038135078076700,8.57207666015625,-2.2637319564819336,-4.799708366394043,8.246739387512207
1789038135088076500,8.58207666015625,-2.313838243484497,-4.806710243225098,8.228734016418457
1789038135098076700,8.59207666015625,-2.359875202178955,-4.817765235900879,8.209172248840332
1789038135108076500,8.60207666015625,-2.405294418334961,-4.828961372375488,8.189388275146484
1789038135118076700,8.61207666015625,-2.454265594482422,-4.835701942443848,8.170859336853027
1789038135128076500,8.62207666015625,-2.508162021636963,-4.836447715759277,8.154035568237305
1789038135138076700,8.63207666015625,-2.566596269607544,-4.831848621368408,8.13856315612793
1789038135148076500,8.64207666015625,-2.62678861618042,-4.822017192840576,8.125177383422852
1789038135158076700,8.65207666015625,-2.6844260692596436,-4.808746337890625,8.114197731018066
1789038135168076500,8.66207666015625,-2.7343313694000244,-4.793710231781006,8.106427192687988
1789038135178076700,8.67207666015625,-2.771888494491577,-4.778672218322754,8.10254955291748
1789038135188076500,8.68207666015625,-2.796168804168701,-4.764682769775391,8.102445602416992
1789038135198076700,8.69207666015625,-2.8097083568573,-4.750788688659668,8.10591983795166
1789038135208076500,8.70207666015625,-2.814251661300659,-4.735958576202393,8.113018989562988
1789038135218076700,8.71207666015625,-2.809951066970825,-4.720067501068115,8.123763084411621
1789038135228076500,8.72207666015625,-2.7961997985839844,-4.703651428222656,8.138015747070312
1789038135238076700,8.73207666015625,-2.773594856262207,-4.685314655303955,8.156309127807617
1789038135248076500,8.74207666015625,-2.744795560836792,-4.660627841949463,8.180159568786621
1789038135258076700,8.75207666015625,-2.7140607833862305,-4.626766681671143,8.209585189819336
1789038135268076500,8.76207666015625,-2.684458017349243,-4.58450984954834,8.242958068847656
1789038135278076700,8.77207666015625,-2.6567013263702393,-4.536656856536865,8.278349876403809
1789038135288076500,8.78207666015625,-2.6312386989593506,-4.486515522003174,8.313732147216797
1789038135298076700,8.79207666015625,-2.6085104942321777,-4.4362616539001465,8.347792625427246
1789038135308076500,8.80207666015625,-2.5899486541748047,-4.385566234588623,8.380295753479004
1789038135318076700,8.81207666015625,-2.5768895149230957,-4.3319196701049805,8.412164688110352
1789038135328076500,8.82207666015625,-2.571993827819824,-4.274020671844482,8.443221092224121
1789038135338076700,8.83207666015625,-2.574575662612915,-4.21236515045166,8.473365783691406
1789038135348076500,8.84207666015625,-2.5844950675964355,-4.148730754852295,8.501694679260254
1789038135358076700,8.85207666015625,-2.5983097553253174,-4.083637237548828,8.528955459594727
1789038135368076500,8.86207666015625,-2.6129541397094727,-4.014699459075928,8.55716323852539
1789038135378076700,8.87207666015625,-2.6302950382232666,-3.9399492740631104,8.586543083190918
1789038135388076500,8.88207666015625,-2.65250825881958,-3.8616838455200195,8.615218162536621
1789038135398076700,8.89207666015625,-2.680558919906616,-3.7822115421295166,8.641751289367676
1789038135408076500,8.90207666015625,-2.7107484340667725,-3.7043960094451904,8.666007041931152
1789038135418076700,8.91207666015625,-2.7414214611053467,-3.6277287006378174,8.688761711120605
1789038135428076500,8.92207666015625,-2.771064281463623,-3.5517783164978027,8.710708618164062
1789038135438076700,8.93207666015625,-2.804309368133545,-3.476468563079834,8.730429649353027
1789038135448076500,8.94207666015625,-2.8454720973968506,-3.400423526763916,8.747045516967773
1789038135458076700,8.95207666015625,-2.893125057220459,-3.323317766189575,8.761037826538086
1789038135468076500,8.96207666015625,-2.9424240589141846,-3.248149871826172,8.772802352905273
1789038135478076700,8.97207666015625,-2.9889259338378906,-3.1775341033935547,8.782938003540039
1789038135488076500,8.98207666015625,-3.0271530151367188,-3.1139230728149414,8.792622566223145
1789038135498076700,8.99207666015625,-3.0588648319244385,-3.0567550659179688,8.801703453063965
1789038135508076500,9.00207666015625,-3.086566925048828,-3.003277063369751,8.81043815612793
1789038135518076700,9.01207666015625,-3.11354660987854,-2.947993040084839,8.819611549377441
1789038135528076500,9.02207666015625,-3.140450954437256,-2.8865764141082764,8.830381393432617
1789038135538076700,9.03207666015625,-3.1680376529693604,-2.8180692195892334,8.842646598815918
1789038135548076500,9.04207666015625,-3.2005605697631836,-2.744457721710205,8.854081153869629
1789038135558076700,9.05207666015625,-3.2359979152679443,-2.6666340827941895,8.864974021911621
1789038135568076500,9.06207666015625,-3.2761306762695312,-2.583282709121704,8.874908447265625
1789038135578076700,9.07207666015625,-3.3190464973449707,-2.4931654930114746,8.88473129272461
1789038135588076500,9.08207666015625,-3.3584866523742676,-2.396038055419922,8.896626472473145
1789038135598076700,9.09207666015625,-3.3939387798309326,-2.292616844177246,8.91041374206543
1789038135608076500,9.10207666015625,-3.4267539978027344,-2.1780877113342285,8.9265718460083
1789038135618076700,9.11207666015625,-3.4585487842559814,-2.0522193908691406,8.944116592407227
1789038135628076500,9.12207666015625,-3.4910125732421875,-1.9187724590301514,8.961112022399902
1789038135638076700,9.13207666015625,-3.5229732990264893,-1.783280611038208,8.976578712463379
1789038135648076500,9.14207666015625,-3.5566797256469727,-1.6519640684127808,8.988405227661133
1789038135658076700,9.15207666015625,-3.594472646713257,-1.5277544260025024,8.995338439941406
1789038135668076500,9.16207666015625,-3.6357548236846924,-1.4095211029052734,8.998051643371582
1789038135678076700,9.17207666015625,-3.6775124073028564,-1.2947919368743896,8.998321533203125
1789038135688076500,9.18207666015625,-3.7231311798095703,-1.1807078123092651,8.995254516601562
1789038135698076700,9.19207666015625,-3.773672342300415,-1.0659396648406982,8.988523483276367
1789038135708076500,9.20207666015625,-3.8272085189819336,-0.9499476552009583,8.978890419006348
1789038135718076700,9.21207666015625,-3.8790204524993896,-0.8310773372650146,8.968439102172852
1789038135728076500,9.22207666015625,-3.927583694458008,-0.7079121470451355,8.957863807678223
1789038135738076700,9.23207666015625,-3.9767327308654785,-0.581588864326477,8.945263862609863
1789038135748076500,9.24207666015625,-4.02882194519043,-0.4535907506942749,8.929347038269043
1789038135758076700,9.25207666015625,-4.08044958114624,-0.3276662528514862,8.911394119262695
1789038135768076500,9.26207666015625,-4.1268486976623535,-0.20504294335842133,8.893675804138184
1789038135778076700,9.27207666015625,-4.168705940246582,-0.07933297008275986,8.87614631652832
1789038135788076500,9.28207666015625,-4.213508605957031,0.048979874700307846,8.855186462402344
1789038135798076700,9.29207666015625,-4.2661614418029785,0.1744762510061264,8.828352928161621
1789038135808076500,9.30207666015625,-4.327731609344482,0.29442617297172546,8.795137405395508
1789038135818076700,9.31207666015625,-4.3898773193359375,0.41017699241638184,8.759631156921387
1789038135828076500,9.32207666015625,-4.444148063659668,0.5211593508720398,8.726301193237305
1789038135838076700,9.33207666015625,-4.4948883056640625,0.6238111257553101,8.69351577758789
1789038135848076500,9.34207666015625,-4.5544257164001465,0.7197815179824829,8.655027389526367
1789038135858076700,9.35207666015625,-4.631277561187744,0.811399519443512,8.606001853942871
1789038135868076500,9.36207666015625,-4.701876163482666,0.9046622514724731,8.558290481567383
1789038135878076700,9.37207666015625,-4.750698089599609,1.001901626586914,8.520413398742676
1789038135888076500,9.38207666015625,-4.783924579620361,1.0994411706924438,8.489740371704102
1789038135898076700,9.39207666015625,-4.812269687652588,1.197428584098816,8.46041488647461
1789038135908076500,9.40207666015625,-4.824841022491455,1.29804527759552,8.438386917114258
1789038135918076700,9.41207666015625,-4.815058708190918,1.3961526155471802,8.42830753326416
1789038135928076500,9.42207666015625,-4.796446323394775,1.4861078262329102,8.423537254333496
1789038135938076700,9.43207666015625,-4.77667760848999,1.5653573274612427,8.420415878295898
1789038135948076500,9.44207666015625,-4.75800085067749,1.6333962678909302,8.418066024780273
1789038135958076700,9.45207666015625,-4.7524495124816895,1.6922389268875122,8.409573554992676
1789038135968076500,9.46207666015625,-4.762034893035889,1.7437485456466675,8.393613815307617
1789038135978076700,9.47207666015625,-4.782250881195068,1.7880103588104248,8.372782707214355
1789038135988076500,9.48207666015625,-4.804806709289551,1.8272546529769897,8.35136890411377
1789038135998076700,9.49207666015625,-4.821337699890137,1.8658802509307861,8.333281517028809
1789038136008076500,9.50207666015625,-4.829402923583984,1.9081065654754639,8.319037437438965
1789038136018076700,9.51207666015625,-4.8274617195129395,1.9533746242523193,8.309653282165527
1789038136028076500,9.52207666015625,-4.81448221206665,1.9995883703231812,8.30618953704834
1789038136038076700,9.53207666015625,-4.794332504272461,2.044705629348755,8.30686092376709
1789038136048076500,9.54207666015625,-4.775631427764893,2.087603807449341,8.306962966918945
1789038136058076700,9.55207666015625,-4.759900093078613,2.1263887882232666,8.306154251098633
1789038136068076500,9.56207666015625,-4.746186256408691,2.155893564224243,8.306396484375
1789038136078076700,9.57207666015625,-4.735230922698975,2.1707053184509277,8.308791160583496
1789038136088076500,9.58207666015625,-4.725968360900879,2.172791004180908,8.313518524169922
1789038136098076700,9.59207666015625,-4.714582920074463,2.1655354499816895,8.321871757507324
1789038136108076500,9.60207666015625,-4.699570178985596,2.1523563861846924,8.333773612976074
1789038136118076700,9.61207666015625,-4.679457664489746,2.1374130249023438,8.34892463684082
1789038136128076500,9.62207666015625,-4.655350208282471,2.121615409851074,8.366413116455078
1789038136138076700,9.63207666015625,-4.634181499481201,2.1020681858062744,8.383082389831543
1789038136148076500,9.64207666015625,-4.616793155670166,2.0757832527160645,8.399209976196289
1789038136158076700,9.65207666015625,-4.5963263511657715,2.044588088989258,8.418065071105957
1789038136168076500,9.66207666015625,-4.571909427642822,2.0096030235290527,8.439759254455566
1789038136178076700,9.67207666015625,-4.548466205596924,1.9698458909988403,8.461770057678223
1789038136188076500,9.68207666015625,-4.526495456695557,1.9269059896469116,8.48341178894043
1789038136198076700,9.69207666015625,-4.5035080909729,1.882389783859253,8.505610466003418
1789038136208076500,9.70207666015625,-4.483334064483643,1.834383249282837,8.526731491088867
1789038136218076700,9.71207666015625,-4.467544078826904,1.781151294708252,8.546282768249512
1789038136228076500,9.72207666015625,-4.458429336547852,1.721954107284546,8.56315803527832
1789038136238076700,9.73207666015625,-4.452455043792725,1.6560935974121094,8.579241752624512
1789038136248076500,9.74207666015625,-4.447637557983398,1.5851407051086426,8.595129013061523
1789038136258076700,9.75207666015625,-4.440591335296631,1.512141227722168,8.611907958984375
1789038136268076500,9.76207666015625,-4.429470062255859,1.4379398822784424,8.630325317382812
1789038136278076700,9.77207666015625,-4.412930965423584,1.3633979558944702,8.650871276855469
1789038136288076500,9.78207666015625,-4.390793800354004,1.2877825498580933,8.673691749572754
1789038136298076700,9.79207666015625,-4.364344120025635,1.2110694646835327,8.698057174682617
1789038136308076500,9.80207666015625,-4.328900337219238,1.1317150592803955,8.726409912109375
1789038136318076700,9.81207666015625,-4.284754276275635,1.047667384147644,8.758633613586426
1789038136328076500,9.82207666015625,-4.239377021789551,0.9593020677566528,8.790779113769531
1789038136338076700,9.83207666015625,-4.194462299346924,0.8680371046066284,8.821755409240723
1789038136348076500,9.84207666015625,-4.150395393371582,0.7754369378089905,8.851175308227539
1789038136358076700,9.85207666015625,-4.103159427642822,0.6830735206604004,8.880758285522461
1789038136368076500,9.86207666015625,-4.052574634552002,0.5917139649391174,8.910493850708008
1789038136378076700,9.87207666015625,-3.99627947807312,0.5020467638969421,8.941370010375977
1789038136388076500,9.88207666015625,-3.93618106842041,0.41455987095832825,8.972457885742188
1789038136398076700,9.89207666015625,-3.8760552406311035,0.3284389078617096,9.002151489257812
1789038136408076500,9.90207666015625,-3.812985897064209,0.24014846980571747,9.031825065612793
1789038136418076700,9.91207666015625,-3.7437987327575684,0.1464957445859909,9.062721252441406
1789038136428076500,9.92207666015625,-3.672792673110962,0.04837855324149132,9.092779159545898
1789038136438076700,9.93207666015625,-3.606576442718506,-0.05263691022992134,9.119222640991211
1789038136448076500,9.94207666015625,-3.542687177658081,-0.1530790477991104,9.143102645874023
1789038136458076700,9.95207666015625,-3.4823079109191895,-0.2500343918800354,9.16413688659668
1789038136468076500,9.96207666015625,-3.431727409362793,-0.3433467149734497,9.180182456970215
1789038136478076700,9.97207666015625,-3.3889408111572266,-0.4343988001346588,9.192212104797363
1789038136488076500,9.98207666015625,-3.34987735748291,-0.523608922958374,9.201876640319824
1789038136498076700,9.99207666015625,-3.313965320587158,-0.610163152217865,9.209545135498047
1789038136508076500,10.00207666015625,-3.282764434814453,-0.6925204992294312,9.21489429473877
1789038136518076700,10.01207666015625,-3.2634623050689697,-0.7729104161262512,9.215357780456543
1789038136528076500,10.02207666015625,-3.253570795059204,-0.8554317355155945,9.211564064025879
1789038136538076700,10.03207666015625,-3.2504639625549316,-0.9396417140960693,9.204452514648438
1789038136548076500,10.04207666015625,-3.248690128326416,-1.0233062505722046,9.19615364074707
1789038136558076700,10.05207666015625,-3.241121292114258,-1.1090115308761597,9.188884735107422
1789038136568076500,10.06207666015625,-3.2269539833068848,-1.1986196041107178,9.1826171875
1789038136578076700,10.07207666015625,-3.201665163040161,-1.2942243814468384,9.17849063873291
1789038136588076500,10.08207666015625,-3.1580400466918945,-1.3935359716415405,9.179065704345703
1789038136598076700,10.09207666015625,-3.1055970191955566,-1.4952223300933838,9.180956840515137
1789038136608076500,10.10207666015625,-3.052898406982422,-1.5988491773605347,9.181170463562012
1789038136618076700,10.11207666015625,-2.999948501586914,-1.7023818492889404,9.180010795593262
1789038136628076500,10.12207666015625,-2.9451050758361816,-1.805163025856018,9.178133964538574
1789038136638076700,10.13207666015625,-2.8904101848602295,-1.9108613729476929,9.17412281036377
1789038136648076500,10.14207666015625,-2.8422646522521973,-2.019305944442749,9.165932655334473
1789038136658076700,10.15207666015625,-2.8003060817718506,-2.1284871101379395,9.154135704040527
1789038136668076500,10.16207666015625,-2.7588024139404297,-2.238541841506958,9.140478134155273
1789038136678076700,10.17207666015625,-2.7173919677734375,-2.3504178524017334,9.124785423278809
1789038136688076500,10.18207666015625,-2.6816353797912598,-2.4632132053375244,9.105591773986816
1789038136698076700,10.19207666015625,-2.6571009159088135,-2.5720646381378174,9.082658767700195
1789038136708076500,10.20207666015625,-2.636469602584839,-2.6738181114196777,9.059255599975586
1789038136718076700,10.21207666015625,-2.621534824371338,-2.7670090198516846,9.035574913024902
1789038136728076500,10.22207666015625,-2.6197519302368164,-2.850193500518799,9.010199546813965
1789038136738076700,10.23207666015625,-2.6268372535705566,-2.928004264831543,8.983145713806152
1789038136748076500,10.24207666015625,-2.6393840312957764,-3.0035014152526855,8.954497337341309
1789038136758076700,10.25207666015625,-2.6462182998657227,-3.0767972469329834,8.9275541305542
1789038136768076500,10.26207666015625,-2.6497128009796143,-3.1501481533050537,8.900897979736328
1789038136778076700,10.27207666015625,-2.6529438495635986,-3.2211201190948486,8.874494552612305
1789038136788076500,10.28207666015625,-2.6573832035064697,-3.2848973274230957,8.849754333496094
1789038136798076700,10.29207666015625,-2.657463312149048,-3.340653896331787,8.82883358001709
1789038136808076500,10.30207666015625,-2.6502442359924316,-3.3894059658050537,8.812407493591309
1789038136818076700,10.31207666015625,-2.6469273567199707,-3.4332242012023926,8.796428680419922
1789038136828076500,10.32207666015625,-2.6556191444396973,-3.4729113578796387,8.77820873260498
1789038136838076700,10.33207666015625,-2.6669487953186035,-3.509640693664551,8.760149002075195
1789038136848076500,10.34207666015625,-2.675424575805664,-3.5423991680145264,8.744363784790039
1789038136858076700,10.35207666015625,-2.6814725399017334,-3.5731289386749268,8.729996681213379
1789038136868076500,10.36207666015625,-2.6899571418762207,-3.6035375595092773,8.714874267578125
1789038136878076700,10.37207666015625,-2.7064096927642822,-3.6327123641967773,8.697650909423828
1789038136888076500,10.38207666015625,-2.7359097003936768,-3.6573963165283203,8.678054809570312
1789038136898076700,10.39207666015625,-2.7778148651123047,-3.671556234359741,8.65874195098877
1789038136908076500,10.40207666015625,-2.8296847343444824,-3.671760082244873,8.64184284210205
1789038136918076700,10.41207666015625,-2.887637138366699,-3.661223888397217,8.627129554748535
1789038136928076500,10.42207666015625,-2.9401819705963135,-3.645418882369995,8.616068840026855
1789038136938076700,10.43207666015625,-2.977379083633423,-3.629059076309204,8.610198974609375
1789038136948076500,10.44207666015625,-2.999805450439453,-3.615496873855591,8.60811996459961
1789038136958076700,10.45207666015625,-3.01263165473938,-3.607285737991333,8.607086181640625
1789038136968076500,10.46207666015625,-3.020808219909668,-3.6069750785827637,8.604350090026855
1789038136978076700,10.47207666015625,-3.0283455848693848,-3.6131482124328613,8.599109649658203
1789038136988076500,10.48207666015625,-3.038233518600464,-3.62192440032959,8.591926574707031
1789038136998076700,10.49207666015625,-3.051701307296753,-3.6280906200408936,8.584547996520996
1789038137008076500,10.50207666015625,-3.064655065536499,-3.6295924186706543,8.579297065734863
1789038137018076700,10.51207666015625,-3.075140953063965,-3.6235005855560303,8.578119277954102
1789038137028076500,10.52207666015625,-3.0823936462402344,-3.612483263015747,8.580163955688477
1789038137038076700,10.53207666015625,-3.0841116905212402,-3.598294734954834,8.585506439208984
1789038137048076500,10.54207666015625,-3.0813095569610596,-3.5797505378723145,8.594260215759277
1789038137058076700,10.55207666015625,-3.0755512714385986,-3.5580549240112305,8.605324745178223
1789038137068076500,10.56207666015625,-3.0661394596099854,-3.5352942943573,8.61805534362793
1789038137078076700,10.57207666015625,-3.0525062084198,-3.5130977630615234,8.631959915161133
1789038137088076500,10.58207666015625,-3.036864757537842,-3.4919607639312744,8.646042823791504
1789038137098076700,10.59207666015625,-3.0212461948394775,-3.470979928970337,8.659951210021973
1789038137108076500,10.60207666015625,-3.0089569091796875,-3.4483723640441895,8.67325210571289
1789038137118076700,10.61207666015625,-3.0011653900146484,-3.4231324195861816,8.68593978881836
1789038137128076500,10.62207666015625,-2.9967916011810303,-3.394925594329834,8.698511123657227
1789038137138076700,10.63207666015625,-2.9939208030700684,-3.363942861557007,8.711526870727539
1789038137148076500,10.64207666015625,-2.9891231060028076,-3.3321573734283447,8.72537899017334
1789038137158076700,10.65207666015625,-2.979856252670288,-3.298804998397827,8.741209030151367
1789038137168076500,10.66207666015625,-2.967003107070923,-3.2629101276397705,8.759035110473633
1789038137178076700,10.67207666015625,-2.9527933597564697,-3.224799633026123,8.777931213378906
1789038137188076500,10.68207666015625,-2.9408085346221924,-3.1849498748779297,8.796483993530273
1789038137198076700,10.69207666015625,-2.9321208000183105,-3.143075466156006,8.814427375793457
1789038137208076500,10.70207666015625,-2.9278972148895264,-3.096971273422241,8.832133293151855
1789038137218076700,10.71207666015625,-2.929258346557617,-3.042985200881958,8.850428581237793
1789038137228076500,10.72207666015625,-2.937389612197876,-2.9780609607696533,8.869796752929688
1789038137238076700,10.73207666015625,-2.9527759552001953,-2.902674913406372,8.889655113220215
1789038137248076500,10.74207666015625,-2.9721755981445312,-2.818195343017578,8.91034984588623
1789038137258076700,10.75207666015625,-2.9966611862182617,-2.7238194942474365,8.931472778320312
1789038137268076500,10.76207666015625,-3.0188088417053223,-2.6205310821533203,8.954886436462402
1789038137278076700,10.77207666015625,-3.046029567718506,-2.510936737060547,8.977042198181152
1789038137288076500,10.78207666015625,-3.0743508338928223,-2.393946409225464,8.999320030212402
1789038137298076700,10.79207666015625,-3.1059999465942383,-2.2703959941864014,9.02044677734375
1789038137308076500,10.80207666015625,-3.1371986865997314,-2.1441714763641357,9.040514945983887
1789038137318076700,10.81207666015625,-3.176995277404785,-2.012692451477051,9.056829452514648
1789038137328076500,10.82207666015625,-3.2245230674743652,-1.874041199684143,9.069774627685547
1789038137338076700,10.83207666015625,-3.2830870151519775,-1.7190204858779907,9.07946491241455
1789038137348076500,10.84207666015625,-3.3498799800872803,-1.5480060577392578,9.085832595825195
1789038137358076700,10.85207666015625,-3.4278061389923096,-1.373390555381775,9.084839820861816
1789038137368076500,10.86207666015625,-3.507145881652832,-1.2038956880569458,9.078598976135254
1789038137378076700,10.87207666015625,-3.587263345718384,-1.0403722524642944,9.067500114440918
1789038137388076500,10.88207666015625,-3.6639814376831055,-0.8815035223960876,9.05364990234375
1789038137398076700,10.89207666015625,-3.7299935817718506,-0.7259847521781921,9.040491104125977
1789038137408076500,10.90207666015625,-3.7891063690185547,-0.571426510810852,9.026988983154297
1789038137418076700,10.91207666015625,-3.846832752227783,-0.4144389033317566,9.011133193969727
1789038137428076500,10.92207666015625,-3.9023635387420654,-0.25504550337791443,8.993158340454102
1789038137438076700,10.93207666015625,-3.957035779953003,-0.0979682058095932,8.97232723236084
1789038137448076500,10.94207666015625,-4.015720367431641,0.05158870294690132,8.946603775024414
1789038137458076700,10.95207666015625,-4.0825276374816895,0.19162237644195557,8.914406776428223
1789038137468076500,10.96207666015625,-4.156359672546387,0.32327544689178467,8.876404762268066
1789038137478076700,10.97207666015625,-4.238439083099365,0.44961586594581604,8.831979751586914
1789038137488076500,10.98207666015625,-4.328634262084961,0.572007954120636,8.78100872039795
1789038137498076700,10.99207666015625,-4.402377605438232,0.6982378363609314,8.73509693145752
1789038137508076500,11.00207666015625,-4.463321208953857,0.8322761654853821,8.692322731018066
1789038137518076700,11.01207666015625,-4.5195536613464355,0.9693416953086853,8.648953437805176
1789038137528076500,11.02207666015625,-4.570260047912598,1.1029081344604492,8.606201171875
1789038137538076700,11.03207666015625,-4.605401039123535,1.2299138307571411,8.570178985595703
1789038137548076500,11.04207666015625,-4.628913879394531,1.3460458517074585,8.540005683898926
1789038137558076700,11.05207666015625,-4.6567840576171875,1.4543060064315796,8.507040023803711
1789038137568076500,11.06207666015625,-4.690357208251953,1.5583354234695435,8.470096588134766
1789038137578076700,11.07207666015625,-4.731954097747803,1.64962637424469,8.429574966430664
1789038137588076500,11.08207666015625,-4.777347564697266,1.7325950860977173,8.387218475341797
1789038137598076700,11.09207666015625,-4.818272590637207,1.8163349628448486,8.345990180969238
1789038137608076500,11.10207666015625,-4.852628707885742,1.897263526916504,8.30799388885498
1789038137618076700,11.11207666015625,-4.872491359710693,1.9719797372817993,8.27892017364502
1789038137628076500,11.12207666015625,-4.876573085784912,2.038652181625366,8.260345458984375
1789038137638076700,11.13207666015625,-4.8768134117126465,2.0989749431610107,8.24508285522461
1789038137648076500,11.14207666015625,-4.879212379455566,2.154261589050293,8.229388236999512
1789038137658076700,11.15207666015625,-4.883047103881836,2.203383684158325,8.214094161987305
1789038137668076500,11.16207666015625,-4.888339042663574,2.2440295219421387,8.199930191040039
1789038137678076700,11.17207666015625,-4.898655414581299,2.2768406867980957,8.184714317321777
1789038137688076500,11.18207666015625,-4.898411273956299,2.3066604137420654,8.176507949829102
1789038137698076700,11.19207666015625,-4.88681173324585,2.3381588459014893,8.174501419067383
1789038137708076500,11.20207666015625,-4.869318962097168,2.37040114402771,8.175653457641602
1789038137718076700,11.21207666015625,-4.850542068481445,2.400785207748413,8.177948951721191
1789038137728076500,11.22207666015625,-4.825531005859375,2.426258087158203,8.185224533081055
1789038137738076700,11.23207666015625,-4.800316333770752,2.445359230041504,8.194361686706543
1789038137748076500,11.24207666015625,-4.772080898284912,2.4575307369232178,8.207201957702637
1789038137758076700,11.25207666015625,-4.739522457122803,2.462369680404663,8.224599838256836
1789038137768076500,11.26207666015625,-4.702057361602783,2.4597742557525635,8.246850967407227
1789038137778076700,11.27207666015625,-4.659843444824219,2.450627326965332,8.273491859436035
1789038137788076500,11.28207666015625,-4.617830276489258,2.432774543762207,8.302267074584961
1789038137798076700,11.29207666015625,-4.579519748687744,2.403825521469116,8.331867218017578
1789038137808076500,11.30207666015625,-4.549224376678467,2.3648600578308105,8.35956859588623
1789038137818076700,11.31207666015625,-4.522782325744629,2.3199119567871094,8.386467933654785
1789038137828076500,11.32207666015625,-4.493641376495361,2.271838903427124,8.415243148803711
1789038137838076700,11.33207666015625,-4.464313507080078,2.2183358669281006,8.445073127746582
1789038137848076500,11.34207666015625,-4.434567928314209,2.1582953929901123,8.476247787475586
1789038137858076700,11.35207666015625,-4.4008097648620605,2.0929930210113525,8.510149955749512
1789038137868076500,11.36207666015625,-4.363015174865723,2.0216636657714844,8.546774864196777
1789038137878076700,11.37207666015625,-4.3209919929504395,1.942143201828003,8.586470603942871
1789038137888076500,11.38207666015625,-4.274667263031006,1.855526089668274,8.62870979309082
1789038137898076700,11.39207666015625,-4.224424839019775,1.76339590549469,8.672660827636719
1789038137908076500,11.40207666015625,-4.171445846557617,1.6665105819702148,8.717350006103516
1789038137918076700,11.41207666015625,-4.1157426834106445,1.564804196357727,8.762558937072754
1789038137928076500,11.42207666015625,-4.061641693115234,1.4586349725723267,8.806010246276855
1789038137938076700,11.43207666015625,-4.015635013580322,1.348343014717102,8.8446044921875
1789038137948076500,11.44207666015625,-3.9732890129089355,1.2384551763534546,8.879728317260742
1789038137958076700,11.45207666015625,-3.927190065383911,1.13113534450531,8.914488792419434
1789038137968076500,11.46207666015625,-3.877284049987793,1.0275813341140747,8.948806762695312
1789038137978076700,11.47207666015625,-3.8191161155700684,0.9249985218048096,8.984938621520996
1789038137988076500,11.48207666015625,-3.751779079437256,0.8207181096076965,9.023357391357422
1789038137998076700,11.49207666015625,-3.6852638721466064,0.7143222689628601,9.059744834899902
1789038138008076500,11.50207666015625,-3.6296610832214355,0.6081658601760864,9.089888572692871
1789038138018076700,11.51207666015625,-3.5842995643615723,0.5044276714324951,9.114205360412598
1789038138028076500,11.52207666015625,-3.545997142791748,0.40166738629341125,9.134273529052734
1789038138038076700,11.53207666015625,-3.5131940841674805,0.29701393842697144,9.1509370803833
1789038138048076500,11.54207666015625,-3.4833250045776367,0.1881624013185501,9.165229797363281
1789038138058076700,11.55207666015625,-3.4537336826324463,0.07478292286396027,9.178046226501465
1789038138068076500,11.56207666015625,-3.4196348190307617,-0.043863069266080856,9.191004753112793
1789038138078076700,11.57207666015625,-3.382164239883423,-0.17118731141090393,9.20337200164795
1789038138088076500,11.58207666015625,-3.3405051231384277,-0.3043157458305359,9.215139389038086
1789038138098076700,11.59207666015625,-3.2967355251312256,-0.43289583921432495,9.225752830505371
1789038138108076500,11.60207666015625,-3.2591514587402344,-0.5472636222839355,9.233028411865234
1789038138118076700,11.61207666015625,-3.2345504760742188,-0.6486159563064575,9.235116004943848
1789038138128076500,11.62207666015625,-3.2150046825408936,-0.7446171045303345,9.234700202941895
1789038138138076700,11.63207666015625,-3.1950883865356445,-0.8396328091621399,9.2334623336792
1789038138148076500,11.64207666015625,-3.1778271198272705,-0.9359583854675293,9.230156898498535
1789038138158076700,11.65207666015625,-3.1580564975738525,-1.0333327054977417,9.226552963256836
1789038138168076500,11.66207666015625,-3.1207427978515625,-1.1375528573989868,9.22698974609375
1789038138178076700,11.67207666015625,-3.0592684745788574,-1.2625911235809326,9.23131275177002
1789038138188076500,11.68207666015625,-2.985417127609253,-1.4106807708740234,9.234047889709473
1789038138198076700,11.69207666015625,-2.9092469215393066,-1.5691821575164795,9.232787132263184
1789038138208076500,11.70207666015625,-2.836543083190918,-1.72807776927948,9.227033615112305
1789038138218076700,11.71207666015625,-2.770571708679199,-1.8735431432724,9.218685150146484
1789038138228076500,11.72207666015625,-2.707968235015869,-2.0053718090057373,9.209548950195312
1789038138238076700,11.73207666015625,-2.6456851959228516,-2.1266403198242188,9.20044231414795
1789038138248076500,11.74207666015625,-2.5888328552246094,-2.2438650131225586,9.188765525817871
1789038138258076700,11.75207666015625,-2.5312917232513428,-2.3682024478912354,9.173580169677734
1789038138268076500,11.76207666015625,-2.4917919635772705,-2.4919822216033936,9.151577949523926
1789038138278076700,11.77207666015625,-2.464803457260132,-2.6122424602508545,9.125311851501465
1789038138288076500,11.78207666015625,-2.4366049766540527,-2.7273471355438232,9.099172592163086
1789038138298076700,11.79207666015625,-2.4066386222839355,-2.8381054401397705,9.073237419128418
1789038138308076500,11.80207666015625,-2.380915880203247,-2.9440059661865234,9.046239852905273
1789038138318076700,11.81207666015625,-2.3612334728240967,-3.044316053390503,9.01815414428711
1789038138328076500,11.82207666015625,-2.338498115539551,-3.136474847793579,8.992459297180176
1789038138338076700,11.83207666015625,-2.304121732711792,-3.217484474182129,8.972691535949707
1789038138348076500,11.84207666015625,-2.260681629180908,-3.2871649265289307,8.958474159240723
1789038138358076700,11.85207666015625,-2.222681999206543,-3.3496012687683105,8.944844245910645
1789038138368076500,11.86207666015625,-2.19917631149292,-3.4069879055023193,8.928966522216797
1789038138378076700,11.87207666015625,-2.190058946609497,-3.4581451416015625,8.911523818969727
1789038138388076500,11.88207666015625,-2.1945579051971436,-3.501371383666992,8.893519401550293
1789038138398076700,11.89207666015625,-2.209005832672119,-3.535266876220703,8.876518249511719
1789038138408076500,11.90207666015625,-2.23183536529541,-3.5597753524780273,8.860998153686523
1789038138418076700,11.91207666015625,-2.2583048343658447,-3.5771100521087646,8.847301483154297
1789038138428076500,11.92207666015625,-2.2843379974365234,-3.5893290042877197,8.835659980773926
1789038138438076700,11.93207666015625,-2.3106255531311035,-3.5988540649414062,8.824944496154785
1789038138448076500,11.94207666015625,-2.3398637771606445,-3.605746030807495,8.814421653747559
1789038138458076700,11.95207666015625,-2.369931697845459,-3.6115005016326904,8.80402660369873
1789038138468076500,11.96207666015625,-2.398268461227417,-3.616719961166382,8.794204711914062
1789038138478076700,11.97207666015625,-2.4239540100097656,-3.6211984157562256,8.78531551361084
1789038138488076500,11.98207666015625,-2.445263147354126,-3.6246390342712402,8.777986526489258
1789038138498076700,11.99207666015625,-2.4606170654296875,-3.6258046627044678,8.773214340209961
1789038138508076500,12.00207666015625,-2.4715497493743896,-3.6235320568084717,8.771080017089844
1789038138518076700,12.01207666015625,-2.4817380905151367,-3.617037057876587,8.770883560180664
1789038138528076500,12.02207666015625,-2.4943222999572754,-3.6059439182281494,8.771883010864258
1789038138538076700,12.03207666015625,-2.5103015899658203,-3.590930223464966,8.773482322692871
1789038138548076500,12.04207666015625,-2.528057813644409,-3.5736894607543945,8.775423049926758
1789038138558076700,12.05207666015625,-2.5455052852630615,-3.555947780609131,8.777586936950684
1789038138568076500,12.06207666015625,-2.5602970123291016,-3.5379481315612793,8.780557632446289
1789038138578076700,12.07207666015625,-2.571234703063965,-3.5192983150482178,8.784855842590332
1789038138588076500,12.08207666015625,-2.580045223236084,-3.49949049949646,8.790183067321777
1789038138598076700,12.09207666015625,-2.590108633041382,-3.478593349456787,8.795516967773438
1789038138608076500,12.10207666015625,-2.6031601428985596,-3.4551804065704346,8.800889015197754
1789038138618076700,12.11207666015625,-2.6188361644744873,-3.427793264389038,8.806946754455566
1789038138628076500,12.12207666015625,-2.6345725059509277,-3.3950045108795166,8.814950942993164
1789038138638076700,12.13207666015625,-2.6480226516723633,-3.356698751449585,8.825584411621094
1789038138648076500,12.14207666015625,-2.658384323120117,-3.3130600452423096,8.838949203491211
1789038138658076700,12.15207666015625,-2.664921998977661,-3.26414155960083,8.855165481567383
1789038138668076500,12.16207666015625,-2.6688196659088135,-3.2091619968414307,8.874066352844238
1789038138678076700,12.17207666015625,-2.671308755874634,-3.148085594177246,8.895170211791992
1789038138688076500,12.18207666015625,-2.673078775405884,-3.0782887935638428,8.919034004211426
1789038138698076700,12.19207666015625,-2.677567958831787,-2.998561143875122,8.94481086730957
1789038138708076500,12.20207666015625,-2.6831960678100586,-2.9088313579559326,8.972711563110352
1789038138718076700,12.21207666015625,-2.689420461654663,-2.8084716796875,9.002771377563477
1789038138728076500,12.22207666015625,-2.696718454360962,-2.698124408721924,9.034279823303223
1789038138738076700,12.23207666015625,-2.702617645263672,-2.5808818340301514,9.0667142868042
1789038138748076500,12.24207666015625,-2.7204172611236572,-2.4567792415618896,9.095820426940918
1789038138758076700,12.25207666015625,-2.7421250343322754,-2.3291614055633545,9.122836112976074
1789038138768076500,12.26207666015625,-2.7704288959503174,-2.199601411819458,9.14641284942627
1789038138778076700,12.27207666015625,-2.8066823482513428,-2.0661773681640625,9.166451454162598
1789038138788076500,12.28207666015625,-2.8449676036834717,-1.9294555187225342,9.184430122375488
1789038138798076700,12.29207666015625,-2.8792879581451416,-1.7912955284118652,9.201703071594238
1789038138808076500,12.30207666015625,-2.9105420112609863,-1.6479249000549316,9.218647956848145
1789038138818076700,12.31207666015625,-2.9478487968444824,-1.494297981262207,9.232965469360352
1789038138828076500,12.32207666015625,-2.9969215393066406,-1.3342127799987793,9.241683959960938
1789038138838076700,12.33207666015625,-3.0454723834991455,-1.1768780946731567,9.247185707092285
1789038138848076500,12.34207666015625,-3.094064474105835,-1.0267243385314941,9.248945236206055
1789038138858076700,12.35207666015625,-3.146176815032959,-0.884148359298706,9.246092796325684
1789038138868076500,12.36207666015625,-3.203225612640381,-0.7449201345443726,9.238767623901367
1789038138878076700,12.37207666015625,-3.2709386348724365,-0.604289710521698,9.225300788879395
1789038138888076500,12.38207666015625,-3.3453710079193115,-0.459260493516922,9.206952095031738
1789038138898076700,12.39207666015625,-3.411390781402588,-0.3115391433238983,9.188892364501953
1789038138908076500,12.40207666015625,-3.468778133392334,-0.1650562286376953,9.171189308166504
1789038138918076700,12.41207666015625,-3.5232796669006348,-0.022558927536010742,9.151851654052734
1789038138928076500,12.42207666015625,-3.576455593109131,0.11684038490056992,9.130481719970703
1789038138938076700,12.43207666015625,-3.634455442428589,0.2542726695537567,9.104748725891113
1789038138948076500,12.44207666015625,-3.703977108001709,0.3938286006450653,9.07170581817627
1789038138958076700,12.45207666015625,-3.779340982437134,0.5386844873428345,9.03309440612793
1789038138968076500,12.46207666015625,-3.8504607677459717,0.6847760081291199,8.99307632446289
1789038138978076700,12.47207666015625,-3.9207613468170166,0.8259347081184387,8.950745582580566
1789038138988076500,12.48207666015625,-3.9888012409210205,0.9557616710662842,8.907658576965332
1789038138998076700,12.49207666015625,-4.052384853363037,1.073001742362976,8.865508079528809
1789038139008076500,12.50207666015625,-4.108931541442871,1.1858413219451904,8.825013160705566
1789038139018076700,12.51207666015625,-4.156247615814209,1.2978495359420776,8.787012100219727
1789038139028076500,12.52207666015625,-4.194688320159912,1.408022165298462,8.751710891723633
1789038139038076700,12.53207666015625,-4.22672700881958,1.5149521827697754,8.718377113342285
1789038139048076500,12.54207666015625,-4.2572808265686035,1.623016595840454,8.68399429321289
1789038139058076700,12.55207666015625,-4.276185512542725,1.737416386604309,8.652515411376953
1789038139068076500,12.56207666015625,-4.281366348266602,1.8566210269927979,8.625151634216309
1789038139078076700,12.57207666015625,-4.286595821380615,1.9736570119857788,8.59652042388916
1789038139088076500,12.58207666015625,-4.289712905883789,2.084813356399536,8.568681716918945
1789038139098076700,12.59207666015625,-4.29172420501709,2.188411235809326,8.541800498962402
1789038139108076500,12.60207666015625,-4.299430847167969,2.2793819904327393,8.51408863067627
1789038139118076700,12.61207666015625,-4.312434196472168,2.3492331504821777,8.488486289978027
1789038139128076500,12.62207666015625,-4.332895278930664,2.4018492698669434,8.46330451965332
1789038139138076700,12.63207666015625,-4.354615688323975,2.4510579109191895,8.438010215759277
1789038139148076500,12.64207666015625,-4.369217872619629,2.503251314163208,8.415108680725098
1789038139158076700,12.65207666015625,-4.370883464813232,2.5577800273895264,8.397829055786133
1789038139168076500,12.66207666015625,-4.366298198699951,2.6134114265441895,8.383072853088379
1789038139178076700,12.67207666015625,-4.355495929718018,2.6672582626342773,8.371725082397461
1789038139188076500,12.68207666015625,-4.34168004989624,2.7137105464935303,8.363969802856445
1789038139198076700,12.69207666015625,-4.3244500160217285,2.748410940170288,8.361564636230469
1789038139208076500,12.70207666015625,-4.304192066192627,2.769923448562622,8.364917755126953
1789038139218076700,12.71207666015625,-4.280124187469482,2.778050184249878,8.374566078186035
1789038139228076500,12.72207666015625,-4.256146430969238,2.777085781097412,8.387097358703613
1789038139238076700,12.73207666015625,-4.228898048400879,2.773937940597534,8.401909828186035
1789038139248076500,12.74207666015625,-4.201632022857666,2.7661335468292236,8.418145179748535
1789038139258076700,12.75207666015625,-4.177495002746582,2.7496018409729004,8.435556411743164
1789038139268076500,12.76207666015625,-4.1525726318359375,2.723008394241333,8.456462860107422
1789038139278076700,12.77207666015625,-4.123617649078369,2.6854207515716553,8.482610702514648
1789038139288076500,12.78207666015625,-4.090200901031494,2.636702060699463,8.514015197753906
1789038139298076700,12.79207666015625,-4.0480732917785645,2.5798304080963135,8.551488876342773
1789038139308076500,12.80207666015625,-3.9997074604034424,2.519470453262329,8.592146873474121
1789038139318076700,12.81207666015625,-3.9483001232147217,2.455784797668457,8.634258270263672
1789038139328076500,12.82207666015625,-3.89798641204834,2.388359308242798,8.675933837890625
1789038139338076700,12.83207666015625,-3.847355604171753,2.317329168319702,8.717696189880371
1789038139348076500,12.84207666015625,-3.7950620651245117,2.240039825439453,8.760714530944824
1789038139358076700,12.85207666015625,-3.7390682697296143,2.157475233078003,8.805399894714355
1789038139368076500,12.86207666015625,-3.6784493923187256,2.071208953857422,8.85152530670166
1789038139378076700,12.87207666015625,-3.615473747253418,1.9801970720291138,8.898177146911621
