time,seconds_elapsed,z,y,x
1789038126584715500,0.078715576171875,0.0021380267571657896,0.4610501825809479,-0.40317076444625854
1789038126601969700,0.0959697265625,-0.10842850059270859,0.5355756878852844,-0.30115634202957153
1789038126619223800,0.113223876953125,-0.18723005056381226,0.7646499872207642,-0.22357651591300964
1789038126636478200,0.130478271484375,-0.129197895526886,0.8526145219802856,-0.25961753726005554
1789038126653732400,0.147732421875,-0.022907428443431854,0.5410735011100769,-0.44898560643196106
1789038126670986500,0.164986572265625,0.12064579129219055,-0.016646064817905426,-0.6261364221572876
1789038126688240600,0.18224072265625,0.29535311460494995,-0.6177369952201843,-0.7189878225326538
1789038126705494800,0.199494873046875,0.1792888194322586,-1.208443284034729,-0.8142827749252319
1789038126722749200,0.216749267578125,-0.05833758786320686,-1.2713623046875,-0.7238747477531433
1789038126740003300,0.23400341796875,-0.2605338394641876,-0.8443678617477417,-0.4367683231830597
1789038126757257500,0.251257568359375,-0.35582873225212097,-0.08689551800489426,-0.02932151034474373
1789038126774511600,0.26851171875,-0.37659814953804016,0.9314160943031311,0.4410443603992462
1789038126791765800,0.285765869140625,-0.22876885533332825,1.374903917312622,0.8991929292678833
1789038126809020000,0.30302001953125,0.26358816027641296,-1.2047780752182007,1.0885610580444336
1789038126826274300,0.3202744140625,0.40347617864608765,-1.9518656730651855,1.155145287513733
1789038126843528400,0.337528564453125,0.2935205399990082,-1.0300707817077637,1.1533126831054688
1789038126860782600,0.354782470703125,0.3448331654071808,-0.33429574966430664,0.6389645338058472
1789038126878036700,0.37203662109375,0.6575959324836731,-0.11621702462434769,0.0513126403093338
1789038126895291000,0.389290771484375,0.7357866168022156,-0.1418733447790146,-0.4404335021972656
1789038126912545300,0.406545166015625,0.3222311735153198,-0.45769044756889343,-0.5467239618301392
1789038126929799400,0.42379931640625,-0.03756818547844887,-0.8535308241844177,-0.2101374864578247
1789038126947053600,0.441053466796875,-0.08582650125026703,-1.1174243688583374,-0.03176496922969818
1789038126964307700,0.4583076171875,-0.08765909820795059,-1.0306816101074219,-0.1496618688106537
1789038126981562000,0.47556201171875,-0.029016077518463135,-0.9708168506622314,-0.3555232882499695
1789038126998816300,0.492816162109375,-0.17562362551689148,-1.0288490056991577,-0.544891357421875
1789038127016070400,0.5100703125,-0.1951712965965271,-1.2768601179122925,-0.6841685771942139
1789038127033324500,0.527324462890625,0.048563748598098755,-1.47661292552948,-0.6499601006507874
1789038127050578700,0.54457861328125,0.17134757339954376,-1.422245979309082,-0.2974911332130432
1789038127067832800,0.561832763671875,-0.05406153202056885,-1.2292126417160034,0.028099779039621353
1789038127085087200,0.579087158203125,-0.3539961278438568,-0.9976949095726013,0.026878049597144127
1789038127102341400,0.59634130859375,-0.2214384824037552,-0.8914044499397278,-0.017104214057326317
1789038127119595500,0.613595458984375,0.18417572975158691,-0.32818710803985596,-0.03481929376721382
1789038127136849700,0.630849609375,0.425467312335968,0.17821979522705078,-0.07024945318698883
1789038127154103800,0.648103759765625,0.42791077494621277,0.3584249019622803,-0.02626718580722809
1789038127171358200,0.665358154296875,0.35705047845840454,0.20448698103427887,0.08491020649671555
1789038127188612400,0.6826123046875,0.1340848207473755,0.13423752784729004,0.21502439677715302
1789038127205866500,0.699866455078125,-0.09132428467273712,0.3462076187133789,0.1539379209280014
1789038127223120600,0.71712060546875,-0.1029307171702385,0.6107120513916016,-0.0873536616563797
1789038127240374800,0.734374755859375,0.1279761642217636,0.753654420375824,-0.17043127119541168
1789038127257629200,0.751629150390625,0.2629773020744324,0.919198751449585,-0.10934479534626007
1789038127274883300,0.76888330078125,0.21349723637104034,1.0236566066741943,-0.07941242307424545
1789038127292137500,0.786137451171875,0.09132428467273712,0.9222530722618103,0.04153880476951599
1789038127309391600,0.8033916015625,0.03329212963581085,0.44638943672180176,0.2522871494293213
1789038127326646000,0.82064599609375,-0.011300998739898205,-0.009315688163042068,0.4202749729156494
1789038127343900200,0.837900146484375,-0.07238747924566269,-0.21090106666088104,0.3451386094093323
1789038127361154300,0.855154296875,-0.04550942778587341,-0.18585561215877533,0.24801109731197357
1789038127378408400,0.872408447265625,0.05528326332569122,-0.022754713892936707,0.2932150959968567
1789038127395662800,0.889662841796875,0.024740023538470268,0.05482511222362518,0.36285367608070374
1789038127412917000,0.9069169921875,-0.0974329337477684,-0.06062832847237587,0.32070401310920715
1789038127430171100,0.924171142578125,-0.17134757339954376,-0.12171480804681778,0.2822195291519165
1789038127447425300,0.94142529296875,-0.16707152128219604,-0.09300415962934494,0.2370155304670334
1789038127464679400,0.958679443359375,-0.1444695144891739,-0.15836669504642487,0.16004657745361328
1789038127481933800,0.975933837890625,-0.06627883017063141,-0.2909243404865265,0.11911863088607788
1789038127499188000,0.99318798828125,0.006414080038666725,-0.3935496211051941,0.20952661335468292
1789038127516442000,1.010442138671875,-0.07605266571044922,-0.40088000893592834,0.2779434621334076
1789038127533696300,1.0276962890625,-0.18845178186893463,-0.39599308371543884,0.2779434621334076
1789038127550950400,1.044950439453125,-0.11514800786972046,-0.5755873322486877,0.28405213356018066
1789038127568204800,1.062204833984375,0.19211697578430176,-1.0154099464416504,0.35063639283180237
1789038127585459000,1.079458984375,0.44440412521362305,-0.8877392411231995,0.5845975875854492
1789038127602713000,1.096713134765625,0.4218021333217621,-0.4607447683811188,0.5717694163322449
1789038127619967200,1.11396728515625,0.2415970265865326,-0.5780308246612549,0.16004657745361328
1789038127637221600,1.1312216796875,0.16646064817905426,-0.6073523163795471,-0.012217295356094837
1789038127654475800,1.148475830078125,0.189673513174057,-0.4650208055973053,0.08491020649671555
1789038127671730000,1.16572998046875,0.21166464686393738,-0.8315396904945374,0.033597562462091446
1789038127688984000,1.182984130859375,0.3491092324256897,-1.0545053482055664,-0.1288924664258957
1789038127706238200,1.20023828125,0.5531380772590637,-0.9408844709396362,-0.4214966893196106
1789038127723492600,1.21749267578125,1.375972867012024,-1.0642791986465454,-0.8442151546478271
1789038127740746800,1.234746826171875,1.8750494718551636,-0.8755219578742981,-1.1252129077911377
1789038127758001000,1.2520009765625,1.8603886365890503,-0.6391173005104065,-1.2986985445022583
1789038127775255000,1.269255126953125,1.9581270217895508,-1.4746276140213013,-1.3394737243652344
1789038127792509400,1.286509521484375,2.93123459815979,-4.098902702331543,-0.8978185057640076
1789038127809763600,1.303763671875,4.226878643035889,-5.249161243438721,-0.2539670467376709
1789038127827017700,1.321017822265625,5.20853853225708,-4.971828460693359,0.4198168218135834
1789038127844271900,1.33827197265625,5.668519496917725,-4.428769588470459,0.9592103958129883
1789038127861526000,1.355526123046875,5.597659587860107,-1.9834779500961304,0.5878046154975891
1789038127878780400,1.372780517578125,5.400960922241211,-0.7153226733207703,-0.10919208079576492
1789038127896034600,1.39003466796875,5.736936569213867,-2.266308307647705,-0.46715885400772095
1789038127913288700,1.407288818359375,5.8578877449035645,-3.059821605682373,-0.6766854524612427
1789038127930543000,1.424543212890625,4.726566314697266,-3.397019147872925,-0.7744238376617432
1789038127947797200,1.44179736328125,3.285536289215088,-4.142273902893066,-0.8684970140457153
1789038127965051400,1.459051513671875,2.7064363956451416,-3.948629856109619,-0.7683151960372925
1789038127982305500,1.476305419921875,2.679558277130127,-3.1331255435943604,-0.8086322546005249
1789038127999559700,1.4935595703125,2.836550712585449,-2.6523749828338623,-1.1122320890426636
1789038128016814000,1.51081396484375,2.9520039558410645,-1.8368704319000244,-1.0499238967895508
1789038128034068200,1.528068115234375,2.994764566421509,-1.5992439985275269,-0.6400335431098938
1789038128051322400,1.545322265625,2.813948631286621,-2.020129919052124,-0.49220430850982666
1789038128068576500,1.562576416015625,2.3258676528930664,-2.366490125656128,-0.5606211423873901
1789038128085830700,1.57983056640625,2.199418544769287,-1.646891474723816,-0.8422298431396484
1789038128103085000,1.5970849609375,2.5641047954559326,-1.3762784004211426,-0.7670934200286865
1789038128120339200,1.614339111328125,2.6245806217193604,-0.7568614482879639,-0.6088794469833374
1789038128137593300,1.63159326171875,2.322202444076538,-1.229670763015747,-0.4653262495994568
1789038128154847500,1.648847412109375,1.6783509254455566,-2.283412456512451,0.25060728192329407
1789038128172102000,1.666101806640625,1.1316269636154175,-2.9437572956085205,0.7411317229270935
1789038128189356000,1.68335595703125,1.1407899856567383,-3.0860888957977295,0.5694786906242371
1789038128206610200,1.700610107421875,1.1505638360977173,-3.384190797805786,0.48823368549346924
1789038128223864300,1.7178642578125,1.1957677602767944,-3.397629976272583,0.5254964232444763
1789038128241118700,1.73511865234375,1.2861758470535278,-1.8741331100463867,0.21456626057624817
1789038128258372900,1.752372802734375,1.8701624870300293,-1.397047758102417,0.07712167501449585
1789038128275627000,1.769626953125,1.8634430170059204,-1.204014539718628,-0.5111411213874817
1789038128301508400,1.79550830078125,1.6074906587600708,-0.9199623465538025,-0.7451022863388062
1789038128318762500,1.812762451171875,1.7828088998794556,-0.5290089249610901,-0.7475457787513733
1789038128336016600,1.8300166015625,1.746156930923462,-0.6725621223449707,-0.826958179473877
1789038128353271000,1.84727099609375,1.4352267980575562,-1.0677915811538696,-0.7225003242492676
1789038128370525200,1.864525146484375,1.1071923971176147,-0.8008437156677246,-0.3455967605113983
1789038128387779300,1.881779296875,0.815199077129364,-0.3640754222869873,0.04046979174017906
1789038128405033500,1.899033447265625,0.8200859427452087,-0.6401863098144531,0.02825249545276165
1789038128422288000,1.916287841796875,0.8078686594963074,-1.0830632448196411,0.02214384824037552
1789038128439542000,1.9335419921875,0.7846558094024658,-0.9572250843048096,0.29703301191329956
1789038128456796200,1.950796142578125,0.9532544612884521,-1.043357014656067,0.3776671588420868
1789038128474050300,1.96805029296875,0.9764673709869385,-1.703091025352478,0.4124864339828491
1789038128491304700,1.9853046875,0.906828761100769,-1.9743149280548096,0.790611743927002
1789038128508558800,2.002558837890625,0.8720094561576843,-1.7122539281845093,1.1369720697402954
1789038128525813000,2.01981298828125,0.6582068204879761,-1.3897173404693604,1.215162754058838
1789038128543067100,2.037067138671875,0.517707884311676,-1.6047418117523193,1.154076337814331
1789038128560321500,2.054321533203125,0.19883649051189423,-1.7091996669769287,1.391702651977539
1789038128577575700,2.07157568359375,0.07055488228797913,-1.6407828330993652,1.411250352859497
1789038128594829800,2.088829833984375,-0.04550942778587341,-1.858250617980957,1.1406372785568237
1789038128612084000,2.106083984375,-0.5445859432220459,-2.114813804626465,0.9512691497802734
1789038128629338400,2.12333837890625,-0.9318742156028748,-1.29503333568573,1.2121084928512573
1789038128646592500,2.140592529296875,-1.4278963804244995,0.6432406306266785,1.0948224067687988
1789038128663846400,2.157846435546875,-2.120617151260376,2.1111485958099365,1.0551161766052246
1789038128689728000,2.18372802734375,-2.981936454772949,2.1838417053222656,0.6794343590736389
1789038128706982100,2.200982177734375,-2.774242401123047,1.6407828330993652,0.6885973215103149
1789038128724236300,2.218236328125,-2.025933027267456,1.250440239906311,0.11804962158203125
1789038128741490400,2.235490478515625,-1.7846415042877197,1.0293071269989014,-0.38041603565216064
1789038128758744800,2.252744873046875,-2.01188325881958,1.1331541538238525,-0.5795579552650452
1789038128775999000,2.2699990234375,-1.156672477722168,1.3597849607467651,-0.6424770355224609
1789038128793253000,2.287253173828125,-0.7455604672431946,0.9590576887130737,-0.6247619390487671
1789038128810507500,2.304507568359375,-1.2189806699752808,0.5748237371444702,-0.938746452331543
1789038128827761700,2.32176171875,-2.1645994186401367,0.6707295179367065,-1.1965314149856567
1789038128845015800,2.339015869140625,-2.2446227073669434,1.2107340097427368,-1.1739293336868286
1789038128862270200,2.356270263671875,-1.8408410549163818,1.7067562341690063,-1.302211046218872
1789038128879524400,2.3735244140625,-2.2256858348846436,1.452636480331421,-1.494633436203003
1789038128896778500,2.390778564453125,-2.3955061435699463,0.9950987100601196,-1.2118029594421387
1789038128914032600,2.40803271484375,-3.138317823410034,1.3017528057098389,-0.9326378107070923
1789038128931286800,2.425286865234375,-4.559800148010254,2.115424633026123,-1.190422773361206
1789038128948541200,2.442541259765625,-7.314189434051514,1.8283182382583618,-1.8739804029464722
1789038128965795300,2.45979541015625,-6.37712287902832,-0.47464191913604736,-1.901469349861145
1789038128983049500,2.477049560546875,-3.8047711849212646,-1.997527837753296,-1.0474803447723389
1789038129000303900,2.494303955078125,-2.724151372909546,-2.0854923725128174,-0.6052142977714539
1789038129017558000,2.51155810546875,-2.997818946838379,-1.7892229557037354,-1.0908517837524414
1789038129034812200,2.528812255859375,-2.763246774673462,-1.9456043243408203,-1.7004948854446411
1789038129052066300,2.54606640625,-2.6080870628356934,-2.127031087875366,-2.6613850593566895
1789038129069320700,2.56332080078125,-0.1792888194322586,-1.656665325164795,-2.3351833820343018
1789038129086574800,2.580574951171875,2.028376579284668,-0.6585122346878052,-2.126267671585083
1789038129103829000,2.5978291015625,2.95322585105896,-1.905898094177246,-1.8794782161712646
1789038129121083100,2.615083251953125,2.981936454772949,-2.5216498374938965,-1.5245658159255981
1789038129138337500,2.632337646484375,2.422995090484619,-1.036637544631958,-0.8257364630699158
1789038129155591700,2.649591796875,1.7962478399276733,0.007941242307424545,0.17974695563316345
1789038129172846000,2.66684619140625,0.620333194732666,0.36163195967674255,1.1546871662139893
1789038129190100200,2.684100341796875,0.06811141967773438,-0.3249800503253937,0.8223767280578613
1789038129207354400,2.701354248046875,0.041844237595796585,-0.21258094906806946,0.36483898758888245
1789038129224608800,2.71860888671875,0.12370011955499649,-0.06536252796649933,0.3459021747112274
1789038129241863000,2.73586279296875,0.4572322964668274,-0.3176496922969818,0.595745861530304
1789038129259117000,2.753116943359375,1.0290017127990723,-0.11545344442129135,0.33001968264579773
1789038129276371500,2.770371337890625,1.6789618730545044,0.03176496922969818,0.03558287397027016
1789038129293625600,2.78762548828125,2.32464599609375,-0.9169080257415771,0.05146535858511925
1789038129310879700,2.804879638671875,2.4291038513183594,-1.4960078001022339,0.4442514181137085
1789038129328134000,2.8221337890625,1.1224640607833862,-1.5705333948135376,1.019685983657837
1789038129345388300,2.83938818359375,-0.499381959438324,-1.2730422019958496,0.8553634285926819
1789038129362642400,2.856642333984375,-1.194546103477478,-0.6957749724388123,0.23105959594249725
1789038129379896600,2.873896484375,-0.5690205693244934,0.26939135789871216,-0.10735948383808136
1789038129397151000,2.89115087890625,0.17562362551689148,0.18631376326084137,0.35873034596443176
1789038129414405000,2.908405029296875,0.23976442217826843,0,0.5169443488121033
1789038129431659300,2.9256591796875,0.019242240116000175,-0.30604326725006104,0.42164942622184753
1789038129448913700,2.94291357421875,-0.36254823207855225,-0.3066541254520416,0.2854265570640564
1789038129466167800,2.960167724609375,-0.3081812858581543,-0.30970844626426697,0.4143190383911133
1789038129483422200,2.977422119140625,0.15118902921676636,-0.15821397304534912,0.49800750613212585
1789038129500676400,2.99467626953125,0.25870123505592346,-0.11667517572641373,0.4247037470340729
1789038129517930800,3.0119306640625,0.1444695144891739,-0.1288924664258957,0.6470585465431213
1789038129535185000,3.029184814453125,0.17562362551689148,0.6157516837120056,0.9451605081558228
1789038129552439000,3.04643896484375,0.11759147047996521,0.842382550239563,0.9170607328414917
1789038129569693400,3.063693359375,-0.17073670029640198,0.5051851868629456,0.48884454369544983
1789038129586947600,3.080947509765625,-0.041844237595796585,0.1594357043504715,0.17058399319648743
1789038129604201700,3.09820166015625,0.6630937457084656,0.0873536616563797,-0.057268574833869934
1789038129621456100,3.1154560546875,1.0021237134933472,0.2003636509180069,-0.30222535133361816
1789038129638710300,3.132710205078125,0.601396381855011,0.24923282861709595,-0.30283620953559875
1789038129655964400,3.14996435546875,0.3338375985622406,-0.27916520833969116,-0.09636391699314117
1789038129673218800,3.16721875,0.4407389461994171,-0.02626718580722809,-0.06154462695121765
1789038129690473000,3.184472900390625,0.48594292998313904,0.2254091054201126,-0.24052800238132477
1789038129707727000,3.20172705078125,0.509155809879303,0.47036588191986084,-0.569173276424408
1789038129724981500,3.2189814453125,0.6209440231323242,0.3237583339214325,-0.8923207521438599
1789038129742235600,3.236235595703125,0.7247910499572754,0.4783071279525757,-0.9784526824951172
1789038129759489800,3.25348974609375,0.6820304989814758,0.3659079968929291,-0.8306233882904053
1789038129776744200,3.270744140625,0.33689191937446594,-0.011606430634856224,-0.48731738328933716
1789038129793998300,3.287998291015625,0.13469567894935608,0.01893680728971958,-0.36025750637054443
1789038129811252700,3.305252685546875,0.3588830530643463,0.4196641147136688,-0.46654796600341797
1789038129828507000,3.3225068359375,0.5739074349403381,0.5051851868629456,-0.5740602016448975
1789038129845761300,3.33976123046875,0.6252201199531555,0.6530144214630127,-0.5978838801383972
1789038129863015400,3.357015380859375,0.4224129915237427,0.5259546041488647,-0.41523534059524536
1789038129880269800,3.374269775390625,0.314289927482605,0.6737838387489319,-0.1464548259973526
1789038129897524000,3.39152392578125,0.09010255336761475,0.6768381595611572,-0.1262962967157364
1789038129914778000,3.408778076171875,-0.08949168771505356,0.5143481492996216,-0.31261005997657776
1789038129932032500,3.426032470703125,-0.0717766135931015,0.9786053895950317,-0.19837833940982819
1789038129949286700,3.44328662109375,0.43401941657066345,1.1184934377670288,-0.004123337101191282
1789038129966541000,3.460541015625,0.9630283117294312,0.6957749724388123,0.5578722357749939
1789038129983795200,3.477795166015625,1.359479546546936,1.5393792390823364,0.8480330109596252
1789038130001049300,3.49504931640625,1.0571014881134033,1.2076796293258667,0.3318522870540619
1789038130018303700,3.5123037109375,2.2537856101989746,0.962722897529602,0.22495095431804657
1789038130035558000,3.529557861328125,3.3344054222106934,1.4660754203796387,0.42164942622184753
1789038130052812300,3.546812255859375,2.0039420127868652,-0.35246896743774414,-0.46288278698921204
1789038130070066400,3.56406640625,1.7217223644256592,-1.731190800666809,-1.0792453289031982
1789038130087320600,3.581320556640625,1.9465205669403076,-1.053130865097046,-0.3578140437602997
1789038130104575000,3.598574951171875,1.832899808883667,-0.0873536616563797,0.3770562708377838
1789038130121829000,3.6158291015625,1.6673554182052612,0.6071996092796326,-0.1415679156780243
1789038130139083500,3.63308349609375,1.9367468357086182,0.4410443603992462,-0.05482511222362518
1789038130156337700,3.650337646484375,2.477972984313965,0.17776164412498474,0.40637779235839844
1789038130173592000,3.667592041015625,1.997833251953125,-0.16249002516269684,0.819322407245636
1789038130190846200,3.68484619140625,1.3588687181472778,-0.43921178579330444,0.5981893539428711
1789038130208100600,3.7021005859375,0.8940005898475647,-0.14294235408306122,-0.47326749563217163
1789038130225354800,3.719354736328125,0.4364628791809082,0.3543015718460083,-1.1568251848220825
1789038130242609000,3.73660888671875,0.25870123505592346,0.4312705397605896,-0.8281798958778381
1789038130259863300,3.75386328125,0.40714138746261597,0.09040798991918564,0.05146535858511925
1789038130277117400,3.771117431640625,0.28496840596199036,-0.24434591829776764,0.29153522849082947
1789038130294371800,3.788371826171875,0.19883649051189423,-0.1331685185432434,-0.3816377818584442
1789038130311626000,3.8056259765625,0.5335903763771057,0.08307760953903198,-0.21487168967723846
1789038130328880400,3.82288037109375,0.795040488243103,-0.2620609998703003,0.03802633285522461
1789038130346134500,3.840134521484375,0.8487966060638428,-0.1649334877729416,-0.18432845175266266
1789038130363389000,3.857388916015625,0.9575305581092834,0.13072505593299866,-0.1049160286784172
1789038130380643000,3.87464306640625,0.9685261249542236,0.39828383922576904,-0.01511890348047018
1789038130397897500,3.8918974609375,0.9489784240722656,0.09957095980644226,0.16447533667087555
1789038130415151600,3.909151611328125,0.8347467184066772,-0.004886918235570192,0.8071050643920898
1789038130432406000,3.926406005859375,0.5958985686302185,-0.3707949221134186,1.6128357648849487
1789038130449660200,3.94366015625,0.6716458201408386,-0.12767073512077332,2.1748313903808594
1789038130466914600,3.96091455078125,0.6740893125534058,1.5137228965759277,1.782656192779541
1789038130484168700,3.978168701171875,0.4871646761894226,2.4471242427825928,0.42959064245224
1789038130501423000,3.995423095703125,0.22693626582622528,2.1581852436065674,-0.49342602491378784
1789038130518677200,4.01267724609375,-0.03940077871084213,0.462424635887146,-0.661413848400116
1789038130535931600,4.029931640625,0.05100720748305321,0.034208428114652634,-0.8678861260414124
1789038130553185800,4.047185791015625,-0.000305432389723137,0.053145237267017365,-1.4598140716552734
1789038130570440200,4.064440185546875,-0.21288637816905975,-0.80389803647995,-1.6766711473464966
1789038130587694300,4.0816943359375,-0.2611446976661682,-1.5222749710083008,-1.2032508850097656
1789038130604948700,4.09894873046875,-0.12553271651268005,-1.3365721702575684,-0.383470356464386
1789038130622203100,4.116203125,0.008246674202382565,-1.0567960739135742,-0.3730856776237488
1789038130639457300,4.133457275390625,-0.19333870708942413,-0.5858193039894104,-0.42684176564216614
1789038130656711700,4.150711669921875,-0.42852163314819336,0.1288924664258957,-0.1562286615371704
1789038130673965800,4.1679658203125,-0.4205803871154785,-0.1282816082239151,0.08933897316455841
1789038130691220200,4.18522021484375,-0.2678641974925995,-0.2809978127479553,0.27320927381515503
1789038130708474400,4.202474365234375,-0.3539961278438568,-0.1905898153781891,0.28787001967430115
1789038130725728800,4.219728759765625,-0.6667588949203491,-0.43432486057281494,0.6366738080978394
1789038130742983000,4.23698291015625,-0.9031635522842407,-0.40255987644195557,0.5963567495346069
1789038130760237300,4.2542373046875,-1.1701115369796753,-0.3530798554420471,0.04108065739274025
1789038130777491500,4.271491455078125,-1.0204496383666992,-0.8271108865737915,0.03252854943275452
1789038130794745900,4.288745849609375,-0.8518509268760681,-0.4001164436340332,0.08872810751199722
1789038130812000000,4.306,-0.42852163314819336,-0.026878049597144127,0.1204930767416954
1789038130829254400,4.32325439453125,-0.09682206809520721,0.07819069176912308,0.2707658112049103
1789038130846508500,4.340508544921875,0.022296564653515816,-0.33169957995414734,0.49800750613212585
1789038130863763000,4.357762939453125,0.015577051788568497,-0.11117739230394363,0.634230375289917
1789038130881017000,4.37501708984375,-0.11453714966773987,0.2571740746498108,0.3477347791194916
1789038130898271500,4.392271484375,-0.29962918162345886,0.10567960888147354,-0.23014330863952637
1789038130915525600,4.409525634765625,-0.17195843160152435,-0.24495677649974823,-0.4543306827545166
1789038130932780000,4.426780029296875,-0.06322450190782547,-0.1441640853881836,-0.4036289155483246
1789038130950034200,4.4440341796875,-0.03329212963581085,0.050090912729501724,-0.15500694513320923
1789038130967288600,4.46128857421875,0.01740964688360691,-0.014660755172371864,0.0899498388171196
1789038130984542700,4.478542724609375,0.10720676928758621,-0.25411975383758545,0.24694208800792694
1789038131001797000,4.495797119140625,0.14691297709941864,-0.30054548382759094,0.4631882309913635
1789038131019051300,4.51305126953125,0.11392628401517868,-0.023823726922273636,0.41187557578086853
1789038131036305400,4.530305419921875,-0.07605266571044922,0.2626718580722809,-0.003512472379952669
1789038131053559800,4.547559814453125,-0.31490078568458557,0.40317076444625854,-0.6327031850814819
1789038131070814000,4.56481396484375,-0.25992295145988464,0.0977383628487587,-0.7402154207229614
1789038131088068400,4.582068359375,-0.2098320573568344,0.16249002516269684,-0.3730856776237488
1789038131105322500,4.599322509765625,-0.17134757339954376,0.22296564280986786,0.022754713892936707
1789038131122577000,4.616576904296875,-0.13103049993515015,0.2809978127479553,0.09117157012224197
1789038131139831000,4.6338310546875,-0.250149130821228,0.19730933010578156,-0.017562363296747208
1789038131157085400,4.65108544921875,-0.33078327775001526,0.20891575515270233,-0.08414662629365921
1789038131174339600,4.668339599609375,-0.3173442482948303,0.09346231073141098,0.009315688163042068
1789038131191594000,4.685593994140625,-0.282524973154068,0.21502439677715302,-0.02000582218170166
1789038131208848100,4.70284814453125,-0.17867794632911682,0.1026252806186676,-0.028557928279042244
1789038131226102500,4.7201025390625,-0.0565049909055233,0.07880155742168427,-0.02977965772151947
1789038131243356700,4.737356689453125,0.044898562133312225,0.14049890637397766,-0.0334448479115963
1789038131260611000,4.754611083984375,0.17318016290664673,0,-0.06520981341600418
1789038131277865200,4.771865234375,0.282524973154068,-0.11178825795650482,-0.20082180202007294
1789038131295119600,4.78911962890625,0.19394956529140472,-0.13988803327083588,-0.1055268943309784
1789038131312373800,4.806373779296875,0.10048725455999374,-0.23396120965480804,0.12110394239425659
1789038131329628200,4.823628173828125,0.04306596517562866,-0.21441353857517242,0.1418733447790146
1789038131346882300,4.84088232421875,0.06261363625526428,-0.15149445831775665,0.10216713696718216
1789038131364136400,4.858136474609375,0.060781046748161316,-0.10629047453403473,0.09789107739925385
1789038131381390800,4.875390869140625,0.06933315098285675,-0.05558869615197182,0.10583232343196869
1789038131398645000,4.89264501953125,0.11514800786972046,-0.07757982611656189,0.07040216773748398
1789038131415899400,4.9098994140625,0.12980876863002777,-0.10506874322891235,0.039858926087617874
1789038131433153500,4.927153564453125,0.16279546916484833,-0.16126830875873566,0.039858926087617874
1789038131450408000,4.944407958984375,0.19944734871387482,-0.20891575515270233,0.04657844081521034
1789038131467662000,4.961662109375,0.20922118425369263,-0.19242240488529205,0.04169152304530144
1789038131484916500,4.97891650390625,0.19211697578430176,-0.18570289015769958,0.04535670951008797
1789038131502170600,4.996170654296875,0.14630211889743805,-0.22357651591300964,0.030695954337716103
1789038131519425000,5.013425048828125,0.13713914155960083,-0.2724456787109375,0.026419902220368385
1789038131536679200,5.03067919921875,0.11881320178508759,-0.2779434621334076,0.039248060435056686
1789038131553933600,5.04793359375,0.13469567894935608,-0.2412915825843811,0.052687086164951324
1789038131571187700,5.065187744140625,0.1389717310667038,-0.20891575515270233,0.039248060435056686
1789038131588442000,5.082442138671875,0.12736530601978302,-0.19914191961288452,0.02153298258781433
1789038131605696300,5.0996962890625,0.13041962683200836,-0.1649334877729416,0.006872228812426329
1789038131622950700,5.11695068359375,0.1328630894422531,-0.09346231073141098,0.016646064817905426
1789038131640204800,5.134204833984375,0.12431098520755768,-0.053145237267017365,0.0386371985077858
1789038131657459200,5.151459228515625,0.11881320178508759,-0.05070177838206291,0.039248060435056686
1789038131674713300,5.16871337890625,0.11087195575237274,-0.05070177838206291,0.03802633285522461
1789038131691967700,5.1859677734375,0.11209368705749512,-0.029932374134659767,0.03130681812763214
1789038131709222000,5.203221923828125,0.12125665694475174,-0.02932151034474373,0.020922118797898293
1789038131726476300,5.220476318359375,0.1444695144891739,-0.0256563201546669,0.0007635809597559273
1789038131743730400,5.23773046875,0.15546508133411407,-0.007330377586185932,-0.02306014485657215
1789038131760984800,5.25498486328125,0.17256930470466614,0.013439024798572063,-0.04627300798892975
1789038131778239000,5.272239013671875,0.16157373785972595,0.025045456364750862,-0.07009673118591309
1789038131795493400,5.289493408203125,0.1597411334514618,0.0409279391169548,-0.08597921580076218
1789038131812747500,5.30674755859375,0.13530655205249786,0.043982263654470444,-0.08597921580076218
1789038131830001700,5.324001708984375,0.15668681263923645,0.06108647957444191,-0.0792597085237503
1789038131847256000,5.341256103515625,0.1847866028547287,0.08124501258134842,-0.060322895646095276
1789038131864510200,5.35851025390625,0.18784092366695404,0.09896009415388107,-0.05177079141139984
1789038131881764600,5.3757646484375,0.18356487154960632,0.1282816082239151,-0.06154462695121765
1789038131899018800,5.393018798828125,0.18906265497207642,0.12644900381565094,-0.07681624591350555
1789038131916273200,5.410273193359375,0.20799945294857025,0.13133592903614044,-0.08536835014820099
1789038131933527300,5.42752734375,-0.13469567894935608,0.47036588191986084,0.18341214954853058
1789038131950781700,5.44478173828125,-0.210442915558815,0.4935787320137024,0.20173808932304382
1789038131968035800,5.462035888671875,0.007024944759905338,0.23335035145282745,0.04413498193025589
1789038131985290200,5.479290283203125,0.11881320178508759,0.2467893660068512,-0.05787943676114082
1789038132002544400,5.49654443359375,0.14508038759231567,0.24801109731197357,-0.02916879393160343
1789038132019798800,5.513798828125,0.1127045527100563,0.15699224174022675,0.017867794260382652
1789038132037053000,5.531052978515625,0.0461202897131443,0.07757982611656189,-0.08170316368341446
1789038132054307300,5.548307373046875,-0.01435532234609127,0.029932374134659767,-0.17577634751796722
1789038132071561500,5.5655615234375,-0.04306596517562866,-0.015271619893610477,-0.25213444232940674
1789038132088815900,5.58281591796875,-0.0412333719432354,-0.06841685622930527,-0.3016144931316376
1789038132106070000,5.600070068359375,-0.05039634555578232,-0.10445787757635117,-0.29245150089263916
1789038132123324400,5.617324462890625,-0.019242240116000175,-0.13744457066059113,-0.23991714417934418
1789038132140578600,5.63457861328125,0.007635809946805239,-0.08796452730894089,-0.21609342098236084
1789038132157833000,5.6518330078125,0.010690134018659592,-0.0818558782339096,-0.16661337018013
1789038132175087000,5.669087158203125,0.03145953640341759,-0.07391463965177536,-0.10308343172073364
1789038132192341500,5.686341552734375,0.10903936624526978,-0.05803215503692627,-0.028557928279042244
1789038132209595600,5.703595703125,0.1334739476442337,-0.01588248461484909,0.05146535858511925
1789038132226850000,5.72085009765625,0.2006690800189972,-0.056199558079242706,0.13759729266166687
1789038132244104200,5.738104248046875,0.24342961609363556,-0.10567960888147354,0.18829907476902008
1789038132261358600,5.755358642578125,0.281914085149765,-0.08124501258134842,0.1925751268863678
1789038132278612700,5.77261279296875,0.3246746361255646,-0.06352993845939636,0.18585561215877533
1789038132295867100,5.7898671875,0.37843072414398193,-0.08124501258134842,0.16508620977401733
1789038132313121300,5.807121337890625,0.41263917088508606,-0.06963858753442764,0.1302669197320938
1789038132330375700,5.824375732421875,0.41263917088508606,-0.07269290834665298,0.10644318908452988
1789038132347629800,5.8416298828125,0.3851502537727356,0.001832594396546483,0.09972367435693741
1789038132364884000,5.858884033203125,0.3283398151397705,0.053145237267017365,0.09056070446968079
1789038132382138400,5.876138427734375,0.2721402645111084,0.10567960888147354,0.03375028073787689
1789038132399392500,5.893392578125,0.18417572975158691,0.12278381735086441,-0.05849030241370201
1789038132416647000,5.91064697265625,0.08399390429258347,0.1533270627260208,-0.11346813291311264
1789038132433901000,5.927901123046875,-0.025350889191031456,0.20769402384757996,-0.15500694513320923
1789038132451155500,5.945155517578125,-0.13713914155960083,0.2675587832927704,-0.28695371747016907
1789038132468409600,5.96240966796875,-0.2605338394641876,0.33169957995414734,-0.4958694875240326
1789038132485664000,5.9796640625,-0.4676169753074646,0.46425724029541016,-0.7218894362449646
1789038132502918100,5.996918212890625,-0.72173672914505,0.565049946308136,-0.8947641849517822
1789038132520172500,6.014172607421875,-0.9966259002685547,0.675616443157196,-1.0157153606414795
1789038132537426700,6.0314267578125,-1.283732295036316,0.6835576891899109,-1.1097885370254517
1789038132554681000,6.04868115234375,-1.554956316947937,0.593149721622467,-1.2667808532714844
1789038132571935200,6.065935302734375,-1.8561125993728638,0.5583304166793823,-1.4604250192642212
1789038132589189600,6.083189697265625,-2.1303908824920654,0.665842592716217,-1.560606837272644
1789038132606443800,6.10044384765625,-2.234848737716675,0.318871408700943,-1.404225468635559
1789038132623698200,6.1176982421875,-2.2067489624023438,-0.15149445831775665,-0.9790635108947754
1789038132640952300,6.134952392578125,-2.1529929637908936,-0.555276095867157,-0.5893318057060242
1789038132658206700,6.152206787109375,-2.1169519424438477,-0.7134900689125061,-0.5435169339179993
1789038132675460900,6.1694609375,-2.0473132133483887,-0.7709113359451294,-0.660802960395813
1789038132692715300,6.18671533203125,-2.047924280166626,-0.748920202255249,-0.7848085165023804
1789038132709969400,6.203969482421875,-2.190866470336914,-0.721431314945221,-0.9301943182945251
1789038132727223800,6.221223876953125,-2.360687017440796,-0.6633991599082947,-1.0334304571151733
1789038132744478000,6.23847802734375,-2.4126105308532715,-0.7568614482879639,-0.8892664313316345
1789038132761732400,6.255732421875,-2.4455971717834473,-0.8216131329536438,-0.8666644096374512
1789038132778986500,6.272986572265625,-2.528674840927124,-0.7635809779167175,-0.8593340516090393
1789038132796241000,6.290240966796875,-2.61847186088562,-0.7874047160148621,-0.8294016718864441
1789038132813495000,6.3074951171875,-2.4547600746154785,-0.8949168920516968,-0.8067996501922607
1789038132830749400,6.32474951171875,-2.204916477203369,-0.8307760953903198,-0.7878628373146057
1789038132848003600,6.342003662109375,-2.262948513031006,-1.0384701490402222,-0.69012451171875
1789038132865258000,6.359258056640625,-2.212857723236084,-0.8924734592437744,-0.5929969549179077
1789038132882512100,6.37651220703125,-1.933692455291748,-0.5161807537078857,-0.6388118267059326
1789038132899766500,6.3937666015625,-1.6801835298538208,-0.3426951467990875,-0.7157807946205139
1789038132917020700,6.411020751953125,-1.5787800550460815,-0.08491020649671555,-0.5374082922935486
1789038132934275000,6.428275146484375,-1.3808598518371582,0.13255766034126282,-0.3370446562767029
1789038132951529200,6.445529296875,-1.0210604667663574,0.043371398001909256,-0.22647811472415924
1789038132968783600,6.46278369140625,-0.6685914993286133,-0.12278381735086441,-0.26618432998657227
1789038132986037800,6.480037841796875,-0.4780016839504242,-0.3811796307563782,-0.24602578580379486
1789038133003292200,6.497292236328125,-0.3894262909889221,-0.07391463965177536,-0.05787943676114082
1789038133020546300,6.51454638671875,-0.1957821547985077,0.11117739230394363,-0.002290742937475443
1789038133037800700,6.53180078125,-0.0925460159778595,0.14782927930355072,-0.05971203371882439
1789038133055054800,6.549054931640625,-0.05528326332569122,0.17837251722812653,-0.060933761298656464
1789038133072309000,6.56630908203125,-0.019242240116000175,0.2260199636220932,-0.06826414167881012
1789038133089563400,6.5835634765625,-0.18723005056381226,0.010384701192378998,-0.17944152653217316
1789038133106817500,6.600817626953125,-0.7406735420227051,-0.2571740746498108,-0.1721111536026001
1789038133124072000,6.618072021484375,-1.0241148471832275,-0.4056142270565033,-0.0792597085237503
1789038133141326000,6.635326171875,-0.9172134399414062,-0.6560688018798828,-0.2747364342212677
1789038133158580500,6.65258056640625,-0.8390227556228638,-0.8545998334884644,-0.21609342098236084
1789038133175834600,6.669834716796875,-0.6136136651039124,-0.657290518283844,-0.16050471365451813
1789038133193089000,6.687089111328125,-0.4266890585422516,-0.5864301919937134,-0.2655734717845917
1789038133210343200,6.70434326171875,-0.281914085149765,-0.3756818473339081,-0.39080074429512024
1789038133227597600,6.72159765625,-0.30451610684394836,-0.15271618962287903,-0.4494437575340271
1789038133244851700,6.738851806640625,-0.4205803871154785,-0.023212861269712448,-0.425009161233902
1789038133262106000,6.756106201171875,-0.49082985520362854,-0.07941242307424545,-0.3620901107788086
1789038133279360300,6.7733603515625,-0.609948456287384,-0.3292561173439026,-0.30833399295806885
1789038133296614700,6.79061474609375,-0.7437278628349304,-0.5222893953323364,-0.29245150089263916
1789038133313868800,6.807868896484375,-0.7901535630226135,-0.6316341757774353,-0.33765551447868347
1789038133331123200,6.825123291015625,-0.6765327453613281,-0.5247328281402588,-0.4543306827545166
1789038133348377300,6.84237744140625,-0.6123919486999512,-0.37690356373786926,-0.5856665968894958
1789038133365631700,6.8596318359375,-0.6612611413002014,-0.21991132199764252,-0.7096721529960632
1789038133382886000,6.876885986328125,-0.8335250020027161,0.008552107028663158,-0.7151699662208557
1789038133400140300,6.894140380859375,-0.9001092314720154,0.15027274191379547,-0.5911644101142883
1789038133417394400,6.91139453125,-1.0467168092727661,0.05558869615197182,-0.5526798963546753
1789038133434648800,6.92864892578125,-0.9447023868560791,-0.06047561392188072,-0.5929969549179077
1789038133451903000,6.945903076171875,-0.6313287615776062,-0.1386663019657135,-0.6485856771469116
1789038133469157400,6.963157470703125,-0.3387245237827301,-0.21502439677715302,-0.6333140730857849
1789038133486411500,6.98041162109375,-0.17562362551689148,-0.19181154668331146,-0.6840158104896545
1789038133503666000,6.997666015625,-0.04306596517562866,-0.34697118401527405,-0.5123628377914429
1789038133520920000,7.014920166015625,0.05283980444073677,-0.36163195967674255,-0.3675878942012787
1789038133538174500,7.032174560546875,0.04062250629067421,-0.2620609998703003,-0.37369653582572937
1789038133555428600,7.0494287109375,0.04306596517562866,-0.24923282861709595,-0.37980517745018005
1789038133572683000,7.06668310546875,0.05833758786320686,-0.21258094906806946,-0.39080074429512024
1789038133589937200,7.083937255859375,0.022907428443431854,-0.1893680840730667,-0.41706791520118713
1789038133607191600,7.101191650390625,-0.022907428443431854,-0.17287473380565643,-0.3205513060092926
1789038133624445700,7.11844580078125,-0.10720676928758621,-0.053145237267017365,-0.18921536207199097
1789038133641700000,7.1357001953125,-0.09560033679008484,0.06780599057674408,-0.013286309316754341
1789038133658954200,7.152954345703125,0.13652828335762024,0.001221729558892548,0.14981459081172943
1789038133676208400,7.17020849609375,0.2257145345211029,0.15271618962287903,0.35323256254196167
1789038133693462800,7.187462890625,0.40897396206855774,0.30604326725006104,0.53221595287323
1789038133710717200,7.20471728515625,0.5335903763771057,0.41294458508491516,0.47845983505249023
1789038133727971300,7.221971435546875,0.11759147047996521,0.23396120965480804,0.13881902396678925
1789038133745225500,7.2392255859375,-0.18784092366695404,0.053756099194288254,-0.1049160286784172
1789038133762479900,7.25647998046875,-0.2886336147785187,-0.13255766034126282,0.21212279796600342
1789038133779734000,7.273734130859375,-0.7699950337409973,-0.1081230640411377,0.4173733592033386
1789038133796988400,7.290988525390625,-0.48044514656066895,-0.012217295356094837,0.5096139311790466
1789038133814242600,7.30824267578125,-0.13530655205249786,0.5277871489524841,0.5022835731506348
1789038133831497000,7.3254970703125,0.17623448371887207,0.059864748269319534,0.3556760251522064
1789038133848751000,7.342751220703125,0.08093958348035812,-0.07269290834665298,0.14737112820148468
1789038133866005500,7.360005615234375,-0.07605266571044922,0.23396120965480804,0.04046979174017906
1789038133883259600,7.377259765625,-0.15118902921676636,0.36651885509490967,0.1821904182434082
1789038133900514000,7.39451416015625,-0.15729768574237823,0.49418962001800537,0.22556181252002716
1789038133917768200,7.411768310546875,-0.11453714966773987,0.5809323787689209,0.2444986253976822
1789038133935022600,7.429022705078125,-0.13041962683200836,0.6896663308143616,0.24572035670280457
1789038133952276700,7.44627685546875,-0.1750127524137497,0.6621774435043335,0.35873034596443176
1789038133969531100,7.46353125,-0.18234314024448395,0.5033525824546814,0.490066260099411
1789038133986785300,7.480785400390625,-0.12675444781780243,0.41416633129119873,0.5609265565872192
1789038134004039700,7.498039794921875,-0.0821613147854805,0.4257727563381195,0.6275108456611633
1789038134021293800,7.5152939453125,-0.06505709886550903,0.5143481492996216,0.6989820003509521
1789038134038548200,7.53254833984375,-0.04001164436340332,0.4929678738117218,0.771064043045044
1789038134055802400,7.54980224609375,-0.022296564653515816,0.48013970255851746,0.7478511929512024
1789038134073056800,7.567056884765625,-0.0717766135931015,0.5699368119239807,0.717307984828949
1789038134090311000,7.584310791015625,-0.08032871782779694,0.6175842881202698,0.7124210596084595
1789038134107565300,7.6015654296875,-0.06322450190782547,0.6542361974716187,0.6653844714164734
1789038134124819500,7.6188193359375,-0.0668896958231926,0.6139190793037415,0.625067412853241
1789038134142073900,7.636073974609375,-0.06627883017063141,0.6579013466835022,0.614682674407959
1789038134159328000,7.653327880859375,-0.008857538923621178,0.6298015713691711,0.623845636844635
1789038134176582400,7.67058251953125,0.06322450190782547,0.6200277805328369,0.6183478832244873
1789038134193836500,7.68783642578125,0.10965022444725037,0.7312051653862,0.6128500699996948
1789038134211091000,7.705091064453125,0.15241076052188873,0.8057306408882141,0.6214022040367126
1789038134228345000,7.722344970703125,0.19639302790164948,0.7159335017204285,0.6311760544776917
1789038134245599500,7.739599609375,0.2623664140701294,0.6872228980064392,0.687986433506012
1789038134262853600,7.756853515625,0.2984074354171753,0.7513636946678162,0.6885973215103149
1789038134280108000,7.77410791015625,0.281914085149765,0.7220421433448792,0.6501128673553467
1789038134297362200,7.791362060546875,0.28557929396629333,0.7244856357574463,0.6580541133880615
1789038134314616600,7.808616455078125,0.30146175622940063,0.7226530313491821,0.643393337726593
1789038134331870700,7.82587060546875,0.30024003982543945,0.6652317643165588,0.6006327867507935
1789038134349125000,7.843125,0.29962918162345886,0.5797106623649597,0.5908589363098145
1789038134366379300,7.860379150390625,0.35582873225212097,0.6902772188186646,0.5676460862159729
1789038134383633700,7.877633544921875,0.4468475878238678,0.7183769941329956,0.5303833484649658
1789038134400887800,7.8948876953125,0.5311469435691833,0.5485565662384033,0.4845684766769409
1789038134418142000,7.912141845703125,0.5488619804382324,0.5876519083976746,0.4198168218135834
1789038134435396400,7.929396240234375,0.48960810899734497,0.5283980369567871,0.24144430458545685
1789038134452650500,7.946650390625,0.4663952589035034,0.6456840634346008,0.20601414144039154
1789038134469905000,7.96390478515625,0.5653553605079651,0.6701186895370483,0.18096868693828583
1789038134487159300,7.9811591796875,0.7376192212104797,0.41294458508491516,0.12660172581672668
1789038134504413400,7.998413330078125,0.8823941946029663,0.3182605504989624,0.10461059212684631
1789038134521667600,8.01566748046875,0.9587522745132446,0.5345066785812378,0.08933897316455841
1789038134538922000,8.032921875,0.8219185471534729,0.7476984858512878,0.0948367565870285
1789038134556176100,8.050176025390625,0.6472112536430359,0.8869756460189819,0.0795651376247406
1789038134573430500,8.067430419921875,0.5928442478179932,0.9541707634925842,0.08384118974208832
1789038134590684700,8.0846845703125,0.6734784245491028,0.8313869833946228,0.11743875592947006
1789038134607939000,8.10193896484375,0.8713986277580261,0.7434224486351013,0.141262486577034
1789038134625193200,8.119193115234374,1.128572702407837,0.758694052696228,0.21517711877822876
1789038134642447600,8.136447509765626,1.2037090063095093,0.28588470816612244,0.35506516695022583
1789038134659701800,8.15370166015625,1.3099994659423828,0.31581708788871765,-0.03588830679655075
1789038134676956200,8.1709560546875,1.4285073280334473,0.7892373204231262,-0.20693044364452362
1789038134694210300,8.188210205078125,1.5030328035354614,0.758083164691925,-0.1513417512178421
1789038134711464700,8.205464599609375,1.6215405464172363,0.5900954008102417,-0.17944152653217316
1789038134728718800,8.22271875,1.702785611152649,0.7837395071983337,-0.2484692484140396
1789038134745973200,8.23997314453125,1.6221513748168945,0.9786053895950317,-0.09147699922323227
1789038134763227400,8.257227294921876,1.3753620386123657,0.7898481488227844,0.023365577682852745
1789038134780481800,8.274481689453125,1.181717872619629,0.430659681558609,0.016646064817905426
1789038134797736000,8.29173583984375,0.9697478413581848,0.2254091054201126,-0.06826414167881012
1789038134814990300,8.308990234375,0.6997455954551697,0.2052505612373352,-0.18066325783729553
1789038134832244500,8.326244384765625,0.48472121357917786,0.007330377586185932,-0.3199404180049896
1789038134849499000,8.343498779296874,0.2525925934314728,0.05864302068948746,-0.42195484042167664
1789038134866753000,8.3607529296875,0.06627883017063141,0.22479823231697083,-0.3993528485298157
1789038134884007400,8.37800732421875,-0.06200277432799339,0.11423171311616898,-0.40118545293807983
1789038134901261600,8.395261474609375,-0.21838416159152985,-0.003665188793092966,-0.4757109582424164
1789038134918515700,8.412515625,-0.3295615613460541,0.020158538594841957,-0.39996370673179626
1789038134935770000,8.42977001953125,-0.36254823207855225,0.02932151034474373,-0.14828743040561676
1789038134953024300,8.447024169921875,-0.3845393657684326,-0.05253437161445618,0.02764163166284561
1789038134970278700,8.464278564453124,-0.4120282828807831,-0.09590577334165573,0.14004075527191162
1789038134987532800,8.48153271484375,-0.41813695430755615,-0.1081230640411377,0.08261945843696594
1789038135004787200,8.498787109375,-0.43951719999313354,-0.3133736252784729,-0.041386090219020844
1789038135022041300,8.516041259765625,-0.26908594369888306,-0.5149590373039246,-0.0383317656815052
1789038135039295700,8.533295654296875,0.000305432389723137,-0.5180133581161499,0.06490438431501389
1789038135056550000,8.5505498046875,0.07238747924566269,-0.5772672295570374,-0.028557928279042244
1789038135073804300,8.56780419921875,0.03451386094093323,-0.5900954008102417,-0.1879936307668686
1789038135091058400,8.585058349609374,0.15485422313213348,-0.4728093445301056,-0.2331976294517517
1789038135108312800,8.602312744140624,0.16829325258731842,-0.462424635887146,-0.18127411603927612
1789038135125567000,8.61956689453125,0.09071341902017593,-0.4825831651687622,-0.2637408673763275
1789038135142821400,8.6368212890625,0.02412915788590908,-0.48563748598098755,-0.39568766951560974
1789038135160075500,8.654075439453125,-0.032070402055978775,-0.4251618981361389,-0.44089165329933167
1789038135177330000,8.671329833984375,-0.05222893878817558,-0.2364046722650528,-0.38957902789115906
1789038135194584000,8.688583984375,-0.03756818547844887,0.0030543238390237093,-0.3462076187133789
1789038135211838500,8.70583837890625,-0.054672397673130035,0.19181154668331146,-0.351705402135849
1789038135229092600,8.723092529296874,-0.1029307171702385,0.3384190797805786,-0.2893971800804138
1789038135246347000,8.740346923828126,-0.20799945294857025,0.46975502371788025,-0.2240346521139145
1789038135263601200,8.75760107421875,-0.36193737387657166,0.5632173418998718,-0.3156643807888031
1789038135280855600,8.77485546875,-0.44990190863609314,0.5564978122711182,-0.4042397737503052
1789038135298109700,8.792109619140625,-0.476779967546463,0.4508182108402252,-0.3681987524032593
1789038135315364000,8.809364013671875,-0.5122101306915283,0.34086254239082336,-0.3510945439338684
1789038135332618200,8.8266181640625,-0.572685718536377,0.2412915825843811,-0.44700029492378235
1789038135349872600,8.84387255859375,-0.5891790986061096,0.13500112295150757,-0.5508472919464111
1789038135367126800,8.861126708984376,-0.6319395899772644,0.06352993845939636,-0.5380191802978516
1789038135384381000,8.878380859375,-0.7431169748306274,-0.04153880476951599,-0.485484778881073
1789038135401635300,8.89563525390625,-0.795651376247406,-0.20891575515270233,-0.35048365592956543
1789038135418889500,8.912889404296875,-0.7999274134635925,-0.2724456787109375,-0.22159120440483093
1789038135436143900,8.930143798828125,-0.796262264251709,-0.3139844834804535,-0.16661337018013
1789038135453398000,8.94739794921875,-0.8035926222801208,-0.46364638209342957,-0.16294817626476288
1789038135470652400,8.96465234375,-0.7693842053413391,-0.4978547990322113,-0.1721111536026001
1789038135487906600,8.981906494140626,-0.664926290512085,-0.3811796307563782,-0.1409570425748825
1789038135505161000,8.999160888671875,-0.5549706816673279,-0.25534147024154663,-0.15012001991271973
1789038135522415000,9.0164150390625,-0.572685718536377,-0.21197007596492767,-0.2283107042312622
1789038135539669500,9.03366943359375,-0.6875283122062683,-0.2162461280822754,-0.2942841053009033
1789038135556923600,9.050923583984375,-0.7553343176841736,-0.29443681240081787,-0.3254382014274597
1789038135574178000,9.068177978515624,-0.8286380767822266,-0.3555232882499695,-0.39018988609313965
1789038135591432200,9.08543212890625,-0.9111047983169556,-0.2822195291519165,-0.4744892120361328
1789038135608686600,9.1026865234375,-1.0858120918273926,-0.25961753726005554,-0.45677414536476135
1789038135625940700,9.119940673828125,-1.321605920791626,-0.3029889166355133,-0.3559814393520355
1789038135643195100,9.137195068359375,-1.4205660820007324,-0.3329212963581085,-0.20937390625476837
1789038135660449300,9.15444921875,-1.3112212419509888,-0.3946186602115631,-0.20509785413742065
1789038135677703700,9.17170361328125,-1.1658353805541992,-0.4105011224746704,-0.33765551447868347
1789038135694957800,9.188957763671874,-1.0876446962356567,-0.48930269479751587,-0.4708240330219269
1789038135712212200,9.206212158203124,-1.0540472269058228,-0.5345066785812378,-0.5697841048240662
1789038135729466400,9.22346630859375,-1.1029163599014282,-0.48075059056282043,-0.6229293346405029
1789038135746720500,9.240720458984375,-1.1713331937789917,-0.5467239618301392,-0.5716167092323303
1789038135763975000,9.257974853515625,-1.165224552154541,-0.5198459029197693,-0.49403688311576843
1789038135781229000,9.27522900390625,-1.194546103477478,-0.4612029194831848,-0.5312996506690979
1789038135798483500,9.2924833984375,-1.193324327468872,-0.6139190793037415,-0.49281516671180725
1789038135815737600,9.309737548828124,-1.112079381942749,-0.749531090259552,-0.43661558628082275
1789038135832992000,9.326991943359374,-0.9978476166725159,-0.6133082509040833,-0.44089165329933167
1789038135850246100,9.34424609375,-0.9013310074806213,-0.7562506198883057,-0.37369653582572937
1789038135867500500,9.36150048828125,-0.9459241032600403,-0.8692606091499329,-0.2741255760192871
1789038135884754700,9.378754638671875,-0.9789108037948608,-0.46914416551589966,-0.3303251266479492
1789038135902009000,9.396009033203125,-0.9550870656967163,-0.35246896743774414,-0.40057456493377686
1789038135919263200,9.41326318359375,-0.8933897614479065,0.05436696484684944,-0.4805978536605835
1789038135936517600,9.430517578125,-0.8017600178718567,0.15638138353824615,-0.28695371747016907
1789038135953771800,9.447771728515624,-0.6893609166145325,0.11484257876873016,-0.08597921580076218
1789038135971026200,9.465026123046876,-0.601396381855011,-0.1594357043504715,0.007483093533664942
1789038135988280300,9.4822802734375,-0.4407389461994171,-0.24923282861709595,-0.07864884287118912
1789038136005534700,9.49953466796875,-0.3943132162094116,-0.12644900381565094,-0.23197589814662933
1789038136022788900,9.516788818359375,-0.35277441143989563,0.0409279391169548,-0.41584619879722595
1789038136040043300,9.534043212890625,-0.3381136655807495,0.1533270627260208,-0.41523534059524536
1789038136057297400,9.55129736328125,-0.2519817352294922,0.09590577334165573,-0.42684176564216614
1789038136074551800,9.5685517578125,-0.054672397673130035,0.06230820715427399,-0.34315329790115356
1789038136091806000,9.585805908203126,0.16035200655460358,0.07024945318698883,-0.26129740476608276
1789038136109060400,9.603060302734375,0.282524973154068,0.14294235408306122,-0.23625195026397705
1789038136126314500,9.620314453125,0.3222311735153198,0.2516762912273407,-0.27779075503349304
1789038136143569000,9.63756884765625,0.3912588953971863,0.18142683804035187,-0.22098033130168915
1789038136160823000,9.654822998046875,0.45539969205856323,0.2522871494293213,-0.15317434072494507
1789038136178077400,9.672077392578124,0.4969384968280792,0.2816086709499359,-0.054214250296354294
1789038136195331600,9.68933154296875,0.547029435634613,0.2724456787109375,-0.0743727833032608
1789038136212586000,9.7065859375,0.6044507026672363,0.20402882993221283,-0.03649916872382164
1789038136229840100,9.723840087890625,0.6728675365447998,0.09957095980644226,0.07345648854970932
1789038136247094500,9.741094482421875,0.7437278628349304,0.08796452730894089,0.18402300775051117
1789038136264348700,9.7583486328125,0.7736602425575256,0.1533270627260208,0.2182314395904541
1789038136281603000,9.77560302734375,0.7730493545532227,0.26511532068252563,0.24999640882015228
1789038136298857200,9.792857177734374,0.7535017132759094,0.35063639283180237,0.32391104102134705
1789038136316111600,9.810111572265624,0.7791580557823181,0.5332849621772766,0.39599308371543884
1789038136333365800,9.82736572265625,0.8127555847167969,0.5540543794631958,0.4430296719074249
1789038136350620000,9.844619873046875,0.7913753390312195,0.5290089249610901,0.5254964232444763
1789038136367874300,9.861874267578125,0.7638863921165466,0.5962040424346924,0.5645917654037476
1789038136385128400,9.87912841796875,0.7308996915817261,0.6957749724388123,0.5786416530609131
1789038136402382800,9.8963828125,0.7339540123939514,0.6988292932510376,0.5578722357749939
1789038136419637000,9.913636962890624,0.8390227556228638,0.8002328872680664,0.5383245944976807
1789038136436891400,9.930891357421874,0.907439649105072,0.7379246354103088,0.5597048401832581
1789038136454145500,9.9481455078125,0.8848376274108887,0.6750055551528931,0.5328267812728882
1789038136471400000,9.96539990234375,0.82436203956604,0.49113526940345764,0.4961749315261841
1789038136488654000,9.982654052734375,0.7852666974067688,0.3964512348175049,0.49312058091163635
1789038136505908500,9.999908447265625,0.7302888631820679,0.32559093832969666,0.47296205163002014
1789038136523162600,10.01716259765625,0.7076868414878845,0.10690133273601532,0.46685341000556946
1789038136540417000,10.0344169921875,0.7583886384963989,-0.01893680728971958,0.4289797842502594
1789038136557671200,10.051671142578124,0.7944296598434448,0.03848448023200035,0.388051837682724
1789038136574925600,10.068925537109376,0.9178243279457092,0.21746785938739777,0.304974228143692
1789038136592179700,10.0861796875,1.0338886976242065,0.5381718873977661,0.18341214954853058
1789038136609434000,10.10343408203125,1.0937533378601074,0.5821541547775269,0.09178243577480316
1789038136626688300,10.120688232421875,1.1004729270935059,0.6004800796508789,0.03375028073787689
1789038136643942700,10.137942626953125,1.165224552154541,0.5693259835243225,0.007483093533664942
1789038136661196800,10.15519677734375,1.1957677602767944,0.4557051360607147,-0.021838415414094925
1789038136678451200,10.172451171875,1.2275327444076538,0.45509424805641174,-0.025503603741526604
1789038136695705300,10.189705322265626,1.2171480655670166,0.28527384996414185,-0.047494735568761826
1789038136712959700,10.206959716796876,1.1059707403182983,0.2516762912273407,-0.14401137828826904
1789038136730214000,10.2242138671875,0.8958331942558289,-0.0409279391169548,-0.01511890348047018
1789038136747468300,10.24146826171875,0.8121446967124939,-0.16310089826583862,0.08567378669977188
1789038136764722400,10.258722412109375,0.7925970554351807,-0.06963858753442764,0.09666935354471207
1789038136781976800,10.275976806640625,0.7602212429046631,-0.05864302068948746,0.06123919412493706
1789038136799231000,10.29323095703125,0.620333194732666,-0.018325943499803543,0.014202605932950974
1789038136816485400,10.3104853515625,0.45539969205856323,-0.050090912729501724,0.15775582194328308
1789038136833739500,10.327739501953126,0.36132651567459106,-0.22418737411499023,0.21578797698020935
1789038136850993700,10.34499365234375,0.28435754776000977,-0.1954767256975174,0.2597702443599701
1789038136868248000,10.362248046875,0.210442915558815,-0.3042106628417969,0.4381427764892578
1789038136885502200,10.379502197265625,0.1340848207473755,-0.5393936038017273,0.53221595287323
1789038136902756600,10.396756591796875,-0.03023780696094036,-0.6945532560348511,0.36483898758888245
1789038136920010800,10.4140107421875,-0.19089524447917938,-0.7293725609779358,0.14492766559123993
1789038136937265200,10.43126513671875,-0.2684750556945801,-0.5583304166793823,0.20051635801792145
1789038136954519300,10.448519287109375,-0.2666424810886383,-0.37629270553588867,0.37400195002555847
1789038136971773700,10.465773681640625,-0.13225223124027252,-0.28527384996414185,0.41615164279937744
1789038136989027800,10.48302783203125,-0.02779434807598591,-0.27488914132118225,0.3379609286785126
1789038137006282200,10.5002822265625,-0.06811141967773438,-0.2718348205089569,0.24266603589057922
1789038137023536400,10.517536376953124,-0.17745621502399445,-0.18814635276794434,0.15531237423419952
1789038137040790800,10.534790771484374,-0.2202167510986328,-0.03176496922969818,0.08628465235233307
1789038137058045000,10.552044921875,-0.26908594369888306,0.06352993845939636,0.02825249545276165
1789038137075299300,10.56929931640625,-0.27091851830482483,0.14721840620040894,0.016646064817905426
1789038137092553500,10.586553466796875,-0.23182319104671478,0.21868959069252014,-0.04321868345141411
1789038137109807900,10.603807861328125,-0.20922118425369263,0.22479823231697083,-0.18860450387001038
1789038137127062000,10.62106201171875,-0.21716243028640747,0.1893680840730667,-0.33399030566215515
1789038137144316200,10.638316162109374,-0.2507599890232086,0.16798780858516693,-0.3681987524032593
1789038137161570600,10.655570556640624,-0.28008151054382324,0.24434591829776764,-0.360868364572525
1789038137178824700,10.67282470703125,-0.3124573230743408,0.2932150959968567,-0.3938550651073456
1789038137196079000,10.6900791015625,-0.3454440236091614,0.2156352698802948,-0.38591381907463074
1789038137213333200,10.707333251953125,-0.448069304227829,0.10567960888147354,-0.3462076187133789
1789038137230587600,10.724587646484375,-0.6288852691650391,0.008552107028663158,-0.40546149015426636
1789038137247841800,10.741841796875,-0.7681624889373779,-0.04825831577181816,-0.5190823674201965
1789038137265096200,10.75909619140625,-0.8940005898475647,-0.029932374134659767,-0.661413848400116
1789038137282350300,10.776350341796874,-0.9978476166725159,-0.08796452730894089,-0.7127264738082886
1789038137299604700,10.793604736328126,-1.1212422847747803,-0.16310089826583862,-0.7334958910942078
1789038137316859000,10.81085888671875,-1.203098177909851,-0.2889390289783478,-0.7121156454086304
1789038137334113300,10.82811328125,-1.375972867012024,-0.4819723069667816,-0.7396045327186584
1789038137351367400,10.845367431640625,-1.6520837545394897,-0.6939423680305481,-0.7567087411880493
1789038137368621800,10.862621826171875,-1.5867213010787964,-0.7837395071983337,-0.7353284955024719
1789038137385876000,10.8798759765625,-1.4920371770858765,-0.7990111112594604,-0.6791289448738098
1789038137403130400,10.89713037109375,-1.4584397077560425,-0.6316341757774353,-0.6345357894897461
1789038137420384500,10.914384521484376,-1.5238021612167358,-0.6200277805328369,-0.5655080676078796
1789038137437638700,10.931638671875,-1.5506802797317505,-0.6102539300918579,-0.49342602491378784
1789038137454893000,10.94889306640625,-1.4327833652496338,-0.7220421433448792,-0.40546149015426636
1789038137472147200,10.966147216796875,-1.3099994659423828,-0.880256175994873,-0.3358229100704193
1789038137489401600,10.983401611328125,-1.306334376335144,-1.0592395067214966,-0.17088942229747772
1789038137506655700,11.00065576171875,-1.3881902694702148,-0.7470875978469849,-0.27656903862953186
1789038137523910100,11.01791015625,-1.368031620979309,-0.6798924803733826,-0.3773617148399353
1789038137541164300,11.035164306640626,-1.229365348815918,-0.4013381600379944,-0.41462448239326477
1789038137558418700,11.052418701171876,-1.1133010387420654,-0.4013381600379944,-0.3065013885498047
1789038137575672800,11.0696728515625,-1.0222822427749634,-0.5033525824546814,-0.18493930995464325
1789038137592927200,11.08692724609375,-0.9434806704521179,-0.5632173418998718,-0.10735948383808136
1789038137610181400,11.104181396484375,-0.9471458196640015,-0.43004879355430603,-0.037720900028944016
1789038137627435800,11.121435791015625,-0.8206968307495117,-0.07391463965177536,-0.005955931730568409
1789038137644690000,11.13868994140625,-0.6960803866386414,-0.0256563201546669,0.010537417605519295
1789038137661944300,11.1559443359375,-0.6038398146629333,-0.031154103577136993,0.08200860023498535
1789038137679198500,11.173198486328126,-0.48105600476264954,-0.09285144507884979,0.13759729266166687
1789038137696452900,11.190452880859375,-0.41447174549102783,0.1545487940311432,0.030695954337716103
1789038137713707000,11.20770703125,-0.37659814953804016,0.22479823231697083,-0.053603384643793106
1789038137730961400,11.22496142578125,-0.25809037685394287,0.3035998046398163,-0.08597921580076218
1789038137748215600,11.242215576171875,-0.10659590363502502,0.35185810923576355,-0.07376192510128021
1789038137765470000,11.259469970703124,0.03145953640341759,0.43982264399528503,-0.01511890348047018
1789038137782724000,11.27672412109375,0.14019346237182617,0.5241219997406006,0.05451968312263489
1789038137799978500,11.293978515625,0.26358816027641296,0.49602219462394714,0.21700970828533173
1789038137817232600,11.311232666015625,0.3295615613460541,0.41233372688293457,0.37094762921333313
1789038137834487000,11.328487060546875,0.34177884459495544,0.4825831651687622,0.4955640435218811
1789038137851741200,11.3457412109375,0.4004218578338623,0.5222893953323364,0.6482802629470825
1789038137868995600,11.36299560546875,0.47433650493621826,0.6236929297447205,0.7392991185188293
1789038137886249700,11.380249755859374,0.5885682106018066,0.7067705392837524,0.8260418772697449
1789038137903504100,11.397504150390626,0.6765327453613281,0.7745765447616577,0.8706350326538086
1789038137920758300,11.41475830078125,0.7565560340881348,0.8081740736961365,0.9078977704048157
1789038137938012700,11.4320126953125,0.8310815095901489,0.6817250847816467,0.9366084337234497
1789038137955266800,11.449266845703125,0.8109229803085327,0.6432406306266785,0.9072869420051575
1789038137972521200,11.466521240234375,0.7706059217453003,0.7031053900718689,0.8510873317718506
1789038137989775400,11.483775390625,0.8005383014678955,0.8558215498924255,0.837648332118988
1789038138007029500,11.501029541015624,0.8451313972473145,0.6939423680305481,0.7533490061759949
1789038138024284000,11.518283935546876,0.8219185471534729,0.48991355299949646,0.7087558507919312
1789038138041538000,11.5355380859375,0.9001092314720154,0.39767298102378845,0.6201804876327515
1789038138058792400,11.55279248046875,1.0540472269058228,0.3738492429256439,0.49250972270965576
1789038138076046600,11.570046630859375,1.2623521089553833,0.45875945687294006,0.32757624983787537
1789038138093301000,11.587301025390625,1.3924663066864014,0.5057960152626038,0.1718057245016098
1789038138110555100,11.60455517578125,1.13712477684021,0.35674503445625305,0.1467602699995041
1789038138127809500,11.6218095703125,0.9697478413581848,0.1997527778148651,0.1455385386943817
1789038138145063700,11.639063720703126,0.9599739909172058,0.17776164412498474,0.1614210158586502
1789038138162318000,11.656318115234376,1.0051779747009277,0.2706131041049957,0.12232567369937897
1789038138179572200,11.673572265625,1.3765838146209717,0.767857015132904,0.02519817277789116
1789038138196826600,11.69082666015625,1.7510439157485962,0.8936951756477356,-0.11285726726055145
1789038138214080800,11.708080810546875,1.6514729261398315,0.7092140316963196,-0.09086613357067108
1789038138231335000,11.7253349609375,1.4095704555511475,0.675616443157196,-0.09819651395082474
1789038138248589300,11.74258935546875,1.2666281461715698,0.5723803043365479,0.02519817277789116
1789038138265843500,11.759843505859376,1.3332123756408691,0.4581485986709595,0.07528908550739288
1789038138283097900,11.777097900390626,1.2641847133636475,0.2675587832927704,0.10766492038965225
1789038138300352000,11.79435205078125,1.1811070442199707,0.3035998046398163,0.09850194305181503
1789038138317606400,11.8116064453125,1.0870338678359985,0.17715078592300415,0.09911280870437622
1789038138334860500,11.828860595703125,0.9447023868560791,0.33536475896835327,0.02458730712532997
1789038138352115000,11.846114990234375,0.7290670871734619,0.4514290690422058,0.03436114266514778
1789038138369369000,11.863369140625,0.5995637774467468,0.205861434340477,0.05635227635502815
1789038138386623500,11.88062353515625,0.4725039005279541,-0.05070177838206291,0.02825249545276165
1789038138403877600,11.897877685546876,0.2874118685722351,-0.2675587832927704,0.07040216773748398
1789038138421132000,11.915132080078125,0.13041962683200836,-0.3640754222869873,0.13271036744117737
1789038138438386200,11.93238623046875,0.05955931544303894,-0.3433060050010681,0.14798198640346527
1789038138455640300,11.949640380859375,0.023518294095993042,-0.37629270553588867,0.12415826320648193
1789038138472894700,11.966894775390625,0.029016077518463135,-0.2938259541988373,0.03191768378019333
1789038138490148900,11.98414892578125,0.0308486707508564,-0.1692095398902893,-0.07681624591350555
1789038138507403300,12.0014033203125,-0.013744457624852657,-0.05070177838206291,-0.145843967795372
1789038138524657400,12.018657470703126,-0.07910698652267456,-0.049480047076940536,-0.19532401859760284
1789038138541911800,12.035911865234375,-0.11331541836261749,-0.08674279600381851,-0.26618432998657227
1789038138559166000,12.053166015625,-0.10048725455999374,-0.06841685622930527,-0.31261005997657776
1789038138576420400,12.07042041015625,-0.0925460159778595,0.020769402384757996,-0.3565923273563385
1789038138593674500,12.087674560546875,-0.10903936624526978,0.05925388261675835,-0.3889681398868561
1789038138610928600,12.1049287109375,-0.1432477980852127,0.01954767294228077,-0.43600472807884216
1789038138628183000,12.12218310546875,-0.22693626582622528,0.014660755172371864,-0.48365217447280884
1789038138645437200,12.139437255859375,-0.3277289569377899,0.06780599057674408,-0.5093085169792175
1789038138662691600,12.156691650390625,-0.425467312335968,0.14049890637397766,-0.5380191802978516
1789038138679945700,12.17394580078125,-0.5305360555648804,0.17043127119541168,-0.5740602016448975
1789038138697200000,12.1912001953125,-0.6991347670555115,0.13744457066059113,-0.5917752385139465
1789038138714454300,12.208454345703124,-0.8988875150680542,0.10873392969369888,-0.559399425983429
1789038138731708700,12.225708740234374,-1.110857605934143,0.06780599057674408,-0.4805978536605835
1789038138748962800,12.242962890625,-1.2434152364730835,-0.10506874322891235,-0.43661558628082275
1789038138766217200,12.26021728515625,-1.2690715789794922,-0.17837251722812653,-0.47265663743019104
1789038138783471400,12.277471435546875,-1.3069452047348022,-0.3237583339214325,-0.5355756878852844
1789038138800725800,12.294725830078125,-1.3405427932739258,-0.27366742491722107,-0.5374082922935486
1789038138817980000,12.31197998046875,-1.5213587284088135,-0.3536907136440277,-0.45677414536476135
1789038138835234300,12.329234375,-1.580001711845398,-0.47586366534233093,-0.45799586176872253
1789038138852488400,12.346488525390624,-1.471267819404602,-0.5070177912712097,-0.35537058115005493
1789038138869742800,12.363742919921876,-1.3949097394943237,-0.6102539300918579,-0.32849252223968506
1789038138886997000,12.3809970703125,-1.4395028352737427,-0.7965676784515381,-0.3767508566379547
1789038138904251400,12.39825146484375,-1.4547744989395142,-0.6243038177490234,-0.43111783266067505
1789038138921505500,12.415505615234375,-1.4046835899353027,-0.573602020740509,-0.3883572816848755
1789038138938759700,12.432759765625,-1.3949097394943237,-0.6627882719039917,-0.31871870160102844
1789038138956014000,12.45001416015625,-1.4914263486862183,-0.8741474747657776,-0.27290382981300354
1789038138973268200,12.467268310546874,-1.469435214996338,-0.8081740736961365,-0.37003132700920105
1789038138990522600,12.484522705078126,-1.2794562578201294,-0.7867938280105591,-0.34193155169487
1789038139007776800,12.50177685546875,-1.155450701713562,-0.6872228980064392,-0.27717989683151245
1789038139025031200,12.51903125,-1.1047489643096924,-0.5119046568870544,-0.35414886474609375
1789038139042285300,12.536285400390625,-1.027169108390808,-0.42394015192985535,-0.39018988609313965
1789038139059539700,12.553539794921875,-1.1493420600891113,-0.2779434621334076,-0.3889681398868561
1789038139076793900,12.5707939453125,-1.1829396486282349,-0.1649334877729416,-0.3926333487033844
1789038139094048300,12.58804833984375,-1.1627811193466187,-0.11117739230394363,-0.19104796648025513
1789038139111302400,12.605302490234376,-0.9361502528190613,-0.14599667489528656,-0.12202023714780807
1789038139128556800,12.622556884765626,-0.6050615906715393,-0.2528980076313019,-0.04199695214629173
1789038139145811000,12.63981103515625,-0.5586358308792114,-0.2309068888425827,-0.1562286615371704
1789038139163065300,12.6570654296875,-0.5592467188835144,-0.021380268037319183,-0.21059563755989075
1789038139180319500,12.674319580078125,-0.5073232054710388,0.08674279600381851,-0.2124282270669937
1789038139197574000,12.691573974609375,-0.32589635252952576,0.15515965223312378,-0.17088942229747772
1789038139214828000,12.708828125,-0.12186752259731293,0.25900667905807495,-0.03955349326133728
1789038139232082200,12.726082275390626,0.004581485874950886,0.3072649836540222,0.07406735420227051
1789038139249336600,12.743336669921876,0.09010255336761475,0.3280344009399414,0.0539088174700737
1789038139266590700,12.7605908203125,0.26480987668037415,0.3127627670764923,0.0850629210472107
1789038139283845000,12.77784521484375,0.4370737373828888,0.43371400237083435,0.19013166427612305
1789038139301099300,12.795099365234375,0.5421425104141235,0.6151408553123474,0.295811265707016
1789038139318353700,12.812353759765625,0.5525271892547607,0.7000510096549988,0.3819431960582733
1789038139335607800,12.82960791015625,0.581848680973053,0.6994401812553406,0.4692968726158142
1789038139352862200,12.8468623046875,0.6918043494224548,0.7446441650390625,0.5071704983711243
1789038139370116400,12.864116455078126,0.7730493545532227,0.8240565657615662,0.5145008563995361
1789038139387370800,12.881370849609375,0.8665117025375366,0.8655954003334045,0.5590940117835999
1789038139404625000,12.898625,1.0387755632400513,0.8582650423049927,0.6116283535957336
1789038139421879300,12.91587939453125,1.1939351558685303,0.8790343999862671,0.5535961985588074
1789038139439133400,12.933133544921875,1.2751802206039429,0.8717040419578552,0.4656316637992859
1789038139456387600,12.9503876953125,1.2892301082611084,0.850934624671936,0.439364492893219
1789038139473642000,12.96764208984375,1.3106104135513306,0.6701186895370483,0.43569931387901306
1789038139490896100,12.984896240234375,1.4395028352737427,0.5308414697647095,0.3379609286785126
1789038139508150500,13.002150634765625,1.573282241821289,0.48930269479751587,0.27626359462738037
1789038139525404700,13.01940478515625,1.5225805044174194,0.23212862014770508,0.2444986253976822
1789038139542659000,13.0366591796875,1.4480549097061157,0.22846342623233795,0.20723587274551392
1789038139559913200,13.053913330078124,1.3723077774047852,0.19364413619041443,0.23044873774051666
1789038139577167400,13.07116748046875,1.349705696105957,-0.014660755172371864,0.20479241013526917
1789038139594421800,13.088421875,1.4004075527191162,-0.026878049597144127,0.1052214577794075
1789038139611676000,13.105676025390625,1.432172417640686,0.04214967042207718,0.01847865991294384
1789038139628930300,13.122930419921875,1.5903865098953247,0.4263836145401001,-0.0591011680662632
1789038139646184400,13.140184326171875,1.6661336421966553,0.49541133642196655,-0.16600249707698822
1789038139663438800,13.15743896484375,1.6068798303604126,0.2528980076313019,-0.1256854236125946
1789038139680693000,13.17469287109375,1.5024219751358032,0.17531819641590118,-0.15317434072494507
1789038139697947400,13.191947509765624,1.3869684934616089,0.15027274191379547,-0.11896591633558273
1789038139715201500,13.209201416015626,1.2397500276565552,0.04581485688686371,0.01847865991294384
1789038139732455700,13.22645556640625,1.1597267389297485,-0.19914191961288452,0.11621702462434769
1789038139749710000,13.2437099609375,1.0021237134933472,-0.2968802750110626,0.15897755324840546
1789038139766964200,13.260964111328125,0.8487966060638428,-0.08491020649671555,0.16936226189136505
1789038139784218600,13.278218505859375,0.7370083332061768,0.009162971749901772,0.24633121490478516
1789038139801472800,13.29547265625,0.5714640021324158,-0.1178968995809555,0.3306305706501007
1789038139818727200,13.31272705078125,0.41935867071151733,-0.2730565667152405,0.4399753510951996
1789038139835981300,13.329981201171876,0.27397283911705017,-0.401949018239975,0.47174033522605896
1789038139853235500,13.3472353515625,0.09682206809520721,-0.4783071279525757,0.4124864339828491
1789038139870489900,13.36448974609375,-0.032070402055978775,-0.4526508152484894,0.31902414560317993
1789038139887744000,13.381743896484375,-0.07422006875276566,-0.38728827238082886,0.23716825246810913
1789038139904998400,13.398998291015625,-0.09315688163042068,-0.2809978127479553,0.16019928455352783
1789038139922252500,13.41625244140625,-0.10476330667734146,-0.17592905461788177,0.06246092543005943
1789038139939507000,13.4335068359375,-0.1230892539024353,-0.1844811588525772,-0.02000582218170166
1789038139956761000,13.450760986328126,-0.15241076052188873,-0.18631376326084137,-0.05177079141139984
1789038139974015200,13.46801513671875,-0.19761475920677185,-0.06536252796649933,-0.10369429737329483
1789038139991269600,13.48526953125,-0.2464839369058609,0.13194678723812103,-0.16539163887500763
1789038140008523800,13.502523681640625,-0.3026835024356842,0.2510654330253601,-0.22525638341903687
1789038140025778200,13.519778076171875,-0.3686569035053253,0.26511532068252563,-0.2887863218784332
1789038140043032300,13.5370322265625,-0.45478883385658264,0.2822195291519165,-0.3724747896194458
1789038140060286700,13.55428662109375,-0.5867356061935425,0.32009315490722656,-0.45066550374031067
1789038140077540900,13.571540771484376,-0.7333431839942932,0.3237583339214325,-0.5184714794158936
1789038140094795000,13.588794921875,-0.8671225309371948,0.28954991698265076,-0.5642863512039185
1789038140112049400,13.60604931640625,-1.025336503982544,0.29443681240081787,-0.6296488642692566
1789038140129303600,13.623303466796875,-1.194546103477478,0.35246896743774414,-0.688902735710144
1789038140146558000,13.640557861328125,-1.3637555837631226,0.17531819641590118,-0.6968439817428589
1789038140163812000,13.65781201171875,-1.5793908834457397,-0.015271619893610477,-0.6858484148979187
1789038140181066200,13.675066162109376,-1.6300926208496094,-0.13622283935546875,-0.6669116020202637
1789038140198320600,13.692320556640626,-1.5176935195922852,-0.046425722539424896,-0.6015490889549255
1789038140215574800,13.70957470703125,-1.3863576650619507,-0.006719512399286032,-0.5624537467956543
1789038140232829200,13.7268291015625,-1.4572179317474365,-0.30604326725006104,-0.6046034097671509
1789038140250083300,13.744083251953125,-1.8206825256347656,-1.053741693496704,-0.4708240330219269
1789038140267337700,13.761337646484375,-2.204916477203369,-1.2260055541992188,-0.6247619390487671
1789038140284591900,13.778591796875,-1.8390084505081177,-1.128878116607666,-0.6577486395835876
1789038140301846300,13.79584619140625,-1.3234385251998901,-1.2638791799545288,-0.2032652497291565
1789038140319100400,13.813100341796876,-1.3240493535995483,-0.8845322132110596,-0.3016144931316376
1789038140336354800,13.830354736328125,-1.3802490234375,-0.7263182401657104,-0.514195442199707
1789038140353609000,13.84760888671875,-1.334434151649475,-0.7263182401657104,-0.43172869086265564
1789038140370863400,13.86486328125,-1.4382811784744263,-0.676227331161499,-0.36942046880722046
1789038140388117500,13.882117431640625,-1.4834851026535034,-0.618806004524231,-0.3455967605113983
1789038140405371600,13.89937158203125,-1.3784164190292358,-0.4050033390522003,-0.26251915097236633
1789038140422626000,13.9166259765625,-1.2629629373550415,-0.25045454502105713,-0.17516547441482544
1789038140439880200,13.933880126953126,-1.0650427341461182,-0.1081230640411377,-0.1409570425748825
1789038140457134600,13.951134521484375,-0.9856303334236145,-0.04153880476951599,-0.10369429737329483
1789038140474388700,13.968388671875,-0.926376461982727,0.11606431007385254,-0.02916879393160343
1789038140491643100,13.98564306640625,-0.8103121519088745,0.09834922850131989,0.008093958720564842
1789038140508897300,14.002897216796875,-0.6667588949203491,0.1282816082239151,-0.04260781779885292
1789038140526151700,14.020151611328124,-0.536644697189331,0.11423171311616898,-0.02672533318400383
1789038140543405800,14.03740576171875,-0.4114174246788025,0.08674279600381851,0.05024362727999687
1789038140560660200,14.05466015625,-0.15057817101478577,0.0818558782339096,0.1156061589717865
1789038140577914400,14.071914306640625,0.12614357471466064,0.22296564280986786,0.0899498388171196
1789038140595168500,14.08916845703125,0.3087921440601349,0.38301220536231995,0.06307178735733032
1789038140612423000,14.1064228515625,0.3399462401866913,0.4068359434604645,0.05329795181751251
1789038140629677000,14.123677001953125,0.4468475878238678,0.4318813979625702,0.09056070446968079
1789038140646931500,14.140931396484374,0.4969384968280792,0.5076286196708679,0.12232567369937897
1789038140664185600,14.158185546875,0.5702422857284546,0.5296197533607483,0.15347976982593536
1789038140681440000,14.17543994140625,0.6637045741081238,0.46608981490135193,0.20601414144039154
1789038140698694100,14.192694091796875,0.7003564834594727,0.4428769648075104,0.3006981909275055
1789038140715948500,14.209948486328125,0.7706059217453003,0.48502662777900696,0.3727802336215973
1789038140733202700,14.22720263671875,0.916602611541748,0.4868592321872711,0.44730573892593384
1789038140750457000,14.24445703125,1.0583232641220093,0.5656607747077942,0.5016726851463318
1789038140767711200,14.261711181640624,1.1976003646850586,0.5558869242668152,0.5059487819671631
1789038140784965400,14.27896533203125,1.2880083322525024,0.5540543794631958,0.502894401550293
1789038140802219800,14.2962197265625,1.3099994659423828,0.5082395076751709,0.45219266414642334
1789038140819474000,14.313473876953125,1.2617411613464355,0.4923570156097412,0.4949531853199005
1789038140836728300,14.330728271484375,1.3277145624160767,0.5216785073280334,0.4857902228832245
1789038140853982500,14.347982421875,1.4480549097061157,0.5852084755897522,0.4943423271179199
1789038140871236600,14.365236572265625,1.6129884719848633,0.5760455131530762,0.4430296719074249
1789038140888491000,14.382490966796874,1.647196888923645,0.5131264328956604,0.44119709730148315
1789038140905745200,14.3997451171875,1.728441834449768,0.583375871181488,0.39477136731147766
1789038140922999600,14.41699951171875,1.813352108001709,0.8265000581741333,0.27137666940689087
1789038140940253700,14.434253662109375,1.7638720273971558,0.5772672295570374,0.2328922003507614
1789038140957508000,14.451508056640625,1.7510439157485962,0.4269944727420807,0.18341214954853058
1789038140974762200,14.46876220703125,1.746156930923462,0.62857985496521,0.11682789027690887
1789038140992016600,14.4860166015625,1.7437134981155396,0.6053670048713684,0.026419902220368385
1789038141009270800,14.503270751953124,1.6575815677642822,0.45448338985443115,-0.03222311660647392
1789038141026525000,14.52052490234375,1.5628975629806519,0.2528980076313019,-0.1207985132932663
1789038141043779300,14.537779296875,1.2470804452896118,0.0513126403093338,-0.125074565410614
1789038141061033500,14.555033447265625,0.9013310074806213,-0.19730933010578156,-0.05177079141139984
1789038141078288000,14.572287841796875,0.5311469435691833,-0.3292561173439026,-0.13973531126976013
1789038141095542000,14.5895419921875,0.2965748608112335,-0.20219624042510986,-0.15500694513320923
1789038141112796200,14.606796142578125,0.3900371491909027,0.10629047453403473,-0.047494735568761826
1789038141130050600,14.624050537109374,0.5769617557525635,0.04459312930703163,0.07101303339004517
1789038141147304700,14.6413046875,0.6789761781692505,-0.12095122784376144,0.11438442766666412
1789038141164558800,14.658558837890626,0.6172788739204407,-0.20158538222312927,0.16081015765666962
1789038141181813200,14.675813232421875,0.46944957971572876,-0.2571740746498108,0.1974620372056961
1789038141199067400,14.6930673828125,0.2971857190132141,-0.2205221801996231,0.1724165827035904
1789038141216321800,14.71032177734375,0.12003492563962936,-0.15088360011577606,0.058795735239982605
1789038141233576000,14.727575927734375,0.029016077518463135,-0.15271618962287903,-0.07864884287118912
1789038141250830300,14.744830322265624,0.003359756199643016,-0.17165300250053406,-0.18677189946174622
1789038141268084500,14.76208447265625,-0.0021380267571657896,-0.14660754799842834,-0.2533561587333679
1789038141285339000,14.7793388671875,0.03634645417332649,-0.12950333952903748,-0.3205513060092926
1789038141302593000,14.796593017578125,0.019853105768561363,-0.19181154668331146,-0.3254382014274597
1789038141319847400,14.813847412109375,-0.04306596517562866,-0.21380266547203064,-0.29856017231941223
1789038141337101600,14.8311015625,-0.10354158282279968,-0.17043127119541168,-0.2790125012397766
1789038141354355700,14.848355712890625,-0.12125665694475174,-0.07513637095689774,-0.28206682205200195
1789038141371610000,14.865610107421874,-0.13530655205249786,-0.037262752652168274,-0.27168211340904236
1789038141388864300,14.8828642578125,-0.1383608728647232,-0.13255766034126282,-0.21670427918434143
1789038141406118700,14.90011865234375,-0.11087195575237274,-0.22296564280986786,-0.1922696828842163
1789038141423372800,14.917372802734375,-0.08582650125026703,-0.2052505612373352,-0.20082180202007294
1789038141440627000,14.934626953125,-0.08155044913291931,-0.14599667489528656,-0.187382772564888
1789038141457881300,14.95188134765625,-0.08338304609060287,-0.07024945318698883,-0.20448698103427887
1789038141475135500,14.969135498046874,-0.08338304609060287,-0.0030543238390237093,-0.281455934047699
1789038141492389600,14.9863896484375,-0.1078176349401474,0.021380268037319183,-0.33337944746017456
1789038141509644000,15.00364404296875,-0.1591302752494812,0.028099779039621353,-0.3352120518684387
1789038141526898200,15.020898193359375,-0.2098320573568344,-0.015271619893610477,-0.3627009689807892
1789038141544152300,15.03815234375,-0.2684750556945801,-0.05803215503692627,-0.4189005196094513
1789038141561406700,15.05540673828125,-0.33017241954803467,-0.11606431007385254,-0.42745262384414673
1789038141578660900,15.072660888671875,-0.40225446224212646,-0.1026252806186676,-0.3987419903278351
1789038141595915300,15.089915283203124,-0.4889972507953644,0.000610864779446274,-0.37064221501350403
1789038141613169400,15.10716943359375,-0.5714640021324158,0.12156209349632263,-0.38408124446868896
1789038141630423600,15.124423583984376,-0.6777544617652893,0.2156352698802948,-0.4134027361869812
1789038141647678000,15.141677978515625,-0.7870992422103882,0.19730933010578156,-0.3718639314174652
1789038141664932000,15.15893212890625,-0.9031635522842407,0.0769689604640007,-0.31932955980300903
1789038141682186500,15.1761865234375,-0.9728021621704102,-0.12461641430854797,-0.351705402135849
1789038141699440600,15.193440673828125,-0.9483675956726074,-0.1496618688106537,-0.4286743700504303
1789038141716694800,15.21069482421875,-0.999069333076477,-0.12522727251052856,-0.4384481906890869
1789038141733949200,15.22794921875,-0.9954041838645935,-0.16310089826583862,-0.3578140437602997
1789038141751203300,15.245203369140626,-1.0803143978118896,-0.38667741417884827,-0.31871870160102844
1789038141768457700,15.262457763671875,-1.10230553150177,-0.4459312856197357,-0.2704603672027588
1789038141785711900,15.2797119140625,-1.1224640607833862,-0.573602020740509,-0.20387612283229828
1789038141802966300,15.29696630859375,-1.1346813440322876,-0.5424479246139526,-0.18127411603927612
1789038141820220400,15.314220458984375,-1.1444551944732666,-0.4825831651687622,-0.17577634751796722
1789038141837474600,15.331474609375,-1.166446328163147,-0.4379900395870209,-0.19532401859760284
1789038141854729000,15.34872900390625,-1.120631456375122,-0.471587598323822,-0.16355904936790466
1789038141871983000,15.365983154296876,-1.1334595680236816,-0.545502245426178,-0.10369429737329483
1789038141889237500,15.383237548828125,-1.13712477684021,-0.5125155448913574,-0.10308343172073364
1789038141906491600,15.40049169921875,-1.1487312316894531,-0.4373791813850403,-0.13179408013820648
1789038141923745800,15.417745849609375,-1.0705405473709106,-0.38789913058280945,-0.1721111536026001
1789038141941000200,15.435000244140625,-0.9312633275985718,-0.33597561717033386,-0.20631958544254303
1789038141958254300,15.45225439453125,-0.8494074940681458,-0.15149445831775665,-0.26251915097236633
1789038141975508500,15.469508544921876,-0.7883210182189941,-0.1380554437637329,-0.249690979719162
1789038141992763000,15.486762939453126,-0.8561269640922546,-0.17837251722812653,-0.19104796648025513
1789038142010017000,15.50401708984375,-0.9129374027252197,-0.15088360011577606,-0.14340050518512726
1789038142027271400,15.521271484375,-0.9502001404762268,-0.1282816082239151,-0.041386090219020844
1789038142044525600,15.538525634765625,-0.9141591191291809,-0.185092031955719,0.005650499369949102
1789038142061779700,15.55577978515625,-0.8830050230026245,-0.13255766034126282,-0.003512472379952669
1789038142079034000,15.5730341796875,-0.8017600178718567,-0.17592905461788177,-0.012675444595515728
1789038142096288300,15.590288330078126,-0.7748819589614868,-0.2412915825843811,0.08200860023498535
1789038142113542400,15.60754248046875,-0.8347467184066772,-0.37629270553588867,0.020922118797898293
1789038142130796800,15.624796875,-0.7492256760597229,-0.1539379209280014,-0.03649916872382164
1789038142148051000,15.642051025390625,-0.6429351568222046,-0.10751219838857651,0.012980876490473747
1789038142165305300,15.659305419921875,-0.5299251675605774,0.010995565913617611,-0.04993819445371628
1789038142182559500,15.6765595703125,-0.4407389461994171,0.046425722539424896,-0.07498364895582199
1789038142199814000,15.69381396484375,-0.4358520209789276,0.16004657745361328,-0.03588830679655075
1789038142217068000,15.711068115234376,-0.5018253922462463,0.10934479534626007,-0.030390523374080658
1789038142234322400,15.728322509765626,-0.40958482027053833,0.12705987691879272,-0.008399390615522861
1789038142251576600,15.74557666015625,-0.35094180703163147,0.056199558079242706,-0.0798705667257309
1789038142268830700,15.762830810546875,-0.29535311460494995,0.1637117564678192,-0.13362666964530945
1789038142286085000,15.780085205078125,-0.18723005056381226,0.18753549456596375,-0.06887500733137131
1789038142303339300,15.79733935546875,-0.16096286475658417,0.11178825795650482,-0.10735948383808136
1789038142320593700,15.81459375,-0.11759147047996521,-0.03237583488225937,-0.13484840095043182
1789038142337847800,15.831847900390626,-0.03634645417332649,-0.09529490768909454,-0.13301581144332886
1789038142355102200,15.849102294921876,0.011911863461136818,-0.01893680728971958,-0.12324196845293045
1789038142372356400,15.8663564453125,0.16157373785972595,0.1081230640411377,-0.07192932814359665
1789038142389610800,15.88361083984375,0.2868010103702545,0.24801109731197357,0.012980876490473747
1789038142406865000,15.900864990234375,0.3387245237827301,0.3249800503253937,0.09605848789215088
1789038142424119000,15.918119140625,0.35277441143989563,0.37690356373786926,0.1974620372056961
1789038142441373400,15.93537353515625,0.39797839522361755,0.39339691400527954,0.24144430458545685
1789038142458627600,15.952627685546876,0.39736753702163696,0.4563159942626953,0.2835939824581146
1789038142475882000,15.969882080078126,0.40714138746261597,0.45448338985443115,0.2738201320171356
1789038142493136100,15.98713623046875,0.40775224566459656,0.41233372688293457,0.27809619903564453
1789038142510390300,16.004390380859373,0.3851502537727356,0.3585776388645172,0.2793179154396057
1789038142527644700,16.021644775390627,0.35643959045410156,0.3237583339214325,0.3257436454296112
1789038142544898800,16.03889892578125,0.3808741867542267,0.3744601011276245,0.4124864339828491
1789038142562153200,16.0561533203125,0.3955349326133728,0.3646862804889679,0.5108356475830078
1789038142579407400,16.073407470703124,0.4584540128707886,0.36712974309921265,0.5346593856811523
1789038142596661500,16.09066162109375,0.5647444725036621,0.43432486057281494,0.5810851454734802
1789038142613916000,16.107916015625,0.6759218573570251,0.4428769648075104,0.5639809370040894
1789038142631170000,16.125170166015625,0.7418952584266663,0.49480047821998596,0.521831214427948
1789038142648424400,16.142424560546875,0.7522799968719482,0.45020735263824463,0.5377137064933777
1789038142665678600,16.1596787109375,0.7938187718391418,0.3695732057094574,0.5468766689300537
1789038142682932700,16.1769326171875,0.8604030609130859,0.2932150959968567,0.5297724604606628
1789038142700187100,16.194187255859376,0.9153808951377869,0.3597993552684784,0.5102248191833496
1789038142717441300,16.211441162109374,0.8946114778518677,0.37812530994415283,0.471129447221756
1789038142734695400,16.2286953125,0.879339873790741,0.3555232882499695,0.4595230221748352
1789038142751949800,16.24594970703125,0.8860593438148499,0.2309068888425827,0.39477136731147766
1789038142769204000,16.263203857421875,0.9355394244194031,0.18203771114349365,0.3617846667766571
1789038142786458400,16.280458251953124,0.9966259002685547,0.2254091054201126,0.3520108163356781
1789038142803712500,16.29771240234375,1.0613775253295898,0.2657261788845062,0.37400195002555847
1789038142820967000,16.314966796875,1.1084141731262207,0.25411975383758545,0.3361283540725708
1789038142838221000,16.332220947265625,1.0784817934036255,0.2406807243824005,0.3355174660682678
1789038142855475200,16.34947509765625,0.9960150122642517,0.19608759880065918,0.31902414560317993
1789038142872729600,16.3667294921875,0.9245438575744629,0.20830489695072174,0.29214608669281006
1789038142889983700,16.383983642578126,0.89705491065979,0.2101374864578247,0.23777911067008972
1789038142907238000,16.40123779296875,0.9251546859741211,0.3530798554420471,0.17547090351581573
1789038142924492300,16.4184921875,0.9465349912643433,0.3078758418560028,0.20540328323841095
1789038142941746400,16.435746337890624,1.0290017127990723,0.23335035145282745,0.1815795600414276
1789038142959000600,16.45300048828125,1.1438442468643188,0.19914191961288452,0.09056070446968079
1789038142976255000,16.4702548828125,1.1688897609710693,0.19242240488529205,0.08017600327730179
1789038142993509000,16.487509033203125,1.1994329690933228,0.15149445831775665,0.07528908550739288
1789038143010763300,16.50476318359375,1.165224552154541,0.2461785078048706,-0.004734201822429895
1789038143028017700,16.522017578125,1.0302234888076782,0.3090975880622864,-0.04260781779885292
1789038143045271800,16.539271728515626,0.8029817342758179,0.25045454502105713,-0.02306014485657215
1789038143062526000,16.55652587890625,0.6478220820426941,0.0769689604640007,0.0038179049734026194
1789038143079780400,16.5737802734375,0.6398808360099792,-0.07024945318698883,0.007483093533664942
1789038143097034500,16.591034423828123,0.61117023229599,-0.12461641430854797,-0.006566796451807022
1789038143114288600,16.60828857421875,0.537255585193634,-0.059864748269319534,0.0019853105768561363
1789038143131543000,16.62554296875,0.5323686599731445,-0.007941242307424545,0.08384118974208832
1789038143148797200,16.642797119140624,0.5659661889076233,-0.014049889519810677,0.12782345712184906
1789038143166051600,16.660051513671874,0.44501498341560364,-0.0818558782339096,0.10949750989675522
1789038143183305700,16.6773056640625,0.3289506733417511,-0.22418737411499023,0.09605848789215088
1789038143200559900,16.694559814453125,0.314289927482605,-0.22479823231697083,0.06734783947467804
1789038143217814300,16.711814208984375,0.2666424810886383,-0.10873392969369888,0.039858926087617874
1789038143235068400,16.729068359375,0.19761475920677185,-0.056810423731803894,0.09850194305181503
1789038143252322600,16.746322509765626,0.14691297709941864,-0.12644900381565094,0.14737112820148468
1789038143269577000,16.763576904296876,0.03023780696094036,-0.20952661335468292,0.14737112820148468
1789038143286831000,16.7808310546875,-0.05283980444073677,-0.10934479534626007,0.10583232343196869
1789038143304085200,16.798085205078124,-0.0461202897131443,-0.09285144507884979,0.0850629210472107
1789038143321339600,16.815339599609374,-0.038789913058280945,-0.26939135789871216,0.06612611562013626
1789038143338593800,16.83259375,-0.061391908675432205,-0.37812530994415283,0.04657844081521034
1789038143355848000,16.849847900390625,-0.10354158282279968,-0.3439168632030487,0.052076224237680435
1789038143373102300,16.867102294921875,-0.15179990231990814,-0.2528980076313019,0.10888664424419403
1789038143390356500,16.8843564453125,-0.14630211889743805,-0.13927717506885529,0.12354740500450134
1789038143407610600,16.901610595703126,-0.15118902921676636,0.12767073512077332,-0.03649916872382164
1789038143424865000,16.918864990234376,-0.21410810947418213,0.18875721096992493,-0.15500694513320923
1789038143442119200,16.936119140625,-0.26542073488235474,0.15088360011577606,-0.14706569910049438
1789038143459373600,16.95337353515625,-0.27947062253952026,0.08552107214927673,-0.08659008145332336
1789038143476627700,16.970627685546877,-0.250149130821228,-0.006719512399286032,-0.056657709181308746
1789038143493881900,16.9878818359375,-0.23487751185894012,-0.06597339361906052,-0.11163553595542908
1789038143511136000,17.005135986328124,-0.29046618938446045,-0.07330377399921417,-0.21181736886501312
1789038143528390400,17.022390380859374,-0.34788748621940613,-0.0616973415017128,-0.31932955980300903
1789038143545644500,17.03964453125,-0.40286532044410706,0.05803215503692627,-0.45127636194229126
1789038143562898700,17.056898681640625,-0.42974337935447693,0.07391463965177536,-0.5502364635467529
1789038143580153000,17.074153076171875,-0.416304349899292,-0.015271619893610477,-0.5832231640815735
1789038143597407200,17.0914072265625,-0.3863719701766968,-0.020158538594841957,-0.5160280466079712
1789038143614661400,17.108661376953126,-0.4150826036930084,0.010995565913617611,-0.3675878942012787
1789038143631915500,17.12591552734375,-0.5604684352874756,-0.020769402384757996,-0.301003634929657
1789038143649170000,17.143169921875,-0.7840449213981628,-0.0360410213470459,-0.36880961060523987
1789038143666424000,17.160424072265624,-0.85918128490448,0.013439024798572063,-0.42134398221969604
1789038143683678500,17.177678466796873,-0.8506292104721069,-0.01649334840476513,-0.40118545293807983
1789038143700932600,17.1949326171875,-0.7425061464309692,-0.1795942485332489,-0.3052796721458435
1789038143718186800,17.212186767578125,-0.7070759534835815,-0.23457208275794983,-0.2735147178173065
1789038143735441200,17.229441162109374,-0.7046325206756592,-0.1496618688106537,-0.26618432998657227
1789038143752695300,17.2466953125,-0.7889318466186523,-0.11239911615848541,-0.30711227655410767
1789038143769949400,17.263949462890626,-0.7687733173370361,-0.1533270627260208,-0.33887723088264465
1789038143787203600,17.28120361328125,-0.731510579586029,-0.1954767256975174,-0.39018988609313965
1789038143804458000,17.2984580078125,-0.6386591196060181,-0.27000224590301514,-0.3480401933193207
1789038143821712100,17.315712158203127,-0.6514872908592224,-0.4105011224746704,-0.35353797674179077
1789038143838966300,17.33296630859375,-0.7211259007453918,-0.43921178579330444,-0.4641045033931732
1789038143856220700,17.350220703125,-0.814588189125061,-0.26878049969673157,-0.5490147471427917
1789038143873474800,17.367474853515624,-0.8756746649742126,-0.17287473380565643,-0.5074759125709534
1789038143890729000,17.38472900390625,-0.8646790981292725,-0.21380266547203064,-0.41095927357673645
1789038143907983400,17.4019833984375,-0.8188642263412476,-0.258395791053772,-0.37552911043167114
1789038143925237500,17.419237548828125,-0.8634573817253113,-0.28954991698265076,-0.3669770061969757
1789038143942492000,17.436491943359375,-0.8768963813781738,-0.4318813979625702,-0.3565923273563385
1789038143959746000,17.45374609375,-0.9159917235374451,-0.555276095867157,-0.3681987524032593
1789038143977000200,17.471000244140626,-0.8481857180595398,-0.41233372688293457,-0.4134027361869812
1789038143994254300,17.48825439453125,-0.8060360550880432,-0.4563159942626953,-0.3633118271827698
1789038144011508700,17.5055087890625,-0.8475748896598816,-0.3066541254520416,-0.3205513060092926
1789038144028763000,17.522762939453123,-0.8457422852516174,-0.2101374864578247,-0.27717989683151245
1789038144046017000,17.54001708984375,-0.8213077187538147,-0.2889390289783478,-0.208152174949646
1789038144063271400,17.557271484375,-0.8341358304023743,-0.3170388340950012,-0.16600249707698822
1789038144080525600,17.574525634765624,-0.7736602425575256,-0.29443681240081787,-0.1305723488330841
1789038144097779700,17.59177978515625,-0.7730493545532227,-0.4098902642726898,-0.18493930995464325
1789038144115033900,17.609033935546876,-0.7877101302146912,-0.5064069032669067,-0.2240346521139145
1789038144132288300,17.626288330078125,-0.9031635522842407,-0.3738492429256439,-0.2386954128742218
1789038144149542400,17.64354248046875,-0.8402445316314697,-0.24801109731197357,-0.3168860971927643
1789038144166796800,17.660796875,-0.7107411623001099,-0.22357651591300964,-0.3352120518684387
1789038144184051000,17.678051025390626,-0.6209440231323242,-0.23823726177215576,-0.20143266022205353
1789038144201305000,17.69530517578125,-0.5873464941978455,-0.14233149588108063,-0.2283107042312622
1789038144218559500,17.7125595703125,-0.5519163012504578,-0.18631376326084137,-0.2234237939119339
1789038144235813600,17.729813720703124,-0.4218021333217621,-0.20402882993221283,-0.18493930995464325
1789038144253067800,17.74706787109375,-0.3136790692806244,-0.11728604137897491,-0.1928805559873581
1789038144270322200,17.764322265625,-0.2776380479335785,0.050090912729501724,-0.17883066833019257
1789038144287576300,17.781576416015625,-0.21960589289665222,0.2052505612373352,-0.19960007071495056
1789038144304830500,17.79883056640625,-0.17806708812713623,0.205861434340477,-0.27840161323547363
1789038144322084600,17.816084716796876,-0.06933315098285675,0.2461785078048706,-0.2594648003578186
1789038144339339000,17.833339111328126,-0.057726722210645676,0.21685700118541718,-0.08109229803085327
1789038144356593200,17.85059326171875,-0.01435532234609127,0.14110976457595825,-0.013286309316754341
1789038144373847300,17.867847412109374,0.06505709886550903,0.053145237267017365,-0.02916879393160343
1789038144391101700,17.885101806640623,0.10231985151767731,0.12950333952903748,-0.015729768201708794
1789038144408355800,17.90235595703125,0.1383608728647232,0.27977606654167175,0.06673697382211685
1789038144425610200,17.9196103515625,0.26480987668037415,0.3133736252784729,0.15897755324840546
1789038144442864400,17.936864501953124,0.3173442482948303,0.28466299176216125,0.24633121490478516
1789038144460118500,17.954118408203126,0.3283398151397705,0.26389357447624207,0.2683223485946655
1789038144477373000,17.971373046875,0.33689191937446594,0.2516762912273407,0.32757624983787537
1789038144494627000,17.988626953125,0.3845393657684326,0.22785256803035736,0.3623955249786377
1789038144511881200,18.005881103515627,0.425467312335968,0.25045454502105713,0.35384342074394226
1789038144529135400,18.02313525390625,0.4370737373828888,0.28405213356018066,0.366060733795166
1789038144546389800,18.0403896484375,0.4364628791809082,0.2932150959968567,0.36361727118492126
1789038144563644000,18.057643798828124,0.4407389461994171,0.3488037884235382,0.35811948776245117
1789038144580898000,18.07489794921875,0.4663952589035034,0.41783151030540466,0.33918267488479614
1789038144598152400,18.09215234375,0.5115992426872253,0.48441576957702637,0.32818710803985596
1789038144615406600,18.109406494140625,0.5812378525733948,0.46059203147888184,0.3422369956970215
1789038144632660700,18.12666064453125,0.6991347670555115,0.35185810923576355,0.33979353308677673
1789038144649915100,18.1439150390625,0.7638863921165466,0.29077163338661194,0.30375251173973083
1789038144667169300,18.161169189453126,0.7547234296798706,0.37629270553588867,0.24633121490478516
1789038144684423700,18.178423583984376,0.7706059217453003,0.4783071279525757,0.20418155193328857
1789038144701677800,18.195677734375,0.777325451374054,0.4783071279525757,0.2188423126935959
1789038144718932000,18.212931884765624,0.7895427346229553,0.40378162264823914,0.3006981909275055
1789038144736186000,18.23018603515625,0.8225294351577759,0.2816086709499359,0.36972591280937195
1789038144753440500,18.2474404296875,0.8341358304023743,0.22785256803035736,0.36972591280937195
1789038144770694700,18.264694580078125,0.7944296598434448,0.33597561717033386,0.32391104102134705
1789038144787948800,18.28194873046875,0.7620537877082825,0.3481929302215576,0.305585116147995
1789038144805203000,18.299202880859376,0.7718276381492615,0.1997527778148651,0.32330018281936646
1789038144822457300,18.316457275390626,0.8610138893127441,0.07330377399921417,0.3416261374950409
1789038144839711500,18.33371142578125,0.9062178730964661,0.04825831577181816,0.38499751687049866
1789038144856965600,18.350965576171873,0.9208786487579346,0.020158538594841957,0.36911505460739136
1789038144874220000,18.368219970703127,0.8762855529785156,0.06963858753442764,0.32452189922332764
1789038144891474200,18.38547412109375,0.8426879644393921,0,0.3611738085746765
1789038144908728300,18.402728271484374,0.814588189125061,-0.08674279600381851,0.45158177614212036
1789038144925982700,18.419982666015624,0.8420770764350891,-0.053145237267017365,0.49189886450767517
1789038144943236900,18.43723681640625,0.8640682101249695,0.06291907280683517,0.4534143805503845
1789038144960491000,18.454490966796875,0.8347467184066772,0.18692462146282196,0.3837758004665375
1789038144977745200,18.4717451171875,0.7852666974067688,0.14172062277793884,0.33857181668281555
1789038144994999600,18.48899951171875,0.7840449213981628,0.033597562462091446,0.31719154119491577
1789038145012253700,18.506253662109376,0.7687733173370361,0.06963858753442764,0.29275694489479065
1789038145029507800,18.5235078125,0.6954695582389832,0.16798780858516693,0.28848087787628174
1789038145046762000,18.540761962890624,0.6343830823898315,0.14538581669330597,0.28237223625183105
1789038145064016400,18.558016357421874,0.6466003656387329,0.04825831577181816,0.24816381931304932
1789038145081270500,18.5752705078125,0.6655371785163879,0.001832594396546483,0.1974620372056961
1789038145098524700,18.592524658203125,0.6178897023200989,-0.11545344442129135,0.17608177661895752
1789038145115779000,18.609779052734375,0.5574141144752502,-0.14172062277793884,0.16997312009334564
1789038145133033200,18.627033203125,0.44929105043411255,-0.13683371245861053,0.18035782873630524
1789038145150287400,18.644287353515626,0.35582873225212097,-0.19425499439239502,0.16019928455352783
1789038145167541500,18.66154150390625,0.31612253189086914,-0.2406807243824005,0.13271036744117737
1789038145184795600,18.678795654296874,0.2910770773887634,-0.25534147024154663,0.10888664424419403
1789038145202050000,18.696050048828123,0.26419901847839355,-0.14110976457595825,0.09239330142736435
1789038145219304200,18.71330419921875,0.25503605604171753,-0.12767073512077332,0.10766492038965225
1789038145236558300,18.730558349609375,0.2764163017272949,-0.11423171311616898,0.09117157012224197
1789038145253812700,18.747812744140624,0.2764163017272949,-0.09896009415388107,0.0539088174700737
1789038145271067000,18.76506689453125,0.23426663875579834,-0.14599667489528656,0.030085090547800064
1789038145288321000,18.782321044921876,0.18234314024448395,-0.18692462146282196,-0.027947064489126205
1789038145305575200,18.7995751953125,0.13041962683200836,-0.20952661335468292,-0.0487164668738842
1789038145322829600,18.81682958984375,0.029016077518463135,-0.23518294095993042,-0.007177661173045635
1789038145340083700,18.834083740234377,-0.08826996386051178,-0.2419024556875229,0.010537417605519295
1789038145357337900,18.851337890625,-0.14019346237182617,-0.19792018830776215,-0.06276635825634003
1789038145374592300,18.86859228515625,-0.14569124579429626,-0.03848448023200035,-0.1721111536026001
1789038145391846400,18.885846435546874,-0.1640172004699707,0.06291907280683517,-0.2503018379211426
1789038145409100500,18.9031005859375,-0.16829325258731842,-0.08491020649671555,-0.31322091817855835
1789038145426354700,18.920354736328125,-0.07605266571044922,-0.1649334877729416,-0.38530296087265015
1789038145443609000,18.937609130859375,0.019242240116000175,-0.13500112295150757,-0.3920224606990814
1789038145460863200,18.95486328125,0.008246674202382565,-0.050090912729501724,-0.37003132700920105
1789038145478117400,18.972117431640626,-0.0461202897131443,0.020769402384757996,-0.36880961060523987
1789038145495371500,18.98937158203125,-0.07849612087011337,0.11667517572641373,-0.4079049527645111
1789038145512626000,19.0066259765625,-0.08093958348035812,0.15210533142089844,-0.4189005196094513
1789038145529880000,19.023880126953124,-0.0766635313630104,0.11667517572641373,-0.34987279772758484
1789038145547134200,19.04113427734375,-0.1230892539024353,0.10079269111156464,-0.249690979719162
1789038145564388400,19.058388427734375,-0.21838416159152985,0.15027274191379547,-0.20570871233940125
1789038145581642800,19.075642822265625,-0.36804601550102234,0.23945899307727814,-0.1928805559873581
1789038145598897000,19.09289697265625,-0.5488619804382324,0.2822195291519165,-0.21181736886501312
1789038145616151000,19.110151123046876,-0.6685914993286133,0.20769402384757996,-0.24113887548446655
1789038145633405400,19.127405517578126,-0.6606502532958984,0.0873536616563797,-0.26679518818855286
1789038145650659600,19.14465966796875,-0.6789761781692505,0.06352993845939636,-0.24236060678958893
1789038145667913700,19.161913818359373,-0.7840449213981628,0.0360410213470459,-0.1776089370250702
1789038145685167900,19.17916796875,-0.9025527238845825,0.09529490768909454,-0.13973531126976013
1789038145702422300,19.19642236328125,-0.9984585046768188,0.07941242307424545,-0.15745039284229279
1789038145719676400,19.213676513671874,-1.0308343172073364,0.05497783049941063,-0.19837833940982819
1789038145736930600,19.2309306640625,-1.0338886976242065,-0.07147117704153061,-0.2185368686914444
1789038145754184700,19.248184814453126,-1.0454950332641602,-0.017104214057326317,-0.2130390852689743
1789038145771438800,19.26543896484375,-1.1059707403182983,-0.08368847519159317,-0.1922696828842163
1789038145788693200,19.282693359375,-1.0931425094604492,-0.05436696484684944,-0.16966769099235535
1789038145805947400,19.299947509765627,-1.028390884399414,-0.11423171311616898,-0.0847574844956398
1789038145823201500,19.317201416015624,-1.038164734840393,-0.2816086709499359,0.025809036567807198
1789038145840455700,19.33445556640625,-1.0430516004562378,-0.4459312856197357,0.09178243577480316
1789038145857710000,19.3517099609375,-0.9459241032600403,-0.47097674012184143,0.042913250625133514
1789038145874964200,19.368964111328125,-0.8524618148803711,-0.44470956921577454,-0.04321868345141411
1789038145892218400,19.38621826171875,-0.8848376274108887,-0.42394015192985535,-0.08781181275844574
1789038145909472500,19.403472412109377,-0.8610138893127441,-0.3402516841888428,-0.17394374310970306
1789038145926727000,19.420726806640626,-0.8738420605659485,-0.2883281707763672,-0.23503021895885468
1789038145943981000,19.43798095703125,-0.8225294351577759,-0.26389357447624207,-0.30222535133361816
1789038145961235200,19.455235107421874,-0.7968730926513672,-0.32559093832969666,-0.27290382981300354
1789038145978489600,19.472489501953124,-0.7516691088676453,-0.4581485986709595,-0.19043709337711334
1789038145995743700,19.48974365234375,-0.7363975048065186,-0.5662716627120972,-0.10919208079576492
1789038146012998000,19.506997802734375,-0.7785471677780151,-0.6218603253364563,-0.060933761298656464
1789038146030252000,19.524251953125,-0.8023709058761597,-0.5222893953323364,-0.06887500733137131
1789038146047506200,19.541506103515626,-0.8029817342758179,-0.46975502371788025,-0.02916879393160343
1789038146064760600,19.558760498046876,-0.7999274134635925,-0.23212862014770508,-0.0206166859716177
1789038146082014700,19.5760146484375,-0.7040216326713562,-0.12278381735086441,0.0007635809597559273
1789038146099268900,19.593268798828124,-0.6520981788635254,-0.22907429933547974,0.028863361105322838
1789038146116523300,19.610523193359374,-0.712573766708374,-0.2516762912273407,0.030085090547800064
1789038146133777400,19.62777734375,-0.7608320713043213,-0.24251331388950348,0.05696314200758934
1789038146151031600,19.645031494140625,-0.7510582208633423,-0.07391463965177536,0.0038179049734026194
1789038146168285700,19.66228564453125,-0.6997455954551697,0.09285144507884979,-0.018784092739224434
1789038146185540000,19.6795400390625,-0.5653553605079651,0.3964512348175049,0.014813470654189587
1789038146202794200,19.696794189453126,-0.4053087830543518,0.5632173418998718,0.052687086164951324
1789038146220048400,19.71404833984375,-0.28924447298049927,0.33169957995414734,-0.017562363296747208
1789038146237302500,19.731302490234373,-0.34727662801742554,0.17715078592300415,-0.09269873052835464
1789038146254556700,19.748556640625,-0.4309650957584381,0.12583814561367035,-0.06704241037368774
1789038146271811000,19.76581103515625,-0.3179551064968109,0.01954767294228077,-0.057268574833869934
1789038146289065200,19.783065185546874,-0.2202167510986328,0.10018182545900345,0.01847865991294384
1789038146306319600,19.800319580078124,-0.10903936624526978,0.17287473380565643,0.05146535858511925
1789038146323573800,19.81757373046875,0.011911863461136818,0.2522871494293213,0.023976443335413933
1789038146340828000,19.834827880859375,0.14508038759231567,0.33047783374786377,0.01908952370285988
1789038146358082000,19.85208203125,0.20922118425369263,0.36835145950317383,0.0154243353754282
1789038146375336200,19.869336181640627,0.2611446976661682,0.3610210716724396,-0.008399390615522861
1789038146392590600,19.886590576171876,0.24770566821098328,0.3445277214050293,-0.002290742937475443
1789038146409844700,19.9038447265625,0.3075704276561737,0.38240134716033936,0.05940660089254379
1789038146427099000,19.921098876953124,0.34055712819099426,0.4221075773239136,0.09605848789215088
1789038146444353000,19.93835302734375,0.3949240744113922,0.4153880476951599,0.11499529331922531
1789038146461607400,19.955607421875,0.44501498341560364,0.3811796307563782,0.1614210158586502
1789038146478861600,19.972861572265625,0.48655378818511963,0.35735589265823364,0.12110394239425659
1789038146496115700,19.99011572265625,0.508544921875,0.3451386094093323,0.13820815086364746
1789038146513369900,20.007369873046876,0.5946768522262573,0.3042106628417969,0.1669187992811203
1789038146530624300,20.024624267578126,0.7718276381492615,0.2516762912273407,0.11133010685443878
1789038146547878400,20.04187841796875,0.8555161356925964,0.33231043815612793,0.04169152304530144
1789038146565132500,20.059132568359374,0.8634573817253113,0.430659681558609,0.017256930470466614
1789038146582386700,20.07638671875,0.9031635522842407,0.3756818473339081,0.014202605932950974
1789038146599640800,20.093640869140625,0.9844086170196533,0.1948658674955368,0.02458730712532997
1789038146616895200,20.110895263671875,1.0259474515914917,0.17715078592300415,0.08017600327730179
1789038146634149400,20.1281494140625,1.0082323551177979,0.17165300250053406,0.19379685819149017
1789038146651403500,20.145403564453126,0.9489784240722656,0.16859868168830872,0.2835939824581146
1789038146668658000,20.162657958984376,0.9227112531661987,0.1545487940311432,0.3208567202091217
1789038146685912000,20.179912109375,1.000291109085083,0.2608392536640167,0.26221370697021484
1789038146703166200,20.197166259765623,1.016784429550171,0.4202749729156494,0.27137666940689087
1789038146720420400,20.21442041015625,1.017395257949829,0.39767298102378845,0.25060728192329407
1789038146737674500,20.231674560546875,0.9728021621704102,0.328645259141922,0.25243985652923584
1789038146754928600,20.2489287109375,0.8933897614479065,0.29443681240081787,0.264046311378479
1789038146772183000,20.26618310546875,0.8652899861335754,0.3756818473339081,0.2744309902191162
1789038146789437200,20.283437255859376,0.8341358304023743,0.34636032581329346,0.3251327872276306
1789038146806691300,20.30069140625,0.814588189125061,0.2761108875274658,0.30863943696022034
1789038146823945500,20.317945556640623,0.8109229803085327,0.24312418699264526,0.31719154119491577
1789038146841199900,20.335199951171877,0.8109229803085327,0.1948658674955368,0.3269653618335724
1789038146858454000,20.3524541015625,0.7901535630226135,0.09651663154363632,0.32818710803985596
1789038146875708200,20.369708251953124,0.7614429593086243,0.04214967042207718,0.3862192630767822
1789038146892962300,20.38696240234375,0.7528908252716064,-0.012217295356094837,0.3764454126358032
1789038146910216700,20.404216796875,0.7571669220924377,0.021380268037319183,0.3831649422645569
1789038146927470800,20.421470947265625,0.7211259007453918,0.001832594396546483,0.4088212549686432
1789038146944725000,20.43872509765625,0.6545416116714478,0.007330377586185932,0.3513999581336975
1789038146961979100,20.455979248046877,0.6496546864509583,0.07635809481143951,0.3196350038051605
1789038146979233300,20.4732333984375,0.6356047987937927,-0.012217295356094837,0.31719154119491577
1789038146996487400,20.4904873046875,0.639270007610321,0.11606431007385254,0.23044873774051666
1789038147013741800,20.507741943359374,0.6459894776344299,0.13561198115348816,0.13454297184944153
1789038147030996000,20.524995849609375,0.5794052481651306,-0.01588248461484909,0.10644318908452988
1789038147048250000,20.54225,0.47433650493621826,-0.008552107028663158,0.05635227635502815
1789038147065504300,20.559504150390627,0.4364628791809082,-0.013439024798572063,0.058795735239982605
1789038147082758700,20.576758544921876,0.4272999167442322,-0.056199558079242706,0.05757400393486023
1789038147100012800,20.5940126953125,0.3790415823459625,-0.08979712426662445,0.12721258401870728
1789038147117267000,20.611266845703124,0.37171122431755066,-0.09712749719619751,0.19440771639347076
1789038147134521000,20.62852099609375,0.3704894781112671,-0.11972949653863907,0.23716825246810913
1789038147151775200,20.645775146484375,0.27519458532333374,-0.11972949653863907,0.24755294620990753
1789038147169029400,20.663029296875,0.12370011955499649,-0.010384701192378998,0.20357069373130798
1789038147186283800,20.68028369140625,0.007635809946805239,0.025045456364750862,0.19685117900371552
1789038147203538000,20.697537841796876,-0.029016077518463135,-0.011606430634856224,0.191964253783226
1789038147220792000,20.7147919921875,0.003359756199643016,-0.0256563201546669,0.18952079117298126
1789038147238046200,20.732046142578124,0.013133592903614044,0.05497783049941063,0.18035782873630524
1789038147255300400,20.74930029296875,0.0015271619195118546,0.010995565913617611,0.13209950923919678
1789038147272554500,20.766554443359375,-0.03329212963581085,-0.1331685185432434,0.08323032408952713
1789038147289809000,20.783808837890625,-0.11759147047996521,-0.1740964651107788,-0.02000582218170166
1789038147307063000,20.80106298828125,-0.17806708812713623,-0.056199558079242706,-0.1049160286784172
1789038147324317200,20.818317138671876,-0.1542433500289917,-0.028099779039621353,-0.09697478264570236
1789038147341571300,20.8355712890625,-0.06200277432799339,-0.01649334840476513,-0.10797034949064255
1789038147358825700,20.85282568359375,0.023518294095993042,0.010995565913617611,-0.1611155867576599
1789038147376080000,20.870079833984374,0.04367683082818985,0.012217295356094837,-0.20143266022205353
1789038147393334000,20.887333984375,-0.012522728182375431,0.0409279391169548,-0.2759581506252289
1789038147410588200,20.904588134765625,-0.051618073135614395,0.0720820426940918,-0.3877464234828949
1789038147427842300,20.92184228515625,-0.003359756199643016,0.0513126403093338,-0.45249807834625244
1789038147445096400,20.939096435546876,0.005192350596189499,0.03848448023200035,-0.5111411213874817
1789038147462350800,20.956350830078126,-0.0772743970155716,0.030543239787220955,-0.5716167092323303
1789038147479605000,20.97360498046875,-0.1536324918270111,-0.002443459117785096,-0.5948295593261719
1789038147496859100,20.990859130859373,-0.22388194501399994,0.09957095980644226,-0.6327031850814819
1789038147514113300,21.00811328125,-0.31062474846839905,0.24801109731197357,-0.6595812439918518
1789038147531367400,21.025367431640625,-0.39248061180114746,0.35246896743774414,-0.6424770355224609
1789038147548621600,21.04262158203125,-0.5225948095321655,0.30604326725006104,-0.6046034097671509
1789038147565876000,21.0598759765625,-0.5800161361694336,0.12950333952903748,-0.5655080676078796
1789038147583130000,21.077130126953126,-0.6166679859161377,-0.010995565913617611,-0.5190823674201965
1789038147600384300,21.09438427734375,-0.6740893125534058,-0.014660755172371864,-0.47815442085266113
1789038147617638400,21.111638427734373,-0.7388409376144409,0.04459312930703163,-0.39141160249710083
1789038147634892500,21.128892578125,-0.8451313972473145,0.049480047076940536,-0.30711227655410767
1789038147652146700,21.146146728515625,-0.9300416111946106,-0.04825831577181816,-0.3712530732154846
1789038147669400800,21.16340087890625,-1.0063997507095337,-0.15638138353824615,-0.43722647428512573
1789038147686655200,21.1806552734375,-1.1236857175827026,-0.32131487131118774,-0.3321577310562134
1789038147703909400,21.197909423828126,-1.360701322555542,-0.5375609993934631,-0.43233954906463623
1789038147721163500,21.21516357421875,-1.7718132734298706,-0.16065743565559387,-0.3993528485298157
1789038147738417700,21.232417724609373,-1.6899573802947998,-0.6218603253364563,0.09117157012224197
1789038147755671800,21.249671875,-0.694247841835022,-0.9608902931213379,-0.03711003437638283
1789038147772926000,21.266926025390624,-0.3533852696418762,-0.711046576499939,-0.4237874448299408
1789038147790180400,21.284180419921874,-0.8194751143455505,-0.4630354940891266,-0.7579304575920105
1789038147807434500,21.3014345703125,-1.2916735410690308,-0.6682860851287842,-0.6461422443389893
1789038147824688600,21.318688720703125,-1.3912445306777954,-0.5711585879325867,-0.34376415610313416
1789038147841942800,21.33594287109375,-0.9605848789215088,-0.38667741417884827,-0.1727220118045807
