time,seconds_elapsed,z,y,x
1789038126584715500,0.078715576171875,0.002443459117785096,0.4575377106666565,-0.4098902642726898
1789038126601969700,0.0959697265625,-0.1081230640411377,0.5320632457733154,-0.3078758418560028
1789038126619223800,0.113223876953125,-0.18692462146282196,0.7611374855041504,-0.23029601573944092
1789038126636478200,0.130478271484375,-0.1288924664258957,0.8491020202636719,-0.2663370370864868
1789038126653732400,0.147732421875,-0.02260199747979641,0.5375609993934631,-0.4557051360607147
1789038126670986500,0.164986572265625,0.12095122784376144,-0.020158538594841957,-0.6328558921813965
1789038126688240600,0.18224072265625,0.29565855860710144,-0.6212494969367981,-0.7257073521614075
1789038126705494800,0.199494873046875,0.1795942485332489,-1.2119556665420532,-0.8210022449493408
1789038126722749200,0.216749267578125,-0.05803215503692627,-1.2748748064041138,-0.730594277381897
1789038126740003300,0.23400341796875,-0.26022839546203613,-0.8478803038597107,-0.44348782300949097
1789038126757257500,0.251257568359375,-0.3555232882499695,-0.09040798991918564,-0.0360410213470459
1789038126774511600,0.26851171875,-0.37629270553588867,0.9279035925865173,0.43432486057281494
1789038126791765800,0.285765869140625,-0.22846342623233795,1.3713914155960083,0.8924734592437744
1789038126809020000,0.30302001953125,0.26389357447624207,-1.2082905769348145,1.0818414688110352
1789038126826274300,0.3202744140625,0.40378162264823914,-1.9553781747817993,1.148425817489624
1789038126843528400,0.337528564453125,0.2938259541988373,-1.033583164215088,1.1465932130813599
1789038126860782600,0.354782470703125,0.3451386094093323,-0.337808221578598,0.6322450637817383
1789038126878036700,0.37203662109375,0.6579013466835022,-0.11972949653863907,0.04459312930703163
1789038126895291000,0.389290771484375,0.7360920310020447,-0.14538581669330597,-0.4471530318260193
1789038126912545300,0.406545166015625,0.3225366175174713,-0.4612029194831848,-0.5534434914588928
1789038126929799400,0.42379931640625,-0.037262752652168274,-0.8570432662963867,-0.21685700118541718
1789038126947053600,0.441053466796875,-0.08552107214927673,-1.1209368705749512,-0.03848448023200035
1789038126964307700,0.4583076171875,-0.0873536616563797,-1.0341941118240356,-0.15638138353824615
1789038126981562000,0.47556201171875,-0.02871064469218254,-0.9743293523788452,-0.36224281787872314
1789038126998816300,0.492816162109375,-0.17531819641590118,-1.0323615074157715,-0.5516108870506287
1789038127016070400,0.5100703125,-0.1948658674955368,-1.2803726196289062,-0.6908880472183228
1789038127033324500,0.527324462890625,0.04886918142437935,-1.4801253080368042,-0.656679630279541
1789038127050578700,0.54457861328125,0.17165300250053406,-1.4257583618164062,-0.3042106628417969
1789038127067832800,0.561832763671875,-0.053756099194288254,-1.2327251434326172,0.021380268037319183
1789038127085087200,0.579087158203125,-0.3536907136440277,-1.0012073516845703,0.020158538594841957
1789038127102341400,0.59634130859375,-0.2211330533027649,-0.8949168920516968,-0.023823726922273636
1789038127119595500,0.613595458984375,0.1844811588525772,-0.33169957995414734,-0.04153880476951599
1789038127136849700,0.630849609375,0.4257727563381195,0.1747073233127594,-0.0769689604640007
1789038127154103800,0.648103759765625,0.42821621894836426,0.3549124300479889,-0.03298669680953026
1789038127171358200,0.665358154296875,0.35735589265823364,0.2009745091199875,0.07819069176912308
1789038127188612400,0.6826123046875,0.13439024984836578,0.13072505593299866,0.20830489695072174
1789038127205866500,0.699866455078125,-0.09101885557174683,0.3426951467990875,0.14721840620040894
1789038127223120600,0.71712060546875,-0.1026252806186676,0.6071996092796326,-0.09407317638397217
1789038127240374800,0.734374755859375,0.1282816082239151,0.750141978263855,-0.17715078592300415
1789038127257629200,0.751629150390625,0.2632827162742615,0.915686309337616,-0.11606431007385254
1789038127274883300,0.76888330078125,0.21380266547203064,1.0201442241668701,-0.08613193035125732
1789038127292137500,0.786137451171875,0.09162971377372742,0.9187406301498413,0.03481929376721382
1789038127309391600,0.8033916015625,0.033597562462091446,0.4428769648075104,0.24556763470172882
1789038127326646000,0.82064599609375,-0.010995565913617611,-0.01282816007733345,0.41355544328689575
1789038127343900200,0.837900146484375,-0.0720820426940918,-0.21441353857517242,0.3384190797805786
1789038127361154300,0.855154296875,-0.04520399495959282,-0.1893680840730667,0.2412915825843811
1789038127378408400,0.872408447265625,0.05558869615197182,-0.02626718580722809,0.2864955961704254
1789038127395662800,0.889662841796875,0.025045456364750862,0.0513126403093338,0.35613417625427246
1789038127412917000,0.9069169921875,-0.09712749719619751,-0.06414080411195755,0.3139844834804535
1789038127430171100,0.924171142578125,-0.17104214429855347,-0.12522727251052856,0.27550002932548523
1789038127447425300,0.94142529296875,-0.16676609218120575,-0.09651663154363632,0.23029601573944092
1789038127464679400,0.958679443359375,-0.1441640853881836,-0.16187916696071625,0.1533270627260208
1789038127481933800,0.975933837890625,-0.06597339361906052,-0.29443681240081787,0.11239911615848541
1789038127499188000,0.99318798828125,0.006719512399286032,-0.3970620930194855,0.20280711352825165
1789038127516442000,1.010442138671875,-0.07574722915887833,-0.4043924808502197,0.2712239623069763
1789038127533696300,1.0276962890625,-0.18814635276794434,-0.3995055556297302,0.2712239623069763
1789038127550950400,1.044950439453125,-0.11484257876873016,-0.5790998339653015,0.277332603931427
1789038127568204800,1.062204833984375,0.19242240488529205,-1.0189224481582642,0.3439168632030487
1789038127585459000,1.079458984375,0.44470956921577454,-0.8912517428398132,0.5778780579566956
1789038127602713000,1.096713134765625,0.4221075773239136,-0.46425724029541016,0.565049946308136
1789038127619967200,1.11396728515625,0.2419024556875229,-0.5815432667732239,0.1533270627260208
1789038127637221600,1.1312216796875,0.16676609218120575,-0.6108647584915161,-0.01893680728971958
1789038127654475800,1.148475830078125,0.1899789422750473,-0.4685332775115967,0.07819069176912308
1789038127671730000,1.16572998046875,0.21197007596492767,-0.8350521326065063,0.026878049597144127
1789038127688984000,1.182984130859375,0.3494146466255188,-1.0580178499221802,-0.13561198115348816
1789038127706238200,1.20023828125,0.5534434914588928,-0.94439697265625,-0.42821621894836426
1789038127723492600,1.21749267578125,1.3762784004211426,-1.0677915811538696,-0.850934624671936
1789038127740746800,1.234746826171875,1.8753548860549927,-0.8790343999862671,-1.1319323778152466
1789038127758001000,1.2520009765625,1.860694169998169,-0.6426297426223755,-1.3054180145263672
1789038127775255000,1.269255126953125,1.9584324359893799,-1.4782928228378296,-1.3463460206985474
1789038127792509400,1.286509521484375,2.931540012359619,-4.102567672729492,-0.9046907424926758
1789038127809763600,1.303763671875,4.227184295654297,-5.25282621383667,-0.2608392536640167
1789038127827017700,1.321017822265625,5.208844184875488,-4.975493431091309,0.41294458508491516
1789038127844271900,1.33827197265625,5.668825149536133,-4.432435035705566,0.9523382186889648
1789038127861526000,1.355526123046875,5.597964763641357,-1.9871431589126587,0.5809323787689209
1789038127878780400,1.372780517578125,5.401266574859619,-0.7189878225326538,-0.11606431007385254
1789038127896034600,1.39003466796875,5.737242221832275,-2.2699735164642334,-0.4740310609340668
1789038127913288700,1.407288818359375,5.858193397521973,-3.0634868144989014,-0.6835576891899109
1789038127930543000,1.424543212890625,4.726871490478516,-3.400684118270874,-0.7812960743904114
1789038127947797200,1.44179736328125,3.285841703414917,-4.145939350128174,-0.8753692507743835
1789038127965051400,1.459051513671875,2.7067418098449707,-3.9522950649261475,-0.7751874327659607
1789038127982305500,1.476305419921875,2.679863691329956,-3.1367907524108887,-0.8155044913291931
1789038127999559700,1.4935595703125,2.8368561267852783,-2.6560399532318115,-1.119104266166687
1789038128016814000,1.51081396484375,2.9523093700408936,-1.8405355215072632,-1.0567960739135742
1789038128034068200,1.528068115234375,2.995069980621338,-1.6029092073440552,-0.646905779838562
1789038128051322400,1.545322265625,2.81425404548645,-2.0237951278686523,-0.4990765154361725
1789038128068576500,1.562576416015625,2.3261730670928955,-2.3701553344726562,-0.5674933791160583
1789038128085830700,1.57983056640625,2.199723958969116,-1.6505566835403442,-0.8491020202636719
1789038128103085000,1.5970849609375,2.564410448074341,-1.3799434900283813,-0.7739656567573547
1789038128120339200,1.614339111328125,2.6248860359191895,-0.7605266571044922,-0.6157516837120056
1789038128137593300,1.63159326171875,2.322507858276367,-1.2333359718322754,-0.472198486328125
1789038128154847500,1.648847412109375,1.6786564588546753,-2.2870776653289795,0.24373504519462585
1789038128172102000,1.666101806640625,1.1319323778152466,-2.947422504425049,0.7342594861984253
1789038128189356000,1.68335595703125,1.1410953998565674,-3.089754104614258,0.5626064538955688
1789038128206610200,1.700610107421875,1.1508692502975464,-3.3878560066223145,0.481361448764801
1789038128223864300,1.7178642578125,1.196073293685913,-3.4012951850891113,0.5186241865158081
1789038128241118700,1.73511865234375,1.286481261253357,-1.877798318862915,0.20769402384757996
1789038128258372900,1.752372802734375,1.8704679012298584,-1.4007129669189453,0.07024945318698883
1789038128275627000,1.769626953125,1.8637484312057495,-1.2076796293258667,-0.5180133581161499
1789038128301508400,1.79550830078125,1.6077960729599,-0.9236275553703308,-0.7519745230674744
1789038128318762500,1.812762451171875,1.7831143140792847,-0.5326740741729736,-0.7544180154800415
1789038128336016600,1.8300166015625,1.746462345123291,-0.676227331161499,-0.8338304162025452
1789038128353271000,1.84727099609375,1.4355322122573853,-1.071456789970398,-0.7293725609779358
1789038128370525200,1.864525146484375,1.1074978113174438,-0.8045089244842529,-0.35246896743774414
1789038128387779300,1.881779296875,0.8155044913291931,-0.36774060130119324,0.033597562462091446
1789038128405033500,1.899033447265625,0.8203914165496826,-0.6438514590263367,0.021380268037319183
1789038128422288000,1.916287841796875,0.8081740736961365,-1.0867284536361694,0.015271619893610477
1789038128439542000,1.9335419921875,0.7849612236022949,-0.9608902931213379,0.29016077518463135
1789038128456796200,1.950796142578125,0.953559935092926,-1.0470222234725952,0.3707949221134186
1789038128474050300,1.96805029296875,0.9767727851867676,-1.7067562341690063,0.4056142270565033
1789038128491304700,1.9853046875,0.9071341753005981,-1.977980136871338,0.7837395071983337
1789038128508558800,2.002558837890625,0.8723149299621582,-1.7159191370010376,1.130099892616272
1789038128525813000,2.01981298828125,0.6585122346878052,-1.3933825492858887,1.2082905769348145
1789038128543067100,2.037067138671875,0.5180133581161499,-1.6084070205688477,1.147204041481018
1789038128560321500,2.054321533203125,0.19914191961288452,-1.712864875793457,1.3848304748535156
1789038128577575700,2.07157568359375,0.07086031138896942,-1.6444480419158936,1.4043781757354736
1789038128594829800,2.088829833984375,-0.04520399495959282,-1.8619158267974854,1.1337649822235107
1789038128612084000,2.106083984375,-0.5442805290222168,-2.118479013442993,0.94439697265625
1789038128629338400,2.12333837890625,-0.9315688014030457,-1.2986985445022583,1.2052361965179443
1789038128646592500,2.140592529296875,-1.4275909662246704,0.6395754218101501,1.0879502296447754
1789038128663846400,2.157846435546875,-2.120311737060547,2.107483386993408,1.0482439994812012
1789038128689728000,2.18372802734375,-2.98163104057312,2.1801764965057373,0.6725621223449707
1789038128706982100,2.200982177734375,-2.7739369869232178,1.637117624282837,0.6817250847816467
1789038128724236300,2.218236328125,-2.025627613067627,1.2467750310897827,0.11117739230394363
1789038128741490400,2.235490478515625,-1.784335970878601,1.025641918182373,-0.38728827238082886
1789038128758744800,2.252744873046875,-2.011577606201172,1.1294889450073242,-0.5864301919937134
1789038128775999000,2.2699990234375,-1.1563670635223389,1.3561197519302368,-0.6493492722511292
1789038128793253000,2.287253173828125,-0.7452550530433655,0.9553925395011902,-0.6316341757774353
1789038128810507500,2.304507568359375,-1.2186752557754517,0.5711585879325867,-0.9456186890602112
1789038128827761700,2.32176171875,-2.1642940044403076,0.667064368724823,-1.2034035921096802
1789038128845015800,2.339015869140625,-2.2443172931671143,1.2070688009262085,-1.1808016300201416
1789038128862270200,2.356270263671875,-1.8405355215072632,1.703091025352478,-1.3090832233428955
1789038128879524400,2.3735244140625,-2.2253804206848145,1.4489712715148926,-1.5015056133270264
1789038128896778500,2.390778564453125,-2.395200729370117,0.9914335608482361,-1.2186752557754517
1789038128914032600,2.40803271484375,-3.138012409210205,1.2980875968933105,-0.9395100474357605
1789038128931286800,2.425286865234375,-4.559494495391846,2.1117594242095947,-1.1972949504852295
1789038128948541200,2.442541259765625,-7.3138837814331055,1.824653148651123,-1.8808526992797852
1789038128965795300,2.45979541015625,-6.376817226409912,-0.4783071279525757,-1.9083415269851685
1789038128983049500,2.477049560546875,-3.8044657707214355,-2.001193046569824,-1.0543526411056519
1789038129000303900,2.494303955078125,-2.723845958709717,-2.0891575813293457,-0.6120865345001221
1789038129017558000,2.51155810546875,-2.99751353263855,-1.7928881645202637,-1.0977239608764648
1789038129034812200,2.528812255859375,-2.762941360473633,-1.9492695331573486,-1.7073670625686646
1789038129052066300,2.54606640625,-2.6077816486358643,-2.1306962966918945,-2.668257474899292
1789038129069320700,2.56332080078125,-0.17898337543010712,-1.6603304147720337,-2.342055559158325
1789038129086574800,2.580574951171875,2.028681993484497,-0.6621774435043335,-2.1331398487091064
1789038129103829000,2.5978291015625,2.953531265258789,-1.9095633029937744,-1.886350393295288
1789038129121083100,2.615083251953125,2.9822418689727783,-2.525315046310425,-1.5314379930496216
1789038129138337500,2.632337646484375,2.4233005046844482,-1.0403027534484863,-0.832608699798584
1789038129155591700,2.649591796875,1.796553373336792,0.004276053514331579,0.17287473380565643
1789038129172846000,2.66684619140625,0.6206386089324951,0.35796675086021423,1.1478148698806763
1789038129190100200,2.684100341796875,0.06841685622930527,-0.328645259141922,0.8155044913291931
1789038129207354400,2.701354248046875,0.04214967042207718,-0.2162461280822754,0.35796675086021423
1789038129224608800,2.71860888671875,0.12400554865598679,-0.06902772188186646,0.3390299379825592
1789038129241863000,2.73586279296875,0.4575377106666565,-0.32131487131118774,0.5888736248016357
1789038129259117000,2.753116943359375,1.0293071269989014,-0.11911863088607788,0.3231474757194519
1789038129276371500,2.770371337890625,1.6792672872543335,0.028099779039621353,0.02871064469218254
1789038129293625600,2.78762548828125,2.324951410293579,-0.9205732345581055,0.04459312930703163
1789038129310879700,2.804879638671875,2.4294092655181885,-1.4996730089187622,0.4373791813850403
1789038129328134000,2.8221337890625,1.1227694749832153,-1.5741984844207764,1.0128138065338135
1789038129345388300,2.83938818359375,-0.4990765154361725,-1.276707410812378,0.8484911918640137
1789038129362642400,2.856642333984375,-1.194240689277649,-0.6994401812553406,0.22418737411499023
1789038129379896600,2.873896484375,-0.5687150955200195,0.2657261788845062,-0.11423171311616898
1789038129397151000,2.89115087890625,0.17592905461788177,0.18264856934547424,0.35185810923576355
1789038129414405000,2.908405029296875,0.24006985127925873,-0.003665188793092966,0.5100721120834351
1789038129431659300,2.9256591796875,0.01954767294228077,-0.30970844626426697,0.4147771894931793
1789038129448913700,2.94291357421875,-0.36224281787872314,-0.31031930446624756,0.27855435013771057
1789038129466167800,2.960167724609375,-0.3078758418560028,-0.3133736252784729,0.40744680166244507
1789038129483422200,2.977422119140625,0.15149445831775665,-0.16187916696071625,0.49113526940345764
1789038129500676400,2.99467626953125,0.25900667905807495,-0.12034036219120026,0.41783151030540466
1789038129517930800,3.0119306640625,0.14477495849132538,-0.13255766034126282,0.6401863098144531
1789038129535185000,3.029184814453125,0.17592905461788177,0.6120865345001221,0.9382883310317993
1789038129552439000,3.04643896484375,0.1178968995809555,0.8387173414230347,0.9101884961128235
1789038129569693400,3.063693359375,-0.17043127119541168,0.5015199780464172,0.4819723069667816
1789038129586947600,3.080947509765625,-0.04153880476951599,0.15577052533626556,0.1637117564678192
1789038129604201700,3.09820166015625,0.6633991599082947,0.08368847519159317,-0.06414080411195755
1789038129621456100,3.1154560546875,1.0024291276931763,0.19669845700263977,-0.3090975880622864
1789038129638710300,3.132710205078125,0.6017017960548401,0.24556763470172882,-0.30970844626426697
1789038129655964400,3.14996435546875,0.3341430425643921,-0.2828303873538971,-0.10323614627122879
1789038129673218800,3.16721875,0.4410443603992462,-0.029932374134659767,-0.06841685622930527
1789038129690473000,3.184472900390625,0.4862483739852905,0.22174391150474548,-0.24740023910999298
1789038129707727000,3.20172705078125,0.5094612240791321,0.4667007029056549,-0.5760455131530762
1789038129724981500,3.2189814453125,0.6212494969367981,0.32009315490722656,-0.8991929292678833
1789038129742235600,3.236235595703125,0.7250964641571045,0.47464191913604736,-0.9853248596191406
1789038129759489800,3.25348974609375,0.6823359727859497,0.36224281787872314,-0.8374956250190735
1789038129776744200,3.270744140625,0.33719736337661743,-0.015271619893610477,-0.49418962001800537
1789038129793998300,3.287998291015625,0.13500112295150757,0.015271619893610477,-0.36712974309921265
1789038129811252700,3.305252685546875,0.3591884970664978,0.4159989058971405,-0.4734202027320862
1789038129828507000,3.3225068359375,0.574212908744812,0.5015199780464172,-0.5809323787689209
1789038129845761300,3.33976123046875,0.6255255341529846,0.6493492722511292,-0.6047561168670654
1789038129863015400,3.357015380859375,0.42271843552589417,0.5222893953323364,-0.4221075773239136
1789038129880269800,3.374269775390625,0.31459537148475647,0.6701186895370483,-0.1533270627260208
1789038129897524000,3.39152392578125,0.09040798991918564,0.6731730103492737,-0.1331685185432434
1789038129914778000,3.408778076171875,-0.08918625861406326,0.5106829404830933,-0.3194822669029236
1789038129932032500,3.426032470703125,-0.07147117704153061,0.9749401807785034,-0.2052505612373352
1789038129949286700,3.44328662109375,0.43432486057281494,1.1148282289505005,-0.010995565913617611
1789038129966541000,3.460541015625,0.963333785533905,0.6921098232269287,0.5510000586509705
1789038129983795200,3.477795166015625,1.3597849607467651,1.535714030265808,0.841160774230957
1789038130001049300,3.49504931640625,1.0574069023132324,1.204014539718628,0.3249800503253937
1789038130018303700,3.5123037109375,2.2540910243988037,0.9590576887130737,0.21807873249053955
1789038130035558000,3.529557861328125,3.3347108364105225,1.4624103307724,0.4147771894931793
1789038130052812300,3.546812255859375,2.0042474269866943,-0.35613417625427246,-0.46975502371788025
1789038130070066400,3.56406640625,1.7220277786254883,-1.7348560094833374,-1.0861176252365112
1789038130087320600,3.581320556640625,1.9468261003494263,-1.0567960739135742,-0.3646862804889679
1789038130104575000,3.598574951171875,1.833205223083496,-0.09101885557174683,0.370184063911438
1789038130121829000,3.6158291015625,1.6676608324050903,0.6035344004631042,-0.1484401375055313
1789038130139083500,3.63308349609375,1.9370522499084473,0.4373791813850403,-0.0616973415017128
1789038130156337700,3.650337646484375,2.478278398513794,0.1740964651107788,0.3995055556297302
1789038130173592000,3.667592041015625,1.998138666152954,-0.16615521907806396,0.8124501705169678
1789038130190846200,3.68484619140625,1.359174132347107,-0.4428769648075104,0.5913171172142029
1789038130208100600,3.7021005859375,0.8943060636520386,-0.14660754799842834,-0.48013970255851746
1789038130225354800,3.719354736328125,0.4367683231830597,0.35063639283180237,-1.163697361946106
1789038130242609000,3.73660888671875,0.25900667905807495,0.4276053309440613,-0.8350521326065063
1789038130259863300,3.75386328125,0.40744680166244507,0.08674279600381851,0.04459312930703163
1789038130277117400,3.771117431640625,0.28527384996414185,-0.24801109731197357,0.28466299176216125
1789038130294371800,3.788371826171875,0.19914191961288452,-0.13683371245861053,-0.38850998878479004
1789038130311626000,3.8056259765625,0.5338957905769348,0.07941242307424545,-0.22174391150474548
1789038130328880400,3.82288037109375,0.7953459620475769,-0.2657261788845062,0.031154103577136993
1789038130346134500,3.840134521484375,0.8491020202636719,-0.16859868168830872,-0.19120067358016968
1789038130363389000,3.857388916015625,0.9578359723091125,0.12705987691879272,-0.11178825795650482
1789038130380643000,3.87464306640625,0.9688315391540527,0.3946186602115631,-0.021991131827235222
1789038130397897500,3.8918974609375,0.9492838382720947,0.09590577334165573,0.15760311484336853
1789038130415151600,3.909151611328125,0.8350521326065063,-0.008552107028663158,0.8002328872680664
1789038130432406000,3.926406005859375,0.5962040424346924,-0.3744601011276245,1.6059634685516357
1789038130449660200,3.94366015625,0.6719512343406677,-0.13133592903614044,2.167959213256836
1789038130466914600,3.96091455078125,0.6743947267532349,1.5100576877593994,1.775783896446228
1789038130484168700,3.978168701171875,0.4874700903892517,2.4434590339660645,0.42271843552589417
1789038130501423000,3.995423095703125,0.22724169492721558,2.154520034790039,-0.500298261642456
1789038130518677200,4.01267724609375,-0.03909534588456154,0.45875945687294006,-0.6682860851287842
1789038130535931600,4.029931640625,0.0513126403093338,0.030543239787220955,-0.8747583627700806
1789038130553185800,4.047185791015625,0,0.049480047076940536,-1.4666863679885864
1789038130570440200,4.064440185546875,-0.21258094906806946,-0.8075632452964783,-1.68354332447052
1789038130587694300,4.0816943359375,-0.2608392536640167,-1.525940179824829,-1.2101231813430786
1789038130604948700,4.09894873046875,-0.12522727251052856,-1.3402373790740967,-0.3903425931930542
1789038130622203100,4.116203125,0.008552107028663158,-1.0604612827301025,-0.3799578845500946
1789038130639457300,4.133457275390625,-0.19303326308727264,-0.5894845128059387,-0.43371400237083435
1789038130656711700,4.150711669921875,-0.42821621894836426,0.12522727251052856,-0.16310089826583862
1789038130673965800,4.1679658203125,-0.4202749729156494,-0.13194678723812103,0.0824667438864708
1789038130691220200,4.18522021484375,-0.2675587832927704,-0.28466299176216125,0.2663370370864868
1789038130708474400,4.202474365234375,-0.3536907136440277,-0.19425499439239502,0.2809978127479553
1789038130725728800,4.219728759765625,-0.66645348072052,-0.4379900395870209,0.6298015713691711
1789038130742983000,4.23698291015625,-0.9028581380844116,-0.4062250852584839,0.5894845128059387
1789038130760237300,4.2542373046875,-1.1698060035705566,-0.35674503445625305,0.034208428114652634
1789038130777491500,4.271491455078125,-1.0201442241668701,-0.8307760953903198,0.0256563201546669
1789038130794745900,4.288745849609375,-0.851545512676239,-0.40378162264823914,0.0818558782339096
1789038130812000000,4.306,-0.42821621894836426,-0.030543239787220955,0.11362084746360779
1789038130829254400,4.32325439453125,-0.09651663154363632,0.07452550530433655,0.26389357447624207
1789038130846508500,4.340508544921875,0.02260199747979641,-0.33536475896835327,0.49113526940345764
1789038130863763000,4.357762939453125,0.01588248461484909,-0.11484257876873016,0.6273581385612488
1789038130881017000,4.37501708984375,-0.11423171311616898,0.25350889563560486,0.34086254239082336
1789038130898271500,4.392271484375,-0.2993237376213074,0.10201441496610641,-0.2370155304670334
1789038130915525600,4.409525634765625,-0.17165300250053406,-0.24862197041511536,-0.4612029194831848
1789038130932780000,4.426780029296875,-0.06291907280683517,-0.14782927930355072,-0.4105011224746704
1789038130950034200,4.4440341796875,-0.03298669680953026,0.046425722539424896,-0.16187916696071625
1789038130967288600,4.46128857421875,0.017715077847242355,-0.018325943499803543,0.08307760953903198
1789038130984542700,4.478542724609375,0.10751219838857651,-0.2577849328517914,0.24006985127925873
1789038131001797000,4.495797119140625,0.14721840620040894,-0.3042106628417969,0.4563159942626953
1789038131019051300,4.51305126953125,0.11423171311616898,-0.027488915249705315,0.4050033390522003
1789038131036305400,4.530305419921875,-0.07574722915887833,0.25900667905807495,-0.010384701192378998
1789038131053559800,4.547559814453125,-0.31459537148475647,0.3995055556297302,-0.6395754218101501
1789038131070814000,4.56481396484375,-0.25961753726005554,0.09407317638397217,-0.7470875978469849
1789038131088068400,4.582068359375,-0.20952661335468292,0.1588248461484909,-0.3799578845500946
1789038131105322500,4.599322509765625,-0.17104214429855347,0.21930044889450073,0.01588248461484909
1789038131122577000,4.616576904296875,-0.13072505593299866,0.277332603931427,0.08429934084415436
1789038131139831000,4.6338310546875,-0.24984370172023773,0.19364413619041443,-0.024434590712189674
1789038131157085400,4.65108544921875,-0.33047783374786377,0.2052505612373352,-0.09101885557174683
1789038131174339600,4.668339599609375,-0.3170388340950012,0.08979712426662445,0.002443459117785096
1789038131191594000,4.685593994140625,-0.2822195291519165,0.21135921776294708,-0.026878049597144127
1789038131208848100,4.70284814453125,-0.17837251722812653,0.09896009415388107,-0.03543015569448471
1789038131226102500,4.7201025390625,-0.056199558079242706,0.07513637095689774,-0.036651886999607086
1789038131243356700,4.737356689453125,0.04520399495959282,0.13683371245861053,-0.040317077189683914
1789038131260611000,4.754611083984375,0.17348559200763702,-0.003665188793092966,-0.0720820426940918
1789038131277865200,4.771865234375,0.2828303873538971,-0.11545344442129135,-0.20769402384757996
1789038131295119600,4.78911962890625,0.19425499439239502,-0.143553227186203,-0.11239911615848541
1789038131312373800,4.806373779296875,0.10079269111156464,-0.23762640357017517,0.11423171311616898
1789038131329628200,4.823628173828125,0.043371398001909256,-0.21807873249053955,0.13500112295150757
1789038131346882300,4.84088232421875,0.06291907280683517,-0.15515965223312378,0.09529490768909454
1789038131364136400,4.858136474609375,0.06108647957444191,-0.10995566099882126,0.09101885557174683
1789038131381390800,4.875390869140625,0.06963858753442764,-0.05925388261675835,0.09896009415388107
1789038131398645000,4.89264501953125,0.11545344442129135,-0.08124501258134842,0.06352993845939636
1789038131415899400,4.9098994140625,0.13011419773101807,-0.10873392969369888,0.03298669680953026
1789038131433153500,4.927153564453125,0.16310089826583862,-0.1649334877729416,0.03298669680953026
1789038131450408000,4.944407958984375,0.1997527778148651,-0.21258094906806946,0.039706211537122726
1789038131467662000,4.961662109375,0.20952661335468292,-0.19608759880065918,0.03481929376721382
1789038131484916500,4.97891650390625,0.19242240488529205,-0.1893680840730667,0.03848448023200035
1789038131502170600,4.996170654296875,0.14660754799842834,-0.22724169492721558,0.023823726922273636
1789038131519425000,5.013425048828125,0.13744457066059113,-0.2761108875274658,0.01954767294228077
1789038131536679200,5.03067919921875,0.11911863088607788,-0.2816086709499359,0.03237583488225937
1789038131553933600,5.04793359375,0.13500112295150757,-0.24495677649974823,0.04581485688686371
1789038131571187700,5.065187744140625,0.13927717506885529,-0.21258094906806946,0.03237583488225937
1789038131588442000,5.082442138671875,0.12767073512077332,-0.20280711352825165,0.014660755172371864
1789038131605696300,5.0996962890625,0.13072505593299866,-0.16859868168830872,0
1789038131622950700,5.11695068359375,0.1331685185432434,-0.09712749719619751,0.009773836471140385
1789038131640204800,5.134204833984375,0.12461641430854797,-0.056810423731803894,0.03176496922969818
1789038131657459200,5.151459228515625,0.11911863088607788,-0.05436696484684944,0.03237583488225937
1789038131674713300,5.16871337890625,0.11117739230394363,-0.05436696484684944,0.031154103577136993
1789038131691967700,5.1859677734375,0.11239911615848541,-0.033597562462091446,0.024434590712189674
1789038131709222000,5.203221923828125,0.12156209349632263,-0.03298669680953026,0.014049889519810677
1789038131726476300,5.220476318359375,0.14477495849132538,-0.02932151034474373,-0.006108647678047419
1789038131743730400,5.23773046875,0.15577052533626556,-0.010995565913617611,-0.029932374134659767
1789038131760984800,5.25498486328125,0.17287473380565643,0.009773836471140385,-0.053145237267017365
1789038131778239000,5.272239013671875,0.16187916696071625,0.021380268037319183,-0.0769689604640007
1789038131795493400,5.289493408203125,0.16004657745361328,0.037262752652168274,-0.09285144507884979
1789038131812747500,5.30674755859375,0.13561198115348816,0.040317077189683914,-0.09285144507884979
1789038131830001700,5.324001708984375,0.15699224174022675,0.05742128938436508,-0.08613193035125732
1789038131847256000,5.341256103515625,0.185092031955719,0.07757982611656189,-0.06719512492418289
1789038131864510200,5.35851025390625,0.18814635276794434,0.09529490768909454,-0.05864302068948746
1789038131881764600,5.3757646484375,0.18387030065059662,0.12461641430854797,-0.06841685622930527
1789038131899018800,5.393018798828125,0.1893680840730667,0.12278381735086441,-0.08368847519159317
1789038131916273200,5.410273193359375,0.20830489695072174,0.12767073512077332,-0.0922405794262886
1789038131933527300,5.42752734375,-0.13439024984836578,0.4667007029056549,0.17653992772102356
1789038131950781700,5.44478173828125,-0.2101374864578247,0.48991355299949646,0.1948658674955368
1789038131968035800,5.462035888671875,0.007330377586185932,0.22968515753746033,0.037262752652168274
1789038131985290200,5.479290283203125,0.11911863088607788,0.24312418699264526,-0.06475166976451874
1789038132002544400,5.49654443359375,0.14538581669330597,0.24434591829776764,-0.0360410213470459
1789038132019798800,5.513798828125,0.1130099818110466,0.1533270627260208,0.010995565913617611
1789038132037053000,5.531052978515625,0.046425722539424896,0.07391463965177536,-0.08857539296150208
1789038132054307300,5.548307373046875,-0.014049889519810677,0.02626718580722809,-0.18264856934547424
1789038132071561500,5.5655615234375,-0.04276053607463837,-0.01893680728971958,-0.25900667905807495
1789038132088815900,5.58281591796875,-0.0409279391169548,-0.0720820426940918,-0.3084867000579834
1789038132106070000,5.600070068359375,-0.050090912729501724,-0.1081230640411377,-0.2993237376213074
1789038132123324400,5.617324462890625,-0.01893680728971958,-0.14110976457595825,-0.2467893660068512
1789038132140578600,5.63457861328125,0.007941242307424545,-0.09162971377372742,-0.22296564280986786
1789038132157833000,5.6518330078125,0.010995565913617611,-0.08552107214927673,-0.17348559200763702
1789038132175087000,5.669087158203125,0.03176496922969818,-0.07757982611656189,-0.10995566099882126
1789038132192341500,5.686341552734375,0.10934479534626007,-0.0616973415017128,-0.03543015569448471
1789038132209595600,5.703595703125,0.1337793916463852,-0.01954767294228077,0.04459312930703163
1789038132226850000,5.72085009765625,0.2009745091199875,-0.059864748269319534,0.13072505593299866
1789038132244104200,5.738104248046875,0.24373504519462585,-0.10934479534626007,0.18142683804035187
1789038132261358600,5.755358642578125,0.2822195291519165,-0.08491020649671555,0.18570289015769958
1789038132278612700,5.77261279296875,0.3249800503253937,-0.06719512492418289,0.17898337543010712
1789038132295867100,5.7898671875,0.3787361681461334,-0.08491020649671555,0.15821397304534912
1789038132313121300,5.807121337890625,0.41294458508491516,-0.07330377399921417,0.1233946830034256
1789038132330375700,5.824375732421875,0.41294458508491516,-0.07635809481143951,0.09957095980644226
1789038132347629800,5.8416298828125,0.3854556679725647,-0.001832594396546483,0.09285144507884979
1789038132364884000,5.858884033203125,0.328645259141922,0.049480047076940536,0.08368847519159317
1789038132382138400,5.876138427734375,0.2724456787109375,0.10201441496610641,0.026878049597144127
1789038132399392500,5.893392578125,0.1844811588525772,0.11911863088607788,-0.06536252796649933
1789038132416647000,5.91064697265625,0.08429934084415436,0.1496618688106537,-0.12034036219120026
1789038132433901000,5.927901123046875,-0.025045456364750862,0.20402882993221283,-0.16187916696071625
1789038132451155500,5.945155517578125,-0.13683371245861053,0.26389357447624207,-0.2938259541988373
1789038132468409600,5.96240966796875,-0.26022839546203613,0.3280344009399414,-0.5027416944503784
1789038132485664000,5.9796640625,-0.4673115611076355,0.46059203147888184,-0.7287616729736328
1789038132502918100,5.996918212890625,-0.721431314945221,0.5613847374916077,-0.9016364216804504
1789038132520172500,6.014172607421875,-0.9963204264640808,0.6719512343406677,-1.0225876569747925
1789038132537426700,6.0314267578125,-1.2834268808364868,0.6798924803733826,-1.1166608333587646
1789038132554681000,6.04868115234375,-1.554650902748108,0.5894845128059387,-1.2736530303955078
1789038132571935200,6.065935302734375,-1.8558071851730347,0.554665207862854,-1.4672971963882446
1789038132589189600,6.083189697265625,-2.1300854682922363,0.6621774435043335,-1.5674790143966675
1789038132606443800,6.10044384765625,-2.2345433235168457,0.31520622968673706,-1.4110976457595825
1789038132623698200,6.1176982421875,-2.2064435482025146,-0.15515965223312378,-0.9859357476234436
1789038132640952300,6.134952392578125,-2.1526875495910645,-0.5589412450790405,-0.5962040424346924
1789038132658206700,6.152206787109375,-2.1166465282440186,-0.7171552777290344,-0.5503891706466675
1789038132675460900,6.1694609375,-2.0470077991485596,-0.7745765447616577,-0.6676751971244812
1789038132692715300,6.18671533203125,-2.0476186275482178,-0.7525854110717773,-0.7916807532310486
1789038132709969400,6.203969482421875,-2.190561056137085,-0.7250964641571045,-0.9370665550231934
1789038132727223800,6.221223876953125,-2.360381603240967,-0.667064368724823,-1.0403027534484863
1789038132744478000,6.23847802734375,-2.4123051166534424,-0.7605266571044922,-0.896138608455658
1789038132761732400,6.255732421875,-2.445291757583618,-0.8252783417701721,-0.8735366463661194
1789038132778986500,6.272986572265625,-2.528369426727295,-0.7672461867332458,-0.8662062287330627
1789038132796241000,6.290240966796875,-2.618166446685791,-0.7910698652267456,-0.8362739086151123
1789038132813495000,6.3074951171875,-2.4544546604156494,-0.8985821008682251,-0.813671886920929
1789038132830749400,6.32474951171875,-2.20461106300354,-0.8344413042068481,-0.7947350740432739
1789038132848003600,6.342003662109375,-2.2626430988311768,-1.0421353578567505,-0.6969966888427734
1789038132865258000,6.359258056640625,-2.212552309036255,-0.896138608455658,-0.5998691916465759
1789038132882512100,6.37651220703125,-1.933387041091919,-0.5198459029197693,-0.6456840634346008
1789038132899766500,6.3937666015625,-1.6798781156539917,-0.34636032581329346,-0.7226530313491821
1789038132917020700,6.411020751953125,-1.5784746408462524,-0.08857539296150208,-0.5442805290222168
1789038132934275000,6.428275146484375,-1.380554437637329,0.1288924664258957,-0.3439168632030487
1789038132951529200,6.445529296875,-1.0207550525665283,0.039706211537122726,-0.23335035145282745
1789038132968783600,6.46278369140625,-0.6682860851287842,-0.12644900381565094,-0.2730565667152405
1789038132986037800,6.480037841796875,-0.4776962697505951,-0.3848448097705841,-0.2528980076313019
1789038133003292200,6.497292236328125,-0.389120876789093,-0.07757982611656189,-0.06475166976451874
1789038133020546300,6.51454638671875,-0.1954767256975174,0.10751219838857651,-0.009162971749901772
1789038133037800700,6.53180078125,-0.0922405794262886,0.1441640853881836,-0.0665842592716217
1789038133055054800,6.549054931640625,-0.05497783049941063,0.1747073233127594,-0.06780599057674408
1789038133072309000,6.56630908203125,-0.01893680728971958,0.22235478460788727,-0.07513637095689774
1789038133089563400,6.5835634765625,-0.18692462146282196,0.006719512399286032,-0.18631376326084137
1789038133106817500,6.600817626953125,-0.740368127822876,-0.2608392536640167,-0.17898337543010712
1789038133124072000,6.618072021484375,-1.0238093137741089,-0.40927940607070923,-0.08613193035125732
1789038133141326000,6.635326171875,-0.9169080257415771,-0.6597339510917664,-0.2816086709499359
1789038133158580500,6.65258056640625,-0.8387173414230347,-0.8582650423049927,-0.22296564280986786
1789038133175834600,6.669834716796875,-0.6133082509040833,-0.6609556674957275,-0.16737695038318634
1789038133193089000,6.687089111328125,-0.4263836145401001,-0.5900954008102417,-0.2724456787109375
1789038133210343200,6.70434326171875,-0.2816086709499359,-0.379347026348114,-0.39767298102378845
1789038133227597600,6.72159765625,-0.3042106628417969,-0.15638138353824615,-0.4563159942626953
1789038133244851700,6.738851806640625,-0.4202749729156494,-0.026878049597144127,-0.4318813979625702
1789038133262106000,6.756106201171875,-0.49052441120147705,-0.08307760953903198,-0.3689623177051544
1789038133279360300,6.7733603515625,-0.6096430420875549,-0.3329212963581085,-0.31520622968673706
1789038133296614700,6.79061474609375,-0.7434224486351013,-0.5259546041488647,-0.2993237376213074
1789038133313868800,6.807868896484375,-0.7898481488227844,-0.6352993845939636,-0.3445277214050293
1789038133331123200,6.825123291015625,-0.676227331161499,-0.5283980369567871,-0.4612029194831848
1789038133348377300,6.84237744140625,-0.6120865345001221,-0.3805687427520752,-0.5925388336181641
1789038133365631700,6.8596318359375,-0.6609556674957275,-0.22357651591300964,-0.7165443897247314
1789038133382886000,6.876885986328125,-0.833219587802887,0.004886918235570192,-0.7220421433448792
1789038133400140300,6.894140380859375,-0.8998038172721863,0.14660754799842834,-0.5980366468429565
1789038133417394400,6.91139453125,-1.046411395072937,0.05192350596189499,-0.5595521330833435
1789038133434648800,6.92864892578125,-0.94439697265625,-0.06414080411195755,-0.5998691916465759
1789038133451903000,6.945903076171875,-0.6310232877731323,-0.14233149588108063,-0.6554579138755798
1789038133469157400,6.963157470703125,-0.3384190797805786,-0.21868959069252014,-0.6401863098144531
1789038133486411500,6.98041162109375,-0.17531819641590118,-0.1954767256975174,-0.6908880472183228
1789038133503666000,6.997666015625,-0.04276053607463837,-0.35063639283180237,-0.5192350745201111
1789038133520920000,7.014920166015625,0.053145237267017365,-0.3652971386909485,-0.3744601011276245
1789038133538174500,7.032174560546875,0.0409279391169548,-0.2657261788845062,-0.3805687427520752
1789038133555428600,7.0494287109375,0.043371398001909256,-0.2528980076313019,-0.38667741417884827
1789038133572683000,7.06668310546875,0.05864302068948746,-0.2162461280822754,-0.39767298102378845
1789038133589937200,7.083937255859375,0.023212861269712448,-0.19303326308727264,-0.42394015192985535
1789038133607191600,7.101191650390625,-0.02260199747979641,-0.17653992772102356,-0.3274235129356384
1789038133624445700,7.11844580078125,-0.10690133273601532,-0.056810423731803894,-0.19608759880065918
1789038133641700000,7.1357001953125,-0.09529490768909454,0.06414080411195755,-0.020158538594841957
1789038133658954200,7.152954345703125,0.13683371245861053,-0.002443459117785096,0.14294235408306122
1789038133676208400,7.17020849609375,0.2260199636220932,0.1490510106086731,0.34636032581329346
1789038133693462800,7.187462890625,0.40927940607070923,0.3023780584335327,0.5253437161445618
1789038133710717200,7.20471728515625,0.5338957905769348,0.40927940607070923,0.471587598323822
1789038133727971300,7.221971435546875,0.1178968995809555,0.23029601573944092,0.13194678723812103
1789038133745225500,7.2392255859375,-0.18753549456596375,0.050090912729501724,-0.11178825795650482
1789038133762479900,7.25647998046875,-0.2883281707763672,-0.13622283935546875,0.2052505612373352
1789038133779734000,7.273734130859375,-0.7696896195411682,-0.11178825795650482,0.4105011224746704
1789038133796988400,7.290988525390625,-0.48013970255851746,-0.01588248461484909,0.5027416944503784
1789038133814242600,7.30824267578125,-0.13500112295150757,0.5241219997406006,0.49541133642196655
1789038133831497000,7.3254970703125,0.17653992772102356,0.056199558079242706,0.3488037884235382
1789038133848751000,7.342751220703125,0.08124501258134842,-0.07635809481143951,0.14049890637397766
1789038133866005500,7.360005615234375,-0.07574722915887833,0.23029601573944092,0.033597562462091446
1789038133883259600,7.377259765625,-0.15088360011577606,0.36285367608070374,0.17531819641590118
1789038133900514000,7.39451416015625,-0.15699224174022675,0.49052441120147705,0.21868959069252014
1789038133917768200,7.411768310546875,-0.11423171311616898,0.5772672295570374,0.23762640357017517
1789038133935022600,7.429022705078125,-0.13011419773101807,0.6860011219978333,0.23884813487529755
1789038133952276700,7.44627685546875,-0.1747073233127594,0.6585122346878052,0.35185810923576355
1789038133969531100,7.46353125,-0.18203771114349365,0.49968740344047546,0.4831940531730652
1789038133986785300,7.480785400390625,-0.12644900381565094,0.4105011224746704,0.5540543794631958
1789038134004039700,7.498039794921875,-0.0818558782339096,0.4221075773239136,0.6206386089324951
1789038134021293800,7.5152939453125,-0.06475166976451874,0.5106829404830933,0.6921098232269287
1789038134038548200,7.53254833984375,-0.039706211537122726,0.48930269479751587,0.7641918659210205
1789038134055802400,7.54980224609375,-0.021991131827235222,0.4764745235443115,0.7409789562225342
1789038134073056800,7.567056884765625,-0.07147117704153061,0.5662716627120972,0.7104357481002808
1789038134090311000,7.584310791015625,-0.08002328872680664,0.6139190793037415,0.7055488228797913
1789038134107565300,7.6015654296875,-0.06291907280683517,0.6505709886550903,0.6585122346878052
1789038134124819500,7.6188193359375,-0.0665842592716217,0.6102539300918579,0.6181951761245728
1789038134142073900,7.636073974609375,-0.06597339361906052,0.6542361974716187,0.6078104376792908
1789038134159328000,7.653327880859375,-0.008552107028663158,0.6261364221572876,0.6169734001159668
1789038134176582400,7.67058251953125,0.06352993845939636,0.6163625717163086,0.6114756464958191
1789038134193836500,7.68783642578125,0.10995566099882126,0.7275399565696716,0.6059778332710266
1789038134211091000,7.705091064453125,0.15271618962287903,0.8020654320716858,0.6145299673080444
1789038134228345000,7.722344970703125,0.19669845700263977,0.7122683525085449,0.6243038177490234
1789038134245599500,7.739599609375,0.2626718580722809,0.6835576891899109,0.6811142563819885
1789038134262853600,7.756853515625,0.2987128794193268,0.7476984858512878,0.6817250847816467
1789038134280108000,7.77410791015625,0.2822195291519165,0.7183769941329956,0.6432406306266785
1789038134297362200,7.791362060546875,0.28588470816612244,0.720820426940918,0.6511818766593933
1789038134314616600,7.808616455078125,0.3017672002315521,0.7189878225326538,0.6365211009979248
1789038134331870700,7.82587060546875,0.30054548382759094,0.6615665555000305,0.5937605500221252
1789038134349125000,7.843125,0.29993459582328796,0.5760455131530762,0.5839866995811462
1789038134366379300,7.860379150390625,0.35613417625427246,0.6866120100021362,0.5607738494873047
1789038134383633700,7.877633544921875,0.4471530318260193,0.7147117853164673,0.5235111117362976
1789038134400887800,7.8948876953125,0.5314523577690125,0.544891357421875,0.4776962697505951
1789038134418142000,7.912141845703125,0.5491674542427063,0.5839866995811462,0.41294458508491516
1789038134435396400,7.929396240234375,0.48991355299949646,0.5247328281402588,0.23457208275794983
1789038134452650500,7.946650390625,0.4667007029056549,0.6420188546180725,0.19914191961288452
1789038134469905000,7.96390478515625,0.5656607747077942,0.66645348072052,0.1740964651107788
1789038134487159300,7.9811591796875,0.7379246354103088,0.40927940607070923,0.11972949653863907
1789038134504413400,7.998413330078125,0.8826996088027954,0.31459537148475647,0.0977383628487587
1789038134521667600,8.01566748046875,0.9590576887130737,0.5308414697647095,0.0824667438864708
1789038134538922000,8.032921875,0.8222240209579468,0.7440332770347595,0.08796452730894089
1789038134556176100,8.050176025390625,0.647516667842865,0.8833104968070984,0.07269290834665298
1789038134573430500,8.067430419921875,0.593149721622467,0.9505056142807007,0.0769689604640007
1789038134590684700,8.0846845703125,0.6737838387489319,0.8277217745780945,0.11056652665138245
1789038134607939000,8.10193896484375,0.8717040419578552,0.739757239818573,0.13439024984836578
1789038134625193200,8.119193115234374,1.128878116607666,0.7550288438796997,0.20830489695072174
1789038134642447600,8.136447509765626,1.204014539718628,0.2822195291519165,0.3481929302215576
1789038134659701800,8.15370166015625,1.3103049993515015,0.3121519088745117,-0.04276053607463837
1789038134676956200,8.1709560546875,1.4288127422332764,0.7855721116065979,-0.21380266547203064
1789038134694210300,8.188210205078125,1.5033382177352905,0.7544180154800415,-0.15821397304534912
1789038134711464700,8.205464599609375,1.6218459606170654,0.5864301919937134,-0.18631376326084137
1789038134728718800,8.22271875,1.703091025352478,0.7800742983818054,-0.25534147024154663
1789038134745973200,8.23997314453125,1.6224569082260132,0.9749401807785034,-0.09834922850131989
1789038134763227400,8.257227294921876,1.3756674528121948,0.7861829996109009,0.01649334840476513
1789038134780481800,8.274481689453125,1.1820234060287476,0.4269944727420807,0.009773836471140385
1789038134797736000,8.29173583984375,0.9700532555580139,0.22174391150474548,-0.07513637095689774
1789038134814990300,8.308990234375,0.7000510096549988,0.20158538222312927,-0.18753549456596375
1789038134832244500,8.326244384765625,0.48502662777900696,0.003665188793092966,-0.32681265473365784
1789038134849499000,8.343498779296874,0.2528980076313019,0.05497783049941063,-0.42882707715034485
1789038134866753000,8.3607529296875,0.0665842592716217,0.2211330533027649,-0.4062250852584839
1789038134884007400,8.37800732421875,-0.0616973415017128,0.11056652665138245,-0.40805765986442566
1789038134901261600,8.395261474609375,-0.21807873249053955,-0.007330377586185932,-0.4825831651687622
1789038134918515700,8.412515625,-0.3292561173439026,0.01649334840476513,-0.4068359434604645
1789038134935770000,8.42977001953125,-0.36224281787872314,0.0256563201546669,-0.15515965223312378
1789038134953024300,8.447024169921875,-0.3842339515686035,-0.056199558079242706,0.020769402384757996
1789038134970278700,8.464278564453124,-0.411722868680954,-0.09957095980644226,0.1331685185432434
1789038134987532800,8.48153271484375,-0.41783151030540466,-0.11178825795650482,0.07574722915887833
1789038135004787200,8.498787109375,-0.43921178579330444,-0.3170388340950012,-0.04825831577181816
1789038135022041300,8.516041259765625,-0.26878049969673157,-0.5186241865158081,-0.04520399495959282
1789038135039295700,8.533295654296875,0.000610864779446274,-0.5216785073280334,0.05803215503692627
1789038135056550000,8.5505498046875,0.07269290834665298,-0.5809323787689209,-0.03543015569448471
1789038135073804300,8.56780419921875,0.03481929376721382,-0.5937605500221252,-0.1948658674955368
1789038135091058400,8.585058349609374,0.15515965223312378,-0.4764745235443115,-0.24006985127925873
1789038135108312800,8.602312744140624,0.16859868168830872,-0.46608981490135193,-0.18814635276794434
1789038135125567000,8.61956689453125,0.09101885557174683,-0.4862483739852905,-0.2706131041049957
1789038135142821400,8.6368212890625,0.024434590712189674,-0.48930269479751587,-0.40255987644195557
1789038135160075500,8.654075439453125,-0.03176496922969818,-0.42882707715034485,-0.4477638900279999
1789038135177330000,8.671329833984375,-0.05192350596189499,-0.24006985127925873,-0.3964512348175049
1789038135194584000,8.688583984375,-0.037262752652168274,-0.000610864779446274,-0.3530798554420471
1789038135211838500,8.70583837890625,-0.05436696484684944,0.18814635276794434,-0.3585776388645172
1789038135229092600,8.723092529296874,-0.1026252806186676,0.3347539007663727,-0.29626941680908203
1789038135246347000,8.740346923828126,-0.20769402384757996,0.46608981490135193,-0.2309068888425827
1789038135263601200,8.75760107421875,-0.36163195967674255,0.5595521330833435,-0.3225366175174713
1789038135280855600,8.77485546875,-0.44959646463394165,0.5528326034545898,-0.4111120104789734
1789038135298109700,8.792109619140625,-0.4764745235443115,0.4471530318260193,-0.3750709891319275
1789038135315364000,8.809364013671875,-0.5119046568870544,0.33719736337661743,-0.35796675086021423
1789038135332618200,8.8266181640625,-0.5723803043365479,0.23762640357017517,-0.45387253165245056
1789038135349872600,8.84387255859375,-0.5888736248016357,0.13133592903614044,-0.5577195286750793
1789038135367126800,8.861126708984376,-0.6316341757774353,0.059864748269319534,-0.544891357421875
1789038135384381000,8.878380859375,-0.7428115606307983,-0.04520399495959282,-0.4923570156097412
1789038135401635300,8.89563525390625,-0.7953459620475769,-0.21258094906806946,-0.35735589265823364
1789038135418889500,8.912889404296875,-0.7996219992637634,-0.2761108875274658,-0.22846342623233795
1789038135436143900,8.930143798828125,-0.7959567904472351,-0.3176496922969818,-0.17348559200763702
1789038135453398000,8.94739794921875,-0.8032872080802917,-0.4673115611076355,-0.1698204129934311
1789038135470652400,8.96465234375,-0.7690787315368652,-0.5015199780464172,-0.17898337543010712
1789038135487906600,8.981906494140626,-0.6646208763122559,-0.3848448097705841,-0.14782927930355072
1789038135505161000,8.999160888671875,-0.554665207862854,-0.25900667905807495,-0.15699224174022675
1789038135522415000,9.0164150390625,-0.5723803043365479,-0.2156352698802948,-0.23518294095993042
1789038135539669500,9.03366943359375,-0.6872228980064392,-0.21991132199764252,-0.30115634202957153
1789038135556923600,9.050923583984375,-0.7550288438796997,-0.2981020212173462,-0.33231043815612793
1789038135574178000,9.068177978515624,-0.8283326625823975,-0.3591884970664978,-0.3970620930194855
1789038135591432200,9.08543212890625,-0.9107993841171265,-0.28588470816612244,-0.481361448764801
1789038135608686600,9.1026865234375,-1.0855066776275635,-0.2632827162742615,-0.46364638209342957
1789038135625940700,9.119940673828125,-1.3213005065917969,-0.3066541254520416,-0.36285367608070374
1789038135643195100,9.137195068359375,-1.4202606678009033,-0.33658650517463684,-0.2162461280822754
1789038135660449300,9.15444921875,-1.3109158277511597,-0.39828383922576904,-0.21197007596492767
1789038135677703700,9.17170361328125,-1.1655299663543701,-0.41416633129119873,-0.3445277214050293
1789038135694957800,9.188957763671874,-1.0873392820358276,-0.4929678738117218,-0.4776962697505951
1789038135712212200,9.206212158203124,-1.053741693496704,-0.5381718873977661,-0.5766563415527344
1789038135729466400,9.22346630859375,-1.1026109457015991,-0.48441576957702637,-0.6298015713691711
1789038135746720500,9.240720458984375,-1.1710277795791626,-0.5503891706466675,-0.5784889459609985
1789038135763975000,9.257974853515625,-1.164919137954712,-0.5235111117362976,-0.5009090900421143
1789038135781229000,9.27522900390625,-1.194240689277649,-0.46486809849739075,-0.5381718873977661
1789038135798483500,9.2924833984375,-1.193018913269043,-0.6175842881202698,-0.49968740344047546
1789038135815737600,9.309737548828124,-1.1117738485336304,-0.7531962990760803,-0.44348782300949097
1789038135832992000,9.326991943359374,-0.9975422024726868,-0.6169734001159668,-0.4477638900279999
1789038135850246100,9.34424609375,-0.9010255336761475,-0.7599157691001892,-0.3805687427520752
1789038135867500500,9.36150048828125,-0.9456186890602112,-0.8729257583618164,-0.2809978127479553
1789038135884754700,9.378754638671875,-0.9786053895950317,-0.4728093445301056,-0.33719736337661743
1789038135902009000,9.396009033203125,-0.9547816514968872,-0.35613417625427246,-0.40744680166244507
1789038135919263200,9.41326318359375,-0.8930842876434326,0.05070177838206291,-0.4874700903892517
1789038135936517600,9.430517578125,-0.8014546036720276,0.15271618962287903,-0.2938259541988373
1789038135953771800,9.447771728515624,-0.6890554428100586,0.11117739230394363,-0.09285144507884979
1789038135971026200,9.465026123046876,-0.6010909676551819,-0.16310089826583862,0.000610864779446274
1789038135988280300,9.4822802734375,-0.4404335021972656,-0.2528980076313019,-0.08552107214927673
1789038136005534700,9.49953466796875,-0.39400777220726013,-0.13011419773101807,-0.23884813487529755
1789038136022788900,9.516788818359375,-0.35246896743774414,0.037262752652168274,-0.42271843552589417
1789038136040043300,9.534043212890625,-0.337808221578598,0.1496618688106537,-0.4221075773239136
1789038136057297400,9.55129736328125,-0.2516762912273407,0.0922405794262886,-0.43371400237083435
1789038136074551800,9.5685517578125,-0.05436696484684944,0.05864302068948746,-0.3500255048274994
1789038136091806000,9.585805908203126,0.16065743565559387,0.0665842592716217,-0.268169641494751
1789038136109060400,9.603060302734375,0.2828303873538971,0.13927717506885529,-0.24312418699264526
1789038136126314500,9.620314453125,0.3225366175174713,0.24801109731197357,-0.28466299176216125
1789038136143569000,9.63756884765625,0.3915643095970154,0.17776164412498474,-0.22785256803035736
1789038136160823000,9.654822998046875,0.4557051360607147,0.24862197041511536,-0.16004657745361328
1789038136178077400,9.672077392578124,0.4972439408302307,0.2779434621334076,-0.06108647957444191
1789038136195331600,9.68933154296875,0.5473348498344421,0.26878049969673157,-0.08124501258134842
1789038136212586000,9.7065859375,0.6047561168670654,0.2003636509180069,-0.043371398001909256
1789038136229840100,9.723840087890625,0.6731730103492737,0.09590577334165573,0.0665842592716217
1789038136247094500,9.741094482421875,0.7440332770347595,0.08429934084415436,0.17715078592300415
1789038136264348700,9.7583486328125,0.7739656567573547,0.1496618688106537,0.21135921776294708
1789038136281603000,9.77560302734375,0.7733548283576965,0.2614501118659973,0.24312418699264526
1789038136298857200,9.792857177734374,0.7538071274757385,0.34697118401527405,0.3170388340950012
1789038136316111600,9.810111572265624,0.7794634699821472,0.5296197533607483,0.389120876789093
1789038136333365800,9.82736572265625,0.813060998916626,0.5503891706466675,0.4361574649810791
1789038136350620000,9.844619873046875,0.7916807532310486,0.5253437161445618,0.5186241865158081
1789038136367874300,9.861874267578125,0.7641918659210205,0.5925388336181641,0.5577195286750793
1789038136385128400,9.87912841796875,0.7312051653862,0.6921098232269287,0.5717694163322449
1789038136402382800,9.8963828125,0.7342594861984253,0.695164144039154,0.5510000586509705
1789038136419637000,9.913636962890624,0.8393282294273376,0.7965676784515381,0.5314523577690125
1789038136436891400,9.930891357421874,0.9077450633049011,0.7342594861984253,0.5528326034545898
1789038136454145500,9.9481455078125,0.8851430416107178,0.6713404059410095,0.5259546041488647
1789038136471400000,9.96539990234375,0.8246674537658691,0.4874700903892517,0.48930269479751587
1789038136488654000,9.982654052734375,0.7855721116065979,0.39278605580329895,0.4862483739852905
1789038136505908500,9.999908447265625,0.730594277381897,0.32192572951316833,0.46608981490135193
1789038136523162600,10.01716259765625,0.7079922556877136,0.10323614627122879,0.45998117327690125
1789038136540417000,10.0344169921875,0.758694052696228,-0.02260199747979641,0.4221075773239136
1789038136557671200,10.051671142578124,0.7947350740432739,0.03481929376721382,0.3811796307563782
1789038136574925600,10.068925537109376,0.9181297421455383,0.21380266547203064,0.2981020212173462
1789038136592179700,10.0861796875,1.0341941118240356,0.5345066785812378,0.17653992772102356
1789038136609434000,10.10343408203125,1.094058871269226,0.5784889459609985,0.08491020649671555
1789038136626688300,10.120688232421875,1.100778341293335,0.5968148708343506,0.026878049597144127
1789038136643942700,10.137942626953125,1.1655299663543701,0.5656607747077942,0.000610864779446274
1789038136661196800,10.15519677734375,1.196073293685913,0.4520399272441864,-0.02871064469218254
1789038136678451200,10.172451171875,1.227838158607483,0.4514290690422058,-0.03237583488225937
1789038136695705300,10.189705322265626,1.2174534797668457,0.2816086709499359,-0.05436696484684944
1789038136712959700,10.206959716796876,1.1062761545181274,0.24801109731197357,-0.15088360011577606
1789038136730214000,10.2242138671875,0.896138608455658,-0.04459312930703163,-0.021991131827235222
1789038136747468300,10.24146826171875,0.8124501705169678,-0.16676609218120575,0.07880155742168427
1789038136764722400,10.258722412109375,0.7929024696350098,-0.07330377399921417,0.08979712426662445
1789038136781976800,10.275976806640625,0.7605266571044922,-0.06230820715427399,0.05436696484684944
1789038136799231000,10.29323095703125,0.6206386089324951,-0.021991131827235222,0.007330377586185932
1789038136816485400,10.3104853515625,0.4557051360607147,-0.053756099194288254,0.15088360011577606
1789038136833739500,10.327739501953126,0.36163195967674255,-0.22785256803035736,0.20891575515270233
1789038136850993700,10.34499365234375,0.28466299176216125,-0.19914191961288452,0.2528980076313019
1789038136868248000,10.362248046875,0.2107483446598053,-0.3078758418560028,0.4312705397605896
1789038136885502200,10.379502197265625,0.13439024984836578,-0.5430588126182556,0.5253437161445618
1789038136902756600,10.396756591796875,-0.029932374134659767,-0.6982184648513794,0.35796675086021423
1789038136920010800,10.4140107421875,-0.1905898153781891,-0.7330377101898193,0.1380554437637329
1789038136937265200,10.43126513671875,-0.268169641494751,-0.5619956254959106,0.19364413619041443
1789038136954519300,10.448519287109375,-0.2663370370864868,-0.3799578845500946,0.36712974309921265
1789038136971773700,10.465773681640625,-0.13194678723812103,-0.2889390289783478,0.40927940607070923
1789038136989027800,10.48302783203125,-0.027488915249705315,-0.27855435013771057,0.33108872175216675
1789038137006282200,10.5002822265625,-0.06780599057674408,-0.27550002932548523,0.235793799161911
1789038137023536400,10.517536376953124,-0.17715078592300415,-0.19181154668331146,0.1484401375055313
1789038137040790800,10.534790771484374,-0.21991132199764252,-0.03543015569448471,0.07941242307424545
1789038137058045000,10.552044921875,-0.26878049969673157,0.059864748269319534,0.021380268037319183
1789038137075299300,10.56929931640625,-0.2706131041049957,0.143553227186203,0.009773836471140385
1789038137092553500,10.586553466796875,-0.2315177470445633,0.21502439677715302,-0.050090912729501724
1789038137109807900,10.603807861328125,-0.20891575515270233,0.2211330533027649,-0.1954767256975174
1789038137127062000,10.62106201171875,-0.21685700118541718,0.18570289015769958,-0.34086254239082336
1789038137144316200,10.638316162109374,-0.25045454502105713,0.164322629570961,-0.3750709891319275
1789038137161570600,10.655570556640624,-0.27977606654167175,0.2406807243824005,-0.36774060130119324
1789038137178824700,10.67282470703125,-0.3121519088745117,0.28954991698265076,-0.4007273018360138
1789038137196079000,10.6900791015625,-0.3451386094093323,0.21197007596492767,-0.39278605580329895
1789038137213333200,10.707333251953125,-0.4477638900279999,0.10201441496610641,-0.3530798554420471
1789038137230587600,10.724587646484375,-0.62857985496521,0.004886918235570192,-0.41233372688293457
1789038137247841800,10.741841796875,-0.767857015132904,-0.05192350596189499,-0.5259546041488647
1789038137265096200,10.75909619140625,-0.8936951756477356,-0.033597562462091446,-0.6682860851287842
1789038137282350300,10.776350341796874,-0.9975422024726868,-0.09162971377372742,-0.7195987105369568
1789038137299604700,10.793604736328126,-1.1209368705749512,-0.16676609218120575,-0.740368127822876
1789038137316859000,10.81085888671875,-1.202792763710022,-0.2926042377948761,-0.7189878225326538
1789038137334113300,10.82811328125,-1.3756674528121948,-0.48563748598098755,-0.7464767694473267
1789038137351367400,10.845367431640625,-1.6517783403396606,-0.6976075768470764,-0.7635809779167175
1789038137368621800,10.862621826171875,-1.5864158868789673,-0.7874047160148621,-0.7422007322311401
1789038137385876000,10.8798759765625,-1.4917317628860474,-0.8026763200759888,-0.6860011219978333
1789038137403130400,10.89713037109375,-1.4581341743469238,-0.6352993845939636,-0.6414080262184143
1789038137420384500,10.914384521484376,-1.5234967470169067,-0.6236929297447205,-0.5723803043365479
1789038137437638700,10.931638671875,-1.5503748655319214,-0.6139190793037415,-0.500298261642456
1789038137454893000,10.94889306640625,-1.4324779510498047,-0.7257073521614075,-0.41233372688293457
1789038137472147200,10.966147216796875,-1.3096940517425537,-0.8839213252067566,-0.3426951467990875
1789038137489401600,10.983401611328125,-1.3060288429260254,-1.062904715538025,-0.17776164412498474
1789038137506655700,11.00065576171875,-1.3878847360610962,-0.7507528066635132,-0.2834412455558777
1789038137523910100,11.01791015625,-1.36772620677948,-0.6835576891899109,-0.3842339515686035
1789038137541164300,11.035164306640626,-1.2290599346160889,-0.4050033390522003,-0.4214966893196106
1789038137558418700,11.052418701171876,-1.1129956245422363,-0.4050033390522003,-0.3133736252784729
1789038137575672800,11.0696728515625,-1.0219768285751343,-0.5070177912712097,-0.19181154668331146
1789038137592927200,11.08692724609375,-0.943175196647644,-0.5668824911117554,-0.11423171311616898
1789038137610181400,11.104181396484375,-0.9468404054641724,-0.43371400237083435,-0.04459312930703163
1789038137627435800,11.121435791015625,-0.8203914165496826,-0.07757982611656189,-0.01282816007733345
1789038137644690000,11.13868994140625,-0.6957749724388123,-0.02932151034474373,0.003665188793092966
1789038137661944300,11.1559443359375,-0.6035344004631042,-0.03481929376721382,0.07513637095689774
1789038137679198500,11.173198486328126,-0.48075059056282043,-0.09651663154363632,0.13072505593299866
1789038137696452900,11.190452880859375,-0.41416633129119873,0.15088360011577606,0.023823726922273636
1789038137713707000,11.20770703125,-0.37629270553588867,0.2211330533027649,-0.06047561392188072
1789038137730961400,11.22496142578125,-0.2577849328517914,0.29993459582328796,-0.09285144507884979
1789038137748215600,11.242215576171875,-0.10629047453403473,0.3481929302215576,-0.08063415437936783
1789038137765470000,11.259469970703124,0.03176496922969818,0.4361574649810791,-0.021991131827235222
1789038137782724000,11.27672412109375,0.14049890637397766,0.5204567909240723,0.04764745384454727
1789038137799978500,11.293978515625,0.26389357447624207,0.4923570156097412,0.2101374864578247
1789038137817232600,11.311232666015625,0.3298669755458832,0.40866854786872864,0.3640754222869873
1789038137834487000,11.328487060546875,0.34208428859710693,0.4789179861545563,0.4886918365955353
1789038137851741200,11.3457412109375,0.4007273018360138,0.5186241865158081,0.6414080262184143
1789038137868995600,11.36299560546875,0.47464191913604736,0.6200277805328369,0.7324268817901611
1789038137886249700,11.380249755859374,0.5888736248016357,0.7031053900718689,0.8191696405410767
1789038137903504100,11.397504150390626,0.6768381595611572,0.7709113359451294,0.8637627959251404
1789038137920758300,11.41475830078125,0.7568614482879639,0.8045089244842529,0.9010255336761475
1789038137938012700,11.4320126953125,0.8313869833946228,0.6780598759651184,0.9297361969947815
1789038137955266800,11.449266845703125,0.8112284541130066,0.6395754218101501,0.9004147052764893
1789038137972521200,11.466521240234375,0.7709113359451294,0.6994401812553406,0.8442151546478271
1789038137989775400,11.483775390625,0.8008437156677246,0.8521563410758972,0.8307760953903198
1789038138007029500,11.501029541015624,0.8454368710517883,0.6902772188186646,0.7464767694473267
1789038138024284000,11.518283935546876,0.8222240209579468,0.4862483739852905,0.7018836140632629
1789038138041538000,11.5355380859375,0.9004147052764893,0.39400777220726013,0.6133082509040833
1789038138058792400,11.55279248046875,1.0543526411056519,0.370184063911438,0.48563748598098755
1789038138076046600,11.570046630859375,1.2626575231552124,0.45509424805641174,0.32070401310920715
1789038138093301000,11.587301025390625,1.3927717208862305,0.5021308660507202,0.1649334877729416
1789038138110555100,11.60455517578125,1.137430191040039,0.3530798554420471,0.13988803327083588
1789038138127809500,11.6218095703125,0.9700532555580139,0.19608759880065918,0.1386663019657135
1789038138145063700,11.639063720703126,0.9602794051170349,0.1740964651107788,0.1545487940311432
1789038138162318000,11.656318115234376,1.0054833889007568,0.2669478952884674,0.11545344442129135
1789038138179572200,11.673572265625,1.3768892288208008,0.7641918659210205,0.018325943499803543
1789038138196826600,11.69082666015625,1.7513493299484253,0.8900299668312073,-0.11972949653863907
1789038138214080800,11.708080810546875,1.6517783403396606,0.7055488228797913,-0.0977383628487587
1789038138231335000,11.7253349609375,1.4098758697509766,0.6719512343406677,-0.10506874322891235
1789038138248589300,11.74258935546875,1.266933560371399,0.5687150955200195,0.018325943499803543
1789038138265843500,11.759843505859376,1.3335177898406982,0.45448338985443115,0.06841685622930527
1789038138283097900,11.777097900390626,1.2644901275634766,0.26389357447624207,0.10079269111156464
1789038138300352000,11.79435205078125,1.1814124584197998,0.29993459582328796,0.09162971377372742
1789038138317606400,11.8116064453125,1.0873392820358276,0.17348559200763702,0.0922405794262886
1789038138334860500,11.828860595703125,0.9450078010559082,0.33169957995414734,0.017715077847242355
1789038138352115000,11.846114990234375,0.7293725609779358,0.4477638900279999,0.027488915249705315
1789038138369369000,11.863369140625,0.5998691916465759,0.20219624042510986,0.049480047076940536
1789038138386623500,11.88062353515625,0.4728093445301056,-0.05436696484684944,0.021380268037319183
1789038138403877600,11.897877685546876,0.2877173125743866,-0.2712239623069763,0.06352993845939636
1789038138421132000,11.915132080078125,0.13072505593299866,-0.36774060130119324,0.12583814561367035
1789038138438386200,11.93238623046875,0.059864748269319534,-0.34697118401527405,0.14110976457595825
1789038138455640300,11.949640380859375,0.023823726922273636,-0.3799578845500946,0.11728604137897491
1789038138472894700,11.966894775390625,0.02932151034474373,-0.2974911332130432,0.025045456364750862
1789038138490148900,11.98414892578125,0.031154103577136993,-0.17287473380565643,-0.08368847519159317
1789038138507403300,12.0014033203125,-0.013439024798572063,-0.05436696484684944,-0.15271618962287903
1789038138524657400,12.018657470703126,-0.07880155742168427,-0.053145237267017365,-0.20219624042510986
1789038138541911800,12.035911865234375,-0.1130099818110466,-0.09040798991918564,-0.2730565667152405
1789038138559166000,12.053166015625,-0.10018182545900345,-0.0720820426940918,-0.3194822669029236
1789038138576420400,12.07042041015625,-0.0922405794262886,0.017104214057326317,-0.3634645342826843
1789038138593674500,12.087674560546875,-0.10873392969369888,0.05558869615197182,-0.3958403766155243
1789038138610928600,12.1049287109375,-0.14294235408306122,0.01588248461484909,-0.4428769648075104
1789038138628183000,12.12218310546875,-0.22663083672523499,0.010995565913617611,-0.49052441120147705
1789038138645437200,12.139437255859375,-0.3274235129356384,0.06414080411195755,-0.5161807537078857
1789038138662691600,12.156691650390625,-0.4251618981361389,0.13683371245861053,-0.544891357421875
1789038138679945700,12.17394580078125,-0.5302306413650513,0.16676609218120575,-0.5809323787689209
1789038138697200000,12.1912001953125,-0.6988292932510376,0.1337793916463852,-0.5986474752426147
1789038138714454300,12.208454345703124,-0.8985821008682251,0.10506874322891235,-0.5662716627120972
1789038138731708700,12.225708740234374,-1.110552191734314,0.06414080411195755,-0.4874700903892517
1789038138748962800,12.242962890625,-1.2431098222732544,-0.10873392969369888,-0.44348782300949097
1789038138766217200,12.26021728515625,-1.268766164779663,-0.18203771114349365,-0.47952884435653687
1789038138783471400,12.277471435546875,-1.3066397905349731,-0.3274235129356384,-0.5424479246139526
1789038138800725800,12.294725830078125,-1.3402373790740967,-0.277332603931427,-0.5442805290222168
1789038138817980000,12.31197998046875,-1.5210533142089844,-0.35735589265823364,-0.46364638209342957
1789038138835234300,12.329234375,-1.5796962976455688,-0.47952884435653687,-0.46486809849739075
1789038138852488400,12.346488525390624,-1.470962405204773,-0.5106829404830933,-0.36224281787872314
1789038138869742800,12.363742919921876,-1.3946043252944946,-0.6139190793037415,-0.33536475896835327
1789038138886997000,12.3809970703125,-1.4391974210739136,-0.8002328872680664,-0.3836230933666229
1789038138904251400,12.39825146484375,-1.454469084739685,-0.627968966960907,-0.4379900395870209
1789038138921505500,12.415505615234375,-1.4043781757354736,-0.5772672295570374,-0.3952295184135437
1789038138938759700,12.432759765625,-1.3946043252944946,-0.66645348072052,-0.32559093832969666
1789038138956014000,12.45001416015625,-1.4911209344863892,-0.8778126835823059,-0.27977606654167175
1789038138973268200,12.467268310546874,-1.4691298007965088,-0.8118392825126648,-0.37690356373786926
1789038138990522600,12.484522705078126,-1.2791508436203003,-0.7904590368270874,-0.3488037884235382
1789038139007776800,12.50177685546875,-1.155145287513733,-0.6908880472183228,-0.28405213356018066
1789038139025031200,12.51903125,-1.1044435501098633,-0.5155698657035828,-0.3610210716724396
1789038139042285300,12.536285400390625,-1.026863694190979,-0.4276053309440613,-0.3970620930194855
1789038139059539700,12.553539794921875,-1.1490366458892822,-0.2816086709499359,-0.3958403766155243
1789038139076793900,12.5707939453125,-1.1826342344284058,-0.16859868168830872,-0.3995055556297302
1789038139094048300,12.58804833984375,-1.1624757051467896,-0.11484257876873016,-0.19792018830776215
1789038139111302400,12.605302490234376,-0.9358448386192322,-0.1496618688106537,-0.1288924664258957
1789038139128556800,12.622556884765626,-0.6047561168670654,-0.2565632164478302,-0.04886918142437935
1789038139145811000,12.63981103515625,-0.5583304166793823,-0.23457208275794983,-0.16310089826583862
1789038139163065300,12.6570654296875,-0.5589412450790405,-0.025045456364750862,-0.21746785938739777
1789038139180319500,12.674319580078125,-0.5070177912712097,0.08307760953903198,-0.21930044889450073
1789038139197574000,12.691573974609375,-0.32559093832969666,0.15149445831775665,-0.17776164412498474
1789038139214828000,12.708828125,-0.12156209349632263,0.25534147024154663,-0.046425722539424896
1789038139232082200,12.726082275390626,0.004886918235570192,0.3035998046398163,0.06719512492418289
1789038139249336600,12.743336669921876,0.09040798991918564,0.3243691921234131,0.047036588191986084
1789038139266590700,12.7605908203125,0.26511532068252563,0.3090975880622864,0.07819069176912308
1789038139283845000,12.77784521484375,0.4373791813850403,0.43004879355430603,0.18325942754745483
1789038139301099300,12.795099365234375,0.5424479246139526,0.6114756464958191,0.2889390289783478
1789038139318353700,12.812353759765625,0.5528326034545898,0.6963858604431152,0.3750709891319275
1789038139335607800,12.82960791015625,0.5821541547775269,0.6957749724388123,0.462424635887146
1789038139352862200,12.8468623046875,0.6921098232269287,0.7409789562225342,0.500298261642456
1789038139370116400,12.864116455078126,0.7733548283576965,0.8203914165496826,0.5076286196708679
1789038139387370800,12.881370849609375,0.8668171167373657,0.8619301915168762,0.5522217750549316
1789038139404625000,12.898625,1.0390809774398804,0.8545998334884644,0.6047561168670654
1789038139421879300,12.91587939453125,1.194240689277649,0.8753692507743835,0.5467239618301392
1789038139439133400,12.933133544921875,1.275485634803772,0.8680388331413269,0.45875945687294006
1789038139456387600,12.9503876953125,1.2895355224609375,0.8472694754600525,0.4324922561645508
1789038139473642000,12.96764208984375,1.3109158277511597,0.66645348072052,0.42882707715034485
1789038139490896100,12.984896240234375,1.4398082494735718,0.5271763205528259,0.33108872175216675
1789038139508150500,13.002150634765625,1.5735876560211182,0.48563748598098755,0.26939135789871216
1789038139525404700,13.01940478515625,1.5228859186172485,0.22846342623233795,0.23762640357017517
1789038139542659000,13.0366591796875,1.4483604431152344,0.22479823231697083,0.2003636509180069
1789038139559913200,13.053913330078124,1.3726131916046143,0.1899789422750473,0.22357651591300964
1789038139577167400,13.07116748046875,1.3500111103057861,-0.018325943499803543,0.19792018830776215
1789038139594421800,13.088421875,1.4007129669189453,-0.030543239787220955,0.09834922850131989
1789038139611676000,13.105676025390625,1.4324779510498047,0.03848448023200035,0.011606430634856224
1789038139628930300,13.122930419921875,1.5906919240951538,0.42271843552589417,-0.06597339361906052
1789038139646184400,13.140184326171875,1.666439175605774,0.4917461574077606,-0.17287473380565643
1789038139663438800,13.15743896484375,1.6071852445602417,0.24923282861709595,-0.13255766034126282
1789038139680693000,13.17469287109375,1.5027273893356323,0.17165300250053406,-0.16004657745361328
1789038139697947400,13.191947509765624,1.387273907661438,0.14660754799842834,-0.12583814561367035
1789038139715201500,13.209201416015626,1.2400555610656738,0.04214967042207718,0.011606430634856224
1789038139732455700,13.22645556640625,1.1600322723388672,-0.20280711352825165,0.10934479534626007
1789038139749710000,13.2437099609375,1.0024291276931763,-0.30054548382759094,0.15210533142089844
1789038139766964200,13.260964111328125,0.8491020202636719,-0.08857539296150208,0.16249002516269684
1789038139784218600,13.278218505859375,0.7373138070106506,0.0054977829568088055,0.23945899307727814
1789038139801472800,13.29547265625,0.5717694163322449,-0.12156209349632263,0.3237583339214325
1789038139818727200,13.31272705078125,0.4196641147136688,-0.2767217457294464,0.43310311436653137
1789038139835981300,13.329981201171876,0.27427828311920166,-0.4056142270565033,0.46486809849739075
1789038139853235500,13.3472353515625,0.09712749719619751,-0.4819723069667816,0.4056142270565033
1789038139870489900,13.36448974609375,-0.03176496922969818,-0.4563159942626953,0.3121519088745117
1789038139887744000,13.381743896484375,-0.07391463965177536,-0.3909534513950348,0.23029601573944092
1789038139904998400,13.398998291015625,-0.09285144507884979,-0.28466299176216125,0.1533270627260208
1789038139922252500,13.41625244140625,-0.10445787757635117,-0.1795942485332489,0.05558869615197182
1789038139939507000,13.4335068359375,-0.12278381735086441,-0.18814635276794434,-0.026878049597144127
1789038139956761000,13.450760986328126,-0.15210533142089844,-0.1899789422750473,-0.05864302068948746
1789038139974015200,13.46801513671875,-0.19730933010578156,-0.06902772188186646,-0.11056652665138245
1789038139991269600,13.48526953125,-0.2461785078048706,0.1282816082239151,-0.17226386070251465
1789038140008523800,13.502523681640625,-0.3023780584335327,0.24740023910999298,-0.23212862014770508
1789038140025778200,13.519778076171875,-0.36835145950317383,0.2614501118659973,-0.29565855860710144
1789038140043032300,13.5370322265625,-0.45448338985443115,0.27855435013771057,-0.379347026348114
1789038140060286700,13.55428662109375,-0.5864301919937134,0.31642794609069824,-0.4575377106666565
1789038140077540900,13.571540771484376,-0.7330377101898193,0.32009315490722656,-0.5253437161445618
1789038140094795000,13.588794921875,-0.8668171167373657,0.28588470816612244,-0.5711585879325867
1789038140112049400,13.60604931640625,-1.0250310897827148,0.29077163338661194,-0.6365211009979248
1789038140129303600,13.623303466796875,-1.194240689277649,0.3488037884235382,-0.6957749724388123
1789038140146558000,13.640557861328125,-1.3634501695632935,0.17165300250053406,-0.7037162184715271
1789038140163812000,13.65781201171875,-1.5790854692459106,-0.01893680728971958,-0.6927206516265869
1789038140181066200,13.675066162109376,-1.6297872066497803,-0.13988803327083588,-0.6737838387489319
1789038140198320600,13.692320556640626,-1.517388105392456,-0.050090912729501724,-0.6084213256835938
1789038140215574800,13.70957470703125,-1.386052131652832,-0.010384701192378998,-0.5693259835243225
1789038140232829200,13.7268291015625,-1.4569125175476074,-0.30970844626426697,-0.6114756464958191
1789038140250083300,13.744083251953125,-1.820376992225647,-1.0574069023132324,-0.4776962697505951
1789038140267337700,13.761337646484375,-2.20461106300354,-1.229670763015747,-0.6316341757774353
1789038140284591900,13.778591796875,-1.8387030363082886,-1.1325433254241943,-0.6646208763122559
1789038140301846300,13.79584619140625,-1.323133111000061,-1.2675443887710571,-0.2101374864578247
1789038140319100400,13.813100341796876,-1.3237439393997192,-0.8881973624229431,-0.3084867000579834
1789038140336354800,13.830354736328125,-1.3799434900283813,-0.729983389377594,-0.5210676789283752
1789038140353609000,13.84760888671875,-1.334128737449646,-0.729983389377594,-0.43860089778900146
1789038140370863400,13.86486328125,-1.4379756450653076,-0.6798924803733826,-0.37629270553588867
1789038140388117500,13.882117431640625,-1.4831796884536743,-0.6224712133407593,-0.35246896743774414
1789038140405371600,13.89937158203125,-1.3781108856201172,-0.40866854786872864,-0.26939135789871216
1789038140422626000,13.9166259765625,-1.2626575231552124,-0.25411975383758545,-0.18203771114349365
1789038140439880200,13.933880126953126,-1.064737319946289,-0.11178825795650482,-0.14782927930355072
1789038140457134600,13.951134521484375,-0.9853248596191406,-0.04520399495959282,-0.11056652665138245
1789038140474388700,13.968388671875,-0.9260709881782532,0.11239911615848541,-0.0360410213470459
1789038140491643100,13.98564306640625,-0.8100066781044006,0.09468404203653336,0.001221729558892548
1789038140508897300,14.002897216796875,-0.66645348072052,0.12461641430854797,-0.049480047076940536
1789038140526151700,14.020151611328124,-0.536339282989502,0.11056652665138245,-0.033597562462091446
1789038140543405800,14.03740576171875,-0.4111120104789734,0.08307760953903198,0.043371398001909256
1789038140560660200,14.05466015625,-0.15027274191379547,0.07819069176912308,0.10873392969369888
1789038140577914400,14.071914306640625,0.12644900381565094,0.21930044889450073,0.08307760953903198
1789038140595168500,14.08916845703125,0.3090975880622864,0.379347026348114,0.056199558079242706
1789038140612423000,14.1064228515625,0.3402516841888428,0.40317076444625854,0.046425722539424896
1789038140629677000,14.123677001953125,0.4471530318260193,0.42821621894836426,0.08368847519159317
1789038140646931500,14.140931396484374,0.4972439408302307,0.5039634704589844,0.11545344442129135
1789038140664185600,14.158185546875,0.5705476999282837,0.5259546041488647,0.14660754799842834
1789038140681440000,14.17543994140625,0.6640099883079529,0.462424635887146,0.19914191961288452
1789038140698694100,14.192694091796875,0.7006618976593018,0.43921178579330444,0.2938259541988373
1789038140715948500,14.209948486328125,0.7709113359451294,0.481361448764801,0.3659079968929291
1789038140733202700,14.22720263671875,0.9169080257415771,0.4831940531730652,0.4404335021972656
1789038140750457000,14.24445703125,1.0586286783218384,0.5619956254959106,0.49480047821998596
1789038140767711200,14.261711181640624,1.1979057788848877,0.5522217750549316,0.4990765154361725
1789038140784965400,14.27896533203125,1.288313865661621,0.5503891706466675,0.49602219462394714
1789038140802219800,14.2962197265625,1.3103049993515015,0.5045742988586426,0.4453204274177551
1789038140819474000,14.313473876953125,1.2620465755462646,0.4886918365955353,0.4880809485912323
1789038140836728300,14.330728271484375,1.3280199766159058,0.5180133581161499,0.4789179861545563
1789038140853982500,14.347982421875,1.4483604431152344,0.5815432667732239,0.4874700903892517
1789038140871236600,14.365236572265625,1.6132938861846924,0.5723803043365479,0.4361574649810791
1789038140888491000,14.382490966796874,1.6475023031234741,0.5094612240791321,0.43432486057281494
1789038140905745200,14.3997451171875,1.7287473678588867,0.5797106623649597,0.38789913058280945
1789038140922999600,14.41699951171875,1.813657522201538,0.822834849357605,0.26450446248054504
1789038140940253700,14.434253662109375,1.7641774415969849,0.573602020740509,0.2260199636220932
1789038140957508000,14.451508056640625,1.7513493299484253,0.42332929372787476,0.17653992772102356
1789038140974762200,14.46876220703125,1.746462345123291,0.6249146461486816,0.10995566099882126
1789038140992016600,14.4860166015625,1.7440189123153687,0.6017017960548401,0.01954767294228077
1789038141009270800,14.503270751953124,1.6578869819641113,0.4508182108402252,-0.03909534588456154
1789038141026525000,14.52052490234375,1.563202977180481,0.24923282861709595,-0.12767073512077332
1789038141043779300,14.537779296875,1.247385859489441,0.04764745384454727,-0.13194678723812103
1789038141061033500,14.555033447265625,0.9016364216804504,-0.2009745091199875,-0.05864302068948746
1789038141078288000,14.572287841796875,0.5314523577690125,-0.3329212963581085,-0.14660754799842834
1789038141095542000,14.5895419921875,0.2968802750110626,-0.205861434340477,-0.16187916696071625
1789038141112796200,14.606796142578125,0.3903425931930542,0.1026252806186676,-0.05436696484684944
1789038141130050600,14.624050537109374,0.5772672295570374,0.0409279391169548,0.06414080411195755
1789038141147304700,14.6413046875,0.6792816519737244,-0.12461641430854797,0.10751219838857651
1789038141164558800,14.658558837890626,0.6175842881202698,-0.2052505612373352,0.1539379209280014
1789038141181813200,14.675813232421875,0.46975502371788025,-0.2608392536640167,0.1905898153781891
1789038141199067400,14.6930673828125,0.2974911332130432,-0.22418737411499023,0.16554436087608337
1789038141216321800,14.71032177734375,0.12034036219120026,-0.1545487940311432,0.05192350596189499
1789038141233576000,14.727575927734375,0.02932151034474373,-0.15638138353824615,-0.08552107214927673
1789038141250830300,14.744830322265624,0.003665188793092966,-0.17531819641590118,-0.19364413619041443
1789038141268084500,14.76208447265625,-0.001832594396546483,-0.15027274191379547,-0.26022839546203613
1789038141285339000,14.7793388671875,0.036651886999607086,-0.1331685185432434,-0.3274235129356384
1789038141302593000,14.796593017578125,0.020158538594841957,-0.1954767256975174,-0.33231043815612793
1789038141319847400,14.813847412109375,-0.04276053607463837,-0.21746785938739777,-0.30543237924575806
1789038141337101600,14.8311015625,-0.10323614627122879,-0.1740964651107788,-0.28588470816612244
1789038141354355700,14.848355712890625,-0.12095122784376144,-0.07880155742168427,-0.2889390289783478
1789038141371610000,14.865610107421874,-0.13500112295150757,-0.0409279391169548,-0.27855435013771057
1789038141388864300,14.8828642578125,-0.1380554437637329,-0.13622283935546875,-0.22357651591300964
1789038141406118700,14.90011865234375,-0.11056652665138245,-0.22663083672523499,-0.19914191961288452
1789038141423372800,14.917372802734375,-0.08552107214927673,-0.20891575515270233,-0.20769402384757996
1789038141440627000,14.934626953125,-0.08124501258134842,-0.1496618688106537,-0.19425499439239502
1789038141457881300,14.95188134765625,-0.08307760953903198,-0.07391463965177536,-0.21135921776294708
1789038141475135500,14.969135498046874,-0.08307760953903198,-0.006719512399286032,-0.2883281707763672
1789038141492389600,14.9863896484375,-0.10751219838857651,0.017715077847242355,-0.3402516841888428
1789038141509644000,15.00364404296875,-0.1588248461484909,0.024434590712189674,-0.34208428859710693
1789038141526898200,15.020898193359375,-0.20952661335468292,-0.01893680728971958,-0.3695732057094574
1789038141544152300,15.03815234375,-0.268169641494751,-0.0616973415017128,-0.4257727563381195
1789038141561406700,15.05540673828125,-0.3298669755458832,-0.11972949653863907,-0.43432486057281494
1789038141578660900,15.072660888671875,-0.401949018239975,-0.10629047453403473,-0.4056142270565033
1789038141595915300,15.089915283203124,-0.4886918365955353,-0.0030543238390237093,-0.37751442193984985
1789038141613169400,15.10716943359375,-0.5711585879325867,0.1178968995809555,-0.3909534513950348
1789038141630423600,15.124423583984376,-0.6774490475654602,0.21197007596492767,-0.4202749729156494
1789038141647678000,15.141677978515625,-0.7867938280105591,0.19364413619041443,-0.3787361681461334
1789038141664932000,15.15893212890625,-0.9028581380844116,0.07330377399921417,-0.32620179653167725
1789038141682186500,15.1761865234375,-0.972496747970581,-0.1282816082239151,-0.3585776388645172
1789038141699440600,15.193440673828125,-0.9480621218681335,-0.1533270627260208,-0.4355465769767761
1789038141716694800,15.21069482421875,-0.998763918876648,-0.1288924664258957,-0.4453204274177551
1789038141733949200,15.22794921875,-0.9950987100601196,-0.16676609218120575,-0.3646862804889679
1789038141751203300,15.245203369140626,-1.0800089836120605,-0.3903425931930542,-0.32559093832969666
1789038141768457700,15.262457763671875,-1.102000117301941,-0.44959646463394165,-0.277332603931427
1789038141785711900,15.2797119140625,-1.1221586465835571,-0.5772672295570374,-0.2107483446598053
1789038141802966300,15.29696630859375,-1.1343759298324585,-0.546113133430481,-0.18814635276794434
1789038141820220400,15.314220458984375,-1.1441497802734375,-0.4862483739852905,-0.18264856934547424
1789038141837474600,15.331474609375,-1.1661409139633179,-0.4416552484035492,-0.20219624042510986
1789038141854729000,15.34872900390625,-1.120326042175293,-0.47525280714035034,-0.17043127119541168
1789038141871983000,15.365983154296876,-1.1331541538238525,-0.5491674542427063,-0.11056652665138245
1789038141889237500,15.383237548828125,-1.1368193626403809,-0.5161807537078857,-0.10995566099882126
1789038141906491600,15.40049169921875,-1.148425817489624,-0.4410443603992462,-0.1386663019657135
1789038141923745800,15.417745849609375,-1.0702351331710815,-0.3915643095970154,-0.17898337543010712
1789038141941000200,15.435000244140625,-0.9309579133987427,-0.3396408259868622,-0.21319180727005005
1789038141958254300,15.45225439453125,-0.8491020202636719,-0.15515965223312378,-0.26939135789871216
1789038141975508500,15.469508544921876,-0.7880155444145203,-0.14172062277793884,-0.2565632164478302
1789038141992763000,15.486762939453126,-0.8558215498924255,-0.18203771114349365,-0.19792018830776215
1789038142010017000,15.50401708984375,-0.9126319885253906,-0.1545487940311432,-0.15027274191379547
1789038142027271400,15.521271484375,-0.9498947262763977,-0.13194678723812103,-0.04825831577181816
1789038142044525600,15.538525634765625,-0.9138537049293518,-0.18875721096992493,-0.001221729558892548
1789038142061779700,15.55577978515625,-0.8826996088027954,-0.13622283935546875,-0.010384701192378998
1789038142079034000,15.5730341796875,-0.8014546036720276,-0.1795942485332489,-0.01954767294228077
1789038142096288300,15.590288330078126,-0.7745765447616577,-0.24495677649974823,0.07513637095689774
1789038142113542400,15.60754248046875,-0.8344413042068481,-0.3799578845500946,0.014049889519810677
1789038142130796800,15.624796875,-0.748920202255249,-0.15760311484336853,-0.043371398001909256
1789038142148051000,15.642051025390625,-0.6426297426223755,-0.11117739230394363,0.006108647678047419
1789038142165305300,15.659305419921875,-0.5296197533607483,0.007330377586185932,-0.056810423731803894
1789038142182559500,15.6765595703125,-0.4404335021972656,0.04276053607463837,-0.0818558782339096
1789038142199814000,15.69381396484375,-0.4355465769767761,0.15638138353824615,-0.04276053607463837
1789038142217068000,15.711068115234376,-0.5015199780464172,0.10567960888147354,-0.037262752652168274
1789038142234322400,15.728322509765626,-0.40927940607070923,0.1233946830034256,-0.015271619893610477
1789038142251576600,15.74557666015625,-0.35063639283180237,0.05253437161445618,-0.08674279600381851
1789038142268830700,15.762830810546875,-0.29504770040512085,0.16004657745361328,-0.14049890637397766
1789038142286085000,15.780085205078125,-0.18692462146282196,0.18387030065059662,-0.07574722915887833
1789038142303339300,15.79733935546875,-0.16065743565559387,0.1081230640411377,-0.11423171311616898
1789038142320593700,15.81459375,-0.11728604137897491,-0.0360410213470459,-0.14172062277793884
1789038142337847800,15.831847900390626,-0.0360410213470459,-0.09896009415388107,-0.13988803327083588
1789038142355102200,15.849102294921876,0.012217295356094837,-0.02260199747979641,-0.13011419773101807
1789038142372356400,15.8663564453125,0.16187916696071625,0.10445787757635117,-0.07880155742168427
1789038142389610800,15.88361083984375,0.287106454372406,0.24434591829776764,0.006108647678047419
1789038142406865000,15.900864990234375,0.3390299379825592,0.32131487131118774,0.08918625861406326
1789038142424119000,15.918119140625,0.3530798554420471,0.37323838472366333,0.1905898153781891
1789038142441373400,15.93537353515625,0.39828383922576904,0.3897317349910736,0.23457208275794983
1789038142458627600,15.952627685546876,0.39767298102378845,0.4526508152484894,0.2767217457294464
1789038142475882000,15.969882080078126,0.40744680166244507,0.4508182108402252,0.2669478952884674
1789038142493136100,15.98713623046875,0.40805765986442566,0.40866854786872864,0.2712239623069763
1789038142510390300,16.004390380859373,0.3854556679725647,0.3549124300479889,0.2724456787109375
1789038142527644700,16.021644775390627,0.35674503445625305,0.32009315490722656,0.318871408700943
1789038142544898800,16.03889892578125,0.3811796307563782,0.3707949221134186,0.4056142270565033
1789038142562153200,16.0561533203125,0.3958403766155243,0.3610210716724396,0.5039634704589844
1789038142579407400,16.073407470703124,0.45875945687294006,0.3634645342826843,0.5277871489524841
1789038142596661500,16.09066162109375,0.565049946308136,0.430659681558609,0.574212908744812
1789038142613916000,16.107916015625,0.676227331161499,0.43921178579330444,0.5571087002754211
1789038142631170000,16.125170166015625,0.7422007322311401,0.49113526940345764,0.5149590373039246
1789038142648424400,16.142424560546875,0.7525854110717773,0.4465421438217163,0.5308414697647095
1789038142665678600,16.1596787109375,0.794124186038971,0.3659079968929291,0.5400044918060303
1789038142682932700,16.1769326171875,0.860708475112915,0.28954991698265076,0.5229002237319946
1789038142700187100,16.194187255859376,0.915686309337616,0.35613417625427246,0.5033525824546814
1789038142717441300,16.211441162109374,0.8949168920516968,0.3744601011276245,0.46425724029541016
1789038142734695400,16.2286953125,0.8796452879905701,0.35185810923576355,0.4526508152484894
1789038142751949800,16.24594970703125,0.8863648176193237,0.22724169492721558,0.38789913058280945
1789038142769204000,16.263203857421875,0.9358448386192322,0.17837251722812653,0.3549124300479889
1789038142786458400,16.280458251953124,0.9969313144683838,0.22174391150474548,0.3451386094093323
1789038142803712500,16.29771240234375,1.061682939529419,0.2620609998703003,0.36712974309921265
1789038142820967000,16.314966796875,1.1087195873260498,0.25045454502105713,0.3292561173439026
1789038142838221000,16.332220947265625,1.0787872076034546,0.2370155304670334,0.328645259141922
1789038142855475200,16.34947509765625,0.9963204264640808,0.19242240488529205,0.3121519088745117
1789038142872729600,16.3667294921875,0.924849271774292,0.20463970303535461,0.28527384996414185
1789038142889983700,16.383983642578126,0.8973603844642639,0.20647229254245758,0.2309068888425827
1789038142907238000,16.40123779296875,0.925460159778595,0.3494146466255188,0.16859868168830872
1789038142924492300,16.4184921875,0.9468404054641724,0.3042106628417969,0.19853104650974274
1789038142941746400,16.435746337890624,1.0293071269989014,0.22968515753746033,0.1747073233127594
1789038142959000600,16.45300048828125,1.1441497802734375,0.1954767256975174,0.08368847519159317
1789038142976255000,16.4702548828125,1.1691951751708984,0.18875721096992493,0.07330377399921417
1789038142993509000,16.487509033203125,1.1997383832931519,0.14782927930355072,0.06841685622930527
1789038143010763300,16.50476318359375,1.1655299663543701,0.24251331388950348,-0.011606430634856224
1789038143028017700,16.522017578125,1.0305289030075073,0.30543237924575806,-0.049480047076940536
1789038143045271800,16.539271728515626,0.8032872080802917,0.2467893660068512,-0.029932374134659767
1789038143062526000,16.55652587890625,0.648127555847168,0.07330377399921417,-0.0030543238390237093
1789038143079780400,16.5737802734375,0.6401863098144531,-0.07391463965177536,0.000610864779446274
1789038143097034500,16.591034423828123,0.6114756464958191,-0.1282816082239151,-0.013439024798572063
1789038143114288600,16.60828857421875,0.5375609993934631,-0.06352993845939636,-0.004886918235570192
1789038143131543000,16.62554296875,0.5326740741729736,-0.011606430634856224,0.0769689604640007
1789038143148797200,16.642797119140624,0.5662716627120972,-0.017715077847242355,0.12095122784376144
1789038143166051600,16.660051513671874,0.4453204274177551,-0.08552107214927673,0.1026252806186676
1789038143183305700,16.6773056640625,0.3292561173439026,-0.22785256803035736,0.08918625861406326
1789038143200559900,16.694559814453125,0.31459537148475647,-0.22846342623233795,0.06047561392188072
1789038143217814300,16.711814208984375,0.2669478952884674,-0.11239911615848541,0.03298669680953026
1789038143235068400,16.729068359375,0.19792018830776215,-0.06047561392188072,0.09162971377372742
1789038143252322600,16.746322509765626,0.14721840620040894,-0.13011419773101807,0.14049890637397766
1789038143269577000,16.763576904296876,0.030543239787220955,-0.21319180727005005,0.14049890637397766
1789038143286831000,16.7808310546875,-0.05253437161445618,-0.1130099818110466,0.09896009415388107
1789038143304085200,16.798085205078124,-0.04581485688686371,-0.09651663154363632,0.07819069176912308
1789038143321339600,16.815339599609374,-0.03848448023200035,-0.2730565667152405,0.05925388261675835
1789038143338593800,16.83259375,-0.06108647957444191,-0.38179048895835876,0.039706211537122726
1789038143355848000,16.849847900390625,-0.10323614627122879,-0.347582072019577,0.04520399495959282
1789038143373102300,16.867102294921875,-0.15149445831775665,-0.2565632164478302,0.10201441496610641
1789038143390356500,16.8843564453125,-0.14599667489528656,-0.14294235408306122,0.11667517572641373
1789038143407610600,16.901610595703126,-0.15088360011577606,0.12400554865598679,-0.043371398001909256
1789038143424865000,16.918864990234376,-0.21380266547203064,0.185092031955719,-0.16187916696071625
1789038143442119200,16.936119140625,-0.26511532068252563,0.14721840620040894,-0.1539379209280014
1789038143459373600,16.95337353515625,-0.27916520833969116,0.0818558782339096,-0.09346231073141098
1789038143476627700,16.970627685546877,-0.24984370172023773,-0.010384701192378998,-0.06352993845939636
1789038143493881900,16.9878818359375,-0.23457208275794983,-0.06963858753442764,-0.1185077652335167
1789038143511136000,17.005135986328124,-0.29016077518463135,-0.0769689604640007,-0.21868959069252014
1789038143528390400,17.022390380859374,-0.347582072019577,-0.06536252796649933,-0.32620179653167725
1789038143545644500,17.03964453125,-0.40255987644195557,0.05436696484684944,-0.4581485986709595
1789038143562898700,17.056898681640625,-0.42943793535232544,0.07024945318698883,-0.5571087002754211
1789038143580153000,17.074153076171875,-0.4159989058971405,-0.01893680728971958,-0.5900954008102417
1789038143597407200,17.0914072265625,-0.3860665261745453,-0.023823726922273636,-0.5229002237319946
1789038143614661400,17.108661376953126,-0.4147771894931793,0.007330377586185932,-0.3744601011276245
1789038143631915500,17.12591552734375,-0.5601630210876465,-0.024434590712189674,-0.3078758418560028
1789038143649170000,17.143169921875,-0.7837395071983337,-0.039706211537122726,-0.3756818473339081
1789038143666424000,17.160424072265624,-0.8588758707046509,0.009773836471140385,-0.42821621894836426
1789038143683678500,17.177678466796873,-0.8503237962722778,-0.020158538594841957,-0.40805765986442566
1789038143700932600,17.1949326171875,-0.7422007322311401,-0.18325942754745483,-0.3121519088745117
1789038143718186800,17.212186767578125,-0.7067705392837524,-0.23823726177215576,-0.28038692474365234
1789038143735441200,17.229441162109374,-0.7043271064758301,-0.1533270627260208,-0.2730565667152405
1789038143752695300,17.2466953125,-0.7886264324188232,-0.11606431007385254,-0.3139844834804535
1789038143769949400,17.263949462890626,-0.768467903137207,-0.15699224174022675,-0.34574946761131287
1789038143787203600,17.28120361328125,-0.7312051653862,-0.19914191961288452,-0.3970620930194855
1789038143804458000,17.2984580078125,-0.638353705406189,-0.27366742491722107,-0.3549124300479889
1789038143821712100,17.315712158203127,-0.6511818766593933,-0.41416633129119873,-0.360410213470459
1789038143838966300,17.33296630859375,-0.720820426940918,-0.4428769648075104,-0.47097674012184143
1789038143856220700,17.350220703125,-0.8142827749252319,-0.2724456787109375,-0.5558869242668152
1789038143873474800,17.367474853515624,-0.8753692507743835,-0.17653992772102356,-0.5143481492996216
1789038143890729000,17.38472900390625,-0.8643736839294434,-0.21746785938739777,-0.41783151030540466
1789038143907983400,17.4019833984375,-0.8185588121414185,-0.2620609998703003,-0.38240134716033936
1789038143925237500,17.419237548828125,-0.8631519079208374,-0.2932150959968567,-0.3738492429256439
1789038143942492000,17.436491943359375,-0.8765909671783447,-0.4355465769767761,-0.3634645342826843
1789038143959746000,17.45374609375,-0.915686309337616,-0.5589412450790405,-0.3750709891319275
1789038143977000200,17.471000244140626,-0.8478803038597107,-0.4159989058971405,-0.4202749729156494
1789038143994254300,17.48825439453125,-0.8057306408882141,-0.45998117327690125,-0.370184063911438
1789038144011508700,17.5055087890625,-0.8472694754600525,-0.31031930446624756,-0.3274235129356384
1789038144028763000,17.522762939453123,-0.8454368710517883,-0.21380266547203064,-0.28405213356018066
1789038144046017000,17.54001708984375,-0.8210022449493408,-0.2926042377948761,-0.21502439677715302
1789038144063271400,17.557271484375,-0.8338304162025452,-0.32070401310920715,-0.17287473380565643
1789038144080525600,17.574525634765624,-0.7733548283576965,-0.2981020212173462,-0.13744457066059113
1789038144097779700,17.59177978515625,-0.7727439403533936,-0.41355544328689575,-0.19181154668331146
1789038144115033900,17.609033935546876,-0.7874047160148621,-0.5100721120834351,-0.2309068888425827
1789038144132288300,17.626288330078125,-0.9028581380844116,-0.37751442193984985,-0.24556763470172882
1789038144149542400,17.64354248046875,-0.8399390578269958,-0.2516762912273407,-0.3237583339214325
1789038144166796800,17.660796875,-0.7104357481002808,-0.22724169492721558,-0.34208428859710693
1789038144184051000,17.678051025390626,-0.6206386089324951,-0.2419024556875229,-0.20830489695072174
1789038144201305000,17.69530517578125,-0.5870410799980164,-0.14599667489528656,-0.23518294095993042
1789038144218559500,17.7125595703125,-0.5516108870506287,-0.1899789422750473,-0.23029601573944092
1789038144235813600,17.729813720703124,-0.4214966893196106,-0.20769402384757996,-0.19181154668331146
1789038144253067800,17.74706787109375,-0.3133736252784729,-0.12095122784376144,-0.1997527778148651
1789038144270322200,17.764322265625,-0.277332603931427,0.046425722539424896,-0.18570289015769958
1789038144287576300,17.781576416015625,-0.21930044889450073,0.20158538222312927,-0.20647229254245758
1789038144304830500,17.79883056640625,-0.17776164412498474,0.20219624042510986,-0.28527384996414185
1789038144322084600,17.816084716796876,-0.06902772188186646,0.24251331388950348,-0.2663370370864868
1789038144339339000,17.833339111328126,-0.05742128938436508,0.21319180727005005,-0.08796452730894089
1789038144356593200,17.85059326171875,-0.014049889519810677,0.13744457066059113,-0.020158538594841957
1789038144373847300,17.867847412109374,0.06536252796649933,0.049480047076940536,-0.0360410213470459
1789038144391101700,17.885101806640623,0.1026252806186676,0.12583814561367035,-0.02260199747979641
1789038144408355800,17.90235595703125,0.1386663019657135,0.2761108875274658,0.059864748269319534
1789038144425610200,17.9196103515625,0.26511532068252563,0.30970844626426697,0.15210533142089844
1789038144442864400,17.936864501953124,0.3176496922969818,0.2809978127479553,0.23945899307727814
1789038144460118500,17.954118408203126,0.328645259141922,0.26022839546203613,0.2614501118659973
1789038144477373000,17.971373046875,0.33719736337661743,0.24801109731197357,0.32070401310920715
1789038144494627000,17.988626953125,0.3848448097705841,0.22418737411499023,0.3555232882499695
1789038144511881200,18.005881103515627,0.4257727563381195,0.2467893660068512,0.34697118401527405
1789038144529135400,18.02313525390625,0.4373791813850403,0.28038692474365234,0.3591884970664978
1789038144546389800,18.0403896484375,0.4367683231830597,0.28954991698265076,0.35674503445625305
1789038144563644000,18.057643798828124,0.4410443603992462,0.3451386094093323,0.35124725103378296
1789038144580898000,18.07489794921875,0.4667007029056549,0.41416633129119873,0.33231043815612793
1789038144598152400,18.09215234375,0.5119046568870544,0.48075059056282043,0.32131487131118774
1789038144615406600,18.109406494140625,0.5815432667732239,0.4569268524646759,0.33536475896835327
1789038144632660700,18.12666064453125,0.6994401812553406,0.3481929302215576,0.3329212963581085
1789038144649915100,18.1439150390625,0.7641918659210205,0.287106454372406,0.2968802750110626
1789038144667169300,18.161169189453126,0.7550288438796997,0.37262752652168274,0.23945899307727814
1789038144684423700,18.178423583984376,0.7709113359451294,0.47464191913604736,0.19730933010578156
1789038144701677800,18.195677734375,0.7776308655738831,0.47464191913604736,0.21197007596492767
1789038144718932000,18.212931884765624,0.7898481488227844,0.4001164436340332,0.2938259541988373
1789038144736186000,18.23018603515625,0.822834849357605,0.2779434621334076,0.36285367608070374
1789038144753440500,18.2474404296875,0.8344413042068481,0.22418737411499023,0.36285367608070374
1789038144770694700,18.264694580078125,0.7947350740432739,0.33231043815612793,0.3170388340950012
1789038144787948800,18.28194873046875,0.7623592615127563,0.3445277214050293,0.2987128794193268
1789038144805203000,18.299202880859376,0.7721330523490906,0.19608759880065918,0.31642794609069824
1789038144822457300,18.316457275390626,0.861319363117218,0.06963858753442764,0.3347539007663727
1789038144839711500,18.33371142578125,0.9065233469009399,0.04459312930703163,0.37812530994415283
1789038144856965600,18.350965576171873,0.9211840629577637,0.01649334840476513,0.36224281787872314
1789038144874220000,18.368219970703127,0.8765909671783447,0.06597339361906052,0.3176496922969818
1789038144891474200,18.38547412109375,0.8429933786392212,-0.003665188793092966,0.3543015718460083
1789038144908728300,18.402728271484374,0.8148936033248901,-0.09040798991918564,0.44470956921577454
1789038144925982700,18.419982666015624,0.842382550239563,-0.056810423731803894,0.48502662777900696
1789038144943236900,18.43723681640625,0.8643736839294434,0.05925388261675835,0.4465421438217163
1789038144960491000,18.454490966796875,0.8350521326065063,0.18325942754745483,0.37690356373786926
1789038144977745200,18.4717451171875,0.7855721116065979,0.1380554437637329,0.33169957995414734
1789038144994999600,18.48899951171875,0.7843503952026367,0.029932374134659767,0.31031930446624756
1789038145012253700,18.506253662109376,0.7690787315368652,0.06597339361906052,0.28588470816612244
1789038145029507800,18.5235078125,0.6957749724388123,0.164322629570961,0.2816086709499359
1789038145046762000,18.540761962890624,0.6346884965896606,0.14172062277793884,0.27550002932548523
1789038145064016400,18.558016357421874,0.646905779838562,0.04459312930703163,0.2412915825843811
1789038145081270500,18.5752705078125,0.665842592716217,-0.001832594396546483,0.1905898153781891
1789038145098524700,18.592524658203125,0.6181951761245728,-0.11911863088607788,0.1692095398902893
1789038145115779000,18.609779052734375,0.5577195286750793,-0.14538581669330597,0.16310089826583862
1789038145133033200,18.627033203125,0.44959646463394165,-0.14049890637397766,0.17348559200763702
1789038145150287400,18.644287353515626,0.35613417625427246,-0.19792018830776215,0.1533270627260208
1789038145167541500,18.66154150390625,0.31642794609069824,-0.24434591829776764,0.12583814561367035
1789038145184795600,18.678795654296874,0.29138249158859253,-0.25900667905807495,0.10201441496610641
1789038145202050000,18.696050048828123,0.26450446248054504,-0.14477495849132538,0.08552107214927673
1789038145219304200,18.71330419921875,0.25534147024154663,-0.13133592903614044,0.10079269111156464
1789038145236558300,18.730558349609375,0.2767217457294464,-0.1178968995809555,0.08429934084415436
1789038145253812700,18.747812744140624,0.2767217457294464,-0.1026252806186676,0.047036588191986084
1789038145271067000,18.76506689453125,0.23457208275794983,-0.1496618688106537,0.023212861269712448
1789038145288321000,18.782321044921876,0.18264856934547424,-0.1905898153781891,-0.03481929376721382
1789038145305575200,18.7995751953125,0.13072505593299866,-0.21319180727005005,-0.05558869615197182
1789038145322829600,18.81682958984375,0.02932151034474373,-0.23884813487529755,-0.014049889519810677
1789038145340083700,18.834083740234377,-0.08796452730894089,-0.24556763470172882,0.003665188793092966
1789038145357337900,18.851337890625,-0.13988803327083588,-0.20158538222312927,-0.06963858753442764
1789038145374592300,18.86859228515625,-0.14538581669330597,-0.04214967042207718,-0.17898337543010712
1789038145391846400,18.885846435546874,-0.1637117564678192,0.05925388261675835,-0.2571740746498108
1789038145409100500,18.9031005859375,-0.16798780858516693,-0.08857539296150208,-0.32009315490722656
1789038145426354700,18.920354736328125,-0.07574722915887833,-0.16859868168830872,-0.39217519760131836
1789038145443609000,18.937609130859375,0.01954767294228077,-0.1386663019657135,-0.39889469742774963
1789038145460863200,18.95486328125,0.008552107028663158,-0.053756099194288254,-0.37690356373786926
1789038145478117400,18.972117431640626,-0.04581485688686371,0.017104214057326317,-0.3756818473339081
1789038145495371500,18.98937158203125,-0.07819069176912308,0.1130099818110466,-0.4147771894931793
1789038145512626000,19.0066259765625,-0.08063415437936783,0.1484401375055313,-0.4257727563381195
1789038145529880000,19.023880126953124,-0.07635809481143951,0.1130099818110466,-0.35674503445625305
1789038145547134200,19.04113427734375,-0.12278381735086441,0.09712749719619751,-0.2565632164478302
1789038145564388400,19.058388427734375,-0.21807873249053955,0.14660754799842834,-0.21258094906806946
1789038145581642800,19.075642822265625,-0.36774060130119324,0.235793799161911,-0.1997527778148651
1789038145598897000,19.09289697265625,-0.5485565662384033,0.27855435013771057,-0.21868959069252014
1789038145616151000,19.110151123046876,-0.6682860851287842,0.20402882993221283,-0.24801109731197357
1789038145633405400,19.127405517578126,-0.6603448390960693,0.08368847519159317,-0.27366742491722107
1789038145650659600,19.14465966796875,-0.6786707639694214,0.059864748269319534,-0.24923282861709595
1789038145667913700,19.161913818359373,-0.7837395071983337,0.03237583488225937,-0.1844811588525772
1789038145685167900,19.17916796875,-0.9022472500801086,0.09162971377372742,-0.14660754799842834
1789038145702422300,19.19642236328125,-0.998153030872345,0.07574722915887833,-0.164322629570961
1789038145719676400,19.213676513671874,-1.0305289030075073,0.0513126403093338,-0.2052505612373352
1789038145736930600,19.2309306640625,-1.033583164215088,-0.07513637095689774,-0.2254091054201126
1789038145754184700,19.248184814453126,-1.045189619064331,-0.020769402384757996,-0.21991132199764252
1789038145771438800,19.26543896484375,-1.1056652069091797,-0.0873536616563797,-0.19914191961288452
1789038145788693200,19.282693359375,-1.0928370952606201,-0.05803215503692627,-0.17653992772102356
1789038145805947400,19.299947509765627,-1.028085470199585,-0.1178968995809555,-0.09162971377372742
1789038145823201500,19.317201416015624,-1.0378592014312744,-0.28527384996414185,0.01893680728971958
1789038145840455700,19.33445556640625,-1.0427461862564087,-0.44959646463394165,0.08491020649671555
1789038145857710000,19.3517099609375,-0.9456186890602112,-0.47464191913604736,0.0360410213470459
1789038145874964200,19.368964111328125,-0.8521563410758972,-0.44837474822998047,-0.050090912729501724
1789038145892218400,19.38621826171875,-0.8845322132110596,-0.4276053309440613,-0.09468404203653336
1789038145909472500,19.403472412109377,-0.860708475112915,-0.3439168632030487,-0.18081597983837128
1789038145926727000,19.420726806640626,-0.8735366463661194,-0.2919933497905731,-0.2419024556875229
1789038145943981000,19.43798095703125,-0.8222240209579468,-0.2675587832927704,-0.3090975880622864
1789038145961235200,19.455235107421874,-0.7965676784515381,-0.3292561173439026,-0.27977606654167175
1789038145978489600,19.472489501953124,-0.7513636946678162,-0.4618137776851654,-0.19730933010578156
1789038145995743700,19.48974365234375,-0.7360920310020447,-0.5699368119239807,-0.11606431007385254
1789038146012998000,19.506997802734375,-0.778241753578186,-0.6255255341529846,-0.06780599057674408
1789038146030252000,19.524251953125,-0.8020654320716858,-0.5259546041488647,-0.07574722915887833
1789038146047506200,19.541506103515626,-0.8026763200759888,-0.4734202027320862,-0.0360410213470459
1789038146064760600,19.558760498046876,-0.7996219992637634,-0.235793799161911,-0.027488915249705315
1789038146082014700,19.5760146484375,-0.7037162184715271,-0.12644900381565094,-0.006108647678047419
1789038146099268900,19.593268798828124,-0.6517927050590515,-0.23273947834968567,0.021991131827235222
1789038146116523300,19.610523193359374,-0.7122683525085449,-0.25534147024154663,0.023212861269712448
1789038146133777400,19.62777734375,-0.7605266571044922,-0.2461785078048706,0.050090912729501724
1789038146151031600,19.645031494140625,-0.7507528066635132,-0.07757982611656189,-0.0030543238390237093
1789038146168285700,19.66228564453125,-0.6994401812553406,0.08918625861406326,-0.0256563201546669
1789038146185540000,19.6795400390625,-0.565049946308136,0.39278605580329895,0.007941242307424545
1789038146202794200,19.696794189453126,-0.4050033390522003,0.5595521330833435,0.04581485688686371
1789038146220048400,19.71404833984375,-0.2889390289783478,0.3280344009399414,-0.024434590712189674
1789038146237302500,19.731302490234373,-0.34697118401527405,0.17348559200763702,-0.09957095980644226
1789038146254556700,19.748556640625,-0.430659681558609,0.12217295914888382,-0.07391463965177536
1789038146271811000,19.76581103515625,-0.3176496922969818,0.01588248461484909,-0.06414080411195755
1789038146289065200,19.783065185546874,-0.21991132199764252,0.09651663154363632,0.011606430634856224
1789038146306319600,19.800319580078124,-0.10873392969369888,0.1692095398902893,0.04459312930703163
1789038146323573800,19.81757373046875,0.012217295356094837,0.24862197041511536,0.017104214057326317
1789038146340828000,19.834827880859375,0.14538581669330597,0.32681265473365784,0.012217295356094837
1789038146358082000,19.85208203125,0.20952661335468292,0.3646862804889679,0.008552107028663158
1789038146375336200,19.869336181640627,0.2614501118659973,0.35735589265823364,-0.015271619893610477
1789038146392590600,19.886590576171876,0.24801109731197357,0.34086254239082336,-0.009162971749901772
1789038146409844700,19.9038447265625,0.3078758418560028,0.3787361681461334,0.05253437161445618
1789038146427099000,19.921098876953124,0.34086254239082336,0.41844236850738525,0.08918625861406326
1789038146444353000,19.93835302734375,0.3952295184135437,0.411722868680954,0.1081230640411377
1789038146461607400,19.955607421875,0.4453204274177551,0.37751442193984985,0.1545487940311432
1789038146478861600,19.972861572265625,0.4868592321872711,0.3536907136440277,0.11423171311616898
1789038146496115700,19.99011572265625,0.5088503360748291,0.34147340059280396,0.13133592903614044
1789038146513369900,20.007369873046876,0.5949822664260864,0.30054548382759094,0.16004657745361328
1789038146530624300,20.024624267578126,0.7721330523490906,0.24801109731197357,0.10445787757635117
1789038146547878400,20.04187841796875,0.8558215498924255,0.328645259141922,0.03481929376721382
1789038146565132500,20.059132568359374,0.8637627959251404,0.4269944727420807,0.010384701192378998
1789038146582386700,20.07638671875,0.9034690260887146,0.37201663851737976,0.007330377586185932
1789038146599640800,20.093640869140625,0.9847140312194824,0.19120067358016968,0.017715077847242355
1789038146616895200,20.110895263671875,1.0262528657913208,0.17348559200763702,0.07330377399921417
1789038146634149400,20.1281494140625,1.008537769317627,0.16798780858516693,0.18692462146282196
1789038146651403500,20.145403564453126,0.9492838382720947,0.1649334877729416,0.2767217457294464
1789038146668658000,20.162657958984376,0.9230166673660278,0.15088360011577606,0.3139844834804535
1789038146685912000,20.179912109375,1.000596523284912,0.2571740746498108,0.25534147024154663
1789038146703166200,20.197166259765623,1.01708984375,0.4166097939014435,0.26450446248054504
1789038146720420400,20.21442041015625,1.0177006721496582,0.39400777220726013,0.24373504519462585
1789038146737674500,20.231674560546875,0.9731075763702393,0.3249800503253937,0.24556763470172882
1789038146754928600,20.2489287109375,0.8936951756477356,0.29077163338661194,0.2571740746498108
1789038146772183000,20.26618310546875,0.8655954003334045,0.37201663851737976,0.2675587832927704
1789038146789437200,20.283437255859376,0.8344413042068481,0.3426951467990875,0.3182605504989624
1789038146806691300,20.30069140625,0.8148936033248901,0.2724456787109375,0.3017672002315521
1789038146823945500,20.317945556640623,0.8112284541130066,0.23945899307727814,0.31031930446624756
1789038146841199900,20.335199951171877,0.8112284541130066,0.19120067358016968,0.32009315490722656
1789038146858454000,20.3524541015625,0.7904590368270874,0.09285144507884979,0.32131487131118774
1789038146875708200,20.369708251953124,0.7617483735084534,0.03848448023200035,0.379347026348114
1789038146892962300,20.38696240234375,0.7531962990760803,-0.01588248461484909,0.3695732057094574
1789038146910216700,20.404216796875,0.7574723362922668,0.017715077847242355,0.37629270553588867
1789038146927470800,20.421470947265625,0.721431314945221,-0.001832594396546483,0.401949018239975
1789038146944725000,20.43872509765625,0.6548470258712769,0.003665188793092966,0.3445277214050293
1789038146961979100,20.455979248046877,0.6499601006507874,0.07269290834665298,0.3127627670764923
1789038146979233300,20.4732333984375,0.6359102129936218,-0.01588248461484909,0.31031930446624756
1789038146996487400,20.4904873046875,0.6395754218101501,0.11239911615848541,0.22357651591300964
1789038147013741800,20.507741943359374,0.6462949514389038,0.13194678723812103,0.12767073512077332
1789038147030996000,20.524995849609375,0.5797106623649597,-0.01954767294228077,0.09957095980644226
1789038147048250000,20.54225,0.47464191913604736,-0.012217295356094837,0.049480047076940536
1789038147065504300,20.559504150390627,0.4367683231830597,-0.017104214057326317,0.05192350596189499
1789038147082758700,20.576758544921876,0.4276053309440613,-0.059864748269319534,0.05070177838206291
1789038147100012800,20.5940126953125,0.379347026348114,-0.09346231073141098,0.12034036219120026
1789038147117267000,20.611266845703124,0.37201663851737976,-0.10079269111156464,0.18753549456596375
1789038147134521000,20.62852099609375,0.3707949221134186,-0.1233946830034256,0.23029601573944092
1789038147151775200,20.645775146484375,0.27550002932548523,-0.1233946830034256,0.2406807243824005
1789038147169029400,20.663029296875,0.12400554865598679,-0.014049889519810677,0.19669845700263977
1789038147186283800,20.68028369140625,0.007941242307424545,0.021380268037319183,0.1899789422750473
1789038147203538000,20.697537841796876,-0.02871064469218254,-0.015271619893610477,0.185092031955719
1789038147220792000,20.7147919921875,0.003665188793092966,-0.02932151034474373,0.18264856934547424
1789038147238046200,20.732046142578124,0.013439024798572063,0.0513126403093338,0.17348559200763702
1789038147255300400,20.74930029296875,0.001832594396546483,0.007330377586185932,0.12522727251052856
1789038147272554500,20.766554443359375,-0.03298669680953026,-0.13683371245861053,0.07635809481143951
1789038147289809000,20.783808837890625,-0.11728604137897491,-0.17776164412498474,-0.026878049597144127
1789038147307063000,20.80106298828125,-0.17776164412498474,-0.059864748269319534,-0.11178825795650482
1789038147324317200,20.818317138671876,-0.1539379209280014,-0.03176496922969818,-0.10384701192378998
1789038147341571300,20.8355712890625,-0.0616973415017128,-0.020158538594841957,-0.11484257876873016
1789038147358825700,20.85282568359375,0.023823726922273636,0.007330377586185932,-0.16798780858516693
1789038147376080000,20.870079833984374,0.043982263654470444,0.008552107028663158,-0.20830489695072174
1789038147393334000,20.887333984375,-0.012217295356094837,0.037262752652168274,-0.2828303873538971
1789038147410588200,20.904588134765625,-0.0513126403093338,0.06841685622930527,-0.3946186602115631
1789038147427842300,20.92184228515625,-0.0030543238390237093,0.04764745384454727,-0.45937031507492065
1789038147445096400,20.939096435546876,0.0054977829568088055,0.03481929376721382,-0.5180133581161499
1789038147462350800,20.956350830078126,-0.0769689604640007,0.026878049597144127,-0.5784889459609985
1789038147479605000,20.97360498046875,-0.1533270627260208,-0.006108647678047419,-0.6017017960548401
1789038147496859100,20.990859130859373,-0.22357651591300964,0.09590577334165573,-0.6395754218101501
1789038147514113300,21.00811328125,-0.31031930446624756,0.24434591829776764,-0.66645348072052
1789038147531367400,21.025367431640625,-0.39217519760131836,0.3488037884235382,-0.6493492722511292
1789038147548621600,21.04262158203125,-0.5222893953323364,0.3023780584335327,-0.6114756464958191
1789038147565876000,21.0598759765625,-0.5797106623649597,0.12583814561367035,-0.5723803043365479
1789038147583130000,21.077130126953126,-0.6163625717163086,-0.014660755172371864,-0.5259546041488647
1789038147600384300,21.09438427734375,-0.6737838387489319,-0.018325943499803543,-0.48502662777900696
1789038147617638400,21.111638427734373,-0.7385355234146118,0.0409279391169548,-0.39828383922576904
1789038147634892500,21.128892578125,-0.8448259830474854,0.04581485688686371,-0.3139844834804535
1789038147652146700,21.146146728515625,-0.9297361969947815,-0.05192350596189499,-0.37812530994415283
1789038147669400800,21.16340087890625,-1.0060943365097046,-0.16004657745361328,-0.44409868121147156
1789038147686655200,21.1806552734375,-1.1233803033828735,-0.3249800503253937,-0.3390299379825592
1789038147703909400,21.197909423828126,-1.360395908355713,-0.5412262082099915,-0.43921178579330444
1789038147721163500,21.21516357421875,-1.7715078592300415,-0.164322629570961,-0.4062250852584839
1789038147738417700,21.232417724609373,-1.6896519660949707,-0.6255255341529846,0.08429934084415436
1789038147755671800,21.249671875,-0.6939423680305481,-0.9645555019378662,-0.043982263654470444
1789038147772926000,21.266926025390624,-0.3530798554420471,-0.7147117853164673,-0.430659681558609
1789038147790180400,21.284180419921874,-0.8191696405410767,-0.4667007029056549,-0.7648026943206787
1789038147807434500,21.3014345703125,-1.2913681268692017,-0.6719512343406677,-0.6530144214630127
1789038147824688600,21.318688720703125,-1.3909391164779663,-0.5748237371444702,-0.35063639283180237
1789038147841942800,21.33594287109375,-0.9602794051170349,-0.3903425931930542,-0.1795942485332489
