time,seconds_elapsed,z,y,x
1791022280778249500,0.06324951171875,0,0,0
1791022280788249600,0.07324951171875,0.06707763671875,0.11614012718200684,0.2054729461669922
1791022280798249500,0.08324951171875,0.01552581787109375,0.10627150535583496,0.06892001628875732
1791022280808249300,0.093249267578125,-0.04245185852050781,-0.17417144775390625,-0.5679397583007812
1791022280818249500,0.10324951171875,-0.08079147338867188,-0.16899847984313965,-0.9239529371261597
1791022280828249600,0.11324951171875,0.33625030517578125,-0.0802314281463623,-1.093786597251892
1791022280838249500,0.12324951171875,1.2217073440551758,-1.1610820293426514,-0.9817363023757935
1791022280848249300,0.133249267578125,1.8453550338745117,-2.065709352493286,-0.7466137409210205
1791022280858249500,0.14324951171875,2.186138153076172,-1.8268872499465942,-0.9943861961364746
1791022280868249600,0.15324951171875,2.1173887252807617,-2.492800712585449,0.5293149948120117
1791022280878249500,0.16324951171875,1.1539020538330078,-1.342776894569397,1.2899800539016724
1791022280888249300,0.173249267578125,0.38332653045654297,0.11719918251037598,0.830083966255188
1791022280898249500,0.18324951171875,-0.0583343505859375,0.7458473443984985,1.6063153743743896
1791022280908249600,0.19324951171875,-0.39743518829345703,1.1086176633834839,1.9738996028900146
1791022280918249500,0.20324951171875,-0.8542137145996094,1.154557704925537,2.0216124057769775
1791022280928249300,0.213249267578125,-1.325845718383789,0.9374107122421265,1.5993309020996094
1791022280938249500,0.22324951171875,-1.7774019241333008,0.8174877166748047,0.40410128235816956
1791022280948249600,0.23324951171875,-1.347391128540039,0.8905110359191895,-1.1356353759765625
1791022280958249500,0.24324951171875,-0.18366241455078125,1.1004832983016968,-2.514049768447876
1791022280968249300,0.253249267578125,0.6773042678833008,1.229438304901123,-3.148451328277588
1791022280978249500,0.26324951171875,2.4094152450561523,0.6103819608688354,-2.949125289916992
1791022280988249600,0.27324951171875,1.5326728820800781,0.6053812503814697,-1.4723730087280273
1791022280998249500,0.28324951171875,3.5805788040161133,1.4648025035858154,-2.4918882846832275
1791022281008249300,0.293249267578125,2.2858619689941406,1.337911605834961,-1.5238518714904785
1791022281018249500,0.30324951171875,-1.376607894897461,-0.247206449508667,2.7820677757263184
1791022281028249600,0.31324951171875,-2.9425487518310547,-0.3714585304260254,3.773599624633789
1791022281038249500,0.32324951171875,-2.831747531890869,0.8351311683654785,3.089808464050293
1791022281048249300,0.333249267578125,-2.79738712310791,1.3198175430297852,2.329517126083374
1791022281058249500,0.34324951171875,-2.1128458976745605,1.1609511375427246,1.8376208543777466
1791022281068249600,0.35324951171875,-0.4587125778198242,1.033440113067627,0.789795994758606
1791022281078249500,0.36324951171875,3.0178327560424805,1.2413065433502197,-0.7890274524688721
1791022281088249300,0.373249267578125,3.6255064010620117,0.842808723449707,-0.8545365333557129
1791022281098249500,0.38324951171875,4.003554344177246,-0.035967111587524414,-0.5350325107574463
1791022281108249600,0.39324951171875,2.2634992599487305,-1.0539002418518066,0.08561468124389648
1791022281118249500,0.40324951171875,1.1319303512573242,-1.2974960803985596,0.8267080783843994
1791022281128249300,0.413249267578125,0.6382761001586914,-1.467879295349121,2.4396591186523438
1791022281138249500,0.42324951171875,-0.14238834381103516,-1.3403329849243164,2.9787497520446777
1791022281148249600,0.43324951171875,-0.4036598205566406,-1.3075273036956787,2.355926275253296
1791022281158249500,0.44324951171875,-0.8241310119628906,-0.9590953588485718,1.279576063156128
1791022281168249300,0.453249267578125,-1.050553321838379,-0.2702775001525879,-0.6442458629608154
1791022281178249500,0.46324951171875,-1.0431861877441406,0.27766847610473633,-2.380156993865967
1791022281188249600,0.47324951171875,-0.6893215179443359,0.4083716869354248,-3.3216867446899414
1791022281198249500,0.48324951171875,-0.6634626388549805,0.41573023796081543,-3.4262208938598633
1791022281208249300,0.493249267578125,-0.7155427932739258,0.5440247058868408,-2.889734983444214
1791022281218249500,0.50324951171875,-1.0214338302612305,0.513817548751831,-2.211435556411743
1791022281228249600,0.51324951171875,-2.1414012908935547,0.049561500549316406,-1.0999946594238281
1791022281238249500,0.52324951171875,-2.100947856903076,-0.32111501693725586,-0.21556571125984192
1791022281248249300,0.533249267578125,-2.051835536956787,-0.2841968536376953,-0.18324515223503113
1791022281258249500,0.54324951171875,-2.255138397216797,-0.7013504505157471,-0.4552335739135742
1791022281268249600,0.55324951171875,-1.3241815567016602,-0.1632704734802246,-0.30450233817100525
1791022281278249500,0.56324951171875,-1.0578022003173828,0.4185764789581299,-0.20881742238998413
1791022281288249300,0.573249267578125,-1.4725465774536133,0.19863319396972656,0.057588934898376465
1791022281298249500,0.58324951171875,-1.485090732574463,-0.06812262535095215,0.49435776472091675
1791022281308249600,0.59324951171875,-0.974024772644043,0.09875726699829102,0.5996097922325134
1791022281318249500,0.60324951171875,-0.558929443359375,0.26294922828674316,0.671389102935791
1791022281328249300,0.613249267578125,-0.65557861328125,0.009231090545654297,0.8987510204315186
1791022281338249500,0.62324951171875,-0.7525796890258789,-0.5301005840301514,0.9068915843963623
1791022281348249600,0.63324951171875,-0.34607791900634766,-0.7910318374633789,0.9812917709350586
1791022281358249500,0.64324951171875,1.3590049743652344,-0.9007585048675537,2.321282148361206
1791022281368249300,0.653249267578125,0.014948844909667969,-0.9139404296875,2.808985710144043
1791022281378249500,0.66324951171875,-0.9452915191650391,0.40093517303466797,3.059478759765625
1791022281388249600,0.67324951171875,-1.2730622291564941,1.369591474533081,2.8947737216949463
1791022281398249500,0.68324951171875,-1.9747600555419922,1.3768963813781738,3.776839256286621
1791022281408249300,0.693249267578125,-2.357699394226074,1.0966639518737793,3.4105749130249023
1791022281418249500,0.70324951171875,-2.9962644577026367,1.0574939250946045,2.1679091453552246
1791022281428249600,0.71324951171875,-3.2850027084350586,0.8498623371124268,1.2340826988220215
1791022281438249500,0.72324951171875,-2.8812780380249023,0.6081039905548096,0.13837242126464844
1791022281448249300,0.733249267578125,-2.1860837936401367,0.03978562355041504,-0.22165203094482422
1791022281458249500,0.74324951171875,-1.406270980834961,-0.3500182628631592,0.042572021484375
1791022281468249600,0.75324951171875,-0.7023568153381348,-0.29994726181030273,0.40578365325927734
1791022281478249500,0.76324951171875,-0.19321870803833008,-0.3829991817474365,1.051680088043213
1791022281488249300,0.773249267578125,0.3303542137145996,-0.6867194175720215,1.41780424118042
1791022281498249500,0.78324951171875,0.7465152740478516,-0.9620821475982666,1.3371567726135254
1791022281508249600,0.79324951171875,0.45610713958740234,-1.089487075805664,0.6386785507202148
1791022281518249500,0.80324951171875,-0.3976140022277832,-0.9982521533966064,0.13669586181640625
1791022281528249300,0.813249267578125,-1.4246501922607422,-0.8647396564483643,0.15360784530639648
1791022281538249500,0.82324951171875,-1.686943531036377,-1.1480977535247803,0.46697425842285156
1791022281548249600,0.83324951171875,-0.9695944786071777,-1.7430663108825684,0.7284660339355469
1791022281558249500,0.84324951171875,0.3149251937866211,-2.190988540649414,-0.06738710403442383
1791022281568249300,0.853249267578125,1.1048674583435059,-2.536085605621338,-1.1532163619995117
1791022281578249500,0.86324951171875,1.1004681587219238,-3.214628219604492,-1.1424832344055176
1791022281588249600,0.87324951171875,0.8673686981201172,-5.084960460662842,1.7532196044921875
1791022281598249500,0.88324951171875,0.5000324249267578,-6.582727432250977,4.8342108726501465
1791022281608249300,0.893249267578125,-0.007206916809082031,-3.6624882221221924,3.8240981101989746
1791022281618249500,0.90324951171875,0.4689497947692871,-1.069161295890808,-0.36995410919189453
1791022281628249600,0.91324951171875,1.345005989074707,-0.9122073650360107,-5.043024063110352
1791022281638249500,0.92324951171875,2.2228705883026123,-1.9157519340515137,-7.4049882888793945
1791022281648249300,0.933249267578125,2.8304007053375244,-3.1007049083709717,-7.310901165008545
1791022281658249500,0.94324951171875,3.3569302558898926,-3.6517093181610107,-6.531462669372559
1791022281668249600,0.95324951171875,3.7259175777435303,-3.7683680057525635,-5.09712553024292
1791022281678249500,0.96324951171875,3.634077548980713,-3.9252419471740723,-3.9290237426757812
1791022281688249300,0.973249267578125,3.2045929431915283,-4.363490104675293,-3.4410085678100586
1791022281698249500,0.98324951171875,2.2425127029418945,-3.7057676315307617,-3.2503151893615723
1791022281708249600,0.99324951171875,1.085345983505249,-2.862475633621216,-2.488849639892578
1791022281718249500,1.00324951171875,-0.24537444114685059,-1.225549578666687,1.99700927734375
1791022281728249300,1.013249267578125,-2.948103904724121,2.75054931640625,13.019874572753906
1791022281738249500,1.02324951171875,-4.266623020172119,2.837357997894287,7.95384407043457
1791022281748249600,1.03324951171875,-1.4139894247055054,0.45687949657440186,-4.422041416168213
1791022281758249500,1.04324951171875,2.926182270050049,-0.5958682298660278,-6.588095188140869
1791022281768249300,1.053249267578125,3.2213151454925537,0.7583150863647461,2.7057647705078125
1791022281778249500,1.06324951171875,3.103020668029785,0.8118578791618347,2.944551467895508
1791022281788249600,1.07324951171875,3.420987129211426,-1.406221628189087,-5.27142333984375
1791022281798249500,1.08324951171875,4.185860633850098,-2.1525051593780518,-7.336802959442139
1791022281808249300,1.093249267578125,2.8688266277313232,-2.488837718963623,-1.393904685974121
1791022281818249500,1.10324951171875,2.871958017349243,-3.108835458755493,3.063961982727051
1791022281828249600,1.11324951171875,3.364283800125122,-2.5484116077423096,5.178475379943848
1791022281838249500,1.12324951171875,3.941366195678711,-1.6351430416107178,5.122812271118164
1791022281848249300,1.133249267578125,2.815671920776367,-0.1812889575958252,4.854696273803711
1791022281858249500,1.14324951171875,0.5182331204414368,-0.47910141944885254,3.040842056274414
1791022281868249600,1.15324951171875,-1.2231587171554565,-0.5145010948181152,3.07363224029541
1791022281878249500,1.16324951171875,-1.1654361486434937,-0.09860610961914062,2.4821548461914062
1791022281888249300,1.173249267578125,-0.2958734929561615,0.00002193450927734375,2.63596248626709
1791022281898249500,1.18324951171875,0.35553428530693054,-0.0957479476928711,3.1965560913085938
1791022281908249600,1.19324951171875,0.9035555720329285,-0.5646166801452637,4.174483299255371
1791022281918249500,1.20324951171875,1.6888206005096436,-0.5643219947814941,5.574389457702637
1791022281928249300,1.213249267578125,3.4727795124053955,-0.4357876777648926,5.643890380859375
1791022281938249500,1.22324951171875,3.105888843536377,-1.0700349807739258,5.770787239074707
1791022281948249600,1.23324951171875,1.525838851928711,-0.42465686798095703,5.642077922821045
1791022281958249500,1.24324951171875,2.1911447048187256,-2.0394363403320312,6.695428371429443
1791022281968249300,1.253249267578125,3.604269504547119,-3.02932071685791,6.463796615600586
1791022281978249500,1.26324951171875,5.846258163452148,-2.2483534812927246,5.442362308502197
1791022281988249600,1.27324951171875,7.379697799682617,-2.754178524017334,5.015988826751709
1791022281998249500,1.28324951171875,6.259676933288574,-3.744948387145996,4.144490718841553
1791022282008249300,1.293249267578125,0.7637979984283447,-3.001326084136963,2.6400604248046875
1791022282018249500,1.30324951171875,-6.3424906730651855,-1.3452973365783691,2.7840538024902344
1791022282028249600,1.31324951171875,-12.35765266418457,-0.4688858985900879,4.792470932006836
1791022282038249500,1.32324951171875,-11.252476692199707,0.6672663688659668,5.593080997467041
1791022282048249300,1.333249267578125,-8.383441925048828,1.5273041725158691,5.48431396484375
1791022282058249500,1.34324951171875,-4.425477504730225,1.5551824569702148,6.9028096199035645
1791022282068249600,1.35324951171875,-4.388558864593506,1.8348703384399414,6.679664134979248
1791022282078249500,1.36324951171875,-4.016355514526367,1.3048896789550781,5.257725238800049
1791022282088249300,1.373249267578125,-1.5738568305969238,0.5340046882629395,3.142967700958252
1791022282098249500,1.38324951171875,-0.01943492889404297,0.09624385833740234,2.9723238945007324
1791022282108249600,1.39324951171875,0.9467496871948242,-0.5790352821350098,2.0882506370544434
1791022282118249500,1.40324951171875,1.2063281536102295,-0.6315889358520508,1.4947314262390137
1791022282128249300,1.413249267578125,0.024963855743408203,0.9422793388366699,-0.4236922264099121
1791022282138249500,1.42324951171875,-2.1834492683410645,1.6998176574707031,1.137678623199463
1791022282148249600,1.43324951171875,-3.3480093479156494,2.9698691368103027,4.272369384765625
1791022282158249500,1.44324951171875,-1.8233413696289062,4.570664882659912,7.362316131591797
1791022282168249300,1.453249267578125,-3.645141124725342,5.961664199829102,9.661487579345703
1791022282178249500,1.46324951171875,-5.4370503425598145,6.616734504699707,9.780841827392578
1791022282188249600,1.47324951171875,-5.497412204742432,7.493913173675537,8.563982009887695
1791022282198249500,1.48324951171875,-5.409893989562988,7.7313923835754395,7.693733215332031
1791022282208249300,1.493249267578125,-5.11782169342041,6.97813081741333,9.091593742370605
1791022282218249500,1.50324951171875,-2.2340598106384277,5.029547691345215,13.242053985595703
1791022282228249600,1.51324951171875,-0.26292335987091064,3.8695101737976074,11.367803573608398
1791022282238249500,1.52324951171875,-2.7781810760498047,1.156360149383545,-3.3093342781066895
1791022282248249300,1.533249267578125,-1.8689829111099243,0.0003495216369628906,-6.153425693511963
1791022282258249500,1.54324951171875,0.34563642740249634,0.4342021942138672,-2.104482650756836
1791022282268249600,1.55324951171875,2.3659586906433105,0.9960219860076904,1.9678449630737305
1791022282278249500,1.56324951171875,2.2668395042419434,-0.11705493927001953,2.8639307022094727
1791022282288249300,1.573249267578125,0.20885908603668213,0.40323710441589355,8.312719345092773
1791022282298249500,1.58324951171875,4.623847961425781,-1.7014031410217285,2.8585166931152344
1791022282308249600,1.59324951171875,10.805548667907715,-4.879408836364746,-7.990016937255859
1791022282318249500,1.60324951171875,14.40557861328125,-7.521185874938965,-12.192702293395996
1791022282328249300,1.613249267578125,11.323224067687988,-8.385113716125488,-8.460017204284668
1791022282338249500,1.62324951171875,4.5627312660217285,-7.318117141723633,-4.491996765136719
1791022282348249600,1.63324951171875,0.4052445888519287,-6.273800849914551,-3.9211959838867188
1791022282358249500,1.64324951171875,-2.40279221534729,-5.623723983764648,-4.075289249420166
1791022282368249300,1.653249267578125,-3.9193503856658936,-5.467781066894531,-3.224947929382324
1791022282378249500,1.66324951171875,-3.417320728302002,-5.403787612915039,-1.2009696960449219
1791022282388249600,1.67324951171875,-1.5450854301452637,-4.546499252319336,0.5319862365722656
1791022282398249500,1.68324951171875,0.06257033348083496,-3.512275218963623,1.1942129135131836
1791022282408249300,1.693249267578125,-0.12070894241333008,-2.6038684844970703,1.7377958297729492
1791022282418249500,1.70324951171875,-0.4953494071960449,-1.1382895708084106,2.782290458679199
1791022282428249600,1.71324951171875,0.2933669090270996,1.0234540700912476,2.8848876953125
1791022282438249500,1.72324951171875,0.923626184463501,2.5562500953674316,2.856572151184082
1791022282448249300,1.733249267578125,0.7014732360839844,2.5723206996917725,4.093201637268066
1791022282458249500,1.74324951171875,-0.44849205017089844,2.0693793296813965,5.425515174865723
1791022282468249600,1.75324951171875,-1.7806663513183594,1.511751651763916,4.82264518737793
1791022282478249500,1.76324951171875,-1.5484051704406738,0.842315137386322,2.6064624786376953
1791022282488249300,1.773249267578125,0.043462276458740234,0.2703741490840912,0.22368144989013672
1791022282498249500,1.78324951171875,0.28066015243530273,0.2909153997898102,1.3524513244628906
1791022282508249600,1.79324951171875,1.1151857376098633,0.5728931427001953,2.701779365539551
1791022282518249500,1.80324951171875,1.7207014560699463,0.01269763708114624,2.7708044052124023
1791022282528249300,1.813249267578125,3.2115347385406494,-0.38874220848083496,2.5969200134277344
1791022282538249500,1.82324951171875,3.0866355895996094,-1.4378268718719482,-0.8040771484375
1791022282548249600,1.83324951171875,2.1413261890411377,-2.5688600540161133,-1.0579848289489746
1791022282558249500,1.84324951171875,0.7692508697509766,-2.212949752807617,0.021420001983642578
1791022282568249300,1.853249267578125,-1.2114253044128418,-1.9734474420547485,0.7257547378540039
1791022282578249500,1.86324951171875,-0.472928524017334,-1.1755987405776978,1.6947331428527832
1791022282588249600,1.87324951171875,3.7577695846557617,-1.8903253078460693,1.1282658576965332
1791022282598249500,1.88324951171875,7.985556602478027,-3.343651533126831,-2.2017149925231934
1791022282608249300,1.893249267578125,10.227340698242188,-4.234882831573486,-3.4464330673217773
1791022282618249500,1.90324951171875,10.564870834350586,-5.793707370758057,-6.653933525085449
1791022282628249600,1.91324951171875,5.109027862548828,-6.179858684539795,-10.05284309387207
1791022282638249500,1.92324951171875,-8.369832992553711,-3.152162790298462,-5.584428310394287
1791022282648249300,1.933249267578125,-14.031708717346191,0.3989994525909424,-1.0567083358764648
1791022282658249500,1.94324951171875,-7.790685176849365,2.210747241973877,-1.9578146934509277
1791022282668249600,1.95324951171875,-0.9642529487609863,2.222076416015625,-2.9802632331848145
1791022282678249500,1.96324951171875,1.7080178260803223,1.6941561698913574,-1.574446678161621
1791022282688249300,1.973249267578125,1.7836837768554688,2.8439953327178955,1.3031916618347168
1791022282698249500,1.98324951171875,-0.7549710273742676,5.125530242919922,4.245675086975098
1791022282708249600,1.99324951171875,-2.6720004081726074,6.077211380004883,4.703425884246826
1791022282718249500,2.00324951171875,-1.8999719619750977,6.0371503829956055,2.317202568054199
1791022282728249300,2.013249267578125,-1.2003560066223145,6.018328666687012,0.972954273223877
1791022282738249500,2.02324951171875,-1.9294614791870117,6.1445112228393555,1.8162846565246582
1791022282748249600,2.03324951171875,-1.4644289016723633,4.808075904846191,0.8120379447937012
1791022282758249500,2.04324951171875,0.33329200744628906,2.6747281551361084,-0.9259490966796875
1791022282768249300,2.053249267578125,1.9930076599121094,-0.09750771522521973,-2.1768221855163574
1791022282778249500,2.06324951171875,3.808105945587158,-1.9255197048187256,-2.890286445617676
1791022282788249600,2.07324951171875,4.778510093688965,-3.257017135620117,-4.417084217071533
1791022282798249500,2.08324951171875,4.028206825256348,-4.1574554443359375,-4.721711158752441
1791022282808249300,2.093249267578125,3.259026050567627,-4.697968482971191,-3.790480375289917
1791022282818249500,2.10324951171875,2.8990650177001953,-4.947314739227295,-2.7671031951904297
1791022282828249600,2.11324951171875,3.014127731323242,-5.126842498779297,-2.8826770782470703
1791022282838249500,2.12324951171875,2.957061767578125,-4.465239524841309,-3.1510238647460938
1791022282848249300,2.133249267578125,1.8707685470581055,-4.0199103355407715,-3.263598918914795
1791022282858249500,2.14324951171875,0.9538545608520508,-3.546178102493286,-2.955327033996582
1791022282868249600,2.15324951171875,0.9093818664550781,-2.7335846424102783,-3.4006083011627197
1791022282878249500,2.16324951171875,1.2772369384765625,-1.7101565599441528,-3.4335267543792725
1791022282888249300,2.173249267578125,0.11913013458251953,-1.631690502166748,-1.6231586933135986
1791022282898249500,2.18324951171875,-0.8286476135253906,-2.2168149948120117,-0.21693873405456543
1791022282908249600,2.19324951171875,-1.0887641906738281,-2.334007740020752,0.3153724670410156
1791022282918249500,2.20324951171875,-0.3685007095336914,-1.9914215803146362,-0.6187026500701904
1791022282928249300,2.213249267578125,0.11331367492675781,-1.6067379713058472,-1.5424308776855469
1791022282938249500,2.22324951171875,0.0022335052490234375,-1.427394986152649,-2.7078022956848145
1791022282948249600,2.23324951171875,-0.6528911590576172,-1.4313066005706787,-3.4966540336608887
1791022282958249500,2.24324951171875,-1.5327262878417969,-1.4840807914733887,-3.539639472961426
1791022282968249300,2.253249267578125,-1.8390541076660156,-1.6187546253204346,-4.632701396942139
1791022282978249500,2.26324951171875,-0.5807113647460938,-2.167935371398926,-6.977521896362305
1791022282988249600,2.27324951171875,1.1548728942871094,-3.69270920753479,-5.5533294677734375
1791022282998249500,2.28324951171875,1.9386258125305176,-4.871376991271973,-2.545048236846924
1791022283008249300,2.293249267578125,4.196564197540283,-5.348540306091309,-1.3092355728149414
1791022283018249500,2.30324951171875,6.827807903289795,-6.0936808586120605,-0.7361793518066406
1791022283028249600,2.31324951171875,8.851696014404297,-7.187779426574707,-1.2731661796569824
1791022283038249500,2.32324951171875,8.34475326538086,-8.075151443481445,1.7457599639892578
1791022283048249300,2.333249267578125,6.395138740539551,-7.750740051269531,5.329970836639404
1791022283058249500,2.34324951171875,3.341888427734375,-6.214877128601074,7.581973552703857
1791022283068249600,2.35324951171875,1.807675838470459,-3.1902804374694824,8.505197525024414
1791022283078249500,2.36324951171875,0.4492926597595215,-0.908790111541748,8.615476608276367
1791022283088249300,2.373249267578125,0.19628143310546875,0.43373429775238037,8.40727424621582
1791022283098249500,2.38324951171875,-0.38749122619628906,1.989758849143982,10.481096267700195
1791022283108249600,2.39324951171875,-2.2047643661499023,3.4722933769226074,12.485471725463867
1791022283118249500,2.40324951171875,-5.144219398498535,4.842324256896973,11.712898254394531
1791022283128249300,2.413249267578125,-6.865361213684082,5.242307662963867,9.69346809387207
1791022283138249500,2.42324951171875,-6.109523296356201,4.690305233001709,6.4326372146606445
1791022283148249600,2.43324951171875,-5.39866304397583,4.22014045715332,5.040543079376221
1791022283158249500,2.44324951171875,-4.810993194580078,2.963008165359497,6.444499969482422
1791022283168249300,2.453249267578125,-4.724269390106201,2.8763532638549805,7.503935813903809
1791022283178249500,2.46324951171875,-4.746923923492432,3.077005624771118,5.964591026306152
1791022283188249600,2.47324951171875,-3.5237908363342285,1.6706342697143555,1.672673225402832
1791022283198249500,2.48324951171875,-2.4528746604919434,-0.3245375156402588,-1.696136474609375
1791022283208249300,2.493249267578125,-1.3554253578186035,-2.337754011154175,-3.7369542121887207
1791022283218249500,2.50324951171875,-0.8278336524963379,-2.9425079822540283,-3.125199317932129
1791022283228249600,2.51324951171875,-1.0208015441894531,-2.370656967163086,-3.6139893531799316
1791022283238249500,2.52324951171875,-1.4439873695373535,-2.117121458053589,-6.347230911254883
1791022283248249300,2.533249267578125,-1.750152587890625,-2.7656354904174805,-7.856480121612549
1791022283258249500,2.54324951171875,-0.9272537231445312,-3.4930858612060547,-7.928749084472656
1791022283268249600,2.55324951171875,0.9899091720581055,-3.580742835998535,-8.037077903747559
1791022283278249500,2.56324951171875,3.244600772857666,-3.9104702472686768,-7.867160797119141
1791022283288249300,2.573249267578125,4.684909820556641,-4.37003755569458,-7.51982307434082
1791022283298249500,2.58324951171875,5.419228553771973,-4.845746040344238,-6.602079391479492
1791022283308249600,2.59324951171875,5.659411430358887,-5.429753303527832,-5.276541709899902
1791022283318249500,2.60324951171875,5.152097225189209,-5.623837471008301,-3.5386757850646973
1791022283328249300,2.613249267578125,5.14364767074585,-5.639503002166748,-1.2554121017456055
1791022283338249500,2.62324951171875,4.959014892578125,-4.734147071838379,2.1334519386291504
1791022283348249600,2.63324951171875,4.38734769821167,-3.5478153228759766,5.426429748535156
1791022283358249500,2.64324951171875,1.7827136516571045,-2.08573579788208,8.458635330200195
1791022283368249300,2.653249267578125,0.518216609954834,-1.5753693580627441,8.423356056213379
1791022283378249500,2.66324951171875,0.9255423545837402,-1.3688468933105469,4.884655952453613
1791022283388249600,2.67324951171875,-2.5367112159729004,-0.15693140029907227,5.817216873168945
1791022283398249500,2.68324951171875,-10.63168716430664,2.296065330505371,11.854110717773438
1791022283408249300,2.693249267578125,-20.251487731933594,4.3833394050598145,12.587696075439453
1791022283418249500,2.70324951171875,-17.822315216064453,6.178730010986328,7.879664421081543
1791022283428249600,2.71324951171875,-8.130168914794922,7.017086029052734,6.001516342163086
1791022283438249500,2.72324951171875,-1.6078777313232422,6.8569183349609375,4.400909423828125
1791022283448249300,2.733249267578125,0.3021230697631836,5.952807903289795,1.336808204650879
1791022283458249500,2.74324951171875,0.40901613235473633,4.47585916519165,-1.5897636413574219
1791022283468249600,2.75324951171875,1.469679832458496,3.147397756576538,-2.828855276107788
1791022283478249500,2.76324951171875,3.4817557334899902,2.0080862045288086,-4.768333911895752
1791022283488249300,2.773249267578125,4.861164093017578,1.118520736694336,-6.585355758666992
1791022283498249500,2.78324951171875,5.393270492553711,1.07875394821167,-7.218805313110352
1791022283508249600,2.79324951171875,6.302711486816406,1.3999180793762207,-7.111135482788086
1791022283518249500,2.80324951171875,6.7208147048950195,1.7223000526428223,-6.322652816772461
1791022283528249300,2.813249267578125,7.930746078491211,1.3920683860778809,-6.132234573364258
1791022283538249500,2.82324951171875,8.609579086303711,0.687748908996582,-5.941609859466553
1791022283548249600,2.83324951171875,9.15032958984375,-0.9554891586303711,-6.426973819732666
1791022283558249500,2.84324951171875,6.082067489624023,-2.1858582496643066,-7.741647720336914
1791022283568249300,2.853249267578125,-3.1675992012023926,-4.494574069976807,-6.41973352432251
1791022283578249500,2.86324951171875,-7.49065637588501,-3.886061668395996,5.081279754638672
1791022283588249600,2.87324951171875,-11.43903923034668,-2.0505566596984863,23.926259994506836
1791022283598249500,2.88324951171875,-11.592447280883789,-0.9591474533081055,23.87948226928711
1791022283608249300,2.893249267578125,-4.6307878494262695,1.372483253479004,13.674393653869629
1791022283618249500,2.90324951171875,-0.8247137069702148,1.4921889305114746,5.7122297286987305
1791022283628249600,2.91324951171875,0.0046710968017578125,0.6938333511352539,1.85170316696167
1791022283638249500,2.92324951171875,1.5818066596984863,-0.2570796012878418,-0.2752227783203125
1791022283648249300,2.933249267578125,4.195839881896973,-0.8995537757873535,-2.127504825592041
1791022283658249500,2.94324951171875,4.762208938598633,-0.782163143157959,-5.951419353485107
1791022283668249600,2.95324951171875,2.2884511947631836,-0.07234764099121094,-9.685791015625
1791022283678249500,2.96324951171875,2.9059579372406006,1.1912546157836914,-11.188783645629883
1791022283688249300,2.973249267578125,0.6868867874145508,0.6959095001220703,-9.695009231567383
1791022283698249500,2.98324951171875,-1.447279930114746,-1.6578927040100098,-5.353151798248291
1791022283708249600,2.99324951171875,-2.270263195037842,-1.4196066856384277,-1.853926658630371
1791022283718249500,3.00324951171875,-0.08332967758178711,-0.4756450653076172,1.2872223854064941
1791022283728249300,3.013249267578125,6.362387180328369,-1.268282413482666,-2.2360129356384277
1791022283738249500,3.02324951171875,3.391160726547241,-3.3887219429016113,-4.6599836349487305
1791022283748249600,3.03324951171875,-4.440704345703125,-2.899265766143799,1.2750797271728516
1791022283758249500,3.04324951171875,-4.4688615798950195,-0.6375331878662109,6.524972438812256
1791022283768249300,3.053249267578125,-2.163271903991699,2.1325392723083496,9.740142822265625
1791022283778249500,3.06324951171875,-1.220592975616455,4.789938449859619,9.210027694702148
1791022283788249600,3.07324951171875,-0.5652074813842773,6.705291748046875,5.655361652374268
1791022283798249500,3.08324951171875,0.1726665496826172,6.541477680206299,2.896092414855957
1791022283808249300,3.093249267578125,0.16079425811767578,5.179351329803467,1.8711295127868652
1791022283818249500,3.10324951171875,0.16682815551757812,4.218808174133301,1.6307735443115234
1791022283828249600,3.11324951171875,1.1067185401916504,2.677948474884033,1.4087424278259277
1791022283838249500,3.12324951171875,2.473297595977783,-0.5417037010192871,-1.174027442932129
1791022283848249300,3.133249267578125,2.52390456199646,-3.736166000366211,-3.732630491256714
1791022283858249500,3.14324951171875,1.2026958465576172,-5.4588623046875,-6.120401382446289
1791022283868249600,3.15324951171875,-0.4335627555847168,-6.43630838394165,-6.88494873046875
1791022283878249500,3.16324951171875,-1.6992521286010742,-7.09205961227417,-5.936927795410156
1791022283888249300,3.173249267578125,-1.1412792205810547,-6.8147382736206055,-3.8979508876800537
1791022283898249500,3.18324951171875,-0.08088207244873047,-5.317962646484375,-2.3331971168518066
1791022283908249600,3.19324951171875,0.5328559875488281,-3.0545177459716797,-0.78204345703125
1791022283918249500,3.20324951171875,0.23352336883544922,-0.1188364028930664,1.8217549324035645
1791022283928249300,3.213249267578125,-0.5538153648376465,4.229033470153809,6.449514389038086
1791022283938249500,3.22324951171875,-1.2971534729003906,5.989759922027588,8.414918899536133
1791022283948249600,3.23324951171875,1.0187978744506836,6.010831832885742,6.258417129516602
1791022283958249500,3.24324951171875,1.4630579948425293,3.91059947013855,2.2718067169189453
1791022283968249300,3.253249267578125,1.301119089126587,2.050852060317993,-0.25826168060302734
1791022283978249500,3.26324951171875,0.29754161834716797,0.7498011589050293,-2.3311514854431152
1791022283988249600,3.27324951171875,-1.4354915618896484,-0.35694122314453125,-3.9184162616729736
1791022283998249500,3.28324951171875,-0.39517831802368164,-1.6328024864196777,-4.0132365226745605
1791022284008249300,3.293249267578125,0.47586584091186523,-3.110988140106201,-3.896979570388794
1791022284018249500,3.30324951171875,0.5051300525665283,-4.383789539337158,-2.140216827392578
1791022284028249600,3.31324951171875,-0.5558867454528809,-4.909674167633057,0.17602300643920898
1791022284038249500,3.32324951171875,-0.7612900733947754,-3.8085756301879883,0.4830203056335449
1791022284048249300,3.333249267578125,-0.2897524833679199,-1.4626812934875488,-0.9611563682556152
1791022284058249500,3.34324951171875,0.4995245933532715,0.4279332160949707,-0.6684775352478027
1791022284068249600,3.35324951171875,0.567589521408081,1.3735809326171875,-0.04372549057006836
1791022284078249500,3.36324951171875,-0.24415063858032227,3.1440858840942383,-1.368703842163086
1791022284088249300,3.373249267578125,-1.2698898315429688,7.827341079711914,-4.722145080566406
1791022284098249500,3.38324951171875,-2.427189350128174,9.09201431274414,-4.511442184448242
1791022284108249600,3.39324951171875,-2.064096450805664,5.4994096755981445,-3.1733171939849854
1791022284118249500,3.40324951171875,-0.25650882720947266,0.5233078002929688,-3.8605690002441406
1791022284128249300,3.413249267578125,1.7591276168823242,-1.9647727012634277,-3.2947497367858887
1791022284138249500,3.42324951171875,3.3877689838409424,-0.12303352355957031,-1.1947412490844727
1791022284148249600,3.43324951171875,4.764257431030273,0.6901059150695801,0.1886425018310547
1791022284158249500,3.44324951171875,3.8059306144714355,0.2924838066101074,0.6980438232421875
1791022284168249300,3.453249267578125,2.161344051361084,-1.7731618881225586,2.0708823204040527
1791022284178249500,3.46324951171875,-0.017465591430664062,-3.2731375694274902,1.4022936820983887
1791022284188249600,3.47324951171875,-1.5253839492797852,-3.027057647705078,-1.2993078231811523
1791022284198249500,3.48324951171875,-1.6289615631103516,-1.837906837463379,-2.5241100788116455
1791022284208249300,3.493249267578125,-0.2954564094543457,-1.1943793296813965,-2.9353647232055664
1791022284218249500,3.50324951171875,-0.14247417449951172,-1.7377018928527832,-2.567894697189331
1791022284228249600,3.51324951171875,-0.5295627117156982,-2.00260591506958,-1.3720765113830566
1791022284238249500,3.52324951171875,0.2857677936553955,-2.0832037925720215,0.21763372421264648
1791022284248249300,3.533249267578125,1.6693060398101807,-3.761937141418457,2.0093071460723877
1791022284258249500,3.54324951171875,1.1945576667785645,-5.637691497802734,2.406064987182617
1791022284268249600,3.55324951171875,-0.5549678802490234,-6.377046585083008,2.462714195251465
1791022284278249500,3.56324951171875,-1.5254921913146973,-5.474845886230469,3.0854122638702393
1791022284288249300,3.573249267578125,-0.742436408996582,-4.248011589050293,2.7569894790649414
1791022284298249500,3.58324951171875,1.1758493185043335,-2.97769832611084,1.2235991954803467
1791022284308249600,3.59324951171875,0.28173041343688965,-1.0978384017944336,0.29967761039733887
1791022284318249500,3.60324951171875,-1.971663475036621,0.011800765991210938,0.4698600769042969
1791022284328249300,3.613249267578125,-2.6935412883758545,0.796269416809082,-0.16414189338684082
1791022284338249500,3.62324951171875,-4.1875810623168945,1.0116205215454102,1.1581776142120361
1791022284348249600,3.63324951171875,-1.1075983047485352,1.0885910987854004,-0.48011231422424316
1791022284358249500,3.64324951171875,0.67167067527771,0.5040102005004883,-4.041711807250977
1791022284368249300,3.653249267578125,-1.2391893863677979,0.20548629760742188,-4.181708335876465
1791022284378249500,3.66324951171875,-2.0917155742645264,-0.1205606460571289,-2.0973339080810547
1791022284388249600,3.67324951171875,-1.0015590190887451,-1.3744211196899414,-0.7967488765716553
1791022284398249500,3.68324951171875,2.7248823642730713,-2.5515785217285156,0.6168286800384521
1791022284408249300,3.693249267578125,8.488359451293945,-0.9765348434448242,1.4934158325195312
1791022284418249500,3.70324951171875,1.862715482711792,-1.2342157363891602,0.8950536251068115
1791022284428249600,3.71324951171875,-5.494429111480713,-0.25560665130615234,1.9244508743286133
1791022284438249500,3.72324951171875,-3.794809341430664,-0.4301624298095703,0.19801068305969238
1791022284448249300,3.733249267578125,0.1551675796508789,-0.6828498840332031,-0.40995287895202637
1791022284458249500,3.74324951171875,0.4902728796005249,0.6098394393920898,-0.5975923538208008
1791022284468249600,3.75324951171875,0.8083572387695312,2.2801384925842285,-1.7359590530395508
1791022284478249500,3.76324951171875,0.768186092376709,0.9334626197814941,-1.6355743408203125
1791022284488249300,3.773249267578125,-0.14978814125061035,-1.5237541198730469,-1.5748200416564941
1791022284498249500,3.78324951171875,0.22832489013671875,-2.579540252685547,-1.9274461269378662
1791022284508249600,3.79324951171875,0.4574708938598633,-1.6271591186523438,-1.0644783973693848
1791022284518249500,3.80324951171875,0.7192052602767944,0.045067787170410156,0.2396693229675293
1791022284528249300,3.813249267578125,0.8150362968444824,2.409109115600586,0.662909984588623
1791022284538249500,3.82324951171875,1.0190842151641846,2.939663887023926,-1.2065627574920654
1791022284548249600,3.83324951171875,-0.04762411117553711,1.9783039093017578,-2.1548855304718018
1791022284558249500,3.84324951171875,-0.8942523002624512,0.6797151565551758,-2.326734781265259
1791022284568249300,3.853249267578125,-1.5951783657073975,-0.8661479949951172,-2.151296854019165
1791022284578249500,3.86324951171875,-1.7911522388458252,-2.177239418029785,-1.1702650785446167
1791022284588249600,3.87324951171875,-1.1003787517547607,-1.555058479309082,-0.1611015796661377
1791022284598249500,3.88324951171875,-0.12546968460083008,0.12022781372070312,0.9762141704559326
1791022284608249300,3.893249267578125,0.9761490821838379,1.5737981796264648,0.38193798065185547
1791022284618249500,3.90324951171875,0.7502540349960327,0.7489404678344727,-1.3652396202087402
1791022284628249600,3.91324951171875,0.02453756332397461,-0.5742006301879883,-3.6684763431549072
1791022284638249500,3.92324951171875,-0.01526331901550293,-2.419534683227539,-6.371345520019531
1791022284648249300,3.933249267578125,-0.1794450283050537,-2.344733238220215,-8.475207328796387
1791022284658249500,3.94324951171875,-0.07828927040100098,-0.253814697265625,-8.294283866882324
1791022284668249600,3.95324951171875,1.6189045906066895,1.290529727935791,-7.121884822845459
1791022284678249500,3.96324951171875,-0.8393089771270752,1.2845726013183594,-5.351868629455566
1791022284688249300,3.973249267578125,-0.01325225830078125,-0.6691265106201172,-3.4536542892456055
1791022284698249500,3.98324951171875,0.7272560596466064,-1.3245925903320312,0.32494592666625977
1791022284708249600,3.99324951171875,-0.3061256408691406,-0.6173486709594727,3.4015541076660156
1791022284718249500,4.00324951171875,0.09962201118469238,-0.799098014831543,3.461005210876465
1791022284728249300,4.013249267578125,0.3387734889984131,-0.3439216613769531,3.477206230163574
1791022284738249500,4.02324951171875,0.38913393020629883,0.2927103042602539,3.275075674057007
1791022284748249600,4.03324951171875,0.5008354187011719,1.478515625,3.677234649658203
1791022284758249500,4.04324951171875,0.4813082218170166,1.362950325012207,4.490735054016113
1791022284768249300,4.053249267578125,-0.21123409271240234,0.8284168243408203,4.773394584655762
1791022284778249500,4.06324951171875,-1.007598876953125,-0.1988973617553711,5.151707172393799
1791022284788249600,4.07324951171875,-1.3733434677124023,0.016513824462890625,7.164100646972656
1791022284798249500,4.08324951171875,-0.8133606910705566,0.3856525421142578,7.517995357513428
1791022284808249300,4.093249267578125,-0.060448408126831055,0.5809345245361328,5.7670183181762695
1791022284818249500,4.10324951171875,0.26404881477355957,0.8355226516723633,3.1521379947662354
1791022284828249600,4.11324951171875,0.050321102142333984,1.2565531730651855,2.073045253753662
1791022284838249500,4.12324951171875,0.0015366077423095703,1.5918693542480469,2.2313122749328613
1791022284848249300,4.133249267578125,0.4280531406402588,1.5374374389648438,2.0154359340667725
1791022284858249500,4.14324951171875,1.059455394744873,0.24779510498046875,1.1702227592468262
1791022284868249600,4.15324951171875,2.2921977043151855,-0.825291633605957,1.135947823524475
1791022284878249500,4.16324951171875,3.5172879695892334,-2.0425548553466797,1.41842782497406
1791022284888249300,4.173249267578125,3.6115665435791016,-4.173216819763184,1.0640326738357544
1791022284898249500,4.18324951171875,2.1677796840667725,-5.647064208984375,0.8007838726043701
1791022284908249600,4.19324951171875,0.3022193908691406,-3.7818803787231445,-2.644486665725708
1791022284918249500,4.20324951171875,-1.2509639263153076,-2.4801340103149414,-4.365571975708008
1791022284928249300,4.213249267578125,-2.0906200408935547,-0.8461074829101562,-3.170830249786377
1791022284938249500,4.22324951171875,-2.0486552715301514,1.1591501235961914,-2.1737563610076904
1791022284948249600,4.23324951171875,-0.2875490188598633,0.9937400817871094,-1.7933931350708008
1791022284958249500,4.24324951171875,-0.5259175300598145,-0.029028892517089844,-1.7134760618209839
1791022284968249300,4.253249267578125,-1.1733086109161377,-0.8349809646606445,-1.230411410331726
1791022284978249500,4.26324951171875,-0.42095470428466797,-1.4678268432617188,-2.0017452239990234
1791022284988249600,4.27324951171875,0.3965179920196533,-1.8330659866333008,-2.0649850368499756
1791022284998249500,4.28324951171875,1.2860549688339233,-1.4689207077026367,-1.2618627548217773
1791022285008249300,4.293249267578125,1.9092084169387817,-0.8198270797729492,-0.02704906463623047
1791022285018249500,4.30324951171875,0.7911226749420166,-0.2423563003540039,0.27784955501556396
1791022285028249600,4.31324951171875,-0.33677101135253906,0.5203800201416016,0.017855405807495117
1791022285038249500,4.32324951171875,-1.3721191883087158,1.5364770889282227,-0.3723818063735962
1791022285048249300,4.333249267578125,-1.7695367336273193,2.2791261672973633,-0.5074502229690552
1791022285058249500,4.34324951171875,-0.8338260650634766,2.1135387420654297,-0.29149019718170166
1791022285068249600,4.35324951171875,0.6473922729492188,1.3050451278686523,0.6098134517669678
1791022285078249500,4.36324951171875,1.3107025623321533,0.13713741302490234,1.502001166343689
1791022285088249300,4.373249267578125,2.016669750213623,-0.5099325180053711,2.3329763412475586
1791022285098249500,4.38324951171875,1.7760000228881836,-0.8905429840087891,2.408627510070801
1791022285108249600,4.39324951171875,-0.26128435134887695,-1.4263286590576172,0.9105126857757568
1791022285118249500,4.40324951171875,-1.6155238151550293,-1.5259332656860352,-0.1898958683013916
1791022285128249300,4.413249267578125,-1.1708135604858398,-0.9690351486206055,0.127227783203125
1791022285138249500,4.42324951171875,-0.6067018508911133,-0.11243724822998047,1.036016821861267
1791022285148249600,4.43324951171875,0.5749008655548096,0.3955526351928711,1.4035508632659912
1791022285158249500,4.44324951171875,2.8851053714752197,0.9018459320068359,1.7569087743759155
1791022285168249300,4.453249267578125,3.5360376834869385,1.1988506317138672,1.5885467529296875
1791022285178249500,4.46324951171875,1.9421464204788208,0.9238958358764648,0.7727940678596497
1791022285188249600,4.47324951171875,-0.8356838226318359,0.2956809997558594,-0.2750040292739868
1791022285198249500,4.48324951171875,-2.4063010215759277,-0.45943260192871094,-1.372349739074707
1791022285208249300,4.493249267578125,-1.8480610847473145,-1.140162467956543,-0.9316474199295044
1791022285218249500,4.50324951171875,-0.16304445266723633,-1.1487760543823242,0.4361056089401245
1791022285228249600,4.51324951171875,1.4048136472702026,-0.36986446380615234,1.815946340560913
1791022285238249500,4.52324951171875,2.525026559829712,0.7664632797241211,2.339172601699829
1791022285248249300,4.533249267578125,2.433072566986084,1.233278751373291,1.1244564056396484
1791022285258249500,4.54324951171875,1.6322479248046875,1.2242822647094727,-0.23339176177978516
1791022285268249600,4.55324951171875,0.8390228748321533,0.9218282699584961,-0.5849428176879883
1791022285278249500,4.56324951171875,-0.21709704399108887,1.0738582611083984,-0.3327045440673828
1791022285288249300,4.573249267578125,-0.7059895992279053,1.3403043746948242,0.5993125438690186
1791022285298249500,4.58324951171875,-0.4155857563018799,1.5293536186218262,1.7742916345596313
1791022285308249600,4.59324951171875,0.5057282447814941,-0.16598033905029297,2.375882387161255
1791022285318249500,4.60324951171875,1.2057551145553589,-1.4690122604370117,0.28403544425964355
1791022285328249300,4.613249267578125,2.2101547718048096,-2.505941390991211,-1.445866584777832
1791022285338249500,4.62324951171875,1.7569897174835205,-1.944723129272461,-1.924597978591919
1791022285348249600,4.63324951171875,-0.048581600189208984,-0.4379138946533203,-1.0359535217285156
1791022285358249500,4.64324951171875,-1.3673408031463623,1.1949520111083984,-0.13142776489257812
1791022285368249300,4.653249267578125,-1.1154086589813232,2.1820068359375,0.5816144943237305
1791022285378249500,4.66324951171875,0.5556330680847168,2.153350830078125,0.1531369686126709
1791022285388249600,4.67324951171875,1.940744400024414,1.3291053771972656,-0.5584216117858887
1791022285398249500,4.68324951171875,1.5676465034484863,0.3142232894897461,-0.9262306690216064
1791022285408249300,4.693249267578125,0.16074442863464355,-0.2565288543701172,-0.36452245712280273
1791022285418249500,4.70324951171875,0.7548239231109619,-0.32524776458740234,-0.15319561958312988
1791022285428249600,4.71324951171875,1.4127089977264404,-0.18618488311767578,0.20515108108520508
1791022285438249500,4.72324951171875,1.0843758583068848,-0.18613815307617188,0.6465744972229004
1791022285448249300,4.733249267578125,0.8403546810150146,-0.2088174819946289,0.9317131042480469
1791022285458249500,4.74324951171875,1.0985321998596191,-0.19383621215820312,0.7290468215942383
1791022285468249600,4.75324951171875,1.1292259693145752,-0.07530498504638672,0.5924965143203735
1791022285478249500,4.76324951171875,0.7639639377593994,-0.16367816925048828,0.0770106315612793
1791022285488249300,4.773249267578125,0.6282382011413574,-0.45134639739990234,-0.7799124717712402
1791022285498249500,4.78324951171875,0.32871198654174805,-0.927159309387207,-1.0466530323028564
1791022285508249600,4.79324951171875,0.31952881813049316,-0.6499166488647461,0.19038653373718262
1791022285518249500,4.80324951171875,-0.3244500160217285,-1.477055549621582,0.4369330406188965
1791022285528249300,4.813249267578125,-0.7353031635284424,-0.6873769760131836,0.7659192085266113
1791022285538249500,4.82324951171875,-0.22099900245666504,0.4446077346801758,0.750167965888977
1791022285548249600,4.83324951171875,0.8720154762268066,0.7742233276367188,0.8859227895736694
1791022285558249500,4.84324951171875,2.2605860233306885,0.6945247650146484,0.9729164838790894
1791022285568249300,4.853249267578125,2.613490343093872,-0.2554159164428711,0.3788801431655884
1791022285578249500,4.86324951171875,1.7483563423156738,-0.9478282928466797,-0.39007389545440674
1791022285588249600,4.87324951171875,-0.1957080364227295,-2.0626792907714844,-1.2877752780914307
1791022285598249500,4.88324951171875,-1.581946849822998,-1.495431900024414,-2.237647294998169
1791022285608249300,4.893249267578125,-2.1864871978759766,-1.612015724182129,-0.10116851329803467
1791022285618249500,4.90324951171875,-1.06447434425354,-1.4755725860595703,0.09699821472167969
1791022285628249600,4.91324951171875,0.4216883182525635,-1.8118362426757812,-1.0224522352218628
1791022285638249500,4.92324951171875,1.0704894065856934,-2.800591468811035,-2.035464286804199
1791022285648249300,4.933249267578125,0.07933592796325684,-2.952800750732422,-2.148099899291992
1791022285658249500,4.94324951171875,-1.936617374420166,-1.658456802368164,-1.1423307657241821
1791022285668249600,4.95324951171875,-0.9858279228210449,-0.5186300277709961,0.2929501533508301
1791022285678249500,4.96324951171875,0.6265487670898438,0.2734508514404297,1.1652050018310547
1791022285688249300,4.973249267578125,1.170651912689209,1.0382490158081055,0.6234711408615112
1791022285698249500,4.98324951171875,0.778961181640625,0.25798797607421875,-0.41887354850769043
1791022285708249600,4.99324951171875,0.11360430717468262,-0.5044879913330078,-0.7775570154190063
1791022285718249500,5.00324951171875,-0.05135703086853027,-0.6309232711791992,-0.19546747207641602
1791022285728249300,5.013249267578125,-0.8436417579650879,0.14151668548583984,-0.5847179889678955
1791022285738249500,5.02324951171875,-0.7668731212615967,0.18222522735595703,-0.3464623689651489
1791022285748249600,5.03324951171875,0.27677035331726074,-0.2578306198120117,-0.43044495582580566
1791022285758249500,5.04324951171875,0.3034689426422119,-0.5098791122436523,-0.2014601230621338
1791022285768249300,5.053249267578125,-0.8197309970855713,-0.8349285125732422,-0.08185625076293945
1791022285778249500,5.06324951171875,-1.1795260906219482,-0.9060955047607422,-0.19930148124694824
1791022285788249600,5.07324951171875,0.009370803833007812,-0.8951139450073242,-0.08274364471435547
1791022285798249500,5.08324951171875,0.2719426155090332,-1.0819568634033203,0.28385043144226074
1791022285808249300,5.093249267578125,0.7056622505187988,-0.2714223861694336,0.3493306636810303
1791022285818249500,5.10324951171875,1.0996408462524414,0.1512765884399414,0.3551708459854126
1791022285828249600,5.11324951171875,2.096123456954956,-0.5317745208740234,-0.33609986305236816
1791022285838249500,5.12324951171875,1.558053731918335,-0.7674665451049805,-0.7889750003814697
1791022285848249300,5.133249267578125,0.37848973274230957,-0.8251152038574219,-0.9433670043945312
1791022285858249500,5.14324951171875,-0.35661983489990234,-0.6928768157958984,-1.0889692306518555
1791022285868249600,5.15324951171875,-0.6634914875030518,-0.07439136505126953,-0.9454981088638306
1791022285878249500,5.16324951171875,-0.7672874927520752,0.6711111068725586,-0.5291407108306885
1791022285888249300,5.173249267578125,0.11018562316894531,1.1050539016723633,-0.12154114246368408
1791022285898249500,5.18324951171875,1.4513893127441406,1.3252410888671875,-0.017078518867492676
1791022285908249600,5.19324951171875,1.9185378551483154,1.307663917541504,0.2285979986190796
1791022285918249500,5.20324951171875,1.2720386981964111,0.8105812072753906,0.4261312484741211
1791022285928249300,5.213249267578125,0.05708026885986328,0.5237598419189453,0.488338828086853
1791022285938249500,5.22324951171875,-0.8265407085418701,0.018959999084472656,0.5518715381622314
1791022285948249600,5.23324951171875,-2.6745219230651855,0.05852985382080078,0.2783092260360718
1791022285958249500,5.24324951171875,2.5058135986328125,-0.44385433197021484,-1.7507445812225342
1791022285968249300,5.253249267578125,3.0722296237945557,-0.8318672180175781,-0.8775326013565063
1791022285978249500,5.26324951171875,0.27077484130859375,-0.5747156143188477,-0.1440598964691162
1791022285988249600,5.27324951171875,-2.028768539428711,0.5250558853149414,-0.1850806474685669
1791022285998249500,5.28324951171875,-2.0329434871673584,1.0509519577026367,-0.3706026077270508
1791022286008249300,5.293249267578125,-0.44777870178222656,0.5760517120361328,-0.5554004907608032
1791022286018249500,5.30324951171875,2.1042096614837646,0.7009153366088867,-0.7872432470321655
1791022286028249600,5.31324951171875,2.773015022277832,0.7824373245239258,-0.2982593774795532
1791022286038249500,5.32324951171875,2.3357973098754883,1.0993318557739258,0.35566961765289307
1791022286048249300,5.333249267578125,0.3425774574279785,0.8173007965087891,0.5043649673461914
1791022286058249500,5.34324951171875,-1.4036602973937988,-0.4132499694824219,0.09874236583709717
1791022286068249600,5.35324951171875,-1.6084394454956055,-1.4638051986694336,-0.1959758996963501
1791022286078249500,5.36324951171875,-1.154984712600708,-1.1504440307617188,0.2622714042663574
1791022286088249300,5.373249267578125,0.8248622417449951,0.12690448760986328,1.2643616199493408
1791022286098249500,5.38324951171875,3.354301929473877,0.4866666793823242,2.125011444091797
1791022286108249600,5.39324951171875,-0.6673721075057983,-3.7554121017456055,-0.5224021673202515
1791022286118249500,5.40324951171875,-1.5315353870391846,-3.5348520278930664,-4.097908020019531
1791022286128249300,5.413249267578125,0.45776987075805664,-1.6285400390625,-1.7414944171905518
1791022286138249500,5.42324951171875,-0.817528486251831,-0.4118976593017578,0.36284732818603516
1791022286148249600,5.43324951171875,-1.665518045425415,0.2639904022216797,0.45716965198516846
1791022286158249500,5.44324951171875,-0.8357312679290771,-0.096221923828125,0.38020944595336914
1791022286168249300,5.453249267578125,0.8471267819404602,-0.16745471954345703,1.029274821281433
1791022286178249500,5.46324951171875,2.161684989929199,0.4739561080932617,1.718478798866272
1791022286188249600,5.47324951171875,1.6981561183929443,1.2711572647094727,1.5485820770263672
1791022286198249500,5.48324951171875,-0.0073931217193603516,1.0783729553222656,1.043545126914978
1791022286208249300,5.493249267578125,-1.221617579460144,0.2287588119506836,0.05589437484741211
1791022286218249500,5.50324951171875,-0.827903151512146,-0.18460941314697266,-0.6457321643829346
1791022286228249600,5.51324951171875,0.0007102489471435547,-0.26505565643310547,-0.8968369960784912
1791022286238249500,5.52324951171875,1.0748779773712158,-0.09569835662841797,-0.27857792377471924
1791022286248249300,5.533249267578125,1.5078976154327393,0.2281961441040039,0.5529091358184814
1791022286258249500,5.54324951171875,1.2129310369491577,0.49623870849609375,0.6917628049850464
1791022286268249600,5.55324951171875,0.30536091327667236,0.5169878005981445,0.5405391454696655
1791022286278249500,5.56324951171875,-1.0689724683761597,0.3707113265991211,-0.20751500129699707
1791022286288249300,5.573249267578125,-1.1265348196029663,1.0430469512939453,0.0022170543670654297
1791022286298249500,5.58324951171875,-0.42163920402526855,1.5819940567016602,-0.042609333992004395
1791022286308249600,5.59324951171875,0.24466931819915771,1.0608749389648438,0.03803455829620361
1791022286318249500,5.60324951171875,0.88033527135849,0.47530555725097656,0.6874347925186157
1791022286328249300,5.613249267578125,1.642740249633789,-2.0185956954956055,-0.9488327503204346
1791022286338249500,5.62324951171875,1.4162169694900513,-4.2729034423828125,-2.1445891857147217
1791022286348249600,5.63324951171875,0.0149078369140625,-2.638861656188965,-1.120265007019043
1791022286358249500,5.64324951171875,-0.8596551418304443,-0.1834421157836914,-0.4455066919326782
1791022286368249300,5.653249267578125,-0.8388286828994751,1.4720640182495117,-0.12314784526824951
1791022286378249500,5.66324951171875,-0.6407150030136108,2.486342430114746,-0.1333928108215332
1791022286388249600,5.67324951171875,-0.013540506362915039,2.697324752807617,-0.2018517255783081
1791022286398249500,5.68324951171875,0.4104475975036621,2.226530075073242,-0.04402363300323486
1791022286408249300,5.693249267578125,0.39063042402267456,1.038102149963379,0.018552184104919434
1791022286418249500,5.70324951171875,0.07313191890716553,-0.6875133514404297,-0.27803122997283936
1791022286428249600,5.71324951171875,-0.14388561248779297,-1.8162546157836914,-0.28760313987731934
1791022286438249500,5.72324951171875,-0.3095262050628662,-1.7238426208496094,-0.06890261173248291
1791022286448249300,5.733249267578125,-0.5698524713516235,-0.8446779251098633,0.21160674095153809
1791022286458249500,5.74324951171875,-1.2149548530578613,0.12874603271484375,0.4354729652404785
1791022286468249600,5.75324951171875,-1.2855370044708252,0.5050678253173828,0.11072432994842529
1791022286478249500,5.76324951171875,-0.5104430913925171,0.6279497146606445,0.617007851600647
1791022286488249300,5.773249267578125,-0.08797156810760498,1.3034553527832031,0.48261868953704834
1791022286498249500,5.78324951171875,1.2957029342651367,0.5945158004760742,2.704446792602539
1791022286508249600,5.79324951171875,2.7604730129241943,0.6413412094116211,1.0276401042938232
1791022286518249500,5.80324951171875,-0.4345250129699707,-2.7179737091064453,-1.697840929031372
1791022286528249300,5.813249267578125,0.7436234951019287,-5.589180946350098,-2.4880855083465576
1791022286538249500,5.82324951171875,-0.6225631237030029,-4.2216901779174805,-3.130950450897217
1791022286548249600,5.83324951171875,-2.858468532562256,-1.3866205215454102,-1.7835476398468018
1791022286558249500,5.84324951171875,-0.39932703971862793,-0.056797027587890625,-1.0684020519256592
1791022286568249300,5.853249267578125,1.5712559223175049,0.5122890472412109,-0.3465338945388794
1791022286578249500,5.86324951171875,2.407571315765381,0.6794681549072266,0.22570383548736572
1791022286588249600,5.87324951171875,2.8807897567749023,0.901738166809082,0.6601724624633789
1791022286598249500,5.88324951171875,3.3883910179138184,0.580988883972168,1.6877211332321167
1791022286608249300,5.893249267578125,3.2423973083496094,-0.05948925018310547,3.3742105960845947
1791022286618249500,5.90324951171875,1.1571565866470337,-0.16995716094970703,3.873457193374634
1791022286628249600,5.91324951171875,-1.3586554527282715,0.14629745483398438,2.481917142868042
1791022286638249500,5.92324951171875,-0.9996092319488525,0.9220542907714844,0.05330038070678711
1791022286648249300,5.933249267578125,-1.2119874954223633,1.3604011535644531,-1.6515541076660156
1791022286658249500,5.94324951171875,-0.7001092433929443,1.2599849700927734,-1.8558382987976074
1791022286668249600,5.95324951171875,0.8617954254150391,0.5820980072021484,-1.5265049934387207
1791022286678249500,5.96324951171875,1.5210336446762085,-0.3156595230102539,-0.8192499876022339
1791022286688249300,5.973249267578125,0.585364818572998,-1.0978899002075195,0.16731321811676025
1791022286698249500,5.98324951171875,-0.7931411266326904,-1.5347604751586914,0.8904855251312256
1791022286708249600,5.99324951171875,-0.8757262229919434,-1.2363967895507812,1.0912330150604248
1791022286718249500,6.00324951171875,0.20145368576049805,-0.2603569030761719,0.7781664133071899
1791022286728249300,6.013249267578125,1.2935278415679932,0.653956413269043,0.5227102041244507
1791022286738249500,6.02324951171875,1.4778977632522583,1.2398967742919922,0.5763746500015259
1791022286748249600,6.03324951171875,0.935401439666748,1.2466020584106445,0.6398344039916992
1791022286758249500,6.04324951171875,0.62074875831604,0.4472217559814453,0.47017908096313477
1791022286768249300,6.053249267578125,0.4887969493865967,-0.8739604949951172,-0.07523822784423828
1791022286778249500,6.06324951171875,0.11634278297424316,-2.1534786224365234,-0.8022392988204956
1791022286788249600,6.07324951171875,-0.7437362670898438,-2.9010400772094727,-1.2081797122955322
1791022286798249500,6.08324951171875,-1.6983668804168701,-2.6866226196289062,-0.9623311758041382
1791022286808249300,6.093249267578125,-2.05940318107605,-1.5106334686279297,-0.0804976224899292
1791022286818249500,6.10324951171875,-1.2909674644470215,-0.1160125732421875,0.6929574608802795
1791022286828249600,6.11324951171875,0.42474794387817383,0.9631662368774414,1.14839768409729
1791022286838249500,6.12324951171875,1.8872078657150269,1.5988407135009766,1.2273062467575073
1791022286848249300,6.133249267578125,1.8134229183197021,1.7121343612670898,1.1811684370040894
1791022286858249500,6.14324951171875,0.7596616744995117,1.3262348175048828,1.2376010417938232
1791022286868249600,6.15324951171875,-0.38635969161987305,0.6928739547729492,1.44199538230896
1791022286878249500,6.16324951171875,-0.7975261211395264,0.21195602416992188,1.5713520050048828
1791022286888249300,6.173249267578125,-0.3888554573059082,-0.15047740936279297,1.5189746618270874
1791022286898249500,6.18324951171875,0.486470103263855,-0.48386383056640625,1.165263295173645
1791022286908249600,6.19324951171875,1.2279902696609497,-0.7356481552124023,0.6511445045471191
1791022286918249500,6.20324951171875,1.543197512626648,-0.9875555038452148,0.20824110507965088
1791022286928249300,6.213249267578125,1.34696626663208,-1.264073371887207,-0.09951269626617432
1791022286938249500,6.22324951171875,0.9522964954376221,-1.509847640991211,-0.5883239507675171
1791022286948249600,6.23324951171875,0.2240595817565918,-1.6116018295288086,-1.228886604309082
1791022286958249500,6.24324951171875,-0.7906596660614014,-1.4061555862426758,-1.5176804065704346
1791022286968249300,6.253249267578125,-1.3833248615264893,-0.7116031646728516,-1.147011637687683
1791022286978249500,6.26324951171875,-1.2631759643554688,0.2217388153076172,-0.5736597776412964
1791022286988249600,6.27324951171875,-0.7120370864868164,1.0162029266357422,0.038745224475860596
1791022286998249500,6.28324951171875,-0.08245205879211426,1.4632229804992676,0.635323703289032
1791022287008249300,6.293249267578125,0.2603180408477783,1.6207189559936523,1.137749195098877
1791022287018249500,6.30324951171875,0.05629920959472656,1.5220603942871094,1.522418737411499
1791022287028249600,6.31324951171875,-0.7475376129150391,1.1047868728637695,1.6025724411010742
1791022287038249500,6.32324951171875,-1.5970675945281982,0.30965518951416016,1.4439477920532227
1791022287048249300,6.333249267578125,-1.9171605110168457,-0.6988554000854492,1.2843862771987915
1791022287058249500,6.34324951171875,-1.943601369857788,-1.6607341766357422,0.9856657981872559
1791022287068249600,6.35324951171875,-2.0011839866638184,-2.4225664138793945,0.6398198008537292
1791022287078249500,6.36324951171875,-1.959371566772461,-2.718289375305176,0.4884449243545532
1791022287088249300,6.373249267578125,-1.5003464221954346,-2.4395360946655273,0.7724205255508423
1791022287098249500,6.38324951171875,-0.19507169723510742,-1.8252143859863281,0.9650384187698364
1791022287108249600,6.39324951171875,1.2346467971801758,-1.0946989059448242,0.7179257869720459
1791022287118249500,6.40324951171875,2.336960792541504,-0.44165802001953125,0.10911718010902405
1791022287128249300,6.413249267578125,2.7128827571868896,0.038127899169921875,-0.7145695686340332
1791022287138249500,6.42324951171875,3.3281137943267822,0.26895713806152344,-1.8543272018432617
1791022287148249600,6.43324951171875,3.5177483558654785,0.18041229248046875,-2.335310459136963
1791022287158249500,6.44324951171875,2.990037441253662,-0.2165679931640625,-1.7511491775512695
1791022287168249300,6.453249267578125,2.909900426864624,-0.5701789855957031,-1.089918613433838
1791022287178249500,6.46324951171875,2.656958818435669,-0.8173103332519531,-0.818327784538269
1791022287188249600,6.47324951171875,1.6549639701843262,-1.0087928771972656,-0.533596932888031
1791022287198249500,6.48324951171875,1.2121236324310303,-1.1546316146850586,-0.4794948995113373
1791022287208249300,6.493249267578125,0.8653812408447266,-1.2340126037597656,-0.8938369154930115
1791022287218249500,6.50324951171875,0.21586227416992188,-1.4020862579345703,-1.589674949645996
1791022287228249600,6.51324951171875,-0.3881831169128418,-1.6903352737426758,-1.8418002128601074
1791022287238249500,6.52324951171875,-0.25393009185791016,-1.8346757888793945,-1.2488815784454346
1791022287248249300,6.533249267578125,0.2592282295227051,-1.6384496688842773,-0.2972637414932251
1791022287258249500,6.54324951171875,0.5152225494384766,-1.2131404876708984,0.18274983763694763
1791022287268249600,6.55324951171875,0.15877771377563477,-0.6417808532714844,0.39351528882980347
1791022287278249500,6.56324951171875,-0.07470512390136719,-0.13677406311035156,0.7908304929733276
1791022287288249300,6.573249267578125,-0.1099843978881836,0.13585472106933594,1.1558082103729248
1791022287298249500,6.58324951171875,-0.7846522331237793,0.12736225128173828,1.397141695022583
1791022287308249600,6.59324951171875,-1.9285082817077637,-0.1077423095703125,1.2264736890792847
1791022287318249500,6.60324951171875,-2.091987133026123,-0.5318164825439453,0.9416534900665283
1791022287328249300,6.613249267578125,0.01217031478881836,-0.9261331558227539,0.8802698850631714
1791022287338249500,6.62324951171875,2.36250901222229,-1.1177496910095215,0.8832899928092957
1791022287348249600,6.63324951171875,2.93983793258667,-1.1503291130065918,0.8470259308815002
1791022287358249500,6.64324951171875,2.1755385398864746,-1.0744891166687012,0.745397686958313
1791022287368249300,6.653249267578125,0.5988802909851074,-0.7869224548339844,0.7268626093864441
1791022287378249500,6.66324951171875,0.3605990409851074,-0.4102005958557129,0.5928455591201782
1791022287388249600,6.67324951171875,0.8963956832885742,-0.03586244583129883,0.3743686079978943
1791022287398249500,6.68324951171875,1.2554125785827637,0.43355655670166016,-0.028539001941680908
1791022287408249300,6.693249267578125,0.9255161285400391,0.9162683486938477,-0.36893120408058167
1791022287418249500,6.70324951171875,0.6429471969604492,1.2958836555480957,-0.5988754034042358
1791022287428249600,6.71324951171875,1.1902384757995605,1.285839557647705,-0.26035821437835693
1791022287438249500,6.72324951171875,1.6751675605773926,0.8176975250244141,0.4580884575843811
1791022287448249300,6.733249267578125,1.7913503646850586,0.29682493209838867,1.1590535640716553
1791022287458249500,6.74324951171875,1.533860206604004,-0.23606491088867188,1.6176272630691528
1791022287468249600,6.75324951171875,0.7641639709472656,-0.7273111343383789,1.7039189338684082
1791022287478249500,6.76324951171875,-0.046245574951171875,-1.2023639678955078,1.6502621173858643
1791022287488249300,6.773249267578125,-0.6945271492004395,-1.5890569686889648,1.445105791091919
1791022287498249500,6.78324951171875,-0.8831911087036133,-1.8717131614685059,1.3040941953659058
1791022287508249600,6.79324951171875,-0.7939457893371582,-1.9855303764343262,1.2780077457427979
1791022287518249500,6.80324951171875,-0.5492434501647949,-1.9429850578308105,1.2205345630645752
1791022287528249300,6.813249267578125,-0.12595033645629883,-1.7358341217041016,0.9994218349456787
1791022287538249500,6.82324951171875,0.24896907806396484,-1.4204344749450684,0.6525073051452637
1791022287548249600,6.83324951171875,0.3695220947265625,-1.0590734481811523,0.24630677700042725
1791022287558249500,6.84324951171875,0.33873701095581055,-0.545997142791748,-0.15055477619171143
1791022287568249300,6.853249267578125,0.6972050666809082,-0.05577564239501953,-0.40825963020324707
1791022287578249500,6.86324951171875,1.2323784828186035,0.4382004737854004,-0.5582199096679688
1791022287588249600,6.87324951171875,1.4003090858459473,0.844630241394043,-0.6069986820220947
1791022287598249500,6.88324951171875,1.1741786003112793,1.038562297821045,-0.45376014709472656
1791022287608249300,6.893249267578125,1.3434429168701172,1.172079086303711,-0.27714037895202637
1791022287618249500,6.90324951171875,1.9238333702087402,1.2797832489013672,-0.17150259017944336
1791022287628249600,6.91324951171875,2.352750778198242,1.3075714111328125,-0.0659937858581543
1791022287638249500,6.92324951171875,2.596954345703125,1.3641581535339355,0.03618001937866211
1791022287648249300,6.933249267578125,2.6379756927490234,1.3301897048950195,0.06812381744384766
1791022287658249500,6.94324951171875,2.1565637588500977,1.1613903045654297,0.029764413833618164
1791022287668249600,6.95324951171875,1.52325439453125,0.8207583427429199,-0.06222128868103027
1791022287678249500,6.96324951171875,1.219064712524414,0.42833757400512695,-0.07699704170227051
1791022287688249300,6.973249267578125,1.658921241760254,0.10362625122070312,-0.026068925857543945
1791022287698249500,6.98324951171875,2.3538804054260254,0.030096054077148438,-0.07072234153747559
1791022287708249600,6.99324951171875,2.4846930503845215,0.1921219825744629,-0.32799339294433594
1791022287718249500,7.00324951171875,1.9358091354370117,0.3712162971496582,-0.7471610307693481
1791022287728249300,7.013249267578125,1.3367137908935547,0.4207954406738281,-1.2870032787322998
1791022287738249500,7.02324951171875,1.1196246147155762,0.344083309173584,-1.6532504558563232
1791022287748249600,7.03324951171875,0.9567537307739258,0.2741208076477051,-1.8858859539031982
1791022287758249500,7.04324951171875,0.6749992370605469,0.2560863494873047,-2.0238184928894043
1791022287768249300,7.053249267578125,0.3868403434753418,0.307830810546875,-2.0858700275421143
1791022287778249500,7.06324951171875,0.1829996109008789,0.4187593460083008,-2.088839530944824
1791022287788249600,7.07324951171875,0.117889404296875,0.531740665435791,-2.024028778076172
1791022287798249500,7.08324951171875,0.5361723899841309,0.4737076759338379,-2.123849868774414
1791022287808249300,7.093249267578125,2.8468127250671387,-0.018078327178955078,-3.2873096466064453
1791022287818249500,7.10324951171875,-0.6526246070861816,0.07806110382080078,-2.5798444747924805
1791022287828249600,7.11324951171875,-2.365631103515625,-0.2744131088256836,-2.407716989517212
1791022287838249500,7.12324951171875,-1.5452494621276855,0.021384239196777344,-2.3048882484436035
1791022287848249300,7.133249267578125,-0.4816465377807617,0.5983061790466309,-1.0585591793060303
1791022287858249500,7.14324951171875,0.6570549011230469,0.08246946334838867,-2.163330078125
1791022287868249600,7.15324951171875,-0.0606074333190918,-0.6614022254943848,-2.5637199878692627
1791022287878249500,7.16324951171875,0.328427791595459,0.7197728157043457,-0.3973555564880371
1791022287888249300,7.173249267578125,-0.49909400939941406,0.3716578483581543,-1.0796263217926025
1791022287898249500,7.18324951171875,-0.9253411293029785,-0.2761697769165039,-1.743281602859497
1791022287908249600,7.19324951171875,-0.3133211135864258,-0.002475261688232422,-1.4877901077270508
1791022287918249500,7.20324951171875,-0.36116743087768555,0.044619083404541016,-2.0750184059143066
1791022287928249300,7.213249267578125,-0.7499866485595703,0.26160144805908203,-1.737720012664795
1791022287938249500,7.22324951171875,-1.2741003036499023,-0.04816007614135742,-0.9143474102020264
1791022287948249600,7.23324951171875,-1.7635998725891113,-0.7734832763671875,-0.3370811939239502
1791022287958249500,7.24324951171875,-1.7933564186096191,-1.4044303894042969,0.4069802761077881
1791022287968249300,7.253249267578125,-1.3470072746276855,-1.6397294998168945,1.0596137046813965
1791022287978249500,7.26324951171875,-0.6893305778503418,-1.0397400856018066,1.4217309951782227
1791022287988249600,7.27324951171875,-0.327852725982666,-0.23190879821777344,1.0030343532562256
1791022287998249500,7.28324951171875,-0.4039788246154785,0.18295907974243164,-0.010075092315673828
1791022288008249300,7.293249267578125,-0.6838226318359375,0.329620361328125,-0.8465516567230225
1791022288018249500,7.30324951171875,-1.138411045074463,0.6392574310302734,-0.7660448551177979
1791022288028249600,7.31324951171875,-1.3064346313476562,1.0795984268188477,-0.06285929679870605
1791022288038249500,7.32324951171875,-0.9130558967590332,1.0904231071472168,-0.2930591106414795
1791022288048249300,7.333249267578125,-0.9259805679321289,0.83514404296875,-0.9545981884002686
1791022288058249500,7.34324951171875,-0.9482502937316895,-0.05431699752807617,-2.4760313034057617
1791022288068249600,7.35324951171875,-1.1227946281433105,-1.5871906280517578,-2.8888707160949707
1791022288078249500,7.36324951171875,-1.030141830444336,-1.8723759651184082,-2.0697104930877686
1791022288088249300,7.373249267578125,-1.4432086944580078,-1.6199021339416504,-1.7490451335906982
1791022288098249500,7.38324951171875,-1.9325041770935059,-0.9595623016357422,-1.0616947412490845
1791022288108249600,7.39324951171875,-1.2667241096496582,-0.7938261032104492,-1.0284202098846436
1791022288118249500,7.40324951171875,-1.3051605224609375,-0.8235630989074707,-0.7147257328033447
1791022288128249300,7.413249267578125,-2.1139163970947266,-0.8970847129821777,-0.03177475929260254
1791022288138249500,7.42324951171875,-2.9764604568481445,-1.316091537475586,0.1292743682861328
1791022288148249600,7.43324951171875,-2.929841995239258,-1.3562092781066895,0.22044944763183594
1791022288158249500,7.44324951171875,-2.342050552368164,-1.0498781204223633,-0.23563838005065918
1791022288168249300,7.453249267578125,-2.4795684814453125,-0.7754631042480469,-0.5988819599151611
1791022288178249500,7.46324951171875,-2.9820313453674316,-0.3904118537902832,-0.49951982498168945
1791022288188249600,7.47324951171875,-2.983794689178467,-0.12270879745483398,-0.4560387134552002
1791022288198249500,7.48324951171875,-2.9186577796936035,-0.389986515045166,-1.3371920585632324
1791022288208249300,7.493249267578125,-3.106903553009033,-0.663029670715332,-1.2459890842437744
1791022288218249500,7.50324951171875,-2.9131851196289062,-0.7436103820800781,-1.1655561923980713
1791022288228249600,7.51324951171875,-2.959498405456543,-0.20184946060180664,-1.208167314529419
1791022288238249500,7.52324951171875,-5.030546188354492,3.5389862060546875,-3.2116236686706543
1791022288248249300,7.533249267578125,-1.978377342224121,3.6803808212280273,1.3854384422302246
1791022288258249500,7.54324951171875,-1.4138202667236328,1.0025181770324707,4.009696006774902
1791022288268249600,7.55324951171875,-4.576538562774658,-1.1968250274658203,2.7428066730499268
1791022288278249500,7.56324951171875,-5.223260402679443,-3.549689292907715,0.3400228023529053
1791022288288249300,7.573249267578125,-2.8985137939453125,-5.3189544677734375,-0.11287736892700195
1791022288298249500,7.58324951171875,-2.5856447219848633,-4.302387714385986,0.9332115650177002
1791022288308249600,7.59324951171875,-3.4305739402770996,-4.474401473999023,2.3702645301818848
1791022288318249500,7.60324951171875,-2.996190071105957,-4.107934474945068,2.503145217895508
1791022288328249300,7.613249267578125,-1.6244392395019531,-3.3488664627075195,0.8224722146987915
1791022288338249500,7.62324951171875,-0.5774474143981934,-2.9198598861694336,-2.0206944942474365
1791022288348249600,7.63324951171875,-0.4518747329711914,-2.724849224090576,-4.280924320220947
1791022288358249500,7.64324951171875,-0.6362771987915039,-3.0242648124694824,-5.62724494934082
1791022288368249300,7.653249267578125,-0.10272836685180664,-3.480743408203125,-6.242195129394531
1791022288378249500,7.66324951171875,1.0277166366577148,-3.6096529960632324,-5.8599724769592285
1791022288388249600,7.67324951171875,2.554837226867676,-2.8612093925476074,-4.825603008270264
1791022288398249500,7.68324951171875,6.8351898193359375,-1.2028236389160156,1.2308417558670044
1791022288408249300,7.693249267578125,5.020726203918457,2.6167941093444824,0.3596203327178955
1791022288418249500,7.70324951171875,4.099669456481934,5.456644058227539,-2.3184432983398438
1791022288428249600,7.71324951171875,3.7967987060546875,7.307206153869629,-2.6419689655303955
1791022288438249500,7.72324951171875,4.201593399047852,9.374608993530273,-0.62214195728302
1791022288448249300,7.733249267578125,4.227144718170166,8.896331787109375,-2.4744601249694824
1791022288458249500,7.74324951171875,3.080225944519043,7.71468448638916,-2.486016035079956
1791022288468249600,7.75324951171875,2.990037441253662,7.21243953704834,-0.0015027523040771484
1791022288478249500,7.76324951171875,2.959472179412842,4.554319381713867,-0.9005616903305054
1791022288488249300,7.773249267578125,2.6396665573120117,1.7800564765930176,-1.9303038120269775
1791022288498249500,7.78324951171875,2.3312602043151855,0.13657593727111816,-1.513800859451294
1791022288508249600,7.79324951171875,1.7533702850341797,-0.48339319229125977,-1.548371434211731
1791022288518249500,7.80324951171875,1.3109025955200195,0.17262721061706543,-1.9503767490386963
1791022288528249300,7.813249267578125,1.0462932586669922,1.415391206741333,-1.910823941230774
1791022288538249500,7.82324951171875,0.5241222381591797,2.2982583045959473,-1.6298861503601074
1791022288548249600,7.83324951171875,0.02413177490234375,2.654486894607544,-1.188614010810852
1791022288558249500,7.84324951171875,-0.10604381561279297,2.579197883605957,-1.233452320098877
1791022288568249300,7.853249267578125,0.4759359359741211,1.9018157720565796,-1.6101083755493164
1791022288578249500,7.86324951171875,1.380925178527832,1.313467025756836,-1.5630542039871216
1791022288588249600,7.87324951171875,2.5082521438598633,0.9867291450500488,-1.6659374237060547
1791022288598249500,7.88324951171875,2.8213205337524414,1.0679759979248047,-2.3387866020202637
1791022288608249300,7.893249267578125,2.3857998847961426,1.365825891494751,-2.8996078968048096
1791022288618249500,7.90324951171875,1.904684066772461,1.9112510681152344,-2.184521198272705
1791022288628249600,7.91324951171875,1.5248785018920898,2.49812388420105,-1.194713830947876
1791022288638249500,7.92324951171875,1.5276908874511719,3.0999057292938232,-1.437326192855835
1791022288648249300,7.933249267578125,1.5691165924072266,3.833043336868286,-0.7441003322601318
1791022288658249500,7.94324951171875,1.8817930221557617,4.955769062042236,0.8598846197128296
1791022288668249600,7.95324951171875,2.444009780883789,6.041855812072754,1.4911302328109741
1791022288678249500,7.96324951171875,3.368112564086914,6.885202407836914,2.383251190185547
1791022288688249300,7.973249267578125,4.220254421234131,6.797369956970215,2.2296457290649414
1791022288698249500,7.98324951171875,4.011167526245117,5.701308250427246,-0.5450732707977295
1791022288708249600,7.99324951171875,1.4277172088623047,3.862293243408203,-1.8610801696777344
1791022288718249500,8.00324951171875,0.13051223754882812,2.612095594406128,-1.8137710094451904
1791022288728249300,8.013249267578125,0.182281494140625,1.8388988971710205,-2.4450833797454834
1791022288738249500,8.02324951171875,0.2802000045776367,0.7397732734680176,-3.4437427520751953
1791022288748249600,8.03324951171875,0.38991641998291016,-0.24031829833984375,-3.6506834030151367
1791022288758249500,8.04324951171875,1.1846370697021484,-0.40012168884277344,-3.8272171020507812
1791022288768249300,8.053249267578124,2.0569615364074707,0.09722232818603516,-3.414174795150757
1791022288778249500,8.06324951171875,2.4085941314697266,0.3902702331542969,-2.450503349304199
1791022288788249600,8.07324951171875,1.015751838684082,0.4678969383239746,-1.8587758541107178
1791022288798249500,8.08324951171875,-0.15387773513793945,-0.09762907028198242,-1.6112420558929443
1791022288808249300,8.093249267578125,-0.5932865142822266,-0.4746689796447754,-1.677087426185608
1791022288818249500,8.10324951171875,-1.3941845893859863,-1.095536231994629,-1.8125205039978027
1791022288828249600,8.11324951171875,-1.9001846313476562,-2.286406993865967,-2.641033172607422
1791022288838249500,8.12324951171875,-1.349942684173584,-2.8424487113952637,-3.214996576309204
1791022288848249300,8.133249267578124,-2.607837677001953,-3.644625186920166,-3.740849494934082
1791022288858249500,8.14324951171875,0.3305482864379883,-2.5762510299682617,-2.2882561683654785
1791022288868249600,8.15324951171875,-2.2855582237243652,-3.1085739135742188,0.11050128936767578
1791022288878249500,8.16324951171875,-1.1974363327026367,-3.6280517578125,1.0321087837219238
1791022288888249300,8.173249267578125,-1.6836042404174805,-4.125040054321289,0.5447419285774231
1791022288898249200,8.183249267578125,-1.9405817985534668,-3.5965042114257812,-0.5555428266525269
1791022288908249300,8.193249267578125,-1.8078193664550781,-3.382535934448242,-1.8861163854599
1791022288918249200,8.203249267578125,-2.1444621086120605,-3.483370780944824,-2.4079203605651855
1791022288928249300,8.213249267578124,-2.3180460929870605,-3.3456811904907227,-1.1613686084747314
1791022288938249200,8.223249267578124,-2.4927096366882324,-2.824578285217285,0.8973315954208374
1791022288948249300,8.233249267578126,-2.904778003692627,-0.6838464736938477,4.080267429351807
1791022288958249200,8.243249267578125,-4.733750343322754,0.9676399230957031,3.7271440029144287
1791022288968249300,8.253249267578125,-5.044419288635254,-6.549450874328613,-2.7528858184814453
1791022288978249200,8.263249267578125,-4.285414695739746,-9.004839897155762,-5.14583158493042
1791022288988249300,8.273249267578125,-2.0985913276672363,-5.212800025939941,-2.9705965518951416
1791022288998249200,8.283249267578125,-2.0983264446258545,-1.5218257904052734,0.8489348292350769
1791022289008249300,8.293249267578124,-3.65901255607605,-0.47901058197021484,0.8456076383590698
1791022289018249200,8.303249267578124,-4.353317737579346,-0.4678993225097656,0.2827441692352295
1791022289028249300,8.313249267578126,-3.8447980880737305,0.46077919006347656,0.7800503969192505
1791022289038249200,8.323249267578126,-3.5021276473999023,1.3433046340942383,1.35011887550354
1791022289048249300,8.333249267578125,-3.6123077869415283,0.7564640045166016,0.4600618779659271
1791022289058249200,8.343249267578125,-2.8823108673095703,0.6503229141235352,0.05176130682229996
1791022289068249300,8.353249267578125,-2.111506938934326,1.7961421012878418,1.6502397060394287
1791022289078249200,8.363249267578125,-2.6174087524414062,2.3700995445251465,1.8830980062484741
1791022289088249300,8.373249267578124,-3.01001238822937,2.0065999031066895,1.270913004875183
1791022289098249200,8.383249267578124,-2.657928466796875,0.41315650939941406,-0.2634243071079254
1791022289108249300,8.393249267578126,-2.3020920753479004,-1.312582015991211,-2.297250509262085
1791022289118249200,8.403249267578126,-2.169161319732666,-2.9006004333496094,-3.201481819152832
1791022289128249300,8.413249267578125,-2.4741439819335938,-3.555816650390625,-3.1689021587371826
1791022289138249200,8.423249267578125,-2.914952278137207,0.4456157684326172,-1.6068626642227173
1791022289148249300,8.433249267578125,-3.698690176010132,-0.6764030456542969,-1.997976541519165
1791022289158249200,8.443249267578125,-3.998995304107666,-3.212531089782715,-1.7253353595733643
1791022289168249300,8.453249267578125,-5.51490592956543,-4.310833930969238,-0.6910564303398132
1791022289178249200,8.463249267578124,-3.585970163345337,-6.566925048828125,-1.3780994415283203
1791022289188249300,8.473249267578124,-2.1587748527526855,-8.295380592346191,-5.706578254699707
1791022289198249200,8.483249267578126,-6.16555643081665,-6.264370918273926,-7.722763538360596
1791022289208249300,8.493249267578125,-4.603269100189209,-4.499627113342285,-6.063080787658691
1791022289218249200,8.503249267578125,-2.547966957092285,-1.4331331253051758,-3.0201878547668457
1791022289228249300,8.513249267578125,-0.7329092025756836,2.3689966201782227,-0.7623386383056641
1791022289238249200,8.523249267578125,1.0909686088562012,4.148229598999023,1.512297511100769
1791022289248249300,8.533249267578125,1.8197383880615234,2.7794628143310547,4.220540523529053
1791022289258249200,8.543249267578124,0.9481935501098633,0.5652098655700684,4.266002655029297
1791022289268249300,8.553249267578124,-0.3820915222167969,-1.7382497787475586,1.6196507215499878
1791022289278249200,8.563249267578126,-0.6746912002563477,-2.69602108001709,-1.9198434352874756
1791022289288249300,8.573249267578126,-0.21826171875,-3.0810022354125977,-3.791451930999756
1791022289298249200,8.583249267578125,0.2472681999206543,-3.128842353820801,-3.4839348793029785
1791022289308249300,8.593249267578125,-0.5009665489196777,-3.179546356201172,-2.8905909061431885
1791022289318249200,8.603249267578125,-2.1621017456054688,-3.202284812927246,-2.481278657913208
1791022289328249300,8.613249267578125,-3.679413318634033,-2.2302846908569336,-2.0841825008392334
1791022289338249200,8.623249267578124,-3.0780081748962402,-0.8919954299926758,-1.4786906242370605
1791022289348249300,8.633249267578124,-1.8136320114135742,-0.11493682861328125,-1.527453899383545
1791022289358249200,8.643249267578126,-1.2365484237670898,0.30497074127197266,-1.591151237487793
1791022289368249300,8.653249267578126,-1.5741353034973145,0.8695793151855469,-0.6997792720794678
1791022289378249200,8.663249267578125,-2.1127891540527344,1.0081729888916016,0.8645596504211426
1791022289388249300,8.673249267578125,-2.245469093322754,0.9441366195678711,2.0262434482574463
1791022289398249200,8.683249267578125,-1.7873406410217285,0.2772221565246582,2.0732016563415527
1791022289408249300,8.693249267578125,-1.3402376174926758,-0.3465151786804199,1.1018486022949219
1791022289418249200,8.703249267578125,-1.4752039909362793,-0.8116540908813477,0.25573158264160156
1791022289428249300,8.713249267578124,-1.8231010437011719,-1.200913906097412,0.059828758239746094
1791022289438249200,8.723249267578124,-1.952005386352539,-1.497739315032959,0.15838003158569336
1791022289448249300,8.733249267578126,-1.7570805549621582,-1.7079811096191406,0.1500551700592041
1791022289458249200,8.743249267578125,-1.2436308860778809,-1.7699508666992188,-0.11927533149719238
1791022289468249300,8.753249267578125,-0.6816287040710449,-1.741335391998291,-0.6334898471832275
1791022289478249200,8.763249267578125,-0.4061551094055176,-1.6563735008239746,-1.2634854316711426
1791022289488249300,8.773249267578125,0.031359195709228516,-1.5504875183105469,-1.8697190284729004
1791022289498249200,8.783249267578125,0.35631322860717773,-1.4455528259277344,-2.1727466583251953
1791022289508249300,8.793249267578124,0.14203500747680664,-1.303140640258789,-2.134489059448242
1791022289518249200,8.803249267578124,-0.04958915710449219,-1.1967692375183105,-2.1080069541931152
1791022289528249300,8.813249267578126,0.5743818283081055,-1.2094416618347168,-2.4612765312194824
1791022289538249200,8.823249267578126,1.0707073211669922,-1.2610831260681152,-2.7354493141174316
1791022289548249300,8.833249267578125,0.985191822052002,-1.150777816772461,-2.827415943145752
1791022289558249200,8.843249267578125,0.6816720962524414,-0.8277678489685059,-2.9045376777648926
1791022289568249300,8.853249267578125,1.2057194709777832,-0.3094196319580078,-3.0330774784088135
1791022289578249200,8.863249267578125,2.079599380493164,0.4195246696472168,-3.204653024673462
1791022289588249300,8.873249267578124,2.7183752059936523,1.2350726127624512,-3.2430059909820557
1791022289598249200,8.883249267578124,3.178893566131592,2.04561448097229,-3.3137094974517822
1791022289608249300,8.893249267578126,3.601083755493164,2.7059903144836426,-3.2031614780426025
1791022289618249200,8.903249267578126,3.5221352577209473,2.926494836807251,-2.939195156097412
1791022289628249300,8.913249267578125,3.728022575378418,2.954906463623047,-3.302217483520508
1791022289638249200,8.923249267578125,3.87966251373291,2.9356272220611572,-3.688209295272827
1791022289648249300,8.933249267578125,3.784550189971924,2.872136116027832,-3.7676119804382324
1791022289658249200,8.943249267578125,3.5090808868408203,2.76332688331604,-3.540152072906494
1791022289668249300,8.953249267578125,2.743922233581543,2.91092848777771,-3.3257479667663574
1791022289678249200,8.963249267578124,2.3146305084228516,2.8936781883239746,-3.288811683654785
1791022289688249300,8.973249267578124,2.564483642578125,2.4941763877868652,-2.900761604309082
1791022289698249200,8.983249267578126,2.789966583251953,2.0415592193603516,-2.376934289932251
1791022289708249300,8.993249267578125,2.661921977996826,1.8192322254180908,-2.280571460723877
1791022289718249200,9.003249267578125,2.123927116394043,1.8552696704864502,-2.4008798599243164
1791022289728249300,9.013249267578125,1.4739437103271484,2.0175588130950928,-2.466188907623291
1791022289738249200,9.023249267578125,1.090498924255371,2.161623477935791,-2.154906749725342
1791022289748249300,9.033249267578125,0.9339981079101562,2.3145272731781006,-1.8878965377807617
1791022289758249200,9.043249267578124,1.0370359420776367,2.4584484100341797,-1.8978180885314941
1791022289768249300,9.053249267578124,1.1290345191955566,2.533282995223999,-2.0591464042663574
1791022289778249200,9.063249267578126,0.9153203964233398,2.4932260513305664,-2.161439895629883
1791022289788249300,9.073249267578126,0.6290206909179688,2.320641040802002,-2.102904796600342
1791022289798249200,9.083249267578125,0.4269218444824219,2.043379068374634,-1.9128334522247314
1791022289808249300,9.093249267578125,0.3654947280883789,1.7006988525390625,-1.7077631950378418
1791022289818249200,9.103249267578125,0.511375904083252,1.3956868648529053,-1.6036481857299805
1791022289828249300,9.113249267578125,0.713101863861084,1.02775239944458,-1.5578041076660156
1791022289838249200,9.123249267578124,0.9704651832580566,0.7293498516082764,-1.4790611267089844
1791022289848249300,9.133249267578124,1.2066664695739746,0.5478711128234863,-1.5012645721435547
1791022289858249200,9.143249267578126,1.354215145111084,0.41784143447875977,-1.531482219696045
1791022289868249300,9.153249267578126,1.4543423652648926,0.3935270309448242,-1.5612478256225586
1791022289878249200,9.163249267578125,1.456984519958496,0.4387702941894531,-1.520336627960205
1791022289888249300,9.173249267578125,1.2975072860717773,0.5112371444702148,-1.516361951828003
1791022289898249200,9.183249267578125,0.9497904777526855,0.5733132362365723,-1.572204828262329
1791022289908249300,9.193249267578125,0.5538954734802246,0.5619101524353027,-1.581047534942627
1791022289918249200,9.203249267578125,0.3287062644958496,0.5288753509521484,-1.5053424835205078
1791022289928249300,9.213249267578124,0.29297447204589844,0.4979209899902344,-1.464489221572876
1791022289938249200,9.223249267578124,0.13619756698608398,0.45030736923217773,-1.361720085144043
1791022289948249300,9.233249267578126,-0.1308450698852539,0.41069889068603516,-1.2071397304534912
1791022289958249200,9.243249267578125,-0.33997249603271484,0.34769105911254883,-1.0593631267547607
1791022289968249300,9.253249267578125,-0.48406314849853516,0.1597733497619629,-0.9299728870391846
1791022289978249200,9.263249267578125,-0.6728315353393555,-0.15372657775878906,-0.8120331764221191
1791022289988249300,9.273249267578125,-1.0274004936218262,-0.5796661376953125,-0.7121536731719971
1791022289998249200,9.283249267578125,-1.5321359634399414,-1.0621576309204102,-0.6804373264312744
1791022290008249300,9.293249267578124,-2.0784244537353516,-1.5927200317382812,-0.7914116382598877
1791022290018249200,9.303249267578124,-2.29481840133667,-2.2317557334899902,-0.9195430278778076
1791022290028249300,9.313249267578126,-2.0968704223632812,-2.994105815887451,-1.1262931823730469
1791022290038249200,9.323249267578126,-1.9589004516601562,-3.7999138832092285,-1.3283761739730835
1791022290048249300,9.333249267578125,-1.9857354164123535,-4.487908840179443,-1.5968985557556152
1791022290058249200,9.343249267578125,-2.23470401763916,-5.020693778991699,-1.8062210083007812
1791022290068249300,9.353249267578125,-2.5815834999084473,-5.179590225219727,-1.8853082656860352
1791022290078249200,9.363249267578125,-2.7503724098205566,-4.991220474243164,-1.6735680103302002
1791022290088249300,9.373249267578124,-2.713918685913086,-4.49721622467041,-0.9972671270370483
1791022290098249200,9.383249267578124,-2.5271072387695312,-3.713686943054199,0.036598920822143555
1791022290108249300,9.393249267578126,-2.3476200103759766,-2.7778425216674805,0.4798707962036133
1791022290118249200,9.403249267578126,-2.5618720054626465,-1.9132719039916992,0.8003662824630737
1791022290128249300,9.413249267578125,-2.572692394256592,-1.2319917678833008,0.9533587694168091
1791022290138249200,9.423249267578125,-2.384121894836426,-0.7465553283691406,0.9370706081390381
1791022290148249300,9.433249267578125,-2.3255014419555664,-0.3400259017944336,0.8192931413650513
1791022290158249200,9.443249267578125,-2.2828421592712402,0.009400367736816406,0.8653610944747925
1791022290168249300,9.453249267578125,-2.153280258178711,0.3959817886352539,0.8259608745574951
1791022290178249200,9.463249267578124,-2.1198806762695312,0.7617959976196289,0.7243449687957764
1791022290188249300,9.473249267578124,-1.8861286640167236,1.1513519287109375,0.5634139776229858
1791022290198249200,9.483249267578126,-1.7129175662994385,1.4207558631896973,0.40224480628967285
1791022290208249300,9.493249267578125,-1.7339158058166504,1.4912500381469727,0.4684901237487793
1791022290218249200,9.503249267578125,-1.6536080837249756,1.3537402153015137,0.7074483633041382
1791022290228249300,9.513249267578125,-1.5052340030670166,1.1343975067138672,0.9410315752029419
1791022290238249200,9.523249267578125,-1.6209070682525635,0.7955837249755859,1.2481940984725952
1791022290248249300,9.533249267578125,-1.9386732578277588,0.32855987548828125,1.7115141153335571
1791022290258249200,9.543249267578124,-2.2020151615142822,-0.24196720123291016,2.0756075382232666
1791022290268249300,9.553249267578124,-2.283231019973755,-0.8082151412963867,2.217374801635742
1791022290278249200,9.563249267578126,-2.5333616733551025,-1.350921630859375,2.0833041667938232
1791022290288249300,9.573249267578126,-2.9434750080108643,-1.7504911422729492,1.8441575765609741
1791022290298249200,9.583249267578125,-3.2092950344085693,-2.0238914489746094,1.4296090602874756
1791022290308249300,9.593249267578125,-3.237403392791748,-2.2386178970336914,0.9301704168319702
1791022290318249200,9.603249267578125,-3.111612319946289,-2.4147844314575195,0.44934988021850586
1791022290328249300,9.613249267578125,-2.923987865447998,-2.544590950012207,0.08541405200958252
1791022290338249200,9.623249267578124,-2.6159348487854004,-2.487980842590332,-0.10800111293792725
1791022290348249300,9.633249267578124,-2.201620101928711,-2.209811210632324,-0.31210267543792725
1791022290358249200,9.643249267578126,-1.7428998947143555,-1.760605812072754,-0.4788072109222412
1791022290368249300,9.653249267578126,-1.1848583221435547,-1.2575626373291016,-0.470409631729126
1791022290378249200,9.663249267578125,-0.6191415786743164,-0.7842388153076172,-0.4302276372909546
1791022290388249300,9.673249267578125,-0.19537353515625,-0.41608715057373047,-0.35149049758911133
1791022290398249200,9.683249267578125,0.04769134521484375,-0.21599674224853516,-0.2505542039871216
1791022290408249300,9.693249267578125,0.25892210006713867,-0.08208847045898438,-0.17190492153167725
1791022290418249200,9.703249267578125,0.2621932029724121,-0.00382232666015625,-0.017300128936767578
1791022290428249300,9.713249267578124,0.06760406494140625,-0.040749549865722656,0.2002277374267578
1791022290438249200,9.723249267578124,-0.06289148330688477,-0.17880916595458984,0.34214162826538086
1791022290448249300,9.733249267578126,-0.13936805725097656,-0.4065704345703125,0.4386160373687744
1791022290458249200,9.743249267578125,-0.3352541923522949,-0.6563835144042969,0.42647480964660645
1791022290468249300,9.753249267578125,-0.5402750968933105,-0.9270858764648438,0.35243749618530273
1791022290478249200,9.763249267578125,-0.749852180480957,-1.2966742515563965,0.4069485664367676
1791022290488249300,9.773249267578125,-0.6459898948669434,-1.748610496520996,0.4626779556274414
1791022290498249200,9.783249267578125,-0.35201120376586914,-2.161374092102051,0.4761507511138916
1791022290508249300,9.793249267578124,-0.2918405532836914,-2.371016502380371,0.31279492378234863
1791022290518249200,9.803249267578124,-0.6274476051330566,-2.3146166801452637,0.11082839965820312
1791022290528249300,9.813249267578126,-1.163614273071289,-2.1135549545288086,0.04068446159362793
1791022290538249200,9.823249267578126,-1.4189581871032715,-1.976511001586914,0.06306982040405273
1791022290548249300,9.833249267578125,-1.2245402336120605,-1.8304729461669922,-0.028226137161254883
1791022290558249200,9.843249267578125,-0.712770938873291,-1.594548225402832,-0.22302961349487305
1791022290568249300,9.853249267578125,-0.3887319564819336,-1.2415790557861328,-0.5060086250305176
1791022290578249200,9.863249267578125,-0.45200395584106445,-0.9289469718933105,-0.6782941818237305
1791022290588249300,9.873249267578124,-0.8145651817321777,-0.7758679389953613,-0.6375381946563721
1791022290598249200,9.883249267578124,-1.0628085136413574,-0.8438410758972168,-0.5532956123352051
1791022290608249300,9.893249267578126,-1.1155362129211426,-0.9990901947021484,-0.5159902572631836
1791022290618249200,9.903249267578126,-0.8792586326599121,-1.2855820655822754,-0.9293980598449707
1791022290628249300,9.913249267578125,-0.5015935897827148,-1.5430593490600586,-1.2753207683563232
1791022290638249200,9.923249267578125,0.07624578475952148,-1.705662727355957,-1.8190059661865234
1791022290648249300,9.933249267578125,-0.1198587417602539,-1.953580379486084,-1.8625519275665283
1791022290658249200,9.943249267578125,-0.3685188293457031,-2.34297513961792,-1.50555419921875
1791022290668249300,9.953249267578125,0.09090852737426758,-2.7677369117736816,-1.514693260192871
1791022290678249200,9.963249267578124,0.7738223075866699,-3.0325255393981934,-1.960339069366455
1791022290688249300,9.973249267578124,1.164649486541748,-2.7977209091186523,-2.1648178100585938
1791022290698249200,9.983249267578126,1.2609868049621582,-2.145756721496582,-2.1694109439849854
1791022290708249300,9.993249267578125,1.2067155838012695,-1.442967414855957,-2.098489284515381
1791022290718249200,10.003249267578125,1.533543586730957,-0.8019652366638184,-2.1336703300476074
1791022290728249300,10.013249267578125,1.9689226150512695,-0.11543941497802734,-2.038484573364258
1791022290738249200,10.023249267578125,2.051753044128418,0.6924371719360352,-1.8444876670837402
1791022290748249300,10.033249267578125,2.3023910522460938,1.4879083633422852,-1.698218822479248
1791022290758249200,10.043249267578124,2.255836009979248,2.039180040359497,-1.7422475814819336
1791022290768249300,10.053249267578124,1.8391985893249512,2.301258087158203,-1.5969789028167725
1791022290778249200,10.063249267578126,1.8161869049072266,2.0722508430480957,-1.783674955368042
1791022290788249300,10.073249267578126,2.221541404724121,1.7108604907989502,-2.088095188140869
1791022290798249200,10.083249267578125,2.769763946533203,1.6009140014648438,-2.555206775665283
1791022290808249300,10.093249267578125,3.106661796569824,1.647886037826538,-3.0965309143066406
1791022290818249200,10.103249267578125,3.2190608978271484,1.6249160766601562,-3.576279878616333
1791022290828249300,10.113249267578125,3.0616683959960938,1.4084858894348145,-3.95585036277771
1791022290838249200,10.123249267578124,2.983384132385254,1.4106775522232056,-3.6396498680114746
1791022290848249300,10.133249267578124,2.818662166595459,1.4586098194122314,-2.9304332733154297
1791022290858249200,10.143249267578126,2.9167656898498535,1.8571367263793945,-3.068485736846924
1791022290868249300,10.153249267578126,2.7182960510253906,2.3542160987854004,-2.98103666305542
1791022290878249200,10.163249267578125,2.35025691986084,2.7686338424682617,-2.8549866676330566
1791022290888249300,10.173249267578125,2.177058219909668,2.782228469848633,-2.609463691711426
1791022290898249200,10.183249267578125,2.224222183227539,2.590229034423828,-2.441554307937622
1791022290908249300,10.193249267578125,1.9505038261413574,2.4864895343780518,-2.4033031463623047
1791022290918249200,10.203249267578125,1.6685352325439453,2.399214744567871,-2.4063515663146973
1791022290928249300,10.213249267578124,1.4876890182495117,2.2360010147094727,-2.439765691757202
1791022290938249200,10.223249267578124,1.226170539855957,2.064866304397583,-2.426208972930908
1791022290948249300,10.233249267578126,0.9647064208984375,1.799133539199829,-2.326110601425171
1791022290958249200,10.243249267578125,0.9416990280151367,1.4837195873260498,-2.3144426345825195
1791022290968249300,10.253249267578125,0.9929423332214355,1.1562862396240234,-2.4301180839538574
1791022290978249200,10.263249267578125,1.0631155967712402,0.8631250858306885,-2.4397075176239014
1791022290988249300,10.273249267578125,1.2762250900268555,0.6497271060943604,-2.5525474548339844
1791022290998249200,10.283249267578125,1.5269498825073242,0.5545191764831543,-2.6632888317108154
1791022291008249300,10.293249267578124,1.7295794486999512,0.5769288539886475,-2.695129871368408
1791022291018249200,10.303249267578124,1.9524030685424805,0.726323127746582,-2.601487398147583
1791022291028249300,10.313249267578126,2.0878963470458984,1.1228504180908203,-2.4192490577697754
1791022291038249200,10.323249267578126,1.956892490386963,1.5834672451019287,-2.248878002166748
1791022291048249300,10.333249267578125,1.574812412261963,1.9466276168823242,-1.9258251190185547
1791022291058249200,10.343249267578125,1.1613798141479492,2.1188979148864746,-1.6368634700775146
1791022291068249300,10.353249267578125,0.733823299407959,2.090538263320923,-1.3450896739959717
1791022291078249200,10.363249267578125,0.38425540924072266,1.8627333641052246,-1.1017413139343262
1791022291088249300,10.373249267578124,0.35564327239990234,1.3392727375030518,-1.0017874240875244
1791022291098249200,10.383249267578124,0.508918285369873,0.6635217666625977,-0.9977951049804688
1791022291108249300,10.393249267578126,0.7763814926147461,-0.05724382400512695,-1.138132095336914
1791022291118249200,10.403249267578126,0.7383298873901367,-0.6826267242431641,-1.305798053741455
1791022291128249300,10.413249267578125,0.5058717727661133,-1.315399169921875,-1.55902099609375
1791022291138249200,10.423249267578125,0.2028217315673828,-1.9537701606750488,-1.8210530281066895
1791022291148249300,10.433249267578125,-0.32808589935302734,-2.568695545196533,-1.9493560791015625
1791022291158249200,10.443249267578125,-0.8535709381103516,-3.132357120513916,-1.9822049140930176
1791022291168249300,10.453249267578125,-1.2300848960876465,-3.5938544273376465,-1.9426491260528564
1791022291178249200,10.463249267578124,-1.54351806640625,-3.8248958587646484,-1.7723937034606934
1791022291188249300,10.473249267578124,-1.446681022644043,-3.776444435119629,-1.431199073791504
1791022291198249200,10.483249267578126,-1.1816596984863281,-3.512388229370117,-1.0713257789611816
1791022291208249300,10.493249267578125,-1.2133522033691406,-3.1625876426696777,-0.8046886920928955
1791022291218249200,10.503249267578125,-1.4786620140075684,-2.755530834197998,-0.65622878074646
1791022291228249300,10.513249267578125,-1.6970739364624023,-2.3732314109802246,-0.5477802753448486
1791022291238249200,10.523249267578125,-1.83534574508667,-2.0900888442993164,-0.5081648826599121
1791022291248249300,10.533249267578125,-1.8715300559997559,-1.8349742889404297,-0.35678601264953613
1791022291258249200,10.543249267578124,-1.9205312728881836,-1.7480835914611816,-0.17623114585876465
1791022291268249300,10.553249267578124,-1.9713373184204102,-1.7715215682983398,-0.08507680892944336
1791022291278249200,10.563249267578126,-2.0233631134033203,-1.924367904663086,-0.06139254570007324
1791022291288249300,10.573249267578126,-2.0758056640625,-2.157475471496582,-0.11145734786987305
1791022291298249200,10.583249267578125,-2.1731467247009277,-2.4499616622924805,-0.18972420692443848
1791022291308249300,10.593249267578125,-2.3716940879821777,-2.7215423583984375,-0.3696131706237793
1791022291318249200,10.603249267578125,-2.687777042388916,-2.8803529739379883,-0.44803714752197266
1791022291328249300,10.613249267578125,-3.130833625793457,-2.8947601318359375,-0.3795011043548584
1791022291338249200,10.623249267578124,-3.4110593795776367,-2.844198226928711,-0.30965328216552734
1791022291348249300,10.633249267578124,-3.5356693267822266,-2.750758171081543,-0.29607558250427246
1791022291358249200,10.643249267578126,-3.5918631553649902,-2.626710891723633,-0.22202157974243164
1791022291368249300,10.653249267578126,-3.509263515472412,-2.403444290161133,-0.08180403709411621
1791022291378249200,10.663249267578125,-3.273733139038086,-2.114950180053711,0.09486174583435059
1791022291388249300,10.673249267578125,-2.978665828704834,-1.745265007019043,0.2578160762786865
1791022291398249200,10.683249267578125,-2.82745361328125,-1.3826398849487305,0.3556082248687744
1791022291408249300,10.693249267578125,-2.849620819091797,-1.104121208190918,0.36013197898864746
1791022291418249200,10.703249267578125,-3.029953718185425,-0.861384391784668,0.2416083812713623
1791022291428249300,10.713249267578124,-3.1723756790161133,-0.7057704925537109,0.04100394248962402
1791022291438249200,10.723249267578124,-3.1709043979644775,-0.6133441925048828,-0.08018779754638672
1791022291448249300,10.733249267578126,-3.0187981128692627,-0.6639976501464844,-0.03687310218811035
1791022291458249200,10.743249267578125,-2.6838185787200928,-0.8084144592285156,0.16007637977600098
1791022291468249300,10.753249267578125,-2.3112382888793945,-0.9171457290649414,0.40888547897338867
1791022291478249200,10.763249267578125,-2.0577540397644043,-0.8970327377319336,0.6559498310089111
1791022291488249300,10.773249267578125,-1.76497483253479,-0.7682075500488281,0.6965692043304443
1791022291498249200,10.783249267578125,-1.4647352695465088,-0.558629035949707,0.4356977939605713
1791022291508249300,10.793249267578124,-1.3570001125335693,-0.357696533203125,0.0211484432220459
1791022291518249200,10.803249267578124,-1.508310317993164,-0.36133289337158203,-0.32656359672546387
1791022291528249300,10.813249267578126,-1.7471766471862793,-0.5543193817138672,-0.6261157989501953
1791022291538249200,10.823249267578126,-1.950082778930664,-0.8633899688720703,-0.7444641590118408
1791022291548249300,10.833249267578125,-2.126098155975342,-1.1257705688476562,-0.6382601261138916
1791022291558249200,10.843249267578125,-2.2469568252563477,-1.2935562133789062,-0.44947266578674316
1791022291568249300,10.853249267578125,-2.2364306449890137,-1.3727779388427734,-0.3178701400756836
1791022291578249200,10.863249267578125,-2.1012353897094727,-1.4450817108154297,-0.21933364868164062
1791022291588249300,10.873249267578124,-1.9048690795898438,-1.5324087142944336,-0.10583853721618652
1791022291598249200,10.883249267578124,-1.5333075523376465,-1.570211410522461,-0.013540029525756836
1791022291608249300,10.893249267578126,-1.113955020904541,-1.4914655685424805,-0.06250810623168945
1791022291618249200,10.903249267578126,-0.8419723510742188,-1.2748146057128906,-0.1836686134338379
1791022291628249300,10.913249267578125,-0.8163752555847168,-0.9837560653686523,-0.3453519344329834
1791022291638249200,10.923249267578125,-0.9986758232116699,-0.7471733093261719,-0.4704864025115967
1791022291648249300,10.933249267578125,-1.1727423667907715,-0.6821918487548828,-0.5556137561798096
1791022291658249200,10.943249267578125,-1.1343274116516113,-0.7926416397094727,-0.6453125476837158
1791022291668249300,10.953249267578125,-0.95355224609375,-0.983100414276123,-0.730278730392456
1791022291678249200,10.963249267578124,-0.8911943435668945,-1.252729892730713,-0.6573100090026855
1791022291688249300,10.973249267578124,-0.9806327819824219,-1.560725212097168,-0.5183954238891602
1791022291698249200,10.983249267578126,-0.927192211151123,-1.9457855224609375,-0.36396169662475586
1791022291708249300,10.993249267578125,-0.7195234298706055,-2.3375258445739746,-0.22206878662109375
1791022291718249200,11.003249267578125,-0.5487465858459473,-2.636505126953125,-0.15314745903015137
1791022291728249300,11.013249267578125,-0.7491254806518555,-2.833252429962158,-0.08836150169372559
1791022291738249200,11.023249267578125,-1.1101388931274414,-2.9264206886291504,-0.14474225044250488
1791022291748249300,11.033249267578125,-1.286820411682129,-2.96726655960083,-0.30322957038879395
1791022291758249200,11.043249267578124,-1.169959545135498,-2.9246182441711426,-0.5614392757415771
1791022291768249300,11.053249267578124,-0.8075461387634277,-2.8178815841674805,-1.0203814506530762
1791022291778249200,11.063249267578126,-0.5040097236633301,-2.6330108642578125,-1.3997364044189453
1791022291788249300,11.073249267578126,-0.5051612854003906,-2.428244113922119,-1.6228699684143066
1791022291798249200,11.083249267578125,-0.563805103302002,-2.330195426940918,-1.7037897109985352
1791022291808249300,11.093249267578125,-0.590024471282959,-2.4101853370666504,-1.7291674613952637
1791022291818249200,11.103249267578125,-0.482943058013916,-2.520341396331787,-1.7444753646850586
1791022291828249300,11.113249267578125,-0.22381258010864258,-2.654308319091797,-1.8683490753173828
1791022291838249200,11.123249267578124,0.07522058486938477,-2.7076406478881836,-1.9878835678100586
1791022291848249300,11.133249267578124,0.3839435577392578,-2.613438129425049,-2.0040957927703857
1791022291858249200,11.143249267578126,0.4832015037536621,-2.3425660133361816,-1.9499578475952148
1791022291868249300,11.153249267578126,0.40947437286376953,-2.038496494293213,-1.9406323432922363
1791022291878249200,11.163249267578125,0.7173981666564941,-1.828183650970459,-2.0227816104888916
1791022291888249300,11.173249267578125,1.2337751388549805,-1.6051926612854004,-2.0753674507141113
1791022291898249200,11.183249267578125,1.511775016784668,-1.316056728363037,-2.0213680267333984
1791022291908249300,11.193249267578125,1.388979434967041,-1.2386231422424316,-2.473167657852173
1791022291918249200,11.203249267578125,1.5782136917114258,-1.2296414375305176,-2.87233829498291
1791022291928249300,11.213249267578124,1.6508917808532715,-1.0724105834960938,-2.8418896198272705
1791022291938249200,11.223249267578124,1.1426987648010254,-0.769442081451416,-2.796139717102051
1791022291948249300,11.233249267578126,1.5237107276916504,-0.5070590972900391,-2.8555619716644287
1791022291958249200,11.243249267578125,2.4630637168884277,-0.3496685028076172,-2.9247517585754395
1791022291968249300,11.253249267578125,2.7861247062683105,0.06937670707702637,-2.6540236473083496
1791022291978249200,11.263249267578125,2.6168432235717773,0.6699991226196289,-2.5481619834899902
1791022291988249300,11.273249267578125,2.252718925476074,1.06416654586792,-2.8863368034362793
1791022291998249200,11.283249267578125,2.018779754638672,1.165477991104126,-3.127393960952759
1791022292008249300,11.293249267578124,2.2073984146118164,1.194210410118103,-3.4046425819396973
1791022292018249200,11.303249267578124,2.237391471862793,0.9165594577789307,-3.2014973163604736
1791022292028249300,11.313249267578126,2.3975930213928223,0.8221848011016846,-3.1718404293060303
1791022292038249200,11.323249267578126,2.3893280029296875,0.7385842800140381,-3.1948659420013428
1791022292048249300,11.333249267578125,2.3521480560302734,0.5272862911224365,-3.310912609100342
1791022292058249200,11.343249267578125,2.2910828590393066,0.6079435348510742,-2.996701955795288
1791022292068249300,11.353249267578125,2.1082334518432617,0.6768068075180054,-2.8604042530059814
1791022292078249200,11.363249267578125,2.157489776611328,0.8095921277999878,-2.798750877380371
1791022292088249300,11.373249267578124,2.129878044128418,0.9437087774276733,-2.6977696418762207
1791022292098249200,11.383249267578124,1.6559796333312988,0.9102578163146973,-2.469085693359375
1791022292108249300,11.393249267578126,1.1546516418457031,0.8056272268295288,-2.086181402206421
1791022292118249200,11.403249267578126,0.6991329193115234,0.46654534339904785,-1.856917381286621
1791022292128249300,11.413249267578125,0.5100345611572266,-0.0034067630767822266,-1.6765353679656982
1791022292138249200,11.423249267578125,0.5425286293029785,-0.4749610424041748,-1.5168800354003906
1791022292148249300,11.433249267578125,0.8057804107666016,-0.9070312976837158,-1.751591682434082
1791022292158249200,11.443249267578125,0.9653120040893555,-1.0275707244873047,-2.2032976150512695
1791022292168249300,11.453249267578125,0.9555883407592773,-0.8168258666992188,-2.391940116882324
1791022292178249200,11.463249267578124,1.0874099731445312,-0.3634042739868164,-2.442500591278076
1791022292188249300,11.473249267578124,1.2819890975952148,0.17818641662597656,-2.4008331298828125
1791022292198249200,11.483249267578126,1.5035595893859863,0.6883687973022461,-2.285782814025879
1791022292208249300,11.493249267578125,1.7255678176879883,1.0633304119110107,-2.113293170928955
1791022292218249200,11.503249267578125,1.9454593658447266,1.278238296508789,-1.9852871894836426
1791022292228249300,11.513249267578125,2.117170810699463,1.357579231262207,-1.9852790832519531
1791022292238249200,11.523249267578125,2.1524572372436523,1.3248883485794067,-1.9811010360717773
1791022292248249300,11.533249267578125,2.043764114379883,1.2604424953460693,-1.9183807373046875
1791022292258249200,11.543249267578124,2.029646396636963,1.1650103330612183,-1.9086451530456543
1791022292268249300,11.553249267578124,1.8811836242675781,1.005497932434082,-1.9364588260650635
1791022292278249200,11.563249267578126,1.5226073265075684,0.8460564613342285,-1.7559678554534912
1791022292288249300,11.573249267578126,1.2604937553405762,0.5802645683288574,-1.5051004886627197
1791022292298249200,11.583249267578125,1.1280384063720703,0.2658193111419678,-1.346801996231079
1791022292308249300,11.593249267578125,1.0433826446533203,-0.13660979270935059,-1.3539564609527588
1791022292318249200,11.603249267578125,1.052947998046875,-0.4698777198791504,-1.3478288650512695
1791022292328249300,11.613249267578125,1.0084400177001953,-0.7235677242279053,-1.3371477127075195
1791022292338249200,11.623249267578124,0.9033842086791992,-0.8670930862426758,-1.2870831489562988
1791022292348249300,11.633249267578124,0.8783736228942871,-1.0213360786437988,-1.288151741027832
1791022292358249200,11.643249267578126,0.8939371109008789,-1.2359051704406738,-1.298563003540039
1791022292368249300,11.653249267578126,0.768002986907959,-1.4468045234680176,-1.237720012664795
1791022292378249200,11.663249267578125,0.5842633247375488,-1.6949739456176758,-1.22503662109375
1791022292388249300,11.673249267578125,0.3923683166503906,-1.969644546508789,-1.2038006782531738
1791022292398249200,11.683249267578125,0.24294567108154297,-2.217543125152588,-1.1512210369110107
1791022292408249300,11.693249267578125,0.0920419692993164,-2.3339805603027344,-1.0204906463623047
1791022292418249200,11.703249267578125,0.05676078796386719,-2.344719886779785,-0.9587578773498535
1791022292428249300,11.713249267578124,0.1178131103515625,-2.2725296020507812,-1.0387535095214844
1791022292438249200,11.723249267578124,0.13645029067993164,-2.1236867904663086,-1.1749341487884521
1791022292448249300,11.733249267578126,0.0824437141418457,-1.8277921676635742,-1.361283302307129
1791022292458249200,11.743249267578125,0.01962900161743164,-1.5361104011535645,-1.5881884098052979
1791022292468249300,11.753249267578125,-0.09491920471191406,-1.2331843376159668,-1.8006761074066162
1791022292478249200,11.763249267578125,-0.20750188827514648,-0.9322562217712402,-1.9153934717178345
1791022292488249300,11.773249267578125,-0.3966050148010254,-0.7736721038818359,-1.977910041809082
1791022292498249200,11.783249267578125,-0.5644073486328125,-0.7499480247497559,-1.932831048965454
1791022292508249300,11.793249267578124,-0.6046104431152344,-0.8344664573669434,-1.7761597633361816
1791022292518249200,11.803249267578124,-0.718782901763916,-1.0024218559265137,-1.5925612449645996
1791022292528249300,11.813249267578126,-0.8402714729309082,-1.3399944305419922,-1.4770750999450684
1791022292538249200,11.823249267578126,-0.8575997352600098,-1.783823013305664,-1.3564894199371338
1791022292548249300,11.833249267578125,-0.818389892578125,-2.1862430572509766,-1.1466450691223145
1791022292558249200,11.843249267578125,-0.8199491500854492,-2.5397562980651855,-0.7872345447540283
1791022292568249300,11.853249267578125,-0.9045004844665527,-2.784135341644287,-0.5038480758666992
1791022292578249200,11.863249267578125,-1.0258312225341797,-2.7626185417175293,-0.20172595977783203
1791022292588249300,11.873249267578124,-1.1126775741577148,-2.7511234283447266,-0.02530694007873535
1791022292598249200,11.883249267578124,-1.1949076652526855,-2.782400608062744,0.20869016647338867
1791022292608249300,11.893249267578126,-1.307936191558838,-2.7420554161071777,0.5554587841033936
1791022292618249200,11.903249267578126,-1.3963656425476074,-2.5914087295532227,0.9579620361328125
1791022292628249300,11.913249267578125,-1.4911789894104004,-2.2446064949035645,1.2225594520568848
1791022292638249200,11.923249267578125,-1.292048454284668,-1.8425331115722656,1.3096327781677246
1791022292648249300,11.933249267578125,-0.8926725387573242,-1.3444757461547852,1.3715574741363525
1791022292658249200,11.943249267578125,-0.5662331581115723,-0.7384672164916992,1.5418920516967773
1791022292668249300,11.953249267578125,-0.4296722412109375,-0.17134857177734375,1.7343261241912842
1791022292678249200,11.963249267578124,-0.42845916748046875,0.2902994155883789,1.9250857830047607
1791022292688249300,11.973249267578124,-0.4618406295776367,0.6075258255004883,2.019749879837036
1791022292698249200,11.983249267578126,-0.4458274841308594,0.7099857330322266,1.944868564605713
1791022292708249300,11.993249267578125,-0.4501476287841797,0.6633815765380859,1.8367455005645752
1791022292718249200,12.003249267578125,-0.5298166275024414,0.3308992385864258,1.780134677886963
1791022292728249300,12.013249267578125,-0.5936355590820312,-0.29369449615478516,1.7911207675933838
1791022292738249200,12.023249267578125,-0.5258903503417969,-1.132786750793457,1.9426743984222412
1791022292748249300,12.033249267578125,-0.5016236305236816,-2.001776695251465,2.1571922302246094
1791022292758249200,12.043249267578124,-0.47248315811157227,-2.690113067626953,2.248990535736084
1791022292768249300,12.053249267578124,-0.38380908966064453,-3.025167465209961,2.1339221000671387
1791022292778249200,12.063249267578126,-0.365999698638916,-2.7750072479248047,1.8067715167999268
1791022292788249300,12.073249267578126,-0.3164496421813965,-1.9523496627807617,1.4717719554901123
1791022292798249200,12.083249267578125,-0.21506023406982422,-1.0184450149536133,1.1961256265640259
1791022292808249300,12.093249267578125,-0.16768789291381836,-0.3279685974121094,0.9154071807861328
1791022292818249200,12.103249267578125,-0.2271566390991211,0.04568767547607422,0.6913788318634033
1791022292828249300,12.113249267578125,-0.14485406875610352,0.08329582214355469,0.5324561595916748
1791022292838249200,12.123249267578124,0.18253087997436523,-0.15129756927490234,0.5462603569030762
1791022292848249300,12.133249267578124,0.4584665298461914,-0.5325851440429688,0.7839709520339966
1791022292858249200,12.143249267578126,0.5822596549987793,-0.9178495407104492,1.0161467790603638
1791022292868249300,12.153249267578126,0.6979861259460449,-1.2767133712768555,1.1630209684371948
1791022292878249200,12.163249267578125,0.7681155204772949,-1.522007942199707,1.2527461051940918
1791022292888249300,12.173249267578125,0.9072403907775879,-1.6294689178466797,1.2845735549926758
1791022292898249200,12.183249267578125,1.07920503616333,-1.6080150604248047,1.386339545249939
1791022292908249300,12.193249267578125,1.12078857421875,-1.4476113319396973,1.540905237197876
1791022292918249200,12.203249267578125,1.027653694152832,-1.2646446228027344,1.7847723960876465
1791022292928249300,12.213249267578124,0.9261002540588379,-1.1764426231384277,2.0878396034240723
1791022292938249200,12.223249267578124,0.8739447593688965,-1.25172758102417,2.303219795227051
1791022292948249300,12.233249267578126,0.8795967102050781,-1.402627944946289,2.435103178024292
1791022292958249200,12.243249267578125,1.0521941184997559,-1.5385727882385254,2.5088672637939453
1791022292968249300,12.253249267578125,1.221933364868164,-1.6321091651916504,2.4767699241638184
1791022292978249200,12.263249267578125,1.380591869354248,-1.6696133613586426,2.3982701301574707
1791022292988249300,12.273249267578125,1.424168586730957,-1.7176127433776855,2.3611154556274414
1791022292998249200,12.283249267578125,1.3913240432739258,-1.7216238975524902,2.373908042907715
1791022293008249300,12.293249267578124,1.3134117126464844,-1.791551113128662,2.315584182739258
1791022293018249200,12.303249267578124,1.2122993469238281,-1.9601001739501953,2.1592531204223633
1791022293028249300,12.313249267578126,1.222975254058838,-2.1870875358581543,1.9461945295333862
1791022293038249200,12.323249267578126,1.3534579277038574,-2.3870620727539062,1.7731531858444214
1791022293048249300,12.333249267578125,1.3497676849365234,-2.512816905975342,1.6641080379486084
1791022293058249200,12.343249267578125,1.1758294105529785,-2.578660011291504,1.618894100189209
1791022293068249300,12.353249267578125,1.1350269317626953,-2.6451144218444824,1.687901496887207
1791022293078249200,12.363249267578125,1.215285301208496,-2.666398048400879,1.7760086059570312
1791022293088249300,12.373249267578124,1.2929387092590332,-2.5801444053649902,1.7875170707702637
1791022293098249200,12.383249267578124,1.3132071495056152,-2.5145068168640137,1.7283389568328857
1791022293108249300,12.393249267578126,1.4887981414794922,-2.4350509643554688,1.6448476314544678
1791022293118249200,12.403249267578126,1.678640365600586,-2.3560757637023926,1.4683794975280762
1791022293128249300,12.413249267578125,1.6982855796813965,-2.2901668548583984,1.25669264793396
1791022293138249200,12.423249267578125,1.570359706878662,-2.2588438987731934,1.089674949645996
1791022293148249300,12.433249267578125,1.4665236473083496,-2.295351028442383,0.996417760848999
1791022293158249200,12.443249267578125,1.4267964363098145,-2.3230061531066895,0.9729688167572021
1791022293168249300,12.453249267578125,1.3182282447814941,-2.356703281402588,0.9807934761047363
1791022293178249200,12.463249267578124,1.2520790100097656,-2.4515061378479004,0.9804773330688477
1791022293188249300,12.473249267578124,1.1550588607788086,-2.5635485649108887,0.9581468105316162
1791022293198249200,12.483249267578126,0.9569520950317383,-2.6442995071411133,0.970228910446167
1791022293208249300,12.493249267578125,1.2362022399902344,-2.731034278869629,0.8576891422271729
1791022293218249200,12.503249267578125,1.8826332092285156,-2.641145706176758,0.7257375717163086
1791022293228249300,12.513249267578125,2.068713665008545,-2.5465431213378906,0.45102810859680176
1791022293238249200,12.523249267578125,1.6192512512207031,-2.583278179168701,0.15853142738342285
1791022293248249300,12.533249267578125,1.267746925354004,-2.624807834625244,0.25043678283691406
1791022293258249200,12.543249267578124,1.3737874031066895,-2.6372556686401367,0.28448939323425293
1791022293268249300,12.553249267578124,1.5714507102966309,-2.571913242340088,0.20518970489501953
1791022293278249200,12.563249267578126,1.7221593856811523,-2.411015748977661,0.07749795913696289
1791022293288249300,12.573249267578126,2.0200281143188477,-2.3698580265045166,-0.3145170211791992
