time,seconds_elapsed,z,y,x
1791022280786556400,0.071556396484375,8.228917121887207,3.5988051891326904,-0.849452018737793
1791022280803810000,0.08881005859375,8.169096946716309,3.421736478805542,-1.3806586265563965
1791022280821063700,0.106063720703125,8.149953842163086,3.1417760848999023,-2.531606435775757
1791022280838317300,0.1233173828125,9.757930755615234,1.7252250909805298,-2.8498518466949463
1791022280855571000,0.140571044921875,11.210373878479004,0.26081767678260803,-3.046063184738159
1791022280872824600,0.157824462890625,11.255837440490723,-0.4570291340351105,-0.6317051649093628
1791022280890078200,0.175078125,9.982855796813965,1.794616937637329,-0.4331009089946747
1791022280907331800,0.192331787109375,9.365508079528809,2.5459632873535156,1.3304094076156616
1791022280924585500,0.20958544921875,8.458627700805664,2.4765713214874268,1.7491533756256104
1791022280941839000,0.226839111328125,7.5708909034729,2.251646041870117,-0.04785645380616188
1791022280959092500,0.244092529296875,9.30329418182373,2.651247501373291,-2.919243574142456
1791022280976346400,0.261346435546875,12.057433128356934,2.3090739250183105,-4.146761417388916
1791022280993599700,0.278599853515625,11.990434646606445,2.837887763977051,-3.4241292476654053
1791022281010853400,0.295853271484375,10.956734657287598,3.242274761199951,-2.950350284576416
1791022281028107000,0.31310693359375,6.386443614959717,1.8951154947280884,1.4691931009292603
1791022281045360600,0.330360595703125,6.223731517791748,3.7256247997283936,0.23688943684101105
1791022281062614300,0.3476142578125,7.2813591957092285,3.5030922889709473,-0.6867401003837585
1791022281079868000,0.364867919921875,12.52881908416748,3.672982692718506,-3.2039895057678223
1791022281097121500,0.38212158203125,13.550554275512695,2.524427890777588,-2.9288148880004883
1791022281114375200,0.399375244140625,10.762916564941406,1.1174482107162476,-1.801795482635498
1791022281131628800,0.41662890625,9.824930191040039,1.0289137363433838,0.7178468108177185
1791022281148882400,0.43388232421875,9.073583602905273,1.2083754539489746,0.7010970115661621
1791022281166135800,0.4511357421875,8.4562349319458,2.1655044555664062,-1.368694543838501
1791022281183389400,0.468389404296875,8.590232849121094,3.091526746749878,-3.7878382205963135
1791022281200643000,0.48564306640625,8.733802795410156,3.2709884643554688,-3.900300979614258
1791022281217896700,0.502896728515625,8.420342445373535,3.4959139823913574,-2.548356056213379
1791022281235150300,0.520150390625,7.159325122833252,2.7565317153930664,-0.4498506486415863
1791022281252404000,0.537404052734375,7.058826923370361,2.675175666809082,-0.2727817893028259
1791022281269657600,0.55465771484375,7.95134973526001,3.0580272674560547,0.009571290574967861
1791022281286911200,0.5719111328125,7.592426300048828,3.3882367610931396,0.5886343717575073
1791022281304164900,0.589164794921875,7.7455668449401855,3.129812002182007,1.4811571836471558
1791022281321418500,0.60641845703125,8.382058143615723,3.373879909515381,1.9980069398880005
1791022281338671900,0.623671875,8.075776100158691,2.557927370071411,2.541177749633789
1791022281355925500,0.640925537109375,9.872786521911621,2.2444677352905273,3.864408493041992
1791022281373179100,0.65817919921875,8.039883613586426,2.6727828979492188,5.158925533294678
1791022281390432800,0.675432861328125,7.310073375701904,4.60857629776001,5.257031440734863
1791022281407686400,0.692686279296875,6.240481376647949,4.342973232269287,6.072983741760254
1791022281424940000,0.70993994140625,5.079962253570557,4.333401679992676,4.4243292808532715
1791022281442193700,0.727193603515625,5.522634506225586,3.7639100551605225,3.280559778213501
1791022281459447300,0.744447265625,6.594619274139404,2.919243574142456,3.8883368968963623
1791022281476701000,0.761700927734375,7.41535758972168,2.8929226398468018,5.190032482147217
1791022281493954300,0.778954345703125,8.09252643585205,2.328216314315796,6.1328043937683105
1791022281511208000,0.7962080078125,7.429714202880859,2.0889341831207275,5.565705299377441
1791022281528461600,0.813461669921875,5.283352375030518,2.3617160320281982,5.8097734451293945
1791022281545715200,0.830715087890625,4.8813581466674805,1.6175481081008911,7.020541667938232
1791022281562968800,0.84796875,6.331408500671387,0.8638089895248413,6.137589931488037
1791022281580222500,0.865222412109375,6.022734642028809,-0.21774685382843018,6.197410583496094
1791022281597476000,0.88247607421875,5.034498691558838,-3.7782669067382812,12.471391677856445
1791022281614729700,0.899729736328125,4.34536600112915,1.2993026971817017,9.365508079528809
1791022281631983000,0.916983154296875,5.714060306549072,1.8185452222824097,1.3950155973434448
1791022281649237000,0.934237060546875,6.5180487632751465,-0.37088751792907715,0.6340979933738708
1791022281666490400,0.951490478515625,6.8171515464782715,-1.191625714302063,2.730210542678833
1791022281683744000,0.968743896484375,5.883950710296631,-1.8903298377990723,4.773681163787842
1791022281700997600,0.98599755859375,3.5030922889709473,-1.184447169303894,5.532206058502197
1791022281718251300,1.003251220703125,1.1030912399291992,0.14356936514377594,10.456634521484375
1791022281735505000,1.0205048828125,-3.3332018852233887,3.840480327606201,19.640287399291992
1791022281752758500,1.037758544921875,2.0003998279571533,0.031106693670153618,0.05024927482008934
1791022281770012200,1.05501220703125,3.8668015003204346,1.2945170402526855,13.045668601989746
1791022281787265800,1.072265869140625,3.799802303314209,-1.2538390159606934,4.898108005523682
1791022281804519200,1.089519287109375,4.070191383361816,-2.4430718421936035,5.587240695953369
1791022281821772800,1.106772705078125,3.3092737197875977,-4.756931304931641,13.385449409484863
1791022281839026400,1.1240263671875,3.88594388961792,-3.830909013748169,13.885549545288086
1791022281856280000,1.141280029296875,0.7058826684951782,-3.1345977783203125,11.418549537658691
1791022281873533700,1.15853369140625,-1.526620864868164,-3.4791641235351562,11.23190975189209
1791022281890787300,1.175787353515625,-0.007178467698395252,-3.620340585708618,11.191231727600098
1791022281908041000,1.193041015625,1.0887342691421509,-4.692325115203857,12.416357040405273
1791022281925294600,1.210294677734375,3.3714871406555176,-5.039284706115723,13.560126304626465
1791022281942548000,1.2275478515625,2.7110681533813477,-5.5034918785095215,13.521841049194336
1791022281959801600,1.244801513671875,3.1561331748962402,-7.683353424072266,14.782857894897461
1791022281977055200,1.26205517578125,6.496513366699219,-7.8317084312438965,13.320843696594238
1791022281994308900,1.279308837890625,8.72901725769043,-9.243474006652832,12.229716300964355
1791022282011562500,1.2965625,0.6340979933738708,-8.310273170471191,9.439684867858887
1791022282028816100,1.313816162109375,-10.841879844665527,-6.738188743591309,12.212966918945312
1791022282046069800,1.33106982421875,-7.386643409729004,-5.048855781555176,12.409177780151367
1791022282063323400,1.348323486328125,-1.7324036359786987,-5.154139995574951,13.744373321533203
1791022282080576800,1.36557666015625,-1.3423734903335571,-6.027520179748535,11.35633659362793
1791022282097830400,1.382830322265625,2.155933141708374,-7.032505512237549,9.425328254699707
1791022282115084000,1.400083984375,3.321237802505493,-8.003992080688477,7.9250288009643555
1791022282132337700,1.417337646484375,1.3878371715545654,-6.405586242675781,6.338587284088135
1791022282149591300,1.43459130859375,-1.1030912399291992,-4.29033088684082,10.884950637817383
1791022282166844700,1.4518447265625,-1.0001999139785767,-1.5792629718780518,15.783058166503906
1791022282184098300,1.469098388671875,-3.7974095344543457,-0.12442677468061447,15.570096969604492
1791022282201352000,1.48635205078125,-3.9840497970581055,0.6771687865257263,14.481362342834473
1791022282218605600,1.50360546875,-0.9212366938591003,-1.6103696823120117,20.748165130615234
1791022282235859200,1.520859130859375,-1.797009825706482,-4.1419758796691895,6.879364967346191
1791022282253112800,1.53811279296875,-0.7896314859390259,-4.977071285247803,3.957728624343872
1791022282270366500,1.555366455078125,1.978864312171936,-3.625126361846924,11.212766647338867
1791022282287620000,1.5726201171875,-1.679761528968811,-3.658625841140747,17.536996841430664
1791022282304873500,1.58987353515625,6.166304111480713,-7.489534854888916,4.5583271980285645
1791022282322127000,1.607127197265625,11.3180513381958,-10.74138069152832,-1.8376877307891846
1791022282339380700,1.624380615234375,1.4333007335662842,-9.365508079528809,4.977071285247803
1791022282356634400,1.64163427734375,-5.19960355758667,-7.625925540924072,4.902893543243408
1791022282373888000,1.658887939453125,-7.408178806304932,-7.207181930541992,6.781259536743164
1791022282391141600,1.6761416015625,-4.66361141204834,-5.592026710510254,9.829715728759766
1791022282408395300,1.693395263671875,-4.161118507385254,-3.682554006576538,10.600204467773438
1791022282425648600,1.710648681640625,-4.120440483093262,-0.3924229145050049,11.71286678314209
1791022282442902800,1.72790283203125,-3.431307554244995,2.170290231704712,11.988041877746582
1791022282460156000,1.745156005859375,-5.326423168182373,1.6845471858978271,14.352149963378906
1791022282477409500,1.762409423828125,-6.606583118438721,0.9092726111412048,11.631510734558105
1791022282494663200,1.7796630859375,-4.9052863121032715,0.5168496966362,9.351150512695312
1791022282511916500,1.79691650390625,-3.94097900390625,1.1485549211502075,11.33958625793457
1791022282529170400,1.81417041015625,-2.0243279933929443,0.5958128571510315,10.76530933380127
1791022282546423800,1.831423828125,-3.3571300506591797,-1.2897313833236694,6.788437843322754
1791022282563677400,1.848677490234375,-6.005984783172607,-0.5623133182525635,7.8388872146606445
1791022282580931000,1.86593115234375,-5.690132141113281,0.5240281820297241,9.714859962463379
1791022282598184400,1.883184326171875,1.5864413976669312,-1.0863415002822876,4.986642360687256
1791022282615438300,1.900438232421875,4.393222332000732,-2.775674343109131,1.2945170402526855
1791022282632691700,1.917691650390625,-7.3675007820129395,-2.8689942359924316,-2.8354947566986084
1791022282649945300,1.9349453125,-21.052053451538086,3.208775281906128,5.498706340789795
1791022282667199000,1.952198974609375,-8.700303077697754,4.730610370635986,3.0388846397399902
1791022282684452600,1.96945263671875,-5.429314613342285,4.589433670043945,5.924628734588623
1791022282701706200,1.986706298828125,-9.468399047851562,8.10688304901123,10.686346054077148
1791022282718959900,2.0039599609375,-9.68375301361084,8.58066177368164,7.534998416900635
1791022282736213200,2.021213134765625,-9.889535903930664,8.930013656616211,6.9344000816345215
1791022282753467000,2.038466796875,-8.941978454589844,6.553941249847412,4.577469825744629
1791022282770720500,2.055720458984375,-6.032305717468262,2.1655044555664062,1.9166508913040161
1791022282787974100,2.07297412109375,-3.7399818897247314,-0.24167509377002716,-0.5144568681716919
1791022282805227800,2.090227783203125,-4.979464054107666,-1.612762451171875,-0.5048855543136597
1791022282822481400,2.1074814453125,-5.501099109649658,-2.091326951980591,0.8111668825149536
1791022282839735000,2.124735107421875,-5.513063430786133,-1.1868400573730469,0.31345975399017334
1791022282856988400,2.141988525390625,-7.348358154296875,-0.38763725757598877,0.5814558863639832
1791022282874242000,2.159241943359375,-7.003791809082031,1.1892328262329102,-0.19142581522464752
1791022282891495700,2.17649560546875,-8.63330364227295,1.3806586265563965,2.4670002460479736
1791022282908749300,2.193749267578125,-9.449256896972656,0.6675975322723389,4.091726779937744
1791022282926003000,2.2110029296875,-8.185846328735352,1.2179467678070068,2.572284460067749
1791022282943256600,2.228256591796875,-8.640482902526855,1.2969099283218384,0.9451649188995361
1791022282960510200,2.24551025390625,-10.092926025390625,1.069591760635376,0.6891329288482666
1791022282977763800,2.262763916015625,-8.975478172302246,0.30628129839897156,-2.713460922241211
1791022282995017200,2.280017333984375,-6.556334018707275,-2.6057839393615723,1.6103696823120117
1791022283012270800,2.297270751953125,-2.715853691101074,-4.130012035369873,4.706682205200195
1791022283029524500,2.3145244140625,1.2993026971817017,-6.496513366699219,4.2281174659729
1791022283046778000,2.331778076171875,-0.7968099117279053,-7.872386455535889,10.348958015441895
1791022283064031700,2.34903173828125,-5.000999450683594,-5.402993679046631,14.232508659362793
1791022283081285400,2.366285400390625,-6.86261510848999,-1.9932212829589844,15.07717514038086
1791022283098539000,2.3835390625,-6.671189308166504,-0.22971096634864807,17.35514259338379
1791022283115792600,2.400792724609375,-10.03549861907959,1.7395820617675781,19.329221725463867
1791022283133046000,2.4180458984375,-12.16511058807373,1.8640087842941284,15.450455665588379
1791022283150300000,2.4352998046875,-10.566704750061035,0.5934200286865234,12.820743560791016
1791022283167553300,2.45255322265625,-9.604789733886719,-0.6317051649093628,15.239887237548828
1791022283184807000,2.469806884765625,-8.63330364227295,-0.9930213689804077,11.088339805603027
1791022283202060500,2.487060546875,-6.666403770446777,-4.450650215148926,5.13021183013916
1791022283219314200,2.504314208984375,-5.300102233886719,-6.049055576324463,5.13739013671875
1791022283236567800,2.52156787109375,-5.726024627685547,-5.056034088134766,2.306680917739868
1791022283253821400,2.538821533203125,-5.72841739654541,-6.26440954208374,0.19381862878799438
1791022283271075000,2.556074951171875,-2.5698914527893066,-6.826723098754883,-0.040677983313798904
1791022283288328700,2.57332861328125,0.31106695532798767,-7.812565803527832,0.349352091550827
1791022283305582300,2.590582275390625,1.1102696657180786,-9.035298347473145,1.856830358505249
1791022283322835700,2.607835693359375,0.44027936458587646,-9.784252166748047,4.6372904777526855
1791022283340089300,2.62508935546875,0.18424734473228455,-8.925228118896484,9.791430473327637
1791022283357343000,2.642343017578125,-2.840280532836914,-6.850651264190674,15.110674858093262
1791022283374596600,2.6595966796875,-3.6131622791290283,-6.350551128387451,12.52881908416748
1791022283391850500,2.6768505859375,-10.030712127685547,-4.488935470581055,14.397613525390625
1791022283409104000,2.694103759765625,-26.31865692138672,-0.7872386574745178,18.649660110473633
1791022283426357500,2.711357421875,-15.75434398651123,1.643869161605835,11.956934928894043
1791022283443611100,2.728611083984375,-6.448657035827637,1.2969099283218384,8.123632431030273
1791022283460864800,2.74586474609375,-6.577869415283203,-0.9643075466156006,2.6632115840911865
1791022283478118400,2.763118408203125,-3.7878382205963135,-2.857030153274536,-0.23688943684101105
1791022283495372000,2.7803720703125,-2.108076810836792,-3.6777684688568115,-2.620140790939331
1791022283512625700,2.797625732421875,-0.7226324677467346,-2.885744094848633,-2.108076810836792
1791022283529879300,2.81487939453125,1.1413763761520386,-2.8905298709869385,-1.1150553226470947
1791022283547133000,2.8321328125,2.737389087677002,-4.847858905792236,-0.6532405614852905
1791022283564386600,2.849386474609375,-5.381458282470703,-7.70967435836792,-1.734796404838562
1791022283581640000,2.866639892578125,-14.45025634765625,-8.133204460144043,18.061025619506836
1791022283598893600,2.8838935546875,-17.259429931640625,-6.216553211212158,29.257041931152344
1791022283616147200,2.901147216796875,-6.9583282470703125,-3.9361932277679443,12.19382381439209
1791022283633400800,2.91840087890625,-5.221138954162598,-5.582455158233643,5.867201328277588
1791022283650654500,2.935654541015625,-1.210768222808838,-6.788437843322754,2.6703901290893555
1791022283667908000,2.952908203125,-3.2159535884857178,-5.702096462249756,-3.9433717727661133
1791022283685161700,2.97016162109375,-3.6323046684265137,-3.7543387413024902,-4.9986066818237305
1791022283702415400,2.987415283203125,-7.22871732711792,-7.051648139953613,2.4598217010498047
1791022283719669000,3.0046689453125,-5.429314613342285,-4.981856822967529,8.300702095031738
1791022283736922600,3.021922607421875,-1.0265209674835205,-7.592426300048828,1.179661512374878
1791022283754176300,3.03917626953125,-11.140982627868652,-6.051448345184326,11.193624496459961
1791022283771430000,3.056429931640625,-7.008577346801758,-1.6701902151107788,16.855043411254883
1791022283788683500,3.07368359375,-5.654240131378174,1.8137595653533936,12.145967483520508
1791022283805937200,3.090937255859375,-4.587040901184082,0.22013968229293823,8.944371223449707
1791022283823190800,3.108190673828125,-4.3310089111328125,-1.5122638940811157,8.097311973571777
1791022283840444400,3.1254443359375,-1.9812572002410889,-6.625725746154785,4.213760852813721
1791022283857697800,3.14269775390625,-3.3236305713653564,-10.906485557556152,0.45224347710609436
1791022283874951700,3.15995166015625,-5.955735683441162,-12.308679580688477,0.21296121180057526
1791022283892205000,3.177205078125,-5.474778175354004,-11.60279655456543,3.7423746585845947
1791022283909458700,3.194458740234375,-3.8979079723358154,-7.817351341247559,6.405586242675781
1791022283926712300,3.21171240234375,-4.60139799118042,-1.0193424224853516,13.122239112854004
1791022283943966000,3.228966064453125,-4.4243292808532715,1.3567304611206055,15.18006706237793
1791022283961219600,3.246219482421875,-2.864208698272705,-1.9908283948898315,8.204988479614258
1791022283978473200,3.26347314453125,-3.9696927070617676,-4.668396949768066,4.503292083740234
1791022283995726800,3.280726806640625,-4.984249591827393,-6.896114826202393,2.6727828979492188
1791022284012980500,3.29798046875,-3.634697675704956,-9.645467758178711,3.1202406883239746
1791022284030234000,3.315234130859375,-5.058426856994629,-10.894521713256836,6.831508636474609
1791022284047487700,3.33248779296875,-4.632504463195801,-7.690532207489014,5.383851051330566
1791022284064741400,3.349741455078125,-3.548556089401245,-4.878965377807617,6.240481376647949
1791022284081995000,3.3669951171875,-4.835894584655762,-1.397408366203308,3.78544545173645
1791022284099248600,3.38424853515625,-7.106683254241943,3.081955671310425,1.887937068939209
1791022284116502300,3.401502197265625,-5.54177713394165,-4.335794448852539,2.1655044555664062
1791022284133755600,3.418755615234375,-2.4909284114837646,-6.963113784790039,3.4169507026672363
1791022284151009500,3.436009521484375,-0.11006984114646912,-5.587240695953369,5.635097503662109
1791022284168263000,3.453262939453125,-2.3784656524658203,-8.568697929382324,7.178467750549316
1791022284185516500,3.4705166015625,-5.395814895629883,-10.437492370605469,4.115654945373535
1791022284202770400,3.4877705078125,-5.096712112426758,-8.920442581176758,1.7730815410614014
1791022284220023800,3.50502392578125,-4.201796531677246,-9.604789733886719,1.674975872039795
1791022284237277400,3.52227734375,-3.7471601963043213,-9.879964828491211,3.85483717918396
1791022284254531000,3.539531005859375,-1.9932212829589844,-13.117453575134277,6.094519138336182
1791022284271784700,3.55678466796875,-4.460221290588379,-14.452649116516113,6.271588325500488
1791022284289038300,3.574038330078125,-3.9457645416259766,-12.614960670471191,6.199803352355957
1791022284306292000,3.5912919921875,-2.1511476039886475,-9.992427825927734,3.869194269180298
1791022284323545600,3.608545654296875,-5.1565327644348145,-7.977670669555664,4.163511276245117
1791022284340799200,3.62579931640625,-6.620940208435059,-7.156932353973389,5.082355499267578
1791022284358052900,3.643052978515625,-1.6175481081008911,-8.331808090209961,-0.7154539823532104
1791022284375306500,3.660306396484375,-4.515256404876709,-8.755337715148926,0.5982056856155396
1791022284392560000,3.67756005859375,-2.548356056213379,-10.944770812988281,2.792423963546753
1791022284409813800,3.694813720703125,6.065805435180664,-9.640682220458984,4.429114818572998
1791022284427067400,3.7120673828125,-7.903493404388428,-9.20997428894043,5.091926574707031
1791022284444320800,3.72932080078125,-3.7088751792907715,-9.590433120727539,2.885744094848633
1791022284461574400,3.746574462890625,-2.280359983444214,-7.465606689453125,1.9334007501602173
1791022284478828000,3.763828125,-1.7994025945663452,-8.075776100158691,1.404586911201477
1791022284496081700,3.78108154296875,-2.5435705184936523,-11.607583045959473,0.9020941257476807
1791022284513335300,3.798335205078125,-1.8687944412231445,-9.937392234802246,2.163111686706543
1791022284530589000,3.8155888671875,-1.5481562614440918,-6.300302028656006,2.768495798110962
1791022284547842600,3.832842529296875,-2.4119651317596436,-7.130611419677734,0.05503492057323456
1791022284565096200,3.85009619140625,-3.6993038654327393,-9.521040916442871,-0.1866401731967926
1791022284582349800,3.867349853515625,-3.8213376998901367,-11.485548973083496,1.4404792785644531
1791022284599603500,3.884603515625,-2.117648124694824,-8.865407943725586,3.239881753921509
1791022284616857000,3.901857177734375,-1.2729816436767578,-8.35573673248291,1.093519926071167
1791022284634110700,3.91911083984375,-2.155933141708374,-10.956734657287598,-2.991028308868408
1791022284651364400,3.9363642578125,-2.4095723628997803,-11.054841041564941,-6.57547664642334
1791022284668618000,3.953617919921875,-0.5575276613235474,-7.944170951843262,-5.245067119598389
1791022284685871600,3.97087158203125,-2.720639228820801,-9.525827407836914,-2.7493531703948975
1791022284703125200,3.988125244140625,-2.093719720840454,-10.229316711425781,3.2925238609313965
1791022284720378600,4.005378662109375,-2.313859462738037,-10.116853713989258,4.450650215148926
1791022284737632300,4.02263232421875,-2.306680917739868,-9.119047164916992,4.199403762817383
1791022284754886000,4.039885986328125,-2.196611166000366,-7.724031448364258,5.087141036987305
1791022284772139500,4.057139404296875,-3.407379388809204,-8.779266357421875,5.441278457641602
1791022284789393200,4.07439306640625,-4.462614059448242,-9.087940216064453,7.953742504119873
1791022284806646800,4.091646728515625,-3.3643085956573486,-8.614161491394043,6.599404811859131
1791022284823900400,4.108900390625,-3.077169895172119,-8.063812255859375,2.4574289321899414
1791022284841154000,4.126154052734375,-3.081955671310425,-7.439285755157471,2.201396942138672
1791022284858407700,4.14340771484375,-2.122433662414551,-8.944371223449707,0.7704889178276062
1791022284875661300,4.160661376953125,0.21774685382843018,-10.674382209777832,0.8470591902732849
1791022284892915000,4.1779150390625,0.19621145725250244,-14.541183471679688,0.1698904037475586
1791022284910168300,4.195168212890625,-2.8809585571289062,-12.55992603302002,-4.316651821136475
1791022284927422000,4.212421875,-4.843072891235352,-10.401599884033203,-4.163511276245117
1791022284944675800,4.22967578125,-3.845266103744507,-8.054241180419922,-2.589034080505371
1791022284961929200,4.24692919921875,-3.720839262008667,-9.645467758178711,-2.352144718170166
1791022284979182800,4.264182861328125,-2.8905298709869385,-10.87298583984375,-3.2159535884857178
1791022284996436500,4.2814365234375,-1.5026925802230835,-10.971092224121094,-2.699103832244873
1791022285013690000,4.298690185546875,-1.0887342691421509,-9.92542839050293,-0.914058268070221
1791022285030943700,4.31594384765625,-3.091526746749878,-8.628518104553223,-1.2921242713928223
1791022285048197400,4.333197265625,-4.199403762817383,-7.087540626525879,-1.7443677186965942
1791022285065451000,4.350450927734375,-2.1750757694244385,-7.752745151519775,-0.9308080077171326
1791022285082704600,4.36770458984375,-1.0432707071304321,-9.528220176696777,0.6173482537269592
1791022285099958000,4.3849580078125,-0.9619147181510925,-10.29870891571045,1.0863415002822876
1791022285117211600,4.402211669921875,-4.187439441680908,-10.901700019836426,-1.4380863904953003
1791022285134465300,4.41946533203125,-3.404986619949341,-9.755537986755371,-0.5934200286865234
1791022285151719000,4.436718994140625,-1.3591232299804688,-8.772088050842285,0.12203395366668701
1791022285168972500,4.45397265625,0.9020941257476807,-8.066205024719238,0.09810572862625122
1791022285186226200,4.47122607421875,-2.9934210777282715,-8.796015739440918,-1.5409778356552124
1791022285203479800,4.488479736328125,-5.163711071014404,-10.112068176269531,-3.046063184738159
1791022285220733400,4.5057333984375,-2.5842485427856445,-10.238887786865234,-1.0600204467773438
1791022285237987000,4.522987060546875,-0.31345975399017334,-8.37009334564209,0.40677985548973083
1791022285255240700,4.54024072265625,-0.9355936646461487,-7.788637638092041,-2.03629207611084
1791022285272494000,4.557494140625,-2.4095723628997803,-8.087740898132324,-2.871387243270874
1791022285289747700,4.574747802734375,-3.6155550479888916,-7.575676441192627,-1.7395820617675781
1791022285307001300,4.59200146484375,-2.6057839393615723,-8.831908226013184,-0.12203395366668701
1791022285324255000,4.6092548828125,-1.2993026971817017,-10.985448837280273,-3.78544545173645
1791022285341508600,4.626508544921875,-2.0027925968170166,-10.289137840270996,-4.6372904777526855
1791022285358762200,4.64376220703125,-4.742574691772461,-7.441678524017334,-2.9240293502807617
1791022285376016000,4.661015869140625,-3.3954153060913086,-6.364908218383789,-2.2947168350219727
1791022285393269500,4.67826953125,-1.4739787578582764,-7.69531774520874,-3.407379388809204
1791022285410523100,4.695523193359375,-3.6993038654327393,-8.925228118896484,-2.825923442840576
1791022285427776500,4.712776611328125,-2.2396819591522217,-8.827122688293457,-2.376072883605957
1791022285445030100,4.730030029296875,-2.799602508544922,-8.927620887756348,-1.5361921787261963
1791022285462283800,4.74728369140625,-2.3473589420318604,-8.96112060546875,-1.6701902151107788
1791022285479537400,4.764537353515625,-2.6847469806671143,-8.997013092041016,-2.3473589420318604
1791022285496791000,4.781791015625,-2.8809585571289062,-9.879964828491211,-3.589233875274658
1791022285514044700,4.799044677734375,-3.0484559535980225,-10.023533821105957,-1.8305093050003052
1791022285531298300,4.81629833984375,-3.751945972442627,-9.20997428894043,-1.2083754539489746
1791022285548552000,4.833552001953125,-2.203789710998535,-8.248059272766113,-0.97148597240448
1791022285565805600,4.8508056640625,-0.275174617767334,-9.131011009216309,-1.0887342691421509
1791022285583059000,4.868058837890625,-1.8424733877182007,-10.638489723205566,-2.273181438446045
1791022285600312600,4.8853125,-4.548755645751953,-10.564311981201172,-3.510270833969116
1791022285617566200,4.902566162109375,-3.6873397827148438,-10.74855899810791,-1.466800332069397
1791022285634819800,4.91981982421875,-1.2873386144638062,-11.741580963134766,-3.25663161277771
1791022285652073500,4.937073486328125,-3.2063822746276855,-11.741580963134766,-3.232703447341919
1791022285669327000,4.9543271484375,-3.1441688537597656,-9.753145217895508,-1.3040883541107178
1791022285686580700,4.971580810546875,-1.1078768968582153,-8.212167739868164,-1.0145567655563354
1791022285703834400,4.98883447265625,-1.9166508913040161,-9.573683738708496,-2.6727828979492188
1791022285721088000,5.006087890625,-2.706282377243042,-9.860821723937988,-2.093719720840454
1791022285738341400,5.02334130859375,-3.077169895172119,-9.123832702636719,-2.2444677352905273
1791022285755595000,5.040594970703125,-1.7084753513336182,-9.724431037902832,-2.2444677352905273
1791022285772848600,5.0578486328125,-3.469592809677124,-10.176674842834473,-2.242074728012085
1791022285790102300,5.075102294921875,-2.1822543144226074,-10.16710376739502,-2.1607189178466797
1791022285807356000,5.09235595703125,-1.9094724655151367,-9.547362327575684,-1.7539390325546265
1791022285824609500,5.109609619140625,-0.8685946464538574,-9.408578872680664,-2.0578274726867676
1791022285841863200,5.12686328125,-1.5242279767990112,-9.942177772521973,-2.806781053543091
1791022285859116500,5.144116455078125,-2.9718856811523438,-9.896714210510254,-3.067598581314087
1791022285876370400,5.161370361328125,-3.359523057937622,-8.6907320022583,-2.5076780319213867
1791022285893623800,5.178623779296875,-1.6582261323928833,-8.030312538146973,-1.8185452222824097
1791022285910877400,5.19587744140625,-0.607776939868927,-8.061419486999512,-1.404586911201477
1791022285928131000,5.213131103515625,-2.407179594039917,-8.769695281982422,-1.160519003868103
1791022285945384700,5.230384765625,-6.786045074462891,-9.267401695251465,-0.5144568681716919
1791022285962638300,5.247638427734375,0.09092725813388824,-10.037891387939453,-2.6967110633850098
1791022285979892000,5.26489208984375,-2.9072794914245605,-9.827322959899902,-1.5672988891601562
1791022285997145300,5.282145263671875,-4.527220249176025,-8.236095428466797,-2.014756679534912
1791022286014399000,5.29939892578125,-1.3351950645446777,-8.827122688293457,-2.4813570976257324
1791022286031652600,5.316652587890625,0.35892340540885925,-8.382058143615723,-1.7491533756256104
1791022286048906200,5.33390625,-2.1367905139923096,-8.516056060791016,-1.1940184831619263
1791022286066159900,5.351159912109375,-3.8213376998901367,-10.669595718383789,-1.97407865524292
1791022286083413500,5.36841357421875,-2.251646041870117,-9.540184020996094,-1.0049854516983032
1791022286100667100,5.385667236328125,1.1629117727279663,-9.56889820098877,0.10049854964017868
1791022286117920500,5.40292041015625,-3.2997024059295654,-13.098311424255371,-5.965306758880615
1791022286135174100,5.420174072265625,-1.8424733877182007,-10.382457733154297,-1.6414763927459717
1791022286152427800,5.437427734375,-2.9527430534362793,-9.382257461547852,-1.4189438819885254
1791022286169681400,5.454681396484375,-0.27038896083831787,-9.671789169311523,-0.5479564070701599
1791022286186935000,5.47193505859375,0.5551348328590393,-8.298309326171875,-0.07896314561367035
1791022286204188700,5.489188720703125,-2.273181438446045,-8.992227554321289,-1.1940184831619263
1791022286221442300,5.5064423828125,-1.911865234375,-9.791430473327637,-2.4263222217559814
1791022286238695700,5.52369580078125,-0.20338992774486542,-9.643074989318848,-1.8424733877182007
1791022286255949300,5.54094921875,0.08614161610603333,-9.032905578613281,-0.8685946464538574
1791022286273203000,5.558202880859375,-1.734796404838562,-9.10229778289795,-1.430907964706421
1791022286290456600,5.57545654296875,-2.4263222217559814,-8.350951194763184,-1.5864413976669312
1791022286307710200,5.592710205078125,-1.153340458869934,-8.451449394226074,-1.730010747909546
1791022286324963600,5.609963623046875,0.1339980661869049,-10.370492935180664,-1.9094724655151367
1791022286342217200,5.62721728515625,-0.35413774847984314,-13.596017837524414,-3.6299118995666504
1791022286359470800,5.644470947265625,-2.1678972244262695,-9.463613510131836,-2.170290231704712
1791022286376724500,5.661724365234375,-1.9764715433120728,-7.135396957397461,-1.9046868085861206
1791022286393978000,5.67897802734375,-0.973878800868988,-7.018148899078369,-1.9142581224441528
1791022286411231500,5.6962314453125,-0.9834501147270203,-8.97787094116211,-1.8376877307891846
1791022286428485000,5.713485107421875,-1.4093725681304932,-11.35633659362793,-2.117648124694824
1791022286445738800,5.73073876953125,-1.7635103464126587,-10.628918647766113,-1.6773686408996582
1791022286462992400,5.747992431640625,-2.8450660705566406,-8.992227554321289,-1.5290136337280273
1791022286480245800,5.765245849609375,-2.093719720840454,-8.824729919433594,-1.2418749332427979
1791022286497499400,5.78249951171875,-1.191625714302063,-8.798408508300781,0.7513462901115417
1791022286514753000,5.7997529296875,-1.9956140518188477,-10.468599319458008,-3.105883836746216
1791022286532006700,5.817006591796875,-1.3567304611206055,-15.02453327178955,-4.828716278076172
1791022286549260300,5.83426025390625,-5.481956481933594,-10.423135757446289,-3.5270206928253174
1791022286566513700,5.851513671875,-1.2849457263946533,-8.805587768554688,-2.210968017578125
1791022286583767300,5.868767333984375,0.02392822690308094,-8.461020469665527,-1.160519003868103
1791022286601021000,5.88602099609375,0.9284151792526245,-8.86780071258545,0.5024927258491516
1791022286618274600,5.903274658203125,-1.28255295753479,-9.4660062789917,2.084148406982422
1791022286635528200,5.920528076171875,-3.665804386138916,-8.597412109375,-1.0145567655563354
1791022286652781800,5.93778173828125,-3.5198421478271484,-7.95134973526001,-3.665804386138916
1791022286670035200,5.95503515625,-1.0217353105545044,-8.95394229888916,-3.108276605606079
1791022286687288800,5.972288818359375,-1.3878371715545654,-10.449456214904785,-1.490728497505188
1791022286704542500,5.98954248046875,-3.2781670093536377,-10.899307250976562,-0.4163511395454407
1791022286721796000,6.006796142578125,-1.5936198234558105,-9.32004451751709,-0.8374879360198975
1791022286739049700,6.0240498046875,-0.7680960893630981,-8.128418922424316,-0.9020941257476807
1791022286756303400,6.041303466796875,-1.5744773149490356,-8.714659690856934,-0.9451649188995361
1791022286773557000,6.058556884765625,-1.8305093050003052,-10.987841606140137,-1.9860427379608154
1791022286790810400,6.075810302734375,-3.184846878051758,-12.399606704711914,-2.761317253112793
1791022286808064000,6.09306396484375,-4.295116424560547,-10.973484992980957,-1.6223337650299072
1791022286825317600,6.110317626953125,-2.4047868251800537,-8.719446182250977,-0.45942193269729614
1791022286842571300,6.1275712890625,-0.23449662327766418,-7.678567886352539,-0.24885354936122894
1791022286859825000,6.144824951171875,-1.7611174583435059,-8.154739379882812,-0.1459621787071228
1791022286877078500,6.16207861328125,-3.1561331748962402,-9.138189315795898,0.20099709928035736
1791022286894332000,6.179331787109375,-2.258824586868286,-9.757930755615234,0.062213387340307236
1791022286911585500,6.19658544921875,-0.9619147181510925,-10.229316711425781,-0.7226324677467346
1791022286928839200,6.213839111328125,-1.0289137363433838,-10.707880973815918,-1.2442678213119507
1791022286946092800,6.2310927734375,-1.911865234375,-11.062019348144531,-2.1990039348602295
1791022286963346400,6.248346435546875,-3.5365917682647705,-10.573883056640625,-2.486142635345459
1791022286980599800,6.265599853515625,-3.594019651412964,-9.013762474060059,-1.4763715267181396
1791022286997853400,6.282853515625,-2.60339093208313,-7.968099594116211,-0.3517449200153351
1791022287015107000,6.300107177734375,-2.3712873458862305,-7.795815944671631,0.5407779216766357
1791022287032360700,6.317360595703125,-3.85483717918396,-8.528019905090332,0.7489534616470337
1791022287049614300,6.3346142578125,-4.8502516746521,-10.147960662841797,0.5862415432929993
1791022287066867700,6.35186767578125,-5.144568920135498,-11.60519027709961,0.10767702013254166
1791022287084121300,6.369121337890625,-5.201996326446533,-11.82293701171875,0.12921242415905
1791022287101375000,6.386375,-3.4002010822296143,-10.703095436096191,0.5647061467170715
1791022287118628600,6.403628662109375,-1.5696916580200195,-9.408578872680664,-0.1746760457754135
1791022287135882200,6.42088232421875,-1.0767701864242554,-8.60459041595459,-1.770688772201538
1791022287153135900,6.438135986328125,-1.184447169303894,-8.726624488830566,-2.2995026111602783
1791022287170389200,6.45538916015625,-1.6342978477478027,-9.284152030944824,-1.1509476900100708
1791022287187643000,6.472642822265625,-3.022135019302368,-9.590433120727539,-0.607776939868927
1791022287204896500,6.489896484375,-3.783052682876587,-9.748359680175781,-0.6508477330207825
1791022287222150100,6.507150146484375,-5.000999450683594,-9.975677490234375,-1.6630117893218994
1791022287239403800,6.52440380859375,-5.271388053894043,-10.246066093444824,-0.9379864931106567
1791022287256657400,6.541657470703125,-4.615755081176758,-9.643074989318848,0.4546363055706024
1791022287273910800,6.558910888671875,-5.31685209274292,-8.606983184814453,0.9810572862625122
1791022287291164400,6.576164306640625,-5.637490272521973,-8.015955924987793,1.734796404838562
1791022287308418000,6.59341796875,-7.511070251464844,-8.188239097595215,1.797009825706482
1791022287325671700,6.610671630859375,-6.4319071769714355,-8.834300994873047,1.5002998113632202
1791022287342925300,6.62792529296875,-2.888136863708496,-9.05444049835205,1.5074782371520996
1791022287360178700,6.6451787109375,-3.8883368968963623,-8.910871505737305,1.3782658576965332
1791022287377432300,6.662432373046875,-5.623133182525635,-8.233702659606934,1.28255295753479
1791022287394686000,6.67968603515625,-4.8502516746521,-7.429714202880859,0.8374879360198975
1791022287411939600,6.696939697265625,-5.4628143310546875,-6.482156753540039,0.28953152894973755
1791022287429193200,6.714193115234375,-5.0703911781311035,-6.180660724639893,0.6652047038078308
1791022287446446600,6.731446533203125,-4.60139799118042,-6.965506553649902,2.014756679534912
1791022287463700200,6.7487001953125,-5.254638671875,-7.82692289352417,2.801995277404785
1791022287480953900,6.765953857421875,-6.723831653594971,-8.563912391662598,2.837887763977051
1791022287498207500,6.78320751953125,-7.45364236831665,-9.037691116333008,2.682354211807251
1791022287515461000,6.800461181640625,-7.286144733428955,-9.052047729492188,2.7876384258270264
1791022287532714500,6.817714599609375,-6.745367050170898,-8.583054542541504,2.550748825073242
1791022287549968100,6.834968017578125,-6.44387149810791,-7.865208148956299,1.9621145725250244
1791022287567221800,6.8522216796875,-6.235695838928223,-6.881757736206055,1.526620864868164
1791022287584475400,6.869475341796875,-5.515456199645996,-5.948556900024414,1.4404792785644531
1791022287601729000,6.88672900390625,-5.821737289428711,-5.491528034210205,1.7874385118484497
1791022287618982400,6.903982421875,-5.0464630126953125,-5.2043890953063965,2.076970100402832
1791022287636236000,6.921236083984375,-4.479363918304443,-5.053641319274902,2.3306093215942383
1791022287653489700,6.93848974609375,-4.603790760040283,-5.079962253570557,2.416750907897949
1791022287670743300,6.955743408203125,-5.685346603393555,-5.594419479370117,2.3306093215942383
1791022287687997000,6.972996826171875,-5.441278457641602,-6.192625045776367,2.4023938179016113
1791022287705250300,6.990250244140625,-4.4961137771606445,-6.187839508056641,2.242074728012085
1791022287722504000,7.00750390625,-5.350351333618164,-5.910272121429443,1.5242279767990112
1791022287739757600,7.024757568359375,-5.8337016105651855,-6.0370917320251465,0.8566305041313171
1791022287757011200,7.04201123046875,-6.156732559204102,-6.159125328063965,0.5790630578994751
1791022287774264800,7.059264892578125,-6.556334018707275,-6.094519138336182,0.5335994362831116
1791022287791518200,7.076518310546875,-6.599404811859131,-5.982056617736816,0.6699903607368469
1791022287808771800,7.093771728515625,-3.7399818897247314,-6.63769006729126,-0.5670989751815796
1791022287826025500,7.111025390625,-8.894122123718262,-6.9822564125061035,0.2679961323738098
1791022287843279000,7.128279052734375,-7.534998416900635,-6.50608491897583,1.0552347898483276
1791022287860532500,7.145532470703125,-5.917450428009033,-7.032505512237549,0.33738797903060913
1791022287877786400,7.162786376953125,-5.907878875732422,-6.089733600616455,2.562713146209717
1791022287895039700,7.180039794921875,-7.152146816253662,-7.082755088806152,1.155733346939087
1791022287912293400,7.19729345703125,-6.472585201263428,-6.97268533706665,1.1365907192230225
1791022287929547000,7.214547119140625,-6.905686378479004,-6.692724704742432,1.3399807214736938
1791022287946800600,7.231800537109375,-7.743174076080322,-7.685746192932129,2.5603201389312744
1791022287964054300,7.24905419921875,-7.558926582336426,-8.714659690856934,3.8117663860321045
1791022287981307600,7.2663076171875,-6.463014125823975,-7.88913631439209,4.405186653137207
1791022287998561300,7.283561279296875,-6.317051887512207,-6.977470874786377,2.909672260284424
1791022288015815000,7.30081494140625,-6.865008354187012,-6.709474563598633,1.9142581224441528
1791022288033068500,7.318068603515625,-6.963113784790039,-6.106483459472656,2.778067111968994
1791022288050322000,7.335322021484375,-6.821937561035156,-6.498906135559082,1.667797327041626
1791022288067575600,7.352575439453125,-6.898507595062256,-8.903693199157715,-0.3158525824546814
1791022288084829200,7.3698291015625,-6.759724140167236,-9.238688468933105,0.5886343717575073
1791022288102082800,7.387082763671875,-7.503891944885254,-8.212167739868164,1.6941183805465698
1791022288119336400,7.40433642578125,-7.113861560821533,-8.23848819732666,2.0410776138305664
1791022288136589800,7.42158984375,-8.678768157958984,-8.678768157958984,2.816352367401123
1791022288153843500,7.438843505859375,-8.3629150390625,-8.61894702911377,2.730210542678833
1791022288171097000,7.45609716796875,-8.4562349319458,-8.11406135559082,2.0578274726867676
1791022288188350700,7.473350830078125,-8.819944381713867,-7.475177764892578,2.3952155113220215
1791022288205604400,7.490604248046875,-9.07119083404541,-7.903493404388428,1.6271194219589233
1791022288222857700,7.507857666015625,-8.930013656616211,-7.786244869232178,1.97407865524292
1791022288240111400,7.525111328125,-12.002398490905762,-2.761317253112793,-0.24885354936122894
1791022288257365000,7.542364990234375,-7.389036178588867,-5.766702651977539,6.735795974731445
1791022288274618600,7.55961865234375,-11.72004508972168,-9.547362327575684,3.6227335929870605
1791022288291872000,7.5768720703125,-8.508877754211426,-11.748759269714355,2.548356056213379
1791022288309125600,7.594125732421875,-10.3681001663208,-11.24626636505127,4.4243292808532715
1791022288326379300,7.611379150390625,-9.075976371765137,-10.037891387939453,3.067598581314087
1791022288343633000,7.6286328125,-7.798209190368652,-9.095118522644043,-1.7252250909805298
1791022288360886300,7.64588623046875,-8.26241683959961,-9.183652877807617,-4.192225456237793
1791022288378140000,7.663139892578125,-6.97986364364624,-9.265008926391602,-4.130012035369873
1791022288395393500,7.6803935546875,-2.0267207622528076,-7.1473612785339355,1.4787644147872925
1791022288412647200,7.697647216796875,-3.964907169342041,-0.7106683254241943,0.9116654396057129
1791022288429900800,7.71490087890625,-4.792823791503906,3.2350962162017822,-0.2991028428077698
1791022288447154200,7.732154296875,-4.252045631408691,5.099104881286621,0.24885354936122894
1791022288464407800,7.74940771484375,-5.771488189697266,3.8572301864624023,2.1296122074127197
1791022288481661400,7.766661376953125,-5.759523868560791,-0.1818545162677765,1.3471591472625732
1791022288498915000,7.7839150390625,-6.26440954208374,-3.572484254837036,1.4644074440002441
1791022288516168400,7.80116845703125,-7.171289443969727,-3.696911096572876,1.1222338676452637
1791022288533422000,7.818422119140625,-7.70249605178833,-1.6366907358169556,1.2490534782409668
1791022288550675700,7.83567578125,-8.628518104553223,-0.8901300430297852,1.8831514120101929
1791022288567929300,7.852929443359375,-8.102097511291504,-1.6654045581817627,1.3782658576965332
1791022288585182700,7.8701826171875,-6.357729911804199,-2.5698914527893066,1.3710874319076538
1791022288602436400,7.887436279296875,-5.867201328277588,-2.5387847423553467,0.1459621787071228
1791022288619690000,7.90468994140625,-6.723831653594971,-1.7802600860595703,0.5718846321105957
1791022288636943600,7.921943603515625,-7.044469833374023,-0.8470591902732849,0.8446664214134216
1791022288654197200,7.939197265625,-6.829115867614746,0.5431707501411438,2.251646041870117
1791022288671450600,7.95645068359375,-5.903093338012695,2.273181438446045,3.4815568923950195
1791022288688704300,7.973704345703125,-4.252045631408691,2.50289249420166,3.8333017826080322
1791022288705958000,7.9909580078125,-6.343372821807861,-0.275174617767334,-0.3038884699344635
1791022288723211500,8.00821142578125,-7.929814338684082,-2.723032236099243,-0.42352959513664246
1791022288740465000,8.02546484375,-7.456035137176514,-4.9363932609558105,-2.124826431274414
1791022288757718500,8.042718505859375,-6.355337142944336,-6.240481376647949,-2.3880369663238525
1791022288774972200,8.05997216796875,-4.567898273468018,-5.955735683441162,-1.3280165195465088
1791022288792225800,8.077225830078126,-6.305087566375732,-6.3361945152282715,-0.4378865361213684
1791022288809479200,8.094479248046875,-6.955935478210449,-7.606783390045166,-0.4570291340351105
1791022288826732800,8.11173291015625,-7.843672752380371,-9.533005714416504,-1.3615161180496216
1791022288843986400,8.128986328125,-8.417949676513672,-11.164910316467285,-2.4837498664855957
1791022288861240000,8.146239990234376,-5.61116886138916,-10.482955932617188,-0.4331009089946747
1791022288878493400,8.163493408203125,-6.156732559204102,-11.789437294006348,1.9142581224441528
1791022288895747000,8.1807470703125,-6.802794933319092,-12.06939697265625,0.5958128571510315
1791022288913000400,8.19800048828125,-6.608976364135742,-11.80618667602539,-1.7012969255447388
1791022288930254000,8.215254150390624,-6.4701924324035645,-11.925827980041504,-0.27038896083831787
1791022288947507700,8.2325078125,-6.5180487632751465,-9.899106979370117,4.139583110809326
1791022288964761300,8.24976123046875,-5.962913990020752,-11.96889877319336,-1.0217353105545044
1791022288982014700,8.2670146484375,-6.391229152679443,-17.29532241821289,-5.223531723022461
1791022288999268400,8.284268310546874,-4.223331928253174,-10.774880409240723,1.0767701864242554
1791022289016521700,8.301521728515626,-6.070590972900391,-10.248459815979004,0.05503492057323456
1791022289033775400,8.318775390625,-4.792823791503906,-8.58784008026123,1.0408778190612793
1791022289051029000,8.336029052734375,-4.718646049499512,-9.231510162353516,0.08374879509210587
1791022289068282400,8.353282470703125,-3.122633457183838,-7.88913631439209,1.5553346872329712
1791022289085536000,8.370535888671874,-4.374079704284668,-7.269395351409912,1.3782658576965332
1791022289102789400,8.387789306640625,-3.9696927070617676,-10.030712127685547,-1.2610175609588623
1791022289120043000,8.40504296875,-3.902693748474121,-12.744173049926758,-3.160918712615967
1791022289137296600,8.422296630859375,-4.9363932609558105,-9.183652877807617,-1.3471591472625732
1791022289154550000,8.439550048828124,-6.369693756103516,-12.009576797485352,-1.4452649354934692
1791022289171803600,8.4568037109375,-9.023334503173828,-14.20140266418457,-0.02392822690308094
1791022289189057300,8.474057373046875,-6.087340831756592,-17.419748306274414,-4.934000492095947
1791022289206310700,8.491310546875,-9.20279598236084,-13.794622421264648,-4.948357105255127
1791022289223564300,8.508564208984374,-6.465406894683838,-8.011170387268066,0.19142581522464752
1791022289240818000,8.52581787109375,-3.38105845451355,-4.383651256561279,4.187439441680908
1791022289258071600,8.543071533203126,-3.9840497970581055,-7.645068168640137,6.209374904632568
1791022289275325000,8.560324951171875,-5.7547383308410645,-10.750951766967773,1.0480563640594482
1791022289292578600,8.57757861328125,-5.103890895843506,-11.284551620483398,-1.8664016723632812
1791022289309832200,8.594832275390624,-5.9916276931762695,-11.277373313903809,-0.7680960893630981
1791022289327085800,8.6120859375,-8.927620887756348,-10.487741470336914,-0.004785645287483931
1791022289344339200,8.629339111328125,-7.479963779449463,-8.3629150390625,1.0360921621322632
1791022289361592800,8.6465927734375,-6.563512325286865,-7.377072334289551,1.2921242713928223
1791022289378846500,8.663846435546875,-7.5637125968933105,-6.709474563598633,3.9314076900482178
1791022289396100000,8.68110009765625,-7.554141044616699,-7.025327205657959,5.446064472198486
1791022289413353500,8.698353515625,-7.211967468261719,-7.795815944671631,4.043870449066162
1791022289430607000,8.715607177734375,-7.975277900695801,-8.228917121887207,3.689732551574707
1791022289447860700,8.73286083984375,-8.066205024719238,-8.410771369934082,3.895515203475952
1791022289465114400,8.7501142578125,-7.302894592285156,-8.226524353027344,3.3714871406555176
1791022289482367700,8.76736767578125,-6.967899322509766,-7.822137355804443,2.366501569747925
1791022289499621400,8.784621337890625,-6.561119556427002,-7.350750923156738,1.7491533756256104
1791022289516875000,8.801875,-7.286144733428955,-6.802794933319092,1.9142581224441528
1791022289534128600,8.819128662109375,-6.424728870391846,-6.537191390991211,1.3615161180496216
1791022289551382000,8.836382080078126,-6.7070817947387695,-6.03948450088501,1.1940184831619263
1791022289568635600,8.8536357421875,-6.510870456695557,-4.931607246398926,1.0815558433532715
1791022289585889300,8.87088916015625,-5.285745143890381,-3.290131092071533,0.8973084688186646
1791022289603143000,8.888142822265625,-4.587040901184082,-1.6319050788879395,0.8039883971214294
1791022289620396300,8.905396240234374,-4.565505504608154,-0.8350951075553894,1.1581261157989502
1791022289637650000,8.92264990234375,-4.280759811401367,-0.6029912829399109,0.5000999569892883
1791022289654903600,8.939903564453125,-4.60139799118042,-0.5670989751815796,0.5216353535652161
1791022289672157200,8.9571572265625,-5.807380676269531,-0.27756741642951965,0.9475577473640442
1791022289689410600,8.97441064453125,-5.544169902801514,-0.7489534616470337,1.5314065217971802
1791022289706664200,8.991664306640626,-5.367101192474365,-1.3304094076156616,2.170290231704712
1791022289723917800,9.008917724609375,-6.321837425231934,-1.2179467678070068,1.9980069398880005
1791022289741171200,9.026171142578125,-6.999006271362305,-1.0001999139785767,2.455035924911499
1791022289758424800,9.0434248046875,-6.912864685058594,-0.8231309652328491,2.6153552532196045
1791022289775678500,9.060678466796874,-6.8865437507629395,-0.8901300430297852,2.352144718170166
1791022289792932000,9.07793212890625,-7.274180889129639,-1.3878371715545654,2.4646072387695312
1791022289810185500,9.095185546875,-7.331608772277832,-2.1750757694244385,2.7972097396850586
1791022289827439000,9.112439208984375,-6.893722057342529,-3.0101709365844727,2.864208698272705
1791022289844692700,9.129692626953124,-6.307480335235596,-3.735196113586426,2.895315408706665
1791022289861946400,9.1469462890625,-5.888736724853516,-4.225724697113037,2.799602508544922
1791022289879199700,9.16419970703125,-5.66620397567749,-4.479363918304443,2.754138946533203
1791022289896453400,9.181453369140625,-5.9198431968688965,-4.651647090911865,2.6273193359375
1791022289913707000,9.19870703125,-6.364908218383789,-4.972285270690918,2.5387847423553467
1791022289930960400,9.21596044921875,-6.288337707519531,-5.333601474761963,2.531606435775757
1791022289948214000,9.233214111328126,-6.501298904418945,-5.697310924530029,2.6464617252349854
1791022289965467600,9.250467529296875,-6.618547439575195,-6.178267955780029,2.744567632675171
1791022289982721300,9.26772119140625,-6.738188743591309,-7.0301127433776855,2.785245656967163
1791022289999974700,9.284974609375,-7.319644451141357,-8.149953842163086,2.682354211807251
1791022290017228300,9.302228271484376,-7.774280548095703,-9.432506561279297,2.282752752304077
1791022290034481700,9.319481689453125,-7.223931789398193,-11.035697937011719,1.7371892929077148
1791022290051735600,9.336735595703125,-7.140182971954346,-12.473784446716309,1.0767701864242554
1791022290068989000,9.353989013671875,-7.561319351196289,-13.1365966796875,0.6221339106559753
1791022290086242600,9.37124267578125,-7.5637125968933105,-12.753745079040527,1.1174482107162476
1791022290103496200,9.38849609375,-7.04207706451416,-11.49512004852295,2.4765713214874268
1791022290120749600,9.40574951171875,-7.128218650817871,-10.12881851196289,2.816352367401123
1791022290138003200,9.423003173828125,-6.766902446746826,-9.298508644104004,2.7397818565368652
1791022290155256800,9.4402568359375,-6.573083877563477,-8.7505521774292,2.4741785526275635
1791022290172510200,9.45751025390625,-6.300302028656006,-8.173882484436035,2.3545374870300293
1791022290189763800,9.474763916015625,-5.826523303985596,-7.594819068908691,2.0554347038269043
1791022290207017500,9.492017578125,-5.606383323669434,-7.345965385437012,1.9286150932312012
1791022290224270800,9.509270751953125,-5.357530117034912,-7.645068168640137,2.3162522315979004
1791022290241524500,9.5265244140625,-5.491528034210205,-8.228917121887207,2.816352367401123
1791022290258778000,9.543778076171876,-6.034698486328125,-9.150154113769531,3.5270206928253174
1791022290276031700,9.56103173828125,-6.314659118652344,-10.102497100830078,3.565305709838867
1791022290293285000,9.57828515625,-7.061219692230225,-10.736595153808594,3.129812002182007
1791022290310538800,9.595538818359374,-7.269395351409912,-11.088339805603027,2.337787628173828
1791022290327792400,9.61279248046875,-7.09711217880249,-11.306086540222168,1.6869399547576904
1791022290345045800,9.630045654296875,-6.640082836151123,-11.033305168151855,1.428515076637268
1791022290362299400,9.64729931640625,-5.934200286865234,-10.193424224853516,1.2562319040298462
1791022290379553000,9.664552978515625,-5.084748268127441,-9.281759262084961,1.423729419708252
1791022290396806700,9.681806640625,-4.661218643188477,-8.700303077697754,1.6845471858978271
1791022290414060000,9.69906005859375,-4.500899314880371,-8.391629219055176,1.9214365482330322
1791022290431313700,9.716313720703125,-4.960321426391602,-8.327022552490234,2.3306093215942383
1791022290448567300,9.7335673828125,-5.278566837310791,-8.544769287109375,2.589034080505371
1791022290465820700,9.750820556640624,-5.804987907409668,-8.846264839172363,2.589034080505371
1791022290483074300,9.76807421875,-6.259624004364014,-9.370293617248535,2.7661030292510986
1791022290500328000,9.785327880859375,-5.960521221160889,-9.949356079101562,2.912065267562866
1791022290517581600,9.80258154296875,-6.400800704956055,-9.90149974822998,2.691925525665283
1791022290534835000,9.8198349609375,-7.3746795654296875,-9.41336441040039,2.775674343109131
1791022290552088600,9.837088623046874,-7.195217609405518,-8.980263710021973,2.775674343109131
1791022290569342200,9.85434228515625,-6.719046115875244,-8.190631866455078,2.4717857837677
1791022290586595800,9.871595947265625,-7.295716285705566,-7.534998416900635,2.4765713214874268
1791022290603849200,9.88884912109375,-7.88913631439209,-7.4464640617370605,2.7804598808288574
1791022290621102800,9.906102783203124,-7.69531774520874,-7.621140003204346,2.359323024749756
1791022290638356500,9.9233564453125,-6.984649181365967,-7.700103282928467,1.6773686408996582
1791022290655609900,9.94060986328125,-7.6498541831970215,-7.929814338684082,2.076970100402832
1791022290672863500,9.957863525390625,-6.953542709350586,-8.34138011932373,2.038684844970703
1791022290690117000,9.9751171875,-6.355337142944336,-7.800601959228516,1.789831280708313
1791022290707370500,9.99237060546875,-6.453442573547363,-6.2668023109436035,2.021935224533081
1791022290724624100,10.0096240234375,-5.883950710296631,-4.814359188079834,2.0889341831207275
1791022290741877800,10.026877685546875,-5.800201892852783,-3.0963125228881836,2.5698914527893066
1791022290759131400,10.04413134765625,-5.781059741973877,-1.703689694404602,2.7086751461029053
1791022290776384800,10.061384765625,-6.302694797515869,-1.3591232299804688,2.7349963188171387
1791022290793638400,10.078638427734376,-5.615954875946045,-1.6319050788879395,2.2157537937164307
1791022290810891800,10.095891845703125,-5.01296329498291,-1.3615161180496216,1.3304094076156616
1791022290828145400,10.1131455078125,-5.161318302154541,-1.4691931009292603,0.576670229434967
1791022290845399000,10.13039892578125,-5.410171985626221,-1.4141582250595093,1.4763715267181396
1791022290862652400,10.14765234375,-5.350351333618164,-0.6221339106559753,1.5337992906570435
1791022290879906000,10.164906005859375,-5.886343479156494,0.20338992774486542,1.7994025945663452
1791022290897159700,10.18215966796875,-5.910272121429443,0.031106693670153618,2.234896421432495
1791022290914413300,10.199413330078125,-6.362515449523926,-0.14356936514377594,2.2947168350219727
1791022290931666700,10.216666748046874,-6.6352972984313965,-0.45942193269729614,2.249253273010254
1791022290948920300,10.23392041015625,-7.077969551086426,-0.9427721500396729,2.416750907897949
1791022290966174000,10.251174072265625,-6.994220733642578,-1.5960127115249634,2.3330020904541016
1791022290983427300,10.26842724609375,-6.754938125610352,-2.234896421432495,2.273181438446045
1791022291000681000,10.285680908203124,-6.247660160064697,-2.612962245941162,2.060220241546631
1791022291017934600,10.3029345703125,-5.795416355133057,-2.675175666809082,2.0889341831207275
1791022291035188000,10.32018798828125,-5.575276851654053,-2.187039852142334,2.3545374870300293
1791022291052441600,10.337441650390625,-6.094519138336182,-1.8807586431503296,2.801995277404785
1791022291069695200,10.3546953125,-6.685546398162842,-2.1511476039886475,3.266202926635742
1791022291086948600,10.371948486328124,-6.843472957611084,-3.098705291748047,3.5054850578308105
1791022291104202200,10.3892021484375,-6.309873104095459,-4.613361835479736,3.397808074951172
1791022291121455900,10.406455810546875,-6.118447303771973,-6.065805435180664,3.0101709365844727
1791022291138709500,10.42370947265625,-6.374479293823242,-7.5326056480407715,2.4741785526275635
1791022291155963000,10.440962890625,-7.058826923370361,-8.922835350036621,2.2229323387145996
1791022291173216500,10.458216552734376,-7.45364236831665,-10.006784439086914,2.218146562576294
1791022291190470100,10.47547021484375,-7.2095746994018555,-10.327422142028809,2.6081767082214355
1791022291207723500,10.4927236328125,-6.778866767883301,-10.076175689697266,3.0101709365844727
1791022291224977200,10.50997705078125,-6.977470874786377,-9.640682220458984,3.1034910678863525
1791022291242230500,10.52723046875,-7.018148899078369,-9.363115310668945,3.0412776470184326
1791022291259484200,10.544484130859376,-6.905686378479004,-9.353543281555176,3.1728827953338623
1791022291276737800,10.56173779296875,-6.829115867614746,-9.698110580444336,3.108276605606079
1791022291293991200,10.5789912109375,-6.776473522186279,-10.296316146850586,2.8354947566986084
1791022291311244800,10.596244873046874,-6.955935478210449,-10.923234939575195,2.3976082801818848
1791022291328498400,10.61349853515625,-7.511070251464844,-11.179266929626465,2.289931297302246
1791022291345752000,10.630751953125,-7.747959613800049,-11.181660652160645,2.249253273010254
1791022291363005400,10.64800537109375,-7.688138961791992,-11.040483474731445,2.313859462738037
1791022291380259000,10.665259033203125,-7.231110095977783,-10.645668029785156,2.5363919734954834
1791022291397512700,10.6825126953125,-6.764509677886963,-10.061819076538086,2.720639228820801
1791022291414766000,10.69976611328125,-6.805187702178955,-9.643074989318848,2.6608188152313232
1791022291432019700,10.717019775390625,-6.999006271362305,-9.384650230407715,2.3401806354522705
1791022291449273300,10.7342734375,-6.774080753326416,-9.415757179260254,2.366501569747925
1791022291466526700,10.751526611328124,-6.128018856048584,-9.657432556152344,2.7804598808288574
1791022291483780400,10.7687802734375,-5.702096462249756,-9.588040351867676,3.16331148147583
1791022291501034000,10.786033935546875,-5.2354960441589355,-9.226723670959473,2.7900311946868896
1791022291518287400,10.803287353515625,-5.38624382019043,-9.061619758605957,2.1583259105682373
1791022291535541000,10.820541015625,-5.86002254486084,-9.442078590393066,1.7563318014144897
1791022291552794600,10.837794677734376,-6.269195556640625,-9.836894035339355,1.9764715433120728
1791022291570048300,10.85504833984375,-6.4319071769714355,-9.934999465942383,2.266003131866455
1791022291587301600,10.872301513671875,-6.293123722076416,-9.987641334533691,2.5196423530578613
1791022291604555300,10.88955517578125,-5.759523868560791,-9.908679008483887,2.7014968395233154
1791022291621809000,10.906808837890624,-5.438885688781738,-9.442078590393066,2.581855535507202
1791022291639062300,10.924062255859376,-5.793023586273193,-8.894122123718262,2.4287149906158447
1791022291656316000,10.94131591796875,-6.099305152893066,-8.800801277160645,2.3736801147460938
1791022291673569300,10.9585693359375,-5.996413707733154,-9.020941734313965,2.3880369663238525
1791022291690823000,10.975822998046874,-6.285944938659668,-9.387042999267578,2.7326035499572754
1791022291708076500,10.99307666015625,-6.214160442352295,-9.889535903930664,3.1178479194641113
1791022291725330000,11.010329833984375,-6.293123722076416,-10.17428207397461,3.4025938510894775
1791022291742583600,11.02758349609375,-7.063612461090088,-10.1216402053833,3.445664644241333
1791022291759837200,11.044837158203125,-7.178467750549316,-9.853643417358398,3.1800613403320312
1791022291777090600,11.062090576171874,-6.752545356750488,-9.351150512695312,2.5698914527893066
1791022291794344200,11.07934423828125,-6.984649181365967,-8.779266357421875,2.3736801147460938
1791022291811597800,11.096597900390625,-7.211967468261719,-8.61894702911377,2.4765713214874268
1791022291828851500,11.1138515625,-7.013363361358643,-8.535198211669922,2.455035924911499
1791022291846104800,11.131104736328124,-6.640082836151123,-8.236095428466797,2.4430718421936035
1791022291863358500,11.1483583984375,-6.711867332458496,-7.463213920593262,2.6297121047973633
1791022291880612000,11.165612060546875,-6.453442573547363,-6.7621169090271,2.6057839393615723
1791022291897865500,11.182865478515625,-5.91505765914917,-5.98444938659668,2.7278177738189697
1791022291915119000,11.200119140625,-6.120840549468994,-5.563312530517578,1.9908283948898315
1791022291932372700,11.217372802734374,-6.278766632080078,-5.017749309539795,2.0195422172546387
1791022291949626000,11.234626220703126,-6.175875186920166,-4.1419758796691895,2.021935224533081
1791022291966879700,11.251879638671875,-5.163711071014404,-3.404986619949341,2.2061824798583984
1791022291984133400,11.26913330078125,-5.5034918785095215,-2.043470621109009,2.2851455211639404
1791022292001386800,11.28638671875,-6.029912948608398,-1.6510475873947144,1.730010747909546
1791022292018640400,11.303640380859376,-5.910272121429443,-1.7635103464126587,1.7084753513336182
1791022292035893800,11.320893798828125,-5.704489231109619,-1.6845471858978271,1.794616937637329
1791022292053147400,11.3381474609375,-5.848058700561523,-1.8233308792114258,1.794616937637329
1791022292070401000,11.355401123046875,-6.0538411140441895,-1.5337992906570435,2.091326951980591
1791022292087654400,11.372654296875,-6.041877269744873,-1.2346965074539185,2.2205393314361572
1791022292104908000,11.389907958984375,-6.867401123046875,-1.2921242713928223,2.744567632675171
1791022292122161700,11.40716162109375,-7.558926582336426,-1.8496519327163696,3.139383316040039
1791022292139415000,11.4244150390625,-7.6043901443481445,-2.7014968395233154,3.445664644241333
1791022292156668700,11.441668701171874,-7.195217609405518,-3.25663161277771,2.7828526496887207
1791022292173922300,11.45892236328125,-7.149754047393799,-2.864208698272705,2.4646072387695312
1791022292191175700,11.47617578125,-6.807580471038818,-2.0099709033966064,2.5052852630615234
1791022292208429300,11.49342919921875,-6.391229152679443,-1.3710874319076538,2.7278177738189697
1791022292225683000,11.510682861328124,-6.005984783172607,-1.2179467678070068,2.825923442840576
1791022292242936300,11.527936279296876,-5.934200286865234,-1.4476577043533325,2.7876384258270264
1791022292260190000,11.54518994140625,-5.9509501457214355,-1.8041882514953613,2.785245656967163
1791022292277443600,11.562443603515625,-6.348158359527588,-2.313859462738037,2.885744094848633
1791022292294697000,11.579697021484375,-6.63051176071167,-3.0388846397399902,3.25663161277771
1791022292311950600,11.59695068359375,-6.661618232727051,-3.9529430866241455,3.263810157775879
1791022292329204200,11.614204345703126,-6.585047721862793,-4.682754039764404,3.232703447341919
1791022292346457600,11.63145751953125,-6.580262184143066,-5.213960647583008,3.2231321334838867
1791022292363711200,11.648711181640625,-6.477370738983154,-5.881557941436768,3.1824541091918945
1791022292380964600,11.665964599609374,-6.632904529571533,-6.597012042999268,3.146561861038208
1791022292398218200,11.68321826171875,-6.759724140167236,-7.350750923156738,3.13220477104187
1791022292415471900,11.700471923828125,-6.790830612182617,-7.779066562652588,3.239881753921509
1791022292432725500,11.7177255859375,-6.563512325286865,-7.917850017547607,2.974278450012207
1791022292449979000,11.734978759765625,-6.460621356964111,-7.743174076080322,2.5603201389312744
1791022292467232500,11.752232421875,-6.477370738983154,-7.477570533752441,2.029113531112671
1791022292484486000,11.76948583984375,-6.56829833984375,-7.262216567993164,1.6821542978286743
1791022292501739500,11.786739501953125,-6.69990348815918,-7.4464640617370605,1.5720844268798828
1791022292518993200,11.8039931640625,-6.709474563598633,-7.910671710968018,1.6965112686157227
1791022292536246800,11.821246826171874,-6.697510719299316,-8.805587768554688,1.710868239402771
1791022292553500200,11.838500244140626,-6.50608491897583,-9.671789169311523,1.9645073413848877
1791022292570753800,11.85575390625,-6.4941205978393555,-10.303494453430176,2.3234307765960693
1791022292588007400,11.87300732421875,-6.537191390991211,-10.39920711517334,2.56510591506958
1791022292605260800,11.8902607421875,-6.589833736419678,-10.552348136901855,2.8929226398468018
1791022292622514400,11.907514404296874,-6.673582553863525,-10.375279426574707,3.431307554244995
1791022292639768000,11.92476806640625,-6.391229152679443,-9.781859397888184,3.5461630821228027
1791022292657021400,11.942021484375,-5.6685967445373535,-8.891729354858398,3.6634113788604736
1791022292674275000,11.959275146484375,-5.438885688781738,-8.018348693847656,3.9194436073303223
1791022292691528400,11.976528564453124,-5.450850009918213,-7.506284713745117,3.9984066486358643
1791022292708782000,11.993781982421876,-5.4173502922058105,-7.544569969177246,3.7423746585845947
1791022292726035700,12.01103564453125,-5.5728840827941895,-8.34138011932373,3.6083765029907227
1791022292743289000,12.0282890625,-5.491528034210205,-9.810572624206543,3.81655216217041
1791022292760542700,12.045542724609374,-5.472385406494141,-11.071590423583984,3.94097900390625
1791022292777796000,12.062796142578126,-5.414957523345947,-11.071590423583984,3.4648072719573975
1791022292795049700,12.0800498046875,-5.340780258178711,-9.54496955871582,2.902493953704834
1791022292812303400,12.097303466796875,-5.359922885894775,-8.338987350463867,2.414358139038086
1791022292829557000,12.114556884765625,-5.364708423614502,-8.085348129272461,2.1128623485565186
1791022292846810400,12.131810302734374,-4.898108005523682,-8.568697929382324,2.3258235454559326
1791022292864064000,12.14906396484375,-4.776073932647705,-9.164510726928711,2.6727828979492188
1791022292881317600,12.166317626953125,-4.7401814460754395,-9.540184020996094,2.837887763977051
1791022292898571000,12.183571044921875,-4.567898273468018,-9.504291534423828,2.9694929122924805
1791022292915824600,12.20082470703125,-4.6995038986206055,-9.123832702636719,3.3068809509277344
1791022292933078000,12.218078125,-4.979464054107666,-8.918049812316895,3.8213376998901367
1791022292950331600,12.23533154296875,-5.113461971282959,-9.056833267211914,4.122833251953125
1791022292967585300,12.252585205078125,-4.9435715675354,-9.128618240356445,4.213760852813721
1791022292984838700,12.269838623046875,-4.871787071228027,-9.075976371765137,4.161118507385254
1791022293002092300,12.28709228515625,-5.07517671585083,-8.963513374328613,4.216153621673584
1791022293019346000,12.304345947265626,-5.374279499053955,-9.078369140625,4.0558342933654785
1791022293036599300,12.321599365234375,-5.376672267913818,-9.308079719543457,3.7902309894561768
1791022293053853000,12.33885302734375,-5.5968122482299805,-9.34157943725586,3.689732551574707
1791022293071106300,12.356106201171874,-5.855237007141113,-9.281759262084961,3.8596229553222656
1791022293088360000,12.37335986328125,-5.86002254486084,-9.018548965454102,4.029513359069824
1791022293105613600,12.390613525390625,-5.876772403717041,-8.700303077697754,4.029513359069824
1791022293122867000,12.407866943359375,-5.72123908996582,-8.358129501342773,3.8189449310302734
1791022293140120600,12.42512060546875,-6.032305717468262,-8.082955360412598,3.617947816848755
1791022293157374200,12.442374267578124,-6.288337707519531,-7.922635555267334,3.610769271850586
1791022293174627600,12.459627685546875,-6.616154670715332,-7.76470947265625,3.6993038654327393
1791022293191881200,12.476881103515625,-6.929614543914795,-7.69531774520874,3.799802303314209
1791022293209134600,12.494134521484375,-6.845865726470947,-7.6043901443481445,3.759124279022217
1791022293226388200,12.51138818359375,-6.1088762283325195,-7.142575740814209,3.531806230545044
1791022293243641900,12.528641845703126,-6.999006271362305,-6.939185619354248,3.2039895057678223
1791022293260895200,12.545895263671875,-7.058826923370361,-6.697510719299316,3.3475589752197266
1791022293278148900,12.56314892578125,-6.879364967346191,-6.183053493499756,3.2279176712036133
1791022293295402500,12.580402587890624,-6.348158359527588,-5.85284423828125,2.6368906497955322
1791022293312656000,12.59765576171875,-6.206982135772705,-5.216353416442871,2.5531418323516846
1791022293329909500,12.614909423828125,-5.79063081741333,-4.161118507385254,2.337787628173828
1791022293347163100,12.6321630859375,-6.563512325286865,-3.19441819190979,2.1511476039886475
1791022293364416500,12.64941650390625,-6.2428741455078125,-2.478964328765869,2.225325107574463
1791022293381670100,12.666670166015624,-5.630311489105225,-2.376072883605957,2.6847469806671143
1791022293398923800,12.683923828125,-5.491528034210205,-2.4358935356140137,2.6799614429473877
1791022293416177200,12.70117724609375,-5.9676995277404785,-1.7754744291305542,2.1056840419769287
1791022293433430800,12.7184306640625,-6.805187702178955,-1.1724830865859985,2.132004976272583
1791022293450684400,12.735684326171874,-6.754938125610352,-1.1054840087890625,2.517249345779419
1791022293467937800,12.752937744140626,-6.56829833984375,-1.3615161180496216,2.6464617252349854
1791022293485191400,12.77019140625,-6.427121639251709,-1.794616937637329,2.586641311645508
1791022293502444800,12.78744482421875,-7.109076023101807,-1.978864312171936,2.541177749633789
1791022293519698400,12.804698486328125,-7.630711555480957,-1.8041882514953613,2.3569302558898926
1791022293536951800,12.821951904296874,-7.566105365753174,-1.6055840253829956,2.2085752487182617
1791022293554205400,12.839205322265625,-7.149754047393799,-1.5672988891601562,2.4335005283355713
1791022293571459000,12.856458984375,-6.585047721862793,-1.6223337650299072,2.421536445617676
1791022293588712400,12.87371240234375,-6.594619274139404,-1.4021940231323242,2.6871397495269775
1791022293605966000,12.890966064453124,-6.477370738983154,-1.093519926071167,2.792423963546753
1791022293623219700,12.9082197265625,-6.539584159851074,-1.0241280794143677,2.998206853866577
1791022293640473000,12.92547314453125,-6.747759819030762,-1.153340458869934,3.38105845451355
1791022293657726700,12.942726806640625,-5.816951751708984,-1.5792629718780518,3.242274761199951
1791022293674980400,12.95998046875,-5.431707382202148,-1.950150489807129,3.122633457183838
1791022293692233700,12.977233642578126,-5.9916276931762695,-2.251646041870117,3.2542388439178467
1791022293709487400,12.9944873046875,-6.398407936096191,-2.967100143432617,3.783052682876587
1791022293726740700,13.01174072265625,-6.178267955780029,-3.8333017826080322,4.0797624588012695
1791022293743994400,13.028994384765625,-6.553941249847412,-4.697110652923584,4.139583110809326
1791022293761248000,13.046248046875,-6.63769006729126,-5.627918720245361,4.256831645965576
1791022293778501400,13.06350146484375,-6.486942291259766,-6.498906135559082,3.8979079723358154
1791022293795755000,13.080755126953125,-6.467799663543701,-7.018148899078369,3.2853455543518066
1791022293813008400,13.09800830078125,-7.001399040222168,-7.424928665161133,2.847458839416504
1791022293830262000,13.115261962890624,-7.511070251464844,-7.769495010375977,3.1920254230499268
1791022293847515600,13.132515625,-6.97268533706665,-7.8317084312438965,3.335594654083252
1791022293864769000,13.14976904296875,-6.778866767883301,-7.714460372924805,3.029313564300537
1791022293882022700,13.167022705078125,-6.477370738983154,-7.635497093200684,2.6464617252349854
1791022293899276300,13.1842763671875,-6.216553211212158,-7.5637125968933105,2.4430718421936035
1791022293916529700,13.20152978515625,-6.094519138336182,-7.843672752380371,2.203789710998535
1791022293933783300,13.218783203125,-6.206982135772705,-8.24566650390625,2.1296122074127197
1791022293951036700,13.23603662109375,-6.302694797515869,-8.702695846557617,2.2540390491485596
1791022293968290300,13.253290283203125,-6.960721015930176,-9.308079719543457,2.4023938179016113
1791022293985544000,13.2705439453125,-7.2430739402771,-10.061819076538086,2.7876384258270264
1791022294002797300,13.28779736328125,-7.118647575378418,-10.669595718383789,3.2063822746276855
1791022294020051000,13.305051025390625,-6.726224422454834,-10.597811698913574,3.6323046684265137
1791022294037304300,13.32230419921875,-6.57547664642334,-9.805787086486816,3.94815731048584
1791022294054558000,13.339557861328124,-6.783652305603027,-8.870193481445312,3.840480327606201
1791022294071811600,13.3568115234375,-6.807580471038818,-8.417949676513672,3.4959139823913574
1791022294089065000,13.37406494140625,-6.1950178146362305,-8.819944381713867,3.06999135017395
1791022294106318600,13.391318603515625,-5.994020938873291,-9.77707290649414,3.3379876613616943
1791022294123572200,13.408572265625,-5.515456199645996,-10.473384857177734,3.3020951747894287
1791022294140825600,13.42582568359375,-5.694917678833008,-10.124032974243164,3.5748770236968994
1791022294158079200,13.443079345703126,-5.690132141113281,-9.276973724365234,3.483949661254883
1791022294175332600,13.46033251953125,-5.285745143890381,-8.590232849121094,3.4241292476654053
1791022294192586200,13.477586181640625,-4.656432628631592,-8.276773452758789,3.321237802505493
1791022294209839600,13.494839599609374,-4.54636287689209,-8.049455642700195,2.9479575157165527
1791022294227093200,13.51209326171875,-4.756931304931641,-7.891529083251953,2.4885356426239014
1791022294244347000,13.529346923828125,-4.8813581466674805,-8.149953842163086,2.368894338607788
1791022294261600300,13.546600341796875,-4.902893543243408,-8.724231719970703,2.6057839393615723
1791022294278854000,13.56385400390625,-5.2043890953063965,-9.389435768127441,2.940778970718384
1791022294296107500,13.581107421875,-5.800201892852783,-10.028319358825684,3.1680972576141357
1791022294313361000,13.59836083984375,-6.439085960388184,-10.571490287780762,3.2590243816375732
1791022294330614500,13.615614501953125,-6.419943332672119,-10.64806079864502,3.136990547180176
1791022294347868200,13.6328681640625,-6.26440954208374,-10.387243270874023,3.1561331748962402
1791022294365121500,13.65012158203125,-6.276373863220215,-9.961320877075195,3.390629768371582
1791022294382375000,13.667375,-6.3601226806640625,-9.509077072143555,4.070191383361816
1791022294399628500,13.684628662109375,-6.357729911804199,-9.255437850952148,5.032105922698975
1791022294416882200,13.701882080078125,-6.51326322555542,-9.396614074707031,5.953342914581299
1791022294434135600,13.719135498046874,-5.9437713623046875,-9.949356079101562,6.111268997192383
1791022294451389200,13.73638916015625,-5.438885688781738,-10.255638122558594,5.548955917358398
1791022294468642800,13.753642822265626,-5.812166213989258,-10.439885139465332,5.340780258178711
1791022294485896200,13.770896240234375,-5.989234924316406,-10.403992652893066,5.338387489318848
1791022294503149800,13.78814990234375,-5.6446685791015625,-10.071390151977539,5.024927616119385
1791022294520403500,13.805403564453124,-5.955735683441162,-9.58325481414795,4.685146808624268
1791022294537656800,13.82265673828125,-6.178267955780029,-9.410971641540527,4.713860511779785
1791022294554910200,13.83991015625,-5.702096462249756,-9.276973724365234,4.737788677215576
1791022294572163800,13.857163818359375,-5.960521221160889,-9.18843936920166,4.752145767211914
1791022294589417500,13.87441748046875,-6.403193473815918,-9.004191398620605,4.768895626068115
1791022294606670800,13.8916708984375,-5.548955917358398,-8.286344528198242,5.1876397132873535
1791022294623924500,13.908924560546875,-5.302495002746582,-7.482356548309326,4.4961137771606445
1791022294641178000,13.92617822265625,-6.51326322555542,-7.302894592285156,3.8045880794525146
1791022294658431500,13.943431396484375,-7.1234331130981445,-7.348358154296875,3.596412420272827
1791022294675685000,13.96068505859375,-6.5180487632751465,-7.144968509674072,3.5844483375549316
1791022294692938500,13.9779384765625,-6.8554368019104,-6.608976364135742,1.770688772201538
1791022294710192000,13.995192138671875,-6.920042991638184,-5.125426292419434,0.38285163044929504
1791022294727445800,14.01244580078125,-5.941378593444824,-3.108276605606079,0.4091726839542389
1791022294744699100,14.02969921875,-5.309673309326172,-0.849452018737793,0.7896314859390259
1791022294761952800,14.046952880859376,-5.491528034210205,-0.4211367964744568,0.35413774847984314
1791022294779206100,14.0642060546875,-5.474778175354004,-1.4715858697891235,0.7872386574745178
1791022294796459800,14.081459716796875,-5.197210788726807,-1.454836130142212,0.34695929288864136
1791022294813713200,14.098713134765624,-7.223931789398193,-1.2131611108779907,0.7680960893630981
1791022294830966800,14.115966796875,-6.527620315551758,-1.3543375730514526,2.423929452896118
1791022294848220400,14.133220458984376,-5.752345561981201,-2.3569302558898926,4.12761926651001
1791022294865473800,14.150473876953125,-6.98704195022583,-2.557927370071411,4.500899314880371
1791022294882727400,14.1677275390625,-5.592026710510254,-1.459621787071228,3.7806596755981445
1791022294899981000,14.18498095703125,-4.443471431732178,-0.4498506486415863,3.500699520111084
1791022294917234400,14.202234375,-4.634897232055664,0.08614161610603333,3.4552359580993652
1791022294934488000,14.219488037109375,-5.563312530517578,-0.33499518036842346,3.672982692718506
1791022294951741400,14.236741455078125,-5.838487148284912,-1.2011969089508057,5.000999450683594
1791022294968995000,14.2539951171875,-6.417550563812256,-2.2205393314361572,6.116054534912109
1791022294986248400,14.27124853515625,-6.094519138336182,-3.012563705444336,6.063412666320801
1791022295003502000,14.288502197265625,-5.400600910186768,-4.311866283416748,6.144768714904785
1791022295020755500,14.30575537109375,-5.096712112426758,-5.678168296813965,5.601597785949707
1791022295038009000,14.323009033203125,-4.144368648529053,-6.8482584953308105,4.386044025421143
1791022295055262700,14.3402626953125,-5.3934221267700195,-7.8077802658081055,3.5054850578308105
1791022295072516000,14.35751611328125,-5.955735683441162,-8.214560508728027,3.4169507026672363
1791022295089769700,14.374769775390625,-5.0464630126953125,-7.939385414123535,3.414557933807373
1791022295107023400,14.3920234375,-5.893522262573242,-7.408178806304932,3.1800613403320312
1791022295124276700,14.40927685546875,-6.379265308380127,-6.687939167022705,3.074777126312256
1791022295141530000,14.426530029296876,-6.580262184143066,-6.295516490936279,2.651247501373291
1791022295158783700,14.44378369140625,-5.694917678833008,-6.400800704956055,2.541177749633789
1791022295176037400,14.461037353515625,-6.405586242675781,-7.357929706573486,1.7826528549194336
1791022295193290800,14.478290771484374,-6.678368091583252,-8.71226692199707,1.820937991142273
1791022295210544400,14.49554443359375,-6.2500529289245605,-10.054640769958496,1.6414763927459717
1791022295227797800,14.5127978515625,-6.8554368019104,-10.794022560119629,1.5481562614440918
1791022295245051400,14.530051513671875,-6.63769006729126,-10.770094871520996,1.4883357286453247
1791022295262305000,14.547304931640625,-6.178267955780029,-10.770094871520996,2.0315065383911133
1791022295279558400,14.564558349609374,-5.886343479156494,-10.846665382385254,2.6871397495269775
1791022295296812000,14.58181201171875,-5.9198431968688965,-11.054841041564941,3.783052682876587
1791022295314065700,14.599065673828125,-4.867001056671143,-10.904092788696289,4.4243292808532715
1791022295331319000,14.616319091796875,-4.7234320640563965,-10.504491806030273,5.0703911781311035
1791022295348572400,14.633572509765624,-5.00578498840332,-10.356136322021484,5.412564754486084
1791022295365826000,14.650825927734376,-5.467599868774414,-10.557133674621582,5.637490272521973
1791022295383079700,14.66807958984375,-5.453242778778076,-10.48534870147705,5.31685209274292
1791022295400333000,14.6853330078125,-5.300102233886719,-10.375279426574707,4.615755081176758
1791022295417586700,14.702586669921875,-5.441278457641602,-10.432706832885742,4.005585193634033
1791022295434840300,14.71984033203125,-5.529813289642334,-10.325029373168945,3.94815731048584
1791022295452093700,14.73709375,-4.756931304931641,-9.923035621643066,3.7710886001586914
1791022295469347300,14.754347412109375,-4.249652862548828,-9.449256896972656,3.1202406883239746
1791022295486600700,14.7716005859375,-3.8835511207580566,-9.154939651489258,2.1056840419769287
1791022295503854300,14.788854248046874,-3.6921253204345703,-9.236295700073242,1.5026925802230835
1791022295521107700,14.806107666015626,-4.230510234832764,-9.183652877807617,1.074377417564392
1791022295538361300,14.823361328125,-4.323830604553223,-9.030512809753418,1.3280165195465088
1791022295555614700,14.84061474609375,-4.182653903961182,-8.975478172302246,2.335394859313965
1791022295572868400,14.857868408203124,-4.680361270904541,-8.898907661437988,2.56510591506958
1791022295590122000,14.8751220703125,-6.199803352355957,-9.157332420349121,2.950350284576416
1791022295607375400,14.892375244140625,-7.238288402557373,-9.844072341918945,4.168296813964844
1791022295624629000,14.90962890625,-7.183253765106201,-10.6025972366333,5.436492919921875
1791022295641882400,14.92688232421875,-6.463014125823975,-11.150553703308105,5.938985824584961
1791022295659136000,14.944135986328124,-5.656632900238037,-11.404192924499512,5.7164530754089355
1791022295676389400,14.961389404296876,-5.209175109863281,-11.054841041564941,5.123033046722412
1791022295693643000,14.97864306640625,-5.271388053894043,-10.15753173828125,4.797609329223633
1791022295710896600,14.995896728515625,-5.120640277862549,-9.30329418182373,4.768895626068115
1791022295728150000,15.01314990234375,-5.010570526123047,-8.879764556884766,4.761716842651367
1791022295745403600,15.030403564453126,-5.13739013671875,-8.757730484008789,4.797609329223633
1791022295762657000,15.047656982421875,-5.771488189697266,-8.616554260253906,5.127819061279297
1791022295779910700,15.06491064453125,-5.536991596221924,-8.599804878234863,5.326423168182373
1791022295797164300,15.082164306640625,-5.0464630126953125,-8.451449394226074,5.216353416442871
1791022295814417700,15.099417724609374,-5.405386447906494,-8.166703224182129,4.864608287811279
1791022295831671300,15.11667138671875,-5.781059741973877,-8.070990562438965,4.6540398597717285
1791022295848924700,15.133924560546875,-5.608776092529297,-8.075776100158691,4.280759811401367
1791022295866178300,15.15117822265625,-5.92223596572876,-7.920242786407471,4.316651821136475
1791022295883431700,15.168431640625,-6.329015731811523,-7.527820110321045,5.13739013671875
1791022295900685300,15.185685302734376,-7.530212879180908,-7.302894592285156,4.555934429168701
1791022295917938700,15.202938720703125,-6.4510498046875,-7.1856465339660645,4.797609329223633
1791022295935192300,15.2201923828125,-6.477370738983154,-6.616154670715332,4.754538536071777
1791022295952446000,15.237446044921874,-5.769095420837402,-6.049055576324463,4.039084434509277
1791022295969699300,15.25469921875,-5.450850009918213,-5.8719868659973145,3.589233875274658
1791022295986953000,15.271952880859375,-5.400600910186768,-5.441278457641602,3.5030922889709473
1791022296004206300,15.289206298828125,-5.4173502922058105,-4.417150497436523,3.2685956954956055
1791022296021460000,15.3064599609375,-5.257031440734863,-2.888136863708496,2.7804598808288574
1791022296038713300,15.32371337890625,-5.2283172607421875,-1.557727575302124,2.943171739578247
1791022296055967000,15.340967041015626,-4.764110088348389,-1.0193424224853516,2.2396819591522217
1791022296073220600,15.358220703125,-4.957928657531738,-1.2849457263946533,1.5361921787261963
1791022296090474000,15.375473876953125,-5.879165172576904,-1.6031911373138428,2.0745773315429688
1791022296107727600,15.3927275390625,-6.0538411140441895,-1.8687944412231445,2.919243574142456
1791022296124981000,15.40998095703125,-6.872186660766602,-2.132004976272583,2.998206853866577
1791022296142234600,15.427234619140625,-6.364908218383789,-2.469393014907837,3.280559778213501
1791022296159488000,15.444488037109375,-6.106483459472656,-1.9573289155960083,3.414557933807373
1791022296176741600,15.46174169921875,-5.79780912399292,-1.28255295753479,2.60339093208313
1791022296193995000,15.4789951171875,-6.005984783172607,-1.1318050622940063,2.5387847423553467
1791022296211248600,15.49624853515625,-6.0849480628967285,-1.5146567821502686,2.8905298709869385
1791022296228502000,15.513501953125,-6.412764549255371,-1.7874385118484497,3.9361932277679443
1791022296245755600,15.530755615234375,-6.673582553863525,-2.2061824798583984,4.381258487701416
1791022296263009300,15.54800927734375,-6.666403770446777,-2.830709218978882,4.235296249389648
1791022296280262700,15.5652626953125,-6.410371780395508,-3.2757742404937744,3.728017568588257
1791022296297516300,15.582516357421875,-6.721438884735107,-3.22552490234375,3.8907296657562256
1791022296314769700,15.599769775390625,-6.106483459472656,-3.046063184738159,4.371686935424805
1791022296332023300,15.617023193359374,-5.529813289642334,-3.0939197540283203,4.620540618896484
1791022296349276700,15.634276611328126,-5.371886730194092,-3.397808074951172,5.06799840927124
1791022296366530300,15.6515302734375,-5.106283664703369,-3.9864425659179688,5.000999450683594
1791022296383783700,15.66878369140625,-5.388636589050293,-4.6540398597717285,5.371886730194092
1791022296401037300,15.686037353515625,-4.835894584655762,-5.536991596221924,5.264209747314453
1791022296418291000,15.703291015625,-5.017749309539795,-6.128018856048584,5.405386447906494
1791022296435544300,15.72054443359375,-5.759523868560791,-6.592226505279541,5.276174068450928
1791022296452798000,15.7377978515625,-5.584847927093506,-6.606583118438721,4.8574299812316895
1791022296470051300,15.75505126953125,-4.967499732971191,-6.434299945831299,4.500899314880371
1791022296487305000,15.772304931640624,-4.252045631408691,-6.348158359527588,3.799802303314209
1791022296504558300,15.789558349609376,-5.312066078186035,-6.400800704956055,4.015156269073486
1791022296521812000,15.80681201171875,-4.979464054107666,-6.544369697570801,4.07258415222168
1791022296539065300,15.8240654296875,-5.113461971282959,-6.750152587890625,4.297509670257568
1791022296556319000,15.841319091796874,-4.800002098083496,-7.073183536529541,4.555934429168701
1791022296573572600,15.858572509765626,-4.88853645324707,-7.6666035652160645,4.780859470367432
1791022296590826000,15.875825927734375,-5.548955917358398,-8.7505521774292,5.2354960441589355
1791022296608079600,15.89307958984375,-5.812166213989258,-9.992427825927734,5.436492919921875
1791022296625333000,15.9103330078125,-5.259424209594727,-10.63370418548584,5.458028316497803
1791022296642586600,15.927586669921874,-4.6995038986206055,-10.425528526306152,4.869394302368164
1791022296659840000,15.944840087890626,-4.934000492095947,-10.006784439086914,4.508078098297119
1791022296677093600,15.96209375,-4.706682205200195,-9.719645500183105,4.689932346343994
1791022296694347000,15.979346923828125,-4.0797624588012695,-9.597611427307129,4.783252239227295
1791022296711600600,15.9966005859375,-4.019941806793213,-9.736394882202148,5.424529075622559
1791022296728854300,16.013854248046876,-3.950550079345703,-9.875179290771484,6.632904529571533
1791022296746107600,16.031107666015625,-3.7160534858703613,-9.561718940734863,7.17368221282959
1791022296763361300,16.048361328125,-3.335594654083252,-8.709874153137207,6.640082836151123
1791022296780614700,16.06561474609375,-2.5196423530578613,-7.795815944671631,5.903093338012695
1791022296797868000,16.082867919921874,-2.352144718170166,-7.262216567993164,5.197210788726807
1791022296815121700,16.10012158203125,-2.9958138465881348,-7.424928665161133,4.797609329223633
1791022296832375300,16.117375244140625,-3.7710886001586914,-8.236095428466797,4.185046672821045
1791022296849628700,16.134628662109375,-3.572484254837036,-9.267401695251465,3.5222349166870117
1791022296866882300,16.15188232421875,-3.4743785858154297,-9.987641334533691,2.8522446155548096
1791022296884135700,16.1691357421875,-2.7110681533813477,-9.975677490234375,1.8759729862213135
1791022296901389300,16.186389404296875,-3.7639100551605225,-9.42772102355957,0.35413774847984314
1791022296918642700,16.203642578125,-3.1728827953338623,-8.484949111938477,0.038285162299871445
1791022296935896300,16.220896240234374,-4.615755081176758,-7.82692289352417,0.638883650302887
1791022296953149700,16.238149658203124,-3.9433717727661133,-8.288737297058105,2.0410776138305664
1791022296970403300,16.2554033203125,-3.830909013748169,-9.415757179260254,2.210968017578125
1791022296987656700,16.27265673828125,-4.405186653137207,-10.789237022399902,4.051048755645752
1791022297004910300,16.289910400390625,-4.192225456237793,-12.174681663513184,5.568098068237305
1791022297022164000,16.3071640625,-5.670989513397217,-13.36152172088623,5.589633464813232
1791022297039417300,16.324417236328124,-3.8428730964660645,-14.1918306350708,6.427121639251709
1791022297056671000,16.3416708984375,-1.950150489807129,-13.572090148925781,5.1182475090026855
1791022297073924400,16.35892431640625,-1.545763373374939,-10.86580753326416,3.1680972576141357
1791022297091178000,16.376177978515624,-2.737389087677002,-8.02074146270752,2.3090739250183105
1791022297108431400,16.393431396484374,-2.1296122074127197,-5.718846321105957,1.0217353105545044
1791022297125685000,16.41068505859375,-3.517449378967285,-4.364508628845215,1.7371892929077148
1791022297142938400,16.4279384765625,-6.412764549255371,-4.319045066833496,4.175475597381592
1791022297160192000,16.44519189453125,-3.586841106414795,-5.13021183013916,5.247459888458252
1791022297177445400,16.4624453125,-4.07258415222168,-6.781259536743164,4.955535888671875
1791022297194699000,16.479698974609374,-5.412564754486084,-8.317451477050781,5.170889854431152
1791022297211952600,16.49695263671875,-6.786045074462891,-9.291330337524414,5.225924491882324
1791022297229206000,16.5142060546875,-5.4795637130737305,-9.65503978729248,5.1182475090026855
1791022297246459400,16.53145947265625,-4.3549370765686035,-9.492327690124512,4.5200419425964355
1791022297263713000,16.548713134765624,-4.42193603515625,-9.030512809753418,4.285545349121094
1791022297280966700,16.565966552734373,-4.584648132324219,-8.161917686462402,4.599005222320557
1791022297298220000,16.583219970703126,-5.237888813018799,-7.489534854888916,5.166104316711426
1791022297315473700,16.6004736328125,-6.1088762283325195,-7.357929706573486,6.776473522186279
1791022297332727000,16.61772705078125,-6.673582553863525,-7.817351341247559,8.0350980758667
1791022297349980700,16.634980712890624,-5.594419479370117,-8.642875671386719,8.640482902526855
1791022297367234000,16.652234130859377,-5.247459888458252,-9.152546882629395,7.8628153800964355
1791022297384487700,16.66948779296875,-7.094718933105469,-8.884550094604492,8.037490844726562
1791022297401741000,16.686740966796876,-6.951149940490723,-8.559126853942871,7.013363361358643
1791022297418994700,16.70399462890625,-7.594819068908691,-8.094919204711914,6.829115867614746
1791022297436248000,16.721248046875,-6.051448345184326,-7.341179847717285,6.2668023109436035
1791022297453501700,16.738501708984376,-5.79063081741333,-6.364908218383789,5.166104316711426
1791022297470755300,16.75575537109375,-6.051448345184326,-5.115854740142822,4.302295207977295
1791022297488008700,16.7730087890625,-3.4097721576690674,-3.649054527282715,2.950350284576416
1791022297505262300,16.790262451171873,-2.59621262550354,-2.289931297302246,2.0171494483947754
1791022297522515700,16.807515625,-3.0628130435943604,-1.1653046607971191,1.947757601737976
1791022297539769000,16.82476904296875,-2.66560435295105,-1.0767701864242554,2.038684844970703
1791022297557022700,16.842022705078126,-4.118047714233398,-1.459621787071228,2.9168508052825928
1791022297574276400,16.8592763671875,-6.888936519622803,-1.4620146751403809,3.91705060005188
1791022297591529700,16.87652978515625,-3.407379388809204,-0.7872386574745178,1.5098711252212524
1791022297608783400,16.893783447265626,-4.18983268737793,-0.7250252366065979,-0.064606212079525
1791022297626036700,16.91103662109375,-6.254838466644287,-0.9332008361816406,-0.5072783827781677
1791022297643290000,16.9282900390625,-7.451249599456787,-1.191625714302063,2.0985054969787598
1791022297660543700,16.945543701171875,-7.032505512237549,-3.1274192333221436,5.505885124206543
1791022297677797400,16.96279736328125,-9.44447135925293,-4.426722049713135,7.561319351196289
1791022297695050800,16.98005078125,-6.419943332672119,-4.208974838256836,8.666803359985352
1791022297712304400,16.997304443359376,-5.527420520782471,-1.703689694404602,8.068597793579102
1791022297729557800,17.014557861328125,-4.505684852600098,-0.17228323221206665,5.319244861602783
1791022297746811400,17.031811279296875,-5.493920803070068,-0.763310432434082,4.589433670043945
1791022297764064800,17.049064697265624,-5.355136871337891,-1.6295121908187866,5.6925249099731445
1791022297781318400,17.066318359375,-4.096512317657471,-1.7826528549194336,5.099104881286621
1791022297798571800,17.08357177734375,-5.106283664703369,-1.4644074440002441,4.297509670257568
1791022297815825400,17.100825439453125,-5.201996326446533,-1.5050854682922363,4.019941806793213
1791022297833078800,17.118078857421875,-5.032105922698975,-1.9932212829589844,4.096512317657471
1791022297850332400,17.13533251953125,-4.9435715675354,-2.8929226398468018,4.60857629776001
1791022297867585800,17.152585693359374,-4.797609329223633,-3.680161237716675,4.4243292808532715
1791022297884839400,17.16983935546875,-4.522434711456299,-4.235296249389648,4.086941242218018
1791022297902093000,17.187093017578125,-5.828916072845459,-4.515256404876709,3.7567315101623535
1791022297919346400,17.204346435546874,-6.070590972900391,-4.548755645751953,3.792623996734619
1791022297936599800,17.221599853515624,-5.804987907409668,-4.742574691772461,3.4480574131011963
1791022297953853400,17.238853515625,-6.44387149810791,-5.4173502922058105,3.34995174407959
1791022297971106800,17.25610693359375,-6.2189459800720215,-6.190232276916504,3.6681971549987793
1791022297988360400,17.2733603515625,-6.128018856048584,-6.991827964782715,3.9290146827697754
1791022298005614000,17.290614013671874,-6.580262184143066,-7.700103282928467,4.517649173736572
1791022298022867500,17.307867431640624,-5.501099109649658,-7.915457248687744,4.551148891448975
1791022298040120800,17.325120849609377,-5.54177713394165,-8.25523853302002,5.4173502922058105
1791022298057374500,17.34237451171875,-5.008177757263184,-8.597412109375,5.912664890289307
1791022298074627800,17.3596279296875,-5.285745143890381,-9.391828536987305,6.606583118438721
1791022298091881500,17.376881591796874,-4.749752998352051,-9.899106979370117,6.695117950439453
1791022298109135000,17.394135009765623,-4.859822750091553,-10.114460945129395,6.771687984466553
1791022298126388500,17.411388427734376,-4.7952165603637695,-9.908679008483887,6.56829833984375
1791022298143642000,17.42864208984375,-5.1565327644348145,-9.422935485839844,6.623332977294922
1791022298160895500,17.4458955078125,-5.139782905578613,-9.025727272033691,6.850651264190674
1791022298178148900,17.46314892578125,-6.001199245452881,-8.980263710021973,7.037291526794434
1791022298195402500,17.480402587890627,-5.319244861602783,-9.245866775512695,6.592226505279541
1791022298212656000,17.49765625,-4.371686935424805,-9.1716890335083,5.458028316497803
1791022298229909500,17.514909423828126,-3.428914785385132,-8.896514892578125,4.833501815795898
1791022298247163100,17.5321630859375,-3.3714871406555176,-8.274380683898926,4.429114818572998
1791022298264416500,17.54941650390625,-4.019941806793213,-7.542177200317383,3.627519130706787
1791022298281670100,17.566670166015626,-2.201396942138672,-7.192824840545654,3.1250264644622803
1791022298298923500,17.583923583984376,-2.9383862018585205,-7.630711555480957,3.239881753921509
1791022298316177000,17.601177001953126,-3.620340585708618,-8.793622970581055,4.137190341949463
1791022298333430500,17.618430419921875,-3.9792640209198,-10.396814346313477,5.690132141113281
1791022298350684200,17.63568408203125,-4.034298896789551,-11.60519027709961,6.685546398162842
1791022298367937500,17.6529375,-3.8428730964660645,-12.217752456665039,6.479763507843018
1791022298385191200,17.670191162109376,-3.6442689895629883,-11.660224914550781,4.579862594604492
1791022298402444500,17.687444580078125,-3.3164522647857666,-9.717252731323242,3.4504501819610596
1791022298419698000,17.704697998046875,-3.864408493041992,-8.063812255859375,3.34995174407959
1791022298436951600,17.72195166015625,-3.3882367610931396,-7.372286796569824,3.634697675704956
1791022298454205200,17.739205078125,-2.557927370071411,-7.1856465339660645,4.237689018249512
1791022298471458600,17.75645849609375,-2.5052852630615234,-7.216753005981445,4.2831525802612305
1791022298488712200,17.773712158203125,-3.321237802505493,-7.848458290100098,3.814159393310547
1791022298505965600,17.790965576171875,-3.775874137878418,-8.678768157958984,3.9864425659179688
1791022298523219200,17.80821923828125,-3.7232320308685303,-9.236295700073242,4.749752998352051
1791022298540472600,17.82547265625,-3.3020951747894287,-9.578469276428223,5.142175674438477
1791022298557726000,17.842725830078123,-3.404986619949341,-9.370293617248535,4.962714195251465
1791022298574979600,17.8599794921875,-4.0319061279296875,-8.700303077697754,4.622933387756348
1791022298592233200,17.877233154296874,-4.388436794281006,-8.066205024719238,4.357329845428467
1791022298609486600,17.894486572265624,-4.278367042541504,-7.977670669555664,4.603790760040283
1791022298626740200,17.911740234375,-3.8428730964660645,-8.484949111938477,4.977071285247803
1791022298643993600,17.92899365234375,-4.12761926651001,-9.10229778289795,5.594419479370117
1791022298661247200,17.946247314453124,-5.637490272521973,-9.686145782470703,6.422336101531982
1791022298678500900,17.9635009765625,-5.905486106872559,-9.798608779907227,6.4701924324035645
1791022298695754200,17.980754150390624,-5.175675392150879,-9.119047164916992,5.718846321105957
1791022298713007600,17.998007568359377,-4.972285270690918,-8.21695327758789,4.821537494659424
1791022298730261200,18.01526123046875,-5.221138954162598,-7.781459331512451,4.843072891235352
1791022298747514600,18.0325146484375,-5.38624382019043,-7.767102241516113,5.1182475090026855
1791022298764768300,18.049768310546874,-5.278566837310791,-7.791030406951904,5.142175674438477
1791022298782021600,18.067021728515623,-5.400600910186768,-7.436892986297607,5.161318302154541
1791022298799275000,18.08427490234375,-5.8719868659973145,-6.97986364364624,5.711667537689209
1791022298816528600,18.101528564453126,-5.3455657958984375,-6.795616149902344,6.441478729248047
1791022298833782000,18.118781982421876,-4.838287353515625,-6.446264266967773,6.5491557121276855
1791022298851035600,18.13603564453125,-4.941178798675537,-5.938985824584961,6.192625045776367
1791022298868289300,18.153289306640627,-5.407779216766357,-5.539384365081787,5.936593055725098
1791022298885542700,18.170542724609376,-5.158925533294678,-5.398207664489746,5.31685209274292
1791022298902796300,18.18779638671875,-5.568098068237305,-5.280959606170654,5.699703693389893
1791022298920049700,18.205049560546875,-6.4701924324035645,-5.563312530517578,6.190232276916504
1791022298937303000,18.222302978515625,-6.144768714904785,-5.824130535125732,5.326423168182373
1791022298954556700,18.239556640625,-6.0538411140441895,-5.907878875732422,4.627718925476074
1791022298971810000,18.25681005859375,-4.926821708679199,-4.900500774383545,4.326223373413086
1791022298989063700,18.274063720703126,-5.326423168182373,-3.462414264678955,4.137190341949463
1791022299006317300,18.2913173828125,-4.919643402099609,-2.091326951980591,3.5844483375549316
1791022299023570700,18.30857080078125,-4.919643402099609,-1.5361921787261963,3.620340585708618
1791022299040824000,18.325823974609374,-4.721039295196533,-1.820937991142273,3.414557933807373
1791022299058077700,18.34307763671875,-4.730610370635986,-1.9597218036651611,3.273381471633911
1791022299075331000,18.3603310546875,-5.115854740142822,-1.5864413976669312,3.7567315101623535
1791022299092584700,18.377584716796875,-5.364708423614502,-0.9667003750801086,4.170690059661865
1791022299109838000,18.394838134765624,-6.252445697784424,-0.8973084688186646,4.29033088684082
1791022299127091700,18.412091796875,-5.07517671585083,-1.820937991142273,3.744767427444458
1791022299144345000,18.429344970703124,-5.733202934265137,-2.9240293502807617,3.9601213932037354
1791022299161598700,18.4465986328125,-6.025127410888672,-2.1655044555664062,4.78803825378418
1791022299178852000,18.46385205078125,-5.06082010269165,-0.37806597352027893,4.974678039550781
1791022299196105700,18.481105712890624,-4.4650068283081055,0.25363919138908386,4.60857629776001
1791022299213359000,18.498359130859374,-5.704489231109619,-0.4546363055706024,4.512863636016846
1791022299230612700,18.51561279296875,-5.036891460418701,-1.6295121908187866,4.878965377807617
1791022299247866000,18.5328662109375,-5.173282623291016,-2.1774685382843018,5.37906551361084
1791022299265119500,18.550119384765626,-6.001199245452881,-2.2540390491485596,5.568098068237305
1791022299282373000,18.567373046875,-5.101497650146484,-2.313859462738037,5.084748268127441
1791022299299626800,18.584626708984374,-5.139782905578613,-2.368894338607788,4.59421968460083
1791022299316880100,18.601880126953127,-4.934000492095947,-2.651247501373291,4.132404804229736
1791022299334133800,18.6191337890625,-5.362315654754639,-2.940778970718384,4.158725738525391
1791022299351387100,18.63638720703125,-4.864608287811279,-3.2925238609313965,3.8883368968963623
1791022299368640800,18.653640869140624,-4.938786029815674,-3.6873397827148438,4.096512317657471
1791022299385894100,18.67089404296875,-5.225924491882324,-4.156332969665527,4.309473514556885
1791022299403147500,18.6881474609375,-5.72123908996582,-4.692325115203857,4.6061835289001465
1791022299420401200,18.705401123046876,-5.520241737365723,-5.465207099914551,4.977071285247803
1791022299437654500,18.722654541015626,-5.72841739654541,-6.422336101531982,5.601597785949707
1791022299454908200,18.739908203125,-5.819344520568848,-7.17368221282959,6.147161483764648
1791022299472161500,18.75716162109375,-6.120840549468994,-8.094919204711914,6.400800704956055
1791022299489415200,18.774415283203126,-5.855237007141113,-8.997013092041016,6.116054534912109
1791022299506668500,18.79166845703125,-5.558526992797852,-9.497113227844238,5.726024627685547
1791022299523922200,18.808922119140625,-5.694917678833008,-9.521040916442871,5.711667537689209
1791022299541175600,18.826175537109375,-5.735595703125,-9.09272575378418,5.395814895629883
1791022299558429200,18.84342919921875,-5.01296329498291,-8.886942863464355,4.991427898406982
1791022299575682600,18.8606826171875,-4.527220249176025,-8.83669376373291,4.778466701507568
1791022299592936000,18.87793603515625,-4.752145767211914,-9.052047729492188,5.185246467590332
1791022299610189600,18.895189453125,-4.074976921081543,-9.664610862731934,5.85284423828125
1791022299627443000,18.91244287109375,-4.395615100860596,-10.269994735717773,6.400800704956055
1791022299644696600,18.929696533203124,-3.87876558303833,-10.456634521484375,6.45822811126709
1791022299661950200,18.9469501953125,-3.720839262008667,-10.05703353881836,6.293123722076416
1791022299679203600,18.96420361328125,-3.9146578311920166,-9.047262191772461,5.867201328277588
1791022299696457200,18.981457275390625,-4.764110088348389,-8.061419486999512,5.589633464813232
1791022299713710600,18.998710693359374,-4.689932346343994,-7.365108013153076,5.295316696166992
1791022299730964000,19.0159638671875,-2.517249345779419,-7.219145774841309,4.491328239440918
1791022299748217600,19.033217529296873,-2.4646072387695312,-7.676175117492676,3.6299118995666504
1791022299765471000,19.050470947265627,-3.7160534858703613,-8.609375953674316,3.8117663860321045
1791022299782724600,19.067724609375,-4.66361141204834,-9.958928108215332,4.9292144775390625
1791022299799978000,19.08497802734375,-4.687539577484131,-10.526026725769043,5.400600910186768
1791022299817231600,19.102231689453124,-4.7712883949279785,-9.863214492797852,4.986642360687256
1791022299834485000,19.119485107421873,-4.764110088348389,-8.774480819702148,4.177868366241455
1791022299851738600,19.136738525390626,-4.273581027984619,-8.070990562438965,3.7974095344543457
1791022299868992000,19.153991943359376,-3.713660717010498,-8.049455642700195,3.964907169342041
1791022299886245600,19.17124560546875,-2.950350284576416,-8.671588897705078,3.9361932277679443
1791022299903499000,19.1884990234375,-3.22552490234375,-9.509077072143555,3.8811583518981934
1791022299920752600,19.205752685546877,-4.00319242477417,-10.224531173706055,4.185046672821045
1791022299938006000,19.223006103515626,-4.613361835479736,-10.39202880859375,5.13021183013916
1791022299955259400,19.24025927734375,-4.242474555969238,-9.748359680175781,6.063412666320801
1791022299972513000,19.257512939453125,-3.8835511207580566,-8.927620887756348,6.135197162628174
1791022299989766400,19.274766357421875,-4.113262176513672,-8.410771369934082,5.359922885894775
1791022300007020000,19.29202001953125,-4.268795490264893,-8.2695951461792,4.587040901184082
1791022300024273400,19.3092734375,-3.981656789779663,-8.252845764160156,4.053441524505615
1791022300041527000,19.326527099609375,-3.761517286300659,-8.161917686462402,3.814159393310547
1791022300058780400,19.343780517578125,-3.9218363761901855,-8.13798999786377,4.01754903793335
1791022300076034000,19.361033935546875,-3.996013879776001,-8.178668022155762,4.508078098297119
1791022300093287400,19.378287353515624,-4.804787635803223,-8.338987350463867,5.381458282470703
1791022300110541000,19.395541015625,-5.472385406494141,-8.597412109375,5.601597785949707
1791022300127794400,19.41279443359375,-5.989234924316406,-8.46580696105957,5.125426292419434
1791022300145048000,19.430048095703125,-5.848058700561523,-8.11406135559082,4.993820667266846
1791022300162301400,19.447301513671874,-5.697310924530029,-7.659425258636475,5.556134223937988
1791022300179554800,19.464554931640624,-5.948556900024414,-7.341179847717285,6.003592014312744
1791022300196808400,19.481808349609373,-6.38165807723999,-7.267002582550049,6.159125328063965
1791022300214061800,19.499061767578127,-6.075376510620117,-7.427321434020996,6.281159400939941
1791022300231315500,19.5163154296875,-6.020341873168945,-7.417750358581543,6.130411624908447
1791022300248568800,19.53356884765625,-6.745367050170898,-7.2335028648376465,6.254838466644287
1791022300265822200,19.550822265625,-6.273981094360352,-7.066005229949951,6.613761901855469
1791022300283075800,19.568075927734377,-5.764309883117676,-6.7310099601745605,6.4701924324035645
1791022300300329500,19.58532958984375,-4.957928657531738,-6.247660160064697,5.938985824584961
1791022300317582800,19.602582763671876,-5.185246467590332,-5.757131099700928,5.00578498840332
1791022300334836500,19.61983642578125,-5.3934221267700195,-5.271388053894043,4.156332969665527
1791022300352089900,19.63708984375,-5.000999450683594,-4.491328239440918,4.144368648529053
1791022300369343200,19.65434326171875,-5.087141036987305,-3.115455150604248,3.895515203475952
1791022300386596900,19.671596923828126,-4.876572608947754,-1.9908283948898315,4.201796531677246
1791022300403850200,19.688850341796876,-4.412364959716797,-0.8015955686569214,4.828716278076172
1791022300421103900,19.706103759765625,-4.522434711456299,-1.0049854516983032,4.151547431945801
1791022300438357200,19.723357177734375,-4.342973232269287,-1.6079767942428589,4.479363918304443
1791022300455610600,19.740610595703124,-4.357329845428467,-1.5002998113632202,4.450650215148926
1791022300472864300,19.7578642578125,-4.453042984008789,-0.8183453679084778,3.8811583518981934
1791022300490117600,19.77511767578125,-4.433900356292725,-0.17706887423992157,3.78544545173645
1791022300507371300,19.792371337890625,-4.88853645324707,0.040677983313798904,4.070191383361816
1791022300524624600,19.809624755859375,-5.367101192474365,-0.3613162338733673,4.201796531677246
1791022300541878300,19.826878173828124,-6.034698486328125,-0.9619147181510925,3.9290146827697754
1791022300559131600,19.844131591796874,-6.374479293823242,-1.6845471858978271,4.366901397705078
1791022300576385300,19.86138525390625,-5.970092296600342,-2.148754835128784,4.297509670257568
1791022300593638700,19.878638671875,-5.79063081741333,-2.4837498664855957,3.792623996734619
1791022300610892300,19.895892333984374,-9.016156196594238,-2.8809585571289062,4.503292083740234
1791022300628145700,19.913145751953124,-9.265008926391602,-3.7399818897247314,6.798008918762207
1791022300645399300,19.9303994140625,-5.647061347961426,-3.5509488582611084,6.151947021484375
1791022300662652700,19.947652587890627,-3.0939197540283203,-2.1846470832824707,4.527220249176025
1791022300679906000,19.964906005859376,-3.7902309894561768,-0.8614161610603333,2.2851455211639404
1791022300697159700,19.98215966796875,-7.214360237121582,-0.18903298676013947,1.062413215637207
1791022300714413000,19.9994130859375,-6.1399827003479,-1.2370892763137817,2.9479575157165527
1791022300731666700,20.016666748046877,-2.4909284114837646,-2.201396942138672,4.4410786628723145
1791022300748920000,20.033920166015626,-3.2279176712036133,-2.531606435775757,5.450850009918213
1791022300766173400,20.05117333984375,-11.578868865966797,-4.962714195251465,9.408578872680664
1791022300783427000,20.068427001953125,-6.759724140167236,-7.829315662384033,8.513663291931152
1791022300800680400,20.085680419921875,-0.05503492057323456,-7.319644451141357,4.656432628631592
1791022300817934000,20.10293408203125,-0.4498506486415863,-6.570691108703613,3.696911096572876
1791022300835187500,20.1201875,-8.484949111938477,-6.38883638381958,3.2135608196258545
1791022300852441000,20.137441162109376,-7.802994728088379,-5.788238048553467,2.9479575157165527
1791022300869694500,20.154694580078125,-1.2634103298187256,-4.311866283416748,2.3018953800201416
1791022300886948000,20.171947998046875,-0.44745782017707825,-2.1655044555664062,2.5124638080596924
1791022300904201500,20.189201416015624,-4.945964336395264,-1.4428720474243164,5.383851051330566
1791022300921455000,20.206455078125,-4.773681163787842,-2.912065267562866,7.314858913421631
1791022300938708500,20.22370849609375,-5.752345561981201,-6.63769006729126,9.145368576049805
1791022300955961900,20.2409619140625,-2.8833513259887695,-11.887542724609375,10.74138069152832
1791022300973215500,20.258215576171875,-8.360522270202637,-18.05624008178711,11.47119140625
1791022300990468900,20.27546875,-5.312066078186035,-19.448862075805664,7.066005229949951
1791022301007722500,20.292722412109374,-6.807580471038818,-15.481562614440918,4.350151538848877
1791022301024976000,20.309975830078123,-5.149354457855225,-9.604789733886719,2.1607189178466797
1791022301042229500,20.3272294921875,-2.8594231605529785,-5.97727108001709,0.8781659007072449
1791022301059483000,20.34448291015625,-3.6323046684265137,-4.278367042541504,0.5623133182525635
1791022301076736300,20.361736328125,-9.504291534423828,-5.158925533294678,0.38285163044929504
1791022301093990000,20.378989990234373,-6.967899322509766,-9.126225471496582,3.8356947898864746
1791022301111243300,20.3962431640625,-2.297109842300415,-16.37887191772461,9.762716293334961
1791022301128497000,20.413496826171876,-3.579662561416626,-22.420747756958008,12.648460388183594
1791022301145750300,20.430750244140626,-6.161518096923828,-16.165910720825195,7.2095746994018555
1791022301163003600,20.448003662109375,-4.579862594604492,-8.056633949279785,3.34995174407959
1791022301180257300,20.46525732421875,-3.2997024059295654,-2.60339093208313,2.715853691101074
1791022301197510700,20.4825107421875,-2.0003998279571533,0.1052841991186142,2.9455647468566895
1791022301214764300,20.499764404296876,-1.1892328262329102,-0.2273181527853012,2.1439690589904785
1791022301232017700,20.517017578125,-1.3256237506866455,-3.153740167617798,2.1367905139923096
1791022301249271300,20.534271240234375,-2.0027925968170166,-6.764509677886963,3.2063822746276855
1791022301266524700,20.551524658203125,-3.88594388961792,-10.557133674621582,4.122833251953125
1791022301283778000,20.568778076171874,-5.405386447906494,-13.502697944641113,4.610969066619873
1791022301301031700,20.58603173828125,-5.481956481933594,-14.057832717895508,4.728217601776123
1791022301318285300,20.603285400390625,-4.60139799118042,-12.722638130187988,4.59421968460083
1791022301335538700,20.62053857421875,-4.00319242477417,-11.085947036743164,5.084748268127441
1791022301352792000,20.6377919921875,-4.615755081176758,-9.200403213500977,4.919643402099609
1791022301370045700,20.655045654296874,-5.986842155456543,-8.331808090209961,5.630311489105225
1791022301387299000,20.672299072265623,-6.4510498046875,-8.796015739440918,7.207181930541992
1791022301404552700,20.689552734375,-4.319045066833496,-9.159725189208984,8.563912391662598
1791022301421806000,20.70680615234375,-2.342573404312134,-9.049654960632324,8.228917121887207
1791022301439059700,20.724059814453124,-2.792423963546753,-8.274380683898926,6.175875186920166
1791022301456313000,20.74131298828125,-3.1178479194641113,-7.326822757720947,4.898108005523682
1791022301473566500,20.75856640625,-2.9383862018585205,-6.843472957611084,4.780859470367432
1791022301490820000,20.775820068359376,-2.991028308868408,-6.570691108703613,4.807180881500244
1791022301508073500,20.793073486328126,-3.0795626640319824,-6.204588890075684,4.685146808624268
1791022301525327000,20.8103271484375,-3.3164522647857666,-5.934200286865234,5.3455657958984375
1791022301542580500,20.82758056640625,-5.048855781555176,-6.094519138336182,6.321837425231934
1791022301559833900,20.844833740234375,-5.278566837310791,-6.386443614959717,7.467999458312988
1791022301577087500,20.86208740234375,-5.096712112426758,-6.714260101318359,8.200202941894531
1791022301594340900,20.8793408203125,-6.400800704956055,-7.039684295654297,8.831908226013184
1791022301611594500,20.896594482421875,-6.350551128387451,-7.659425258636475,9.403793334960938
1791022301628847900,20.913847900390625,-4.761716842651367,-8.166703224182129,9.008976936340332
1791022301646101500,20.9311015625,-4.826323509216309,-7.585247993469238,8.173882484436035
1791022301663355000,20.94835498046875,-5.637490272521973,-6.750152587890625,7.518248558044434
1791022301680608300,20.965608154296874,-5.5728840827941895,-6.546762943267822,6.640082836151123
1791022301697862000,20.98286181640625,-4.383651256561279,-6.175875186920166,5.508277893066406
1791022301715115300,21.000115234375,-4.835894584655762,-5.422136306762695,4.804787635803223
1791022301732369000,21.017368896484374,-5.249852657318115,-4.5822553634643555,4.486542224884033
1791022301749622300,21.034622314453124,-5.108676433563232,-4.051048755645752,4.067798614501953
1791022301766875600,21.051875732421873,-4.783252239227295,-3.6849467754364014,4.058227062225342
1791022301784129300,21.06912939453125,-5.78345251083374,-3.8500516414642334,4.685146808624268
1791022301801382700,21.086382568359376,-4.742574691772461,-3.507878065109253,4.88853645324707
1791022301818636300,21.10363623046875,-5.338387489318848,-3.177668571472168,5.395814895629883
1791022301835889700,21.1208896484375,-4.701896667480469,-3.0340991020202637,5.134997367858887
1791022301853143000,21.13814306640625,-3.933800458908081,-2.6321048736572266,5.166104316711426
1791022301870396700,21.155396728515626,-4.967499732971191,-2.227717876434326,4.945964336395264
1791022301887650000,21.172650146484376,-5.2977094650268555,-1.5122638940811157,4.180261135101318
1791022301904903700,21.189903564453125,-5.312066078186035,-0.45942193269729614,4.177868366241455
1791022301922157000,21.207156982421875,-5.6207404136657715,0.17946170270442963,3.840480327606201
1791022301939410400,21.224410400390624,-5.840879917144775,-0.18424734473228455,3.838087558746338
1791022301956664000,21.2416640625,-6.690331935882568,-1.0289137363433838,4.7234320640563965
1791022301973917400,21.25891748046875,-5.312066078186035,-1.7611174583435059,5.450850009918213
1791022301991171000,21.276171142578125,-5.565705299377441,-1.31365966796875,5.838487148284912
1791022302008424400,21.293424560546875,-5.151747226715088,-0.30628129839897156,5.343173027038574
1791022302025677800,21.310677734375,-3.9385859966278076,0.08135596662759781,3.840480327606201
1791022302042931500,21.327931396484374,-4.350151538848877,-0.040677983313798904,3.9672999382019043
1791022302060184800,21.345184814453123,-4.304687976837158,-0.6699903607368469,4.5822553634643555
1791022302077438500,21.3624384765625,-5.151747226715088,-1.423729419708252,4.910071849822998
1791022302094691800,21.37969189453125,-5.20678186416626,-1.9932212829589844,5.568098068237305
1791022302111945200,21.3969453125,-4.527220249176025,-2.400001049041748,5.702096462249756
1791022302129198800,21.41419873046875,-5.86002254486084,-2.5220351219177246,6.017949104309082
1791022302146452200,21.4314521484375,-5.431707382202148,-2.761317253112793,6.190232276916504
1791022302163705900,21.448705810546876,-5.26899528503418,-3.0580272674560547,6.290730953216553
1791022302180959200,21.465959228515626,-4.874179840087891,-3.5581271648406982,5.8337016105651855
1791022302198212600,21.483212646484375,-5.008177757263184,-4.1419758796691895,5.493920803070068
1791022302215466200,21.50046630859375,-5.101497650146484,-4.804787635803223,5.431707382202148
1791022302232719600,21.5177197265625,-5.711667537689209,-5.357530117034912,5.795416355133057
1791022302249973200,21.53497314453125,-5.352744102478027,-5.675775527954102,5.766702651977539
1791022302267226600,21.5522265625,-5.032105922698975,-5.836094379425049,5.6590256690979
1791022302284480000,21.56947998046875,-5.460421085357666,-5.972485542297363,6.013163089752197
1791022302301733600,21.586733642578125,-5.434100151062012,-6.2189459800720215,6.262016773223877
1791022302318987000,21.603987060546874,-4.735395908355713,-6.687939167022705,6.120840549468994
1791022302336240600,21.62124072265625,-4.895715236663818,-7.336394309997559,6.3122663497924805
1791022302353494000,21.638493896484373,-4.362115859985352,-7.755138397216797,6.38165807723999
1791022302370747600,21.65574755859375,-4.110869407653809,-7.8388872146606445,6.355337142944336
1791022302388001000,21.6730009765625,-4.41475772857666,-7.843672752380371,6.446264266967773
1791022302405254400,21.69025439453125,-4.213760852813721,-7.9657063484191895,6.2668023109436035
1791022302422508000,21.707508056640624,-4.012763500213623,-8.209774017333984,6.317051887512207
1791022302439761400,21.724761474609377,-3.814159393310547,-8.518448829650879,6.20219612121582
1791022302457015000,21.74201513671875,-3.814159393310547,-9.061619758605957,6.185446739196777
1791022302474268400,21.759268310546876,-4.194618225097656,-9.7005033493042,6.317051887512207
1791022302491521800,21.776521728515625,-4.1730828285217285,-10.262816429138184,6.69990348815918
1791022302508775400,21.793775390625,-4.362115859985352,-10.248459815979004,6.9583282470703125
1791022302526028800,21.81102880859375,-4.457828521728516,-9.55214786529541,7.063612461090088
1791022302543282400,21.828282470703126,-4.366901397705078,-8.652446746826172,6.4079790115356445
1791022302560535800,21.845535888671876,-3.565305709838867,-7.824530124664307,5.85284423828125
1791022302577789200,21.8627890625,-3.5988051891326904,-7.22871732711792,5.730810165405273
1791022302595042800,21.880042724609375,-4.082155227661133,-7.245467185974121,6.300302028656006
1791022302612296200,21.897296142578124,-4.182653903961182,-7.8317084312438965,6.750152587890625
1791022302629549800,21.9145498046875,-3.8811583518981934,-8.62612533569336,6.479763507843018
1791022302646803200,21.93180322265625,-3.7902309894561768,-9.17886734008789,5.718846321105957
1791022302664056600,21.949056640625,-3.8261234760284424,-9.272188186645508,4.620540618896484
1791022302681310200,21.966310302734374,-3.9218363761901855,-8.846264839172363,3.81655216217041
