time,seconds_elapsed,z,y,x
1791041423563004000,0.05500390625,-0.6413040996164083,-0.13869140846207736,1.0726346385844052
1791041423573033000,0.065032958984375,-0.7647738274186849,-0.3516508530534804,1.23076856027171
1791041423583062000,0.07506201171875,-1.0471212810128927,-0.2209275008611381,1.1653353533092885
1791041423593091800,0.085091796875,-1.4795692797034978,0.03656564359217882,1.6411659090653061
1791041423603121200,0.09512109375,-1.7684838367283344,0.05089095993414521,1.7552888395905493
1791041423613150000,0.10514990234375,-1.7081641003221273,-0.1389300395235419,1.7832620114043354
1791041423623180000,0.115179931640625,-1.222520518016815,-0.3189683345049619,1.9360884743332862
1791041423633209000,0.125208984375,-0.9127835377156734,-0.15355740755200384,2.587883572825789
1791041423643238100,0.135238037109375,-0.7582055549442768,0.17197174677327273,3.321090587852895
1791041423653268000,0.14526806640625,-0.5883668746769428,-0.3017116408862173,2.5979566385507584
1791041423663297000,0.155297119140625,-0.18373744176030157,-0.6605296090900897,1.8840302241854368
1791041423673326000,0.165326171875,0.367861252489686,-1.2595428193353115,1.8955546577624975
1791041423683356200,0.175356201171875,0.2471966452360153,-1.936449854991585,2.5386755975425244
1791041423693385000,0.185385009765625,0.005225041171908378,-1.8337598803676665,3.2425261697039005
1791041423703414000,0.1954140625,-0.32727789768874643,-1.3646983072899281,2.7163296277359126
1791041423713444000,0.205444091796875,-1.2587602906554936,-0.9274459770575165,1.3051606611721216
1791041423723473200,0.21547314453125,-2.357787115472555,-0.6780148507677018,0.3979182448402047
1791041423733502000,0.225501953125,-2.643162976977229,-0.39962008032202717,0.015377894134819506
1791041423743532000,0.235531982421875,-3.0262738210469484,-0.35804990644082424,-0.32651071270853277
1791041423753561000,0.24556103515625,-4.232494946169853,-1.1604309954591094,-0.12040858666598796
1791041423763590000,0.25558984375,-5.4397313858151435,-1.2265474354453385,0.6583049187779426
1791041423773620000,0.265619873046875,-6.90350629953742,-0.5432109512634575,0.8336129703670739
1791041423783649000,0.27564892578125,-6.8802306378901,-0.5082791924834251,0.7821563393741846
1791041423793678000,0.285677978515625,-6.340813964343071,-1.264121525427699,1.2410780651010571
1791041423803708200,0.295708251953125,-3.519839428523183,-2.4466367807924745,2.7446625727728007
1791041423813737000,0.305737060546875,0.045936406266689295,-3.331882030980289,3.460681137111783
1791041423823766000,0.31576611328125,1.3853899437934158,-3.912084596163034,2.2977163853913543
1791041423833796000,0.325796142578125,2.237570836508274,-3.324828313076496,0.9024231794819235
1791041423843825000,0.335824951171875,2.208922249650955,-1.8309560749933123,-0.11583484900966286
1791041423853854000,0.34585400390625,1.4944851092845202,-0.9501104480039327,-0.11780541843026876
1791041423863884000,0.355884033203125,1.0543582465291024,-1.0126106702543793,0.6926501829069107
1791041423873913000,0.3659130859375,0.33158699305951594,-1.3317692666344343,1.635369790007174
1791041423883942000,0.37594189453125,-1.001515714135766,-1.1190198845971375,2.173175813487172
1791041423893972000,0.385971923828125,-3.0008062023133037,-0.8603529471240937,2.795865813526511
1791041423904001000,0.3960009765625,-7.021648694837093,-0.0207535958237946,6.811185743236542
1791041423914030000,0.406030029296875,-4.951757314735651,-1.195544394416362,3.3346129172489043
1791041423924060000,0.416059814453125,-4.525947146624326,-1.7332164162531494,-0.9184992850139737
1791041423934089000,0.4260888671875,-4.980540926149487,-1.579049936892092,-0.3134405109941959
1791041423944118000,0.436117919921875,-2.8216268622487783,-2.4773662655770776,-0.5670248114407063
1791041423954148000,0.446148193359375,1.7292226704418658,-3.844120190222561,-1.4753808881029487
1791041423964177000,0.456177001953125,5.902636482089758,-4.882041096691787,-2.9497096368044615
1791041423974206000,0.4662060546875,7.610255808010697,-4.881937344056367,-4.340401194137335
1791041423984236000,0.476236083984375,7.429305366620421,-3.174124541389942,-5.580680656206607
1791041423994264800,0.486264892578125,6.64867170676887,-1.5703905373573301,-5.673650031805038
1791041424004294000,0.4962939453125,5.949298280021548,-0.7484855404406785,-4.84661965469867
1791041424014324000,0.506323974609375,3.2920775515973566,-0.8846522527307271,-5.8820110426902765
1791041424024353000,0.51635302734375,3.070257339680195,-1.7957891922831535,-4.186623714093864
1791041424034381800,0.5263818359375,2.769688000696897,-1.6126777734667062,-3.3819989378020163
1791041424044412000,0.536411865234375,1.7241460978299379,-0.6619137569248675,-3.5630072468593714
1791041424054441000,0.54644091796875,0.3738531863808632,-0.28504268402755256,-3.5240713670045136
1791041424064470000,0.556469970703125,-0.2907891187250614,-0.43396015681922434,-3.5802158635526893
1791041424074499800,0.566499755859375,-0.2614092949837446,-0.2667974177628755,-3.6902865960776805
1791041424084529000,0.57652880859375,0.48400107579529283,0.1957885295599699,-4.046618154293299
1791041424094558000,0.586557861328125,1.7076152342677116,0.6533136863619089,-4.808747604683041
1791041424104588000,0.596588134765625,2.7706261583298444,1.0506693288832902,-5.618794406023621
1791041424114616800,0.606616943359375,3.2912907851338384,1.0348626879423857,-5.604126998245715
1791041424124646000,0.61664599609375,2.822735115751624,1.1195341907948255,-4.876560327193141
1791041424134676000,0.626676025390625,2.060177210816741,1.578684902971983,-3.8974733024865387
1791041424144705000,0.636705078125,1.7973507425114512,2.321027118352055,-2.8643425529032944
1791041424154733800,0.64673388671875,1.7952482172742485,3.0301895331859585,-2.467331778296828
1791041424164764000,0.656763916015625,1.7725550316900014,3.023274639230966,-2.61792741343379
1791041424174793000,0.66679296875,1.2881161489993334,2.2948212484717367,-3.0862369991004464
1791041424184823000,0.676822998046875,0.3098994773864746,1.5065285982996224,-3.712292676180601
1791041424194851800,0.686851806640625,-0.3934457756012678,1.3672797020852565,-3.9861335827141997
1791041424204881000,0.696880859375,-0.5235147555381059,1.2393231842577457,-3.8663919355243443
1791041424214911000,0.706910888671875,-0.05711421836316585,1.205340250635147,-3.234117530059814
1791041424224940000,0.71693994140625,0.9483096091270447,1.733539949119091,-2.2406261324256658
1791041424234968800,0.72696875,2.130612829176336,2.549101714488864,-1.3816075026452541
1791041424244999000,0.7369990234375,2.8402783712267876,3.044581046631932,-0.22038462615609167
1791041424255028000,0.747028076171875,3.5960347794532774,2.9053187064141035,1.0392349116772412
1791041424265056800,0.757056884765625,3.4210037912398574,2.4726784000217914,1.4895587587982415
1791041424275086800,0.7670869140625,2.170322762143612,2.2691168983727694,1.9682102902591228
1791041424285116000,0.777115966796875,3.433557567864656,2.1267221053481102,4.185980447754264
1791041424295145000,0.78714501953125,5.700201354122162,1.785398146650195,6.7798980400472875
1791041424305175000,0.797175048828125,4.833502691233158,1.735466533267498,6.97284637774527
1791041424315203800,0.807203857421875,3.7287335233718153,2.2995105753317473,6.267458220753073
1791041424325233000,0.81723291015625,3.843658125668764,2.895908196251094,5.505893418508768
1791041424335263000,0.827262939453125,3.8850755932062864,3.393979006192088,4.117046027737856
1791041424345291800,0.837291748046875,3.4007331566274166,4.263553809039294,3.0252742886155843
1791041424355320800,0.84732080078125,4.0320974615097045,3.750798932446539,2.4210475815057753
1791041424365351000,0.857350830078125,6.265362125256657,2.684978211660683,2.797231256660819
1791041424375380000,0.8673798828125,7.749877044668793,2.4333967754691836,2.740755336201191
1791041424385408800,0.87740869140625,6.789788150420785,1.9242592125907538,3.6823458662062882
1791041424395438800,0.88743896484375,2.5348598386466503,-2.088077901916206,-0.558938535618782
1791041424405468000,0.897468017578125,-5.717890155547857,-7.036243037378788,-6.197254219192266
1791041424415497000,0.9074970703125,-14.795141008371115,-8.617649474269152,-10.4395212023139
1791041424425526800,0.91752685546875,-14.643250657248496,-5.660873552340269,-7.71222857427597
1791041424435555800,0.927555908203125,-7.545166957506537,-1.0404714677348732,-1.873001026779413
1791041424445586000,0.9375859375,-1.2535592148810624,1.6856994627967476,2.1459172196835277
1791041424455615000,0.947614990234375,1.394971280478686,3.8071269688680767,4.480383665323258
1791041424465643800,0.957643798828125,2.8786060560554265,5.6234547990500925,5.11882653028965
1791041424475673900,0.967673828125,4.289236239567399,4.934016490861773,4.840557870441675
1791041424485703000,0.977702880859375,5.486434684801101,2.612856101518869,4.927226684591174
1791041424495732000,0.98773193359375,6.557600273746251,-0.8590601308345794,4.7899382747948165
1791041424505761800,0.99776171875,3.6879368180811403,-1.2464929297566414,4.73148316321671
1791041424515790800,1.007790771484375,-0.40495442708730695,-1.4958710106849669,3.1989713978767393
1791041424525820000,1.01781982421875,-0.9541939909905195,-4.009822501337528,-5.344093083268404
1791041424535850000,1.02785009765625,-0.8257382914692163,-1.3851876992195844,-11.347187835407256
1791041424545878800,1.037878662109375,-1.1352753652840852,0.19416940392553805,-8.512979724004865
1791041424555907800,1.047907958984375,-2.028633633170277,0.4058452384471893,-4.103279952713847
1791041424565938000,1.05793798828125,-2.495620591931045,-0.49619069528281684,-2.101815627628565
1791041424575967000,1.067967041015625,-1.3884008160471915,-0.6917769802689552,-0.375256038916111
1791041424585996000,1.07799609375,0.18011632865369318,-0.5012099847495556,1.2577280249983072
1791041424596025900,1.08802587890625,1.3624915910258888,-2.0481781454652546,2.1108020671606065
1791041424606055000,1.098054931640625,1.2320903103947638,-4.656913367661834,2.4803730461776254
1791041424616085000,1.1080849609375,0.5412824674189091,-6.355808119857311,2.246024776598811
1791041424626113800,1.11811376953125,-0.8636763924583792,-6.20075375174582,-0.06464461386799812
1791041424636142800,1.128142822265625,-2.0868748097367584,-5.0796068650573485,-0.3440127593904733
1791041424646173000,1.1381728515625,-1.5645213530629873,-4.7520460587739946,-0.26609599149525165
1791041424656202000,1.148201904296875,-0.3369251392170787,-3.9563124449461697,0.3919564138263464
1791041424666231000,1.15823095703125,-0.06606178718954324,-3.4343063404053447,1.0123176786571741
1791041424676260900,1.1682607421875,-0.0009703063368797302,-4.604865785038471,0.6774328130960464
1791041424686290000,1.1782900390625,0.8471902448207139,-4.025491195112466,1.0440279911726713
1791041424696319000,1.188319091796875,0.7979192873038351,-3.1803356709897517,0.4620540324032306
1791041424706348800,1.198348876953125,-0.30994287813678384,-1.1060580386281014,0.782765411183238
1791041424716377900,1.2083779296875,-0.7078460715383291,1.752232959151268,1.607851376223564
1791041424726407200,1.2184072265625,-0.3173486243486404,2.5217542733579874,1.8021417761802672
1791041424736436700,1.228436767578125,-0.6256267841435968,5.123701442849636,0.41237317891120906
1791041424746466000,1.238466064453125,0.6216700093418359,8.533425715184212,-1.3540928882539272
1791041424756495000,1.2484951171875,2.1009392831854523,5.415705782583355,-0.0753290894895792
1791041424766525000,1.25852490234375,0.5038606453888118,3.9307641621917484,2.61395500267148
1791041424776554000,1.268553955078125,0.33120047795996066,-0.16429799727499483,1.7701041314065455
1791041424786583800,1.278583740234375,0.1829828240007162,-3.7536756569266316,-2.5068974804878232
1791041424796612900,1.28861279296875,-1.4789925027288495,-5.672902428308129,-2.8666794714182613
1791041424806642200,1.29864208984375,0.653412470561266,-5.529878105208278,-1.8303899655431508
1791041424816671700,1.308671630859375,3.1898855896234513,-3.144942286047339,-0.018356909945607184
1791041424826700800,1.31870068359375,2.332927253373712,1.5705974581062794,1.3714075956702232
1791041424836730000,1.328730224609375,0.5768126304835081,3.0905677217811345,2.9653344914376736
1791041424846760000,1.338760009765625,0.16965762461200357,2.597977681338787,1.3640174854189158
1791041424856789000,1.3487890625,-0.3494483015079051,1.8514415214002131,-1.0592968719750642
1791041424866818000,1.358818115234375,-1.3738381838180125,3.8076685283988714,-0.8978378975182771
1791041424876847900,1.368847900390625,-3.841149942240119,6.387874990725517,-0.2022574333131313
1791041424886877200,1.378877197265625,-2.362729248049855,0.4074252011150121,0.33299276820421214
1791041424896906000,1.388906005859375,-1.1194275155499578,1.2405541873574255,2.051477187010646
1791041424906935800,1.398935791015625,1.5814910464338958,2.43047591958642,-1.4679998379409311
1791041424916965000,1.408965087890625,1.7673814284443854,2.6429250765681265,-1.281727324745059
1791041424926995000,1.418994873046875,1.189558744135499,1.9211761518836021,-1.4063988295525311
1791041424937024000,1.42902392578125,0.5774760628283023,0.42168636617958544,-0.9581395137459039
1791041424947053000,1.439052978515625,-0.5649842455238103,-1.0388087952196599,-0.03926701150536537
1791041424957083000,1.449082763671875,-0.6902393954381346,-1.1608218944728375,0.07902852852940559
1791041424967112200,1.4591123046875,1.358009769436717,1.229719489610195,-0.5387333674579858
1791041424977141000,1.46914111328125,2.653305016285181,3.0315140597879884,-0.9015022652447223
1791041424987170800,1.4791708984375,2.1049784755736587,2.6542630476623774,-0.2526566642075777
1791041424997200100,1.4892001953125,0.8937380609840154,1.680355471420288,0.5080933145225047
1791041425007229000,1.49922900390625,-0.15233020384460685,0.8193892147034406,0.4182359334647655
1791041425017259000,1.509259033203125,-1.0814821080371737,-0.3226122439652681,0.7472621361255646
1791041425027288000,1.5192880859375,-1.3468489084750412,-0.47364159434437747,0.7111480356931686
1791041425037317000,1.529317138671875,-0.37226445588469503,-0.08858429238200187,0.1883241850286722
1791041425047347000,1.539346923828125,0.7445899943068623,-0.38531799872517586,-0.0920470000565052
1791041425057376000,1.5493759765625,0.6504144577890634,-0.7764438069462776,-0.25744623657166954
1791041425067405800,1.55940576171875,-0.25787293755114077,-1.2642828534692525,0.14925123479068278
1791041425077435100,1.56943505859375,-0.9365317853108048,-0.40674949381053443,0.12260872705876827
1791041425087464000,1.5794638671875,-0.8414069852441549,1.8298481137514113,0.628233021119237
1791041425097493800,1.58949365234375,-0.8412190614566206,4.439350813189149,2.642882990992069
1791041425107523000,1.599523193359375,-3.783970841947198,12.234038474965095,7.252031567916274
1791041425117552000,1.60955224609375,-9.1016020347476,11.700497415453196,7.768334492379426
1791041425127582000,1.61958203125,-0.4041594773173332,-6.318277138364315,2.5435353125333786
1791041425137611000,1.629611083984375,8.486692021059989,-8.995635230410098,-0.4389595725417137
1791041425147640000,1.63964013671875,6.075338735094666,-0.202384859085083,-0.8999030133545398
1791041425157670100,1.649670166015625,0.30657530139982697,1.256745443701744,-1.077179150146246
1791041425167699000,1.659698974609375,-1.5551061667248607,2.097603562891483,-0.9277057970374822
1791041425177728800,1.669728759765625,-1.6139850566729903,-0.7398410462141036,-1.7858894372984766
1791041425187758000,1.679758056640625,-0.19601970796734094,-2.637579039365053,-1.6129463612750172
1791041425197787100,1.689787109375,1.4520458974838255,-3.3562101242899893,0.3925951501213014
1791041425207817000,1.69981689453125,0.661569765792787,-1.3498492593348026,-1.6577033484987913
1791041425217846000,1.709845947265625,-2.157914531469345,-2.0264713405698536,-2.538711253377795
1791041425227875000,1.719875,-1.3471838395178317,-3.197446380266547,-0.8431570437818765
1791041425237905200,1.7299052734375,-0.5063607916414737,-4.359458945828676,0.640012306240201
1791041425247934000,1.739933837890625,-0.3072922174975276,-6.001481471723317,0.7356339499130845
1791041425257963800,1.7499638671875,-0.22142127572745082,-5.601242967242002,-0.10565189316943287
1791041425267993000,1.7599931640625,0.4964467158704996,-5.130533919218182,0.2797464773155749
1791041425278022100,1.770022216796875,1.1491940005213022,-3.6797324688374995,1.9354948923543094
1791041425288052000,1.780052001953125,0.41069121717363594,-1.7472399731695651,2.2861647715464235
1791041425298081000,1.7900810546875,-0.18798896172493695,-1.5316121861517429,1.8556113544307649
1791041425308110000,1.800110107421875,0.15983897203952074,-2.5355402221262455,2.0862423570521176
1791041425318140000,1.810139892578125,0.3001651420965791,-2.1976544211834668,1.4802058240413665
1791041425328169000,1.8201689453125,0.2956666616335511,-1.3793699528515337,0.8025083686597645
1791041425338198500,1.830198486328125,0.3817459854573011,-1.4190946449965238,0.48919952122122046
1791041425348228000,1.84022802734375,0.7068348486691713,-1.1910615499138832,0.07307780343145132
1791041425358257400,1.85025732421875,0.8191811249107122,0.2848807714641094,-0.13353782509118317
1791041425368287200,1.860287353515625,0.0020446575701236723,3.1343595172345635,-0.4136544508934021
1791041425378316300,1.87031640625,0.2759130366325378,5.047176421573758,-1.2722788206592202
1791041425388345300,1.880345458984375,0.9013865299105643,5.5870437614977355,-2.962093609820306
1791041425398375200,1.890375244140625,0.6025064591884612,4.341836779898405,-3.7657089168086646
1791041425417806300,1.909806396484375,-0.27143589121848344,-1.206560147818923,-2.6131036465391517
1791041425427835100,1.919835205078125,-0.2849637735724449,-0.8661246623933315,-0.38151129991859195
1791041425437865200,1.929865234375,0.37028614154905076,-0.6170230603188276,1.5378534186288713
1791041425447894300,1.939894287109375,0.16963906604200601,-0.5942056638330221,1.16904144128561
1791041425457924400,1.94992431640625,-0.39823885509669776,-0.06979366719424725,0.46520460538864133
1791041425467953400,1.959953369140625,-0.5893950486809015,0.26060674642920495,0.546905567997694
1791041425477982200,1.969982177734375,-0.4888020463362336,0.26744331445097924,0.7101487955227493
1791041425488012300,1.98001220703125,-0.18067659288495777,0.16306991678476332,0.6757914756298065
1791041425498041300,1.990041259765625,0.23877046993523834,-0.1770265459448099,0.5830620462670922
1791041425508070100,2.000070068359375,0.461449052247405,-0.35619945626854893,0.22594255254417656
1791041425518100200,2.010100341796875,0.4293322047576308,-0.33134207838773727,0.09920213250815868
1791041425528129300,2.02012939453125,0.255878841124475,-0.2599018130302429,0.4185249795392155
1791041425538159400,2.030159423828125,0.1731818532153964,-0.07040215448141098,0.6559954727917909
1791041425548188400,2.0401884765625,0.1232826807975769,-0.08793255047500133,0.6702528384640812
1791041425558217200,2.05021728515625,0.04667436515241861,-0.024086393508315086,0.5685758402749895
1791041425568247300,2.060247314453125,0.02266279044598341,0.2198036113977432,0.4844403439953923
1791041425578276400,2.0702763671875,0.07493044556081295,-0.28584172545075415,0.8067030438706279
1791041425588305200,2.08030517578125,0.10552198317945002,-0.2505623222768307,0.6115110188990831
1791041425598335200,2.090335205078125,0.16240443861335516,0.0727758978754282,0.24659458768963813
1791041425608364300,2.1003642578125,0.16325521022379397,0.2601817990154028,0.04635287811309099
1791041425618394400,2.110394287109375,0.1531309988334775,0.6720826842397452,-0.21512889758497475
1791041425628423400,2.12042333984375,-0.46980362361669536,0.7737327944219112,-0.2716775910198688
1791041425638452200,2.1304521484375,-4.9159436585545535,1.2062275548636912,0.7004042310997843
1791041425648482300,2.140482421875,3.610513678921759,0.8586597333401441,0.507520190809667
1791041425658511400,2.150511474609375,1.4509177702367304,-0.520972669839859,-0.8459998659923672
1791041425668540200,2.1605400390625,0.607600275196135,-1.9222791446894407,-0.7685822797909379
1791041425678570200,2.1705703125,0.2852472666889429,-1.4536305363267659,-0.09693243401050566
1791041425688599300,2.180599365234375,0.6033715515851974,-0.8552385267198085,-1.2462915619656443
1791041425698629400,2.19062939453125,0.6102732937976718,0.05605214208960533,-1.7983967444330453
1791041425708658200,2.200658203125,0.48402533345371485,0.6827361802011728,-1.3320996676325798
1791041425718687200,2.210687255859375,0.15134674576520918,0.6953402257084846,-0.8428381870910525
1791041425728717300,2.22071728515625,-0.1786278436616063,0.8112953400969505,-0.20648177300989626
1791041425738746400,2.230746337890625,-0.6465016682595014,1.2722767748326063,0.05912263557612896
1791041425748775200,2.240775146484375,-0.7646154219865798,1.4062006766319275,-0.34382366655915975
1791041425758805200,2.25080517578125,-0.5206327703610062,1.3686673570513725,-0.6590934388071298
1791041425768834300,2.260834228515625,-0.6059554305985569,1.3100631923913955,-0.60071840672791
1791041425778864400,2.270864501953125,-0.8494964759364724,0.13044015133678913,0.48422348637431856
1791041425788893200,2.28089306640625,-0.03480915531367063,-0.43646950929164885,0.5433759325668216
1791041425798922200,2.290922119140625,0.5931570315629243,-0.7891098117738962,0.6536182222664356
1791041425808952300,2.300952392578125,0.7361117965579033,-1.4999451282560825,0.7649298947632313
1791041425818981400,2.3109814453125,0.6105220078617334,-1.587590093961358,0.4079287667229771
1791041425829010200,2.32101025390625,0.2344441311687231,-0.4220879327178001,-0.2859010544225573
1791041425839040300,2.331040283203125,-0.07345891170352697,0.10542845967710017,-0.858637521508336
1791041425849069300,2.3410693359375,-0.29244477697759863,0.1626139897108078,-0.8258318149715661
1791041425859099400,2.351099365234375,-0.351911695946753,0.26874796730875966,-0.4196925620138645
1791041425869128200,2.361128173828125,-0.347583019092679,0.10741524958014488,0.24752251618951557
1791041425879157200,2.3711572265625,-0.1133966620773077,0.30439503475129603,0.42594490040689703
1791041425889187300,2.381187255859375,0.41473917739018795,0.6399006625592708,0.47371553636342284
1791041425899216400,2.39121630859375,0.6469441513299942,0.938980055245757,0.40756314828097817
1791041425909246500,2.40124658203125,0.3789011174201965,0.8110644539505243,0.16543050843626259
1791041425919275300,2.411275146484375,-0.18481544625535606,0.12212941910922527,0.26367723991572856
1791041425929304300,2.42130419921875,-0.4116612312495708,-0.4490273775696754,0.5936047753304243
1791041425939334400,2.43133447265625,-0.2798971378326416,-0.4423223269730806,0.9594079262465238
1791041425949363200,2.44136328125,-0.17190496514737605,-0.2347878300398588,0.878760856604576
1791041425959392300,2.451392333984375,-0.0031871056035161016,0.2982850274384022,0.5461085724011063
1791041425969422300,2.46142236328125,0.03208002261072397,0.43946226136684413,-0.39072424168288705
1791041425979451400,2.471451416015625,0.2920204140856862,1.0925713650673627,-1.1215835245400667
1791041425989481500,2.4814814453125,0.25334435421079393,0.94154844442904,-1.116985383094847
1791041425999510300,2.49151025390625,0.13308335932195187,-1.3837404230207204,0.19310791217386722
1791041426009539300,2.501539306640625,-0.41960108433812854,-2.4617326431155204,-0.17329291237443684
1791041426019569400,2.5115693359375,-0.4468611394464969,-1.0233926149010657,-1.5649480540424585
1791041426029598200,2.52159814453125,-0.06144260295629501,0.7224275545984506,-1.8285791167289018
1791041426039628300,2.531628173828125,0.20179332293272018,0.7108207034349441,-0.6578533756181597
1791041426049657300,2.5416572265625,-0.11498685387820005,0.9111831167817115,-0.18443799124509094
1791041426059686400,2.551686279296875,-0.1056076156362891,0.9662591073155402,-0.41062838107049465
1791041426069716500,2.561716552734375,-0.07023147408962249,1.3015385251522062,-1.8281506621837615
1791041426079745300,2.571745361328125,-0.3400280736684799,1.0357201815545558,-1.7077078809872268
1791041426089774300,2.5817744140625,-0.6362161288276315,-0.15154782129526137,0.023902853634953498
1791041426099804400,2.591804443359375,-0.8942086011052132,0.0632470220297575,-0.3296203691616654
1791041426109833200,2.601833251953125,-0.38440935944765803,-1.567248147678375,3.7511359093159435
1791041426119863300,2.61186328125,-0.3348597311198711,-0.5501999333679676,1.2108256963089108
1791041426129892400,2.621892333984375,0.4588613738417625,1.7212328407317399,-3.73027256950736
1791041426139921400,2.63192138671875,0.27006080347299577,0.9494482577681541,0.5559186032757163
1791041426149951200,2.641951171875,-0.20789456241726875,-1.511219970986247,4.334433225643634
1791041426159980300,2.651980224609375,-0.027531857787072657,-2.3122318174779415,1.9950015588119625
1791041426170010400,2.66201025390625,0.29549276637136934,-1.3437345758467911,-1.0892559569090605
1791041426180039400,2.672039306640625,0.1299748719125986,-1.9071300908744333,1.0585992450997233
1791041426190068200,2.682068115234375,0.24665508570522068,-2.0598381881207226,1.8565736235916614
1791041426200098300,2.692098388671875,0.29662849240303035,1.5753677412480116,-1.594221787060797
1791041426210127400,2.70212744140625,0.7167571077466011,-3.749088913658261,4.386180656276643
1791041426220157400,2.712157470703125,0.23638386705964803,-4.549379460138082,1.2254486804232
1791041426230186200,2.722186279296875,-0.1798410188436508,-0.2545943542718887,-1.0274313688978551
1791041426240215300,2.73221533203125,0.07049158633053303,1.7943571136534213,-0.022473405353724954
1791041426250245400,2.742245361328125,0.04968348384052515,1.1677683526098728,0.6740767806664109
1791041426260274400,2.7522744140625,-0.035435470518469805,0.83932725636065,-0.2908411411732435
1791041426270303200,2.76230322265625,-0.7541206237182021,0.6759644941091537,-0.43946839884668587
1791041426280333300,2.772333251953125,-1.0266969171434641,-2.1645698977053165,3.1002544185370207
1791041426290362400,2.7823623046875,0.374248907700181,-0.18051964875757692,3.154849347555637
1791041426300392400,2.792392333984375,1.0575827615335582,0.4059656499564647,1.2171110601887105
1791041426310421200,2.802421142578125,-0.37462738562375303,2.0748925493896007,-0.09366992508322
1791041426320450300,2.8124501953125,-0.20071254195868968,3.5756332119375465,0.3204857533305883
1791041426330480400,2.82248046875,0.06395166316777467,2.627898187828064,-0.018240882350504396
1791041426340509000,2.832509033203125,0.2418506080329418,1.0786609131366014,-0.7610273343667388
1791041426350538800,2.842538818359375,0.4351028971135616,-0.021125790137052534,-1.4479463532105088
1791041426360567800,2.85256787109375,0.29373335548341273,-0.8951438361287116,-1.795596007798612
1791041426370596900,2.862596923828125,-0.2989867459669709,-1.125881513994932,-1.8702584500730037
1791041426380627000,2.872626953125,-0.543615586541593,-0.9572557166486978,-1.9044749001905321
1791041426390655700,2.88265576171875,-0.4577876071304083,-0.02645020003020763,-1.1870093519136309
1791041426400685800,2.892685791015625,-0.5480351565495133,0.6883417451232672,-0.41988866910785433
1791041426410715000,2.90271484375,-0.5040177356466651,0.7707429649561643,-0.17662994784265756
1791041426420744000,2.912743896484375,-0.35701281847804783,0.5561848529964685,-0.17341332388371228
1791041426430773800,2.922773681640625,-0.13993249456435441,0.351133989572525,-0.3780488845050335
1791041426440802800,2.932802734375,0.04230827889740467,0.14051146349608898,-0.6309554318204522
1791041426450833000,2.9428330078125,0.056205286824703216,-0.0338239436686039,-0.844806564554572
1791041426460862000,2.952862060546875,-0.08422083647549151,-0.04778524900376797,-0.913065861788392
1791041426470890800,2.962890869140625,-0.20055998174548148,0.12323591904640196,-0.8831111607685684
1791041426480920800,2.9729208984375,-0.32765871369987726,0.25902912184894084,-0.8031547037392854
1791041426490950000,2.982949951171875,-0.3934180108115077,0.26347674890756606,-0.640881490290165
1791041426500980000,2.99297998046875,-0.3196595316395163,0.15059914226830004,-0.4502984204187989
1791041426511008800,3.0030087890625,-0.1455234464392066,-0.061034022155404086,-0.36376463082581756
1791041426521037800,3.013037841796875,-0.07603811454176902,-0.3154910137832165,-0.41356355773955583
1791041426531068000,3.02306787109375,-0.05453238517642021,-0.41055823844373224,-0.473045674277842
1791041426541097000,3.033096923828125,-0.039731706407666205,-0.2840700396031141,-0.42403234478384255
1791041426551125800,3.043125732421875,-0.04220832565426826,-0.01929331401288509,-0.3278510214015841
1791041426561155800,3.05315576171875,-0.12180413267761468,0.24362112483680246,-0.1984559952035546
1791041426571185000,3.063184814453125,-0.1891390085428953,0.3833586813509464,-0.051748015154898165
1791041426581215000,3.073215087890625,-0.19333704475462435,0.36308220151960846,0.031015023727715012
1791041426591243800,3.083243896484375,-0.22522709775120017,0.22140987755060196,0.0594584434017539
1791041426601272800,3.09327294921875,-0.20979367403686044,0.10716332064568995,0.0019607786789536475
1791041426611303000,3.103302978515625,-0.18165391348451376,0.07754793458282946,-0.05630611685067415
1791041426621332000,3.11333203125,-0.18997516710609197,0.1452852537691593,-0.09815174667239189
1791041426631361800,3.12336181640625,-0.12444850970655678,0.23009645735323428,-0.0910033362224698
1791041426641390800,3.133390869140625,-0.0161298815459013,0.2639665782511234,-0.07179536240547894
1791041426651420000,3.143419921875,0.03049450698494911,0.2348182251781225,-0.0011985621348023414
1791041426661450000,3.153449951171875,0.024972236432135104,0.17165829690992832,0.03818593827039003
1791041426671478800,3.163478759765625,-0.04222293870151043,0.07857435502111912,-0.02438508419394493
1791041426681508900,3.1735087890625,-0.11146773984134196,-0.014268179327249527,-0.09681289928406477
1791041426691538000,3.183537841796875,-0.10557371336668729,-0.12699731740653514,-0.11648030730634927
1791041426701567000,3.19356689453125,-0.1318725222274661,-0.22598960655629632,-0.05786211412101984
1791041426711596800,3.2035966796875,-0.17633125715702772,-0.24655250211358068,0.01083908166140318
1791041426721625900,3.2136259765625,-0.15725217041671274,-0.12665244949162005,0.07814093203991651
1791041426731656000,3.223656005859375,-0.23015724762976167,0.0018920973569154739,0.056386780871450895
1791041426741685000,3.23368505859375,-0.32459231186658144,0.0652466714143753,0.0477922632664442
1791041426751713800,3.2437138671875,-0.3193085262447595,0.07093640748858451,-0.0022121230915188787
1791041426761744000,3.253743896484375,-0.27335663014799355,0.05527005180120468,-0.10432868174165487
1791041426771773000,3.26377294921875,-0.2190022318869829,0.026520342656970022,-0.09957301164716481
1791041426781803000,3.273802978515625,-0.11872750171124935,0.02555237440764904,-0.013960720813274383
1791041426791831800,3.283831787109375,0.029450843150913713,0.011416881549358368,0.09619856677800416
1791041426801860900,3.29386083984375,0.0852799901396036,-0.0453524688988924,0.2243719422265887
1791041426811891000,3.303890869140625,0.2250873970195651,-0.10520400327146052,0.3972863766774535
1791041426821920000,3.313919921875,0.45810295668989415,-0.205935829564929,0.42376930993348355
1791041426831949800,3.32394970703125,0.6326043680712581,-0.2717319515556097,0.373437591317296
1791041426841979000,3.333978759765625,0.8002683346480131,-0.3522989416986704,0.2814288774445653
1791041426852008700,3.3440087890625,0.852346896931529,-0.5074854117572307,0.12412234649211168
1791041426862038000,3.3540380859375,1.0246049133002757,-0.6631915217757225,0.09890081147402524
1791041426872066800,3.36406689453125,1.0801000060290098,-0.7964818018466234,-0.1288446988388896
1791041426882096600,3.3740966796875,1.2589675036653876,-0.8743658365160226,-0.3526940784960985
1791041426892126000,3.3841259765625,1.229449148236215,-0.9745090492665767,-0.6756073512345552
1791041426902155800,3.39415576171875,1.2252332841068505,-0.9337988532155752,-0.7629080335468054
1791041426912184800,3.404184814453125,1.0591676926374434,-0.724746937456727,-0.5142223187968135
1791041426922214000,3.4142138671875,0.5092775558710098,-0.6396078170925379,-0.16420476603358983
1791041426932243700,3.42424365234375,0.12516425676047802,-0.6661591394096612,0.08060644537061452
1791041426942273000,3.43427294921875,0.47597091407477854,-0.9439864852309227,0.12760755825936793
1791041426952302800,3.444302734375,0.6917310953006148,-1.4371739070445297,-0.3168590872660279
1791041426962331600,3.45433154296875,0.9494023727998137,-1.5999275974869727,-0.6003560031563043
1791041426972361000,3.46436083984375,1.0395146054014563,-1.9026666817247866,-1.3373767312526703
1791041426982390800,3.474390869140625,0.8062728357598185,-2.178804174762964,-2.005742440795898
1791041426992419800,3.484419921875,0.9224024299323558,-2.170063234424591,-2.268565694230795
1791041427002449700,3.49444970703125,1.2045870941802859,-2.084811885857582,-2.361880814526975
1791041427012478700,3.504478759765625,1.3591294211164116,-1.9400287363916635,-2.087663183635473
1791041427022508000,3.514508056640625,1.269049044957757,-1.7885551493763923,-1.601519835114479
1791041427032537900,3.524537841796875,1.1144634634017945,-1.7849270220071076,-1.065233860808611
1791041427042566700,3.534566650390625,0.969047861251235,-1.9110738600641488,-0.5190525154322385
1791041427052596700,3.5445966796875,0.796542007601261,-1.9207465282946823,0.028214287093281745
1791041427062625800,3.554625732421875,0.5147065951824188,-1.9533511593014001,0.1689841092646122
1791041427072654800,3.56465478515625,0.1851695203900337,-2.0364415304422376,-0.29839024137854575
1791041427082684700,3.5746845703125,0.07744593551307916,-2.1455805350750685,-0.6041062956005334
1791041427092713700,3.584713623046875,-0.05358867458552122,-2.2822014208734034,-0.832771843367815
1791041427102743800,3.594743896484375,-0.22545067737400531,-2.2762948271781203,-1.0139180995911359
1791041427112772900,3.60477294921875,-0.3508285768851638,-2.287726321774721,-0.7496890710115433
1791041427122801700,3.6148017578125,-0.6822673936456441,-2.0503022980123755,-0.5024526782870292
1791041427132831700,3.624831787109375,-0.5636112036049366,-1.9238216979563234,-0.12384382181167602
1791041427142860800,3.63486083984375,-0.5953206393375993,-1.6565566626816988,0.37477848453223706
1791041427152891000,3.644890869140625,-0.6624912645518779,-1.4109002326250075,0.7777747632890939
1791041427162919700,3.654919677734375,-0.8778501715004443,-1.0439476194128394,1.360583419317007
1791041427172948700,3.66494873046875,-1.038494906964898,-0.594998275515437,1.7301573209434746
1791041427182978800,3.674978759765625,-1.0680237837880848,-0.29843378825932737,1.8438783926695583
1791041427193007900,3.6850078125,-1.405875097939372,-0.12080226215869187,1.587507676374912
1791041427203037700,3.69503759765625,-1.3714087647140025,0.4411450998872518,1.7073825945556163
1791041427213066800,3.705066650390625,-1.6210001961320637,0.6319108328491448,1.581165029349923
1791041427223096800,3.715096923828125,-1.843631139910221,0.7417468798354268,1.4820891535699368
1791041427233126000,3.7251259765625,-2.0558955879747867,1.0858844346493481,1.61567344815135
1791041427243154700,3.73515478515625,-2.02416598623693,1.343376848450303,1.68633863748312
1791041427253184800,3.745184814453125,-2.024900730252266,1.3444424318552017,1.8149445591300726
1791041427263213800,3.7552138671875,-1.9028332704633473,1.809443915887177,1.9456687881052492
1791041427273244000,3.765243896484375,-1.7710031260728836,1.8695163995340465,1.9896195735126732
1791041427283272700,3.775272705078125,-1.9722189413785933,1.8582742900297045,2.1425983043938874
1791041427293301800,3.7853017578125,-1.9359183784633873,2.0203245083779096,2.3672528629541394
1791041427303331800,3.795331787109375,-1.869961512953043,2.1476254849061367,2.3816174883931875
1791041427313361000,3.80536083984375,-1.7529530901193617,2.220679615201056,2.2660803071558475
1791041427323390700,3.815390625,-1.7837684996217489,2.118359350672364,2.0406793141424653
1791041427333419800,3.825419677734375,-1.8548071984410286,1.9770570290595293,1.983624132490158
1791041427343449000,3.835448974609375,-1.8274539120912552,1.930889444385469,2.0183236899495123
1791041427353479200,3.845479248046875,-1.7875421729415655,1.9592793803066013,2.039773889735341
1791041427363508000,3.855508056640625,-1.6575696391165256,1.960287096044421,2.038233674556017
1791041427373538000,3.8655380859375,-1.375887371432781,1.9572236168205737,2.0769220093905925
1791041427383567000,3.875567138671875,-0.9608540334016085,1.981373138692975,1.9403993232697248
1791041427393597200,3.88559716796875,-0.8739747913718223,1.8626418375894427,1.6195295390576123
1791041427403626200,3.895626220703125,-1.0470540609955787,1.7129361370295286,1.6138777969062328
1791041427413655000,3.905655029296875,-1.1464309655487537,1.6005623882591724,1.7792594977647065
1791041427423685000,3.91568505859375,-1.0615472812503575,1.5673665133610366,1.8285387847185133
1791041427433714200,3.925714111328125,-0.770282946228981,1.5310276642620562,1.5976713429927825
1791041427443744300,3.935744140625,-0.5564122320115565,1.2963748587787152,1.1999456981152294
1791041427453773000,3.94577294921875,-0.30119711549282074,0.8653054549649357,0.8204314172327518
1791041427463802000,3.955802001953125,-0.17794132270216942,0.4401496591091156,0.5039028770953417
1791041427473832200,3.965832275390625,-0.2784837639033794,0.19883067373484373,0.27849603886306284
1791041427483861000,3.975861083984375,-0.3186737354725599,0.20070581995695827,0.1748217293769121
1791041427493891000,3.98589111328125,-0.226439688411355,0.21042641898244618,0.16890987498462198
1791041427503920000,3.995920166015625,0.13241641984581948,0.19994360341280698,0.35805063709318635
1791041427513950200,4.0059501953125,0.7063666466355324,0.12639321403354406,-0.012575988456606865
1791041427523979300,4.015979248046875,1.5243039089649915,-0.14720482365489004,-1.0559463925033807
1791041427534008000,4.026008056640625,3.2126059554755684,-0.9769199098005891,-2.9557775585412975
1791041427544038100,4.0360380859375,5.840633322641253,-3.0082842831090093,-4.7887908583253616
1791041427554067200,4.046067138671875,5.506141255789995,-5.383893178737163,-6.519435670524835
1791041427564097300,4.05609716796875,1.3074749294638632,-6.024298868209123,-6.070770696526766
1791041427574126000,4.0661259765625,-0.6996861459583044,-3.295219064493477,-2.96696355394423
1791041427584155100,4.076155029296875,0.17161913394331932,-0.12942980525046585,-0.5132867915123701
1791041427594185200,4.086185302734375,-0.14251052835881708,1.7761667924463749,1.3064742279887198
1791041427604214300,4.09621435546875,-1.0201257220596074,2.7093326084554192,2.441067456227541
1791041427614244000,4.106244140625,-2.161493558999896,2.8537293889522553,2.6502006205290556
1791041427624273200,4.116273193359375,-2.617619370397925,3.0499414046213027,2.416903905829787
1791041427634303000,4.126302978515625,-1.9728999093800783,3.674889412720501,2.069313287952542
1791041427644332300,4.136332275390625,-1.3644430173546076,3.9013323160022493,1.6601339366465806
1791041427654361000,4.146361083984375,-1.6791437575429677,3.1925963098868726,1.6828402739733457
1791041427664391200,4.15639111328125,-2.1185919903844592,2.179561715131998,1.4514847564697264
1791041427674420200,4.166420166015625,-1.688182804045081,1.1365133826464413,0.9752782800734042
1791041427684450000,4.176449951171875,-0.8064139977961778,0.20764000313431025,0.5811778399556875
1791041427694479000,4.18647900390625,-0.09540916996598243,-0.7079220593839883,-0.1456815596103668
1791041427704509000,4.196509033203125,0.4034142119079828,-1.5722861418455838,-1.138099190533161
1791041427714538000,4.2065380859375,0.6350295493915676,-2.326760693567991,-2.172801134955883
1791041427724567300,4.2165673828125,1.057618709629774,-2.7504721358343955,-2.6865841855525967
1791041427734596900,4.226596923828125,1.5420505780577658,-2.629186474072933,-2.7940742539346215
1791041427744626000,4.2366259765625,1.647051752233505,-1.8078484633892773,-2.665778128889203
1791041427754656000,4.246656005859375,1.0447226954385638,-0.6097223819166422,-2.541823832440376
1791041427764685000,4.25668505859375,0.30914018345177174,0.6502519607037306,-2.5276439159184694
1791041427774714000,4.266714111328125,-0.2411146949738264,1.791800414907932,-2.2745231413304805
1791041427784744000,4.276743896484375,-0.4811404256671667,2.6805665326982737,-1.5834101779282093
1791041427794773000,4.28677294921875,-0.39616818630248307,3.1911195153325793,-0.821992090678215
1791041427804803000,4.296802978515625,-0.11574819363951683,3.266739112201333,-0.2792956648081541
1791041427814831900,4.306831787109375,-0.2339560553908348,2.9183383469849824,0.21499065815806387
1791041427824862000,4.316862060546875,-0.06533025804460048,2.358484450086951,0.7440390824258327
1791041427834891000,4.32689111328125,0.647852790607512,1.6268828244298696,0.8812228628039359
1791041427844920000,4.336920166015625,1.2114102181985973,0.6891343568056821,0.667375529462099
1791041427854950100,4.3469501953125,1.3443138370394705,-0.31057109303772445,0.31671149548888206
1791041427864979000,4.35697900390625,0.9907610958874224,-1.18741179523468,-0.27713994807898995
1791041427875009000,4.367009033203125,0.6260112534165382,-1.6943214529305695,-0.7441811212450266
1791041427885038000,4.3770380859375,0.6916723508507013,-1.7414315791517494,-0.7345189744085073
1791041427895068200,4.387068115234375,0.3745499364733696,-1.2400298712223767,-0.3323059549838304
1791041427905097000,4.397096923828125,0.020270342351496218,-0.27082769619226454,0.21046762777566907
1791041427915126000,4.4071259765625,0.06839110691994428,0.7628145100444554,0.8005266933232545
1791041427925156000,4.417156005859375,0.23321926554888486,1.5650386549353599,1.2791039905041455
1791041427935185200,4.42718505859375,0.0913017346471548,2.082258694243431,1.4219547106027601
1791041427945215000,4.437215087890625,-0.08463175536394119,2.2657722641199824,1.2209826409250497
1791041427955244000,4.447244140625,0.10679214924573897,2.031638514074683,1.1209762062966824
1791041427965274000,4.457274169921875,0.4390548496097326,1.5336217724084853,1.08343762601912
1791041427975303200,4.46730322265625,0.6175456228882074,0.953756768617034,0.7138672315239906
1791041427985332000,4.47733203125,0.891463686311245,0.3874760535418987,0.2049988409757614
1791041427995362000,4.487362060546875,1.0374579651325941,-0.06418225705325603,-0.25184359425902364
1791041428005391000,4.49739111328125,0.5944672373786568,-0.15655542032420636,-0.6141589030593634
1791041428015421200,4.507421142578125,0.29160248093456026,0.1447141758829355,-0.8404957156181335
1791041428025450000,4.517449951171875,0.728846189469099,0.6153834764182567,-0.7966694333732127
1791041428035480000,4.52747998046875,0.964284592372179,1.051581767553091,-0.620605010458827
1791041428045509000,4.537509033203125,0.3929606224328279,1.4255933593660592,-0.4308545920193195
1791041428055538200,4.5475380859375,0.011565934631228446,1.701324025169015,-0.08598083188533782
1791041428065568000,4.557568115234375,0.3153811236679554,1.8539017740339039,0.1913566845923662
1791041428075597000,4.56759716796875,0.6757628340572118,1.897719872972369,0.08032265999317169
1791041428085627100,4.577627197265625,0.5744955857127905,1.7876444642722606,-0.4898357732981443
1791041428095656200,4.58765625,0.19849340460449455,1.5850994461894035,-0.9775035549074411
1791041428105686300,4.597686279296875,0.10872545539587736,1.4487597154200076,-1.1963292611837386
1791041428115715000,4.607715087890625,0.3530564820677042,1.3440005333065985,-1.3988380389094353
1791041428125744000,4.617744140625,0.24349223776012657,1.3448603650063276,-1.7400924395024775
1791041428135774200,4.627774169921875,0.0403723423987627,1.5085551356911657,-1.8920687153428792
1791041428145803000,4.637802978515625,0.10131079522520303,1.717295501282811,-1.9170956045717
1791041428155833000,4.6478330078125,0.3304769859910011,1.9569629200577734,-1.9988935978144406
1791041428165862100,4.657862060546875,0.5988865151256323,2.1167302881658077,-2.167643898323178
1791041428175892200,4.667892333984375,0.7040215448141097,2.138465734633803,-2.317961885562539
1791041428185921300,4.67792138671875,0.8175508933603763,1.9705138910263775,-2.2742916706621648
1791041428195950000,4.6879501953125,0.9732873985171318,1.6850988665550946,-2.0809990495711563
1791041428205980200,4.697980224609375,0.8677110548019409,1.2930933528900146,-1.9067396302521227
1791041428216009200,4.70800927734375,0.8399871815741061,0.9025345309019088,-1.6918986096978186
1791041428226039300,4.718039306640625,0.9154887050211429,0.6312234351068735,-1.4045067321956157
1791041428236068000,4.728068115234375,0.8771259488791227,0.5773176573961973,-0.974144892129302
1791041428246098000,4.738097900390625,0.9443278460144996,0.677263886269927,-0.5076239434450864
1791041428256127200,4.748127197265625,0.9912462490558623,0.8804992247045039,-0.23493454503417013
1791041428266156300,4.75815625,0.6916326033622026,1.0850029756397008,-0.0592342792570591
1791041428276186000,4.76818603515625,0.4555588251650333,1.2727321173846722,0.15368541784584522
1791041428286215200,4.778215087890625,0.257546189814806,1.4309002336025238,0.4004956941127777
1791041428296245000,4.788244873046875,0.07476911751925945,1.608037838706374,0.5794026469767093
1791041428306274000,4.798274169921875,-0.012101941204071045,1.7933780394881962,0.6966366952598094
1791041428316304000,4.808303955078125,0.0027720950618386267,1.976878165361285,0.7091296816080809
1791041428326333000,4.8183330078125,-0.021527356675267218,1.9821312635838984,0.6590759031504392
1791041428336362200,4.8283623046875,-0.2680681683510542,1.7898194702237844,0.5769441479086875
1791041428346392000,4.83839208984375,-0.34338322931528087,1.483673792412877,0.5166191508054733
1791041428356421000,4.848421142578125,0.24912965912520885,1.0025982486754654,0.39904666434824465
1791041428366451000,4.858450927734375,0.773501908275485,0.45876025155484673,-0.0022486557096242903
1791041428376480000,4.86847998046875,0.5350736759066581,0.10896773971915244,-0.6115343997746706
1791041428386510000,4.878510009765625,0.18957389282882212,-0.03339782721102238,-1.2191741301983594
1791041428396539000,4.888538818359375,0.12209288649111985,-0.06673135701417923,-1.6363532480865717
1791041428406569000,4.89856884765625,0.3193102798104286,-0.07077741753458976,-1.8445128911808133
1791041428416598000,4.908597900390625,0.509105706435442,-0.04946282682716846,-1.9276582073792814
1791041428426627000,4.918626953125,0.6075546824887395,-0.011603928554058075,-1.9040625199973582
1791041428436657200,4.9286572265625,0.5505909785121679,0.11371405746340751,-1.645580802898109
1791041428446686000,4.93868603515625,0.5059224002242088,0.353198520886898,-1.1407485359981655
1791041428456716000,4.948716064453125,0.6139473061352968,0.711121147686243,-0.6024485915213823
1791041428466745000,4.9587451171875,0.7936483319863676,1.0524445218622684,-0.25800503949820996
1791041428476775200,4.968775146484375,0.7219625674352049,1.2174521287113427,-0.12380582788884639
1791041428486804000,4.978803955078125,0.540232666105032,1.105965684169531,-0.03816021930724382
1791041428496833000,4.9888330078125,0.34192075554728507,0.8024807500004768,-0.11123714595586061
1791041428506863000,4.998863037109375,-0.011303192041814326,0.5415186142623424,-0.3634370063066482
1791041428516892200,5.00889208984375,-0.3409279451176524,0.4594453112095594,-0.7945029029890894
1791041428526922000,5.018921875,-0.3902411343410611,0.4278530721157789,-1.2829668034121393
1791041428536951000,5.028950927734375,-0.270097628352046,0.3819511526405811,-1.6067495524615047
1791041428546981000,5.038981201171875,-0.17198182977586984,0.365640069308877,-1.849584203095734
1791041428557010200,5.04901025390625,-0.17645692936331034,0.3920937764704227,-2.019361216303706
1791041428567040000,5.0590400390625,-0.2822115522548556,0.5046422972857951,-2.1454291439056394
1791041428577069000,5.069069091796875,-0.19834990448057652,0.6590642127126455,-2.2475571007326245
1791041428587098000,5.07909814453125,-0.06615852556228638,0.8950468054950237,-2.273354682072997
1791041428597128200,5.089128173828125,-0.22422230462282894,1.1000134977668523,-2.2540137295261022
1791041428607157000,5.099156982421875,-0.2030120510727167,1.2763929779797791,-2.041245715853572
1791041428617187000,5.10918701171875,0.12573913403898476,1.3451701616078615,-1.8578177784338592
1791041428627216100,5.119216064453125,0.1638514225512743,1.306112408939004,-1.731372541952133
1791041428637246200,5.12924609375,-0.347016032859683,1.0442916105449198,-1.8155612297236918
1791041428647275000,5.13927490234375,-0.8942217528477311,0.6712859809041023,-1.9216224343463777
1791041428657305000,5.14930517578125,-1.1313473781853913,0.23269290358722208,-2.052943752431869
1791041428667334100,5.159334228515625,-0.9758893977090716,-0.06891688435971736,-1.8572151363655924
1791041428677363200,5.16936328125,-0.540510314002633,-0.3533662786692381,-1.5917743939086795
1791041428687393300,5.179393310546875,-0.18962007005810735,-0.639281069356203,-1.2849436564430594
1791041428697422000,5.189422119140625,-0.05529869337379932,-0.8969383183300494,-1.0579705918073654
1791041428707452200,5.1994521484375,-0.17648966258913276,-1.070815460333228,-1.0205430706888436
1791041428717481200,5.209481201171875,-0.29934067397117614,-0.9887351430177688,-1.0050129086017607
1791041428727511000,5.219510986328125,-0.3110390028104186,-0.5981570318073034,-0.8719295492798089
1791041428737540000,5.2295400390625,-0.15129910723119974,-0.08189268578886985,-0.6045049395292997
1791041428747570000,5.23956982421875,0.2309431373104453,0.25823124946951864,-0.21778847218304873
1791041428757599200,5.24959912109375,0.42107291045635936,0.2841536262333393,0.1263707099407911
1791041428767628300,5.259628173828125,0.25370968039184805,0.054932198148965834,0.2698883695155382
1791041428777658000,5.269658203125,-0.08826046725511551,-0.2738420755773783,0.15864479381889104
1791041428787687200,5.279687255859375,-0.2640013573035598,-0.48651802705228325,0.06321458106487989
1791041428797717000,5.289717041015625,-0.2872507154658437,-0.5885960072576999,0.14348025017380714
1791041428807746000,5.29974609375,-0.2790224008247256,-0.535012301108241,0.18395605294704437
1791041428817776000,5.309776123046875,-0.3453057218104601,-0.3635527416408062,0.1352615801438689
1791041428827805000,5.319804931640625,-0.23925270049422978,-0.22167700405418872,0.20043957023620604
1791041428837834200,5.329834228515625,0.021229835033416748,-0.04998012869954109,0.3714747668117285
1791041428847864000,5.339864013671875,0.12952274423092602,0.2555155607700348,0.23924919336289166
1791041428857892900,5.349892822265625,0.48287850150614975,0.6115022510707379,0.07951426621973515
1791041428867923000,5.3599228515625,1.1059341199874877,0.5525847826778888,0.10736702652424573
1791041428877952000,5.369951904296875,1.5335811481371522,0.21484277411997316,-0.18348609734773635
1791041428887982000,5.379982177734375,0.9881459449529647,-0.2429401568353176,-0.4974655375242233
1791041428898011000,5.390010986328125,0.3316299554184079,-0.5354337413907051,-0.584860327860713
1791041428908041000,5.400041015625,0.21950024453699588,-0.5956652149915694,-0.5473258392363787
1791041428918070000,5.410070068359375,0.297977568924427,-0.4133265341132879,-0.2361468434333801
1791041428928099000,5.42009912109375,-0.09990618912428617,-0.2612695942521095,0.31168489949852224
1791041428938129200,5.430129150390625,-0.5520692343711853,0.08893325195014476,0.09312368937730789
1791041428948158000,5.440157958984375,-0.5769859412238002,0.5234124642074108,-0.3154138568937778
1791041428958188000,5.45018798828125,-0.7605641007691621,0.7819032413959502,-0.6991153603330255
1791041428968217000,5.460217041015625,-1.1939502570927143,0.7708937716037034,-0.8665697758123279
1791041428978247200,5.4702470703125,-1.179627424968779,0.24803017345070838,-0.9873238149151206
1791041428988276000,5.48027587890625,-0.7163707387775182,-0.694462858352065,-1.3230924775734543
1791041428998306000,5.49030615234375,-0.6776020321831107,-1.5979922455102205,-1.5798551157951355
1791041429008335000,5.500335205078125,-0.9909957814261316,-1.9346628254443405,-1.2396999086156486
1791041429018365200,5.510365234375,-1.11967506057024,-1.6498247240781783,-0.5616673760607839
1791041429028394000,5.52039404296875,-1.0660399164944887,-1.1340806025415657,-0.347064548176527
1791041429038423000,5.530423095703125,-1.0064081623524428,-0.7801490912050009,-0.39526626902669665
1791041429048453000,5.540453125,-1.0657295353710652,-0.6400391942471265,-0.5116393165662885
1791041429058482200,5.550482177734375,-1.4498252988249063,-0.5362047257632017,-0.44521015736907715
1791041429068512300,5.56051220703125,-1.7491615888819096,-0.1746124705404043,-0.7290352823004126
1791041429078541000,5.570541015625,-1.4427140055149792,0.3610609248250723,-1.0778981120705604
1791041429088571100,5.580571044921875,-0.9755816469341516,0.7036345913231372,-1.0708926172226667
1791041429098600200,5.59060009765625,-0.7178755903825164,0.6987941655546427,-0.8557654732033609
1791041429108630300,5.60063037109375,-0.6996554585590958,0.42645080410242076,-0.3558125027775764
1791041429118659000,5.6106591796875,-0.7122437219753861,0.14771394222080705,-0.18962971466928719
1791041429128688000,5.620688232421875,-0.8268173188775777,0.06899345672726631,-0.49977615255415436
1791041429138718200,5.63071826171875,-1.0956728382140397,0.08081950359940529,-0.3452767879769206
1791041429148747000,5.6407470703125,-1.0999009773030877,0.14443360537588595,-0.2652875977218151
1791041429158777000,5.650777099609375,-0.7935244133457541,0.1773269901961088,-0.44597675782740115
1791041429168806100,5.66080615234375,-0.606714432272315,0.061246203601360315,-0.13504179991334675
1791041429178836200,5.670836181640625,-0.4727069438427686,-0.09325111514925956,0.28191549191772936
1791041429188865300,5.680865234375,-0.42150224178433415,-0.2934071922689676,0.4713268876612186
1791041429198895000,5.69089501953125,-0.4364584033757448,-0.5602402658671141,0.5779612159967422
1791041429208924200,5.700924072265625,-0.5796034302458166,-0.8021300368666648,0.5238403342306613
1791041429218953200,5.710953125,-0.6630009676396846,-0.8662222775489091,0.18290800519883632
1791041429228983000,5.720983154296875,-0.657136751781404,-0.7692717233598232,-0.39398762739300724
1791041429239012000,5.73101220703125,-0.6486252362847328,-0.6147662213027477,-0.796542007601261
1791041429249042000,5.7410419921875,-0.5518903706729412,-0.33765608384013174,-1.0395604903697966
1791041429259071200,5.7510712890625,-0.3568824700966477,-0.01939969699680805,-1.259723582729697
1791041429269101000,5.76110107421875,-0.033657939451932906,0.38669980847239493,-1.450297592511773
1791041429279129900,5.7711298828125,0.316437354722619,0.6998311073869466,-1.4791396561145782
1791041429289160000,5.781159912109375,0.6586018558979034,0.8286211534291505,-1.412840845298767
1791041429299189000,5.79118896484375,0.988786873205006,0.9642740709781646,-1.1243833843916653
1791041429309219000,5.801218994140625,1.1584992967441676,0.9978758963286876,-0.7581605467587709
1791041429319248100,5.811248046875,1.10811204854846,1.0036591559052466,-0.362697001594305
1791041429329277000,5.82127685546875,0.9907076121345162,0.9368144016444683,0.22550796051919458
1791041429339307000,5.83130712890625,0.8951867984876036,0.7702560582220553,0.6138315708011388
1791041429349335800,5.841335693359375,0.868717893756926,0.5573059659808873,0.6512894870579242
1791041429359366000,5.851365966796875,0.8777551866933703,0.2381160976797342,0.4907546417087316
1791041429369395000,5.86139501953125,0.9665463998243212,-0.25077625728845593,0.2439069560408592
1791041429379425000,5.871425048828125,1.1304445841267705,-0.7841057198762893,-0.0951402898967266
1791041429389453800,5.881453857421875,1.2667018973097204,-1.1718144131302832,-0.5144646031200886
1791041429399484000,5.89148388671875,1.225443419726193,-1.2218734522849322,-0.952820364549756
1791041429409513000,5.901512939453125,1.0472165580809116,-0.7779477817684411,-1.1570599115908144
1791041429419543000,5.91154296875,0.9812871650993823,-0.016492869639396668,-1.0900058984935284
1791041429429572000,5.921572021484375,1.0460691416114567,0.7984247526079415,-0.9218751911878585
1791041429439601000,5.931600830078125,1.1749769688144325,1.52367262532413,-0.7986205674409866
1791041429449631000,5.941630859375,1.2504752773910761,2.0628362008929253,-1.106010107833147
1791041429459660000,5.951659912109375,1.1333394287854432,2.473187518587708,-1.760508035543561
1791041429469690000,5.961690185546875,0.8933362021848559,2.675971606123447,-2.7091630971074103
1791041429479719000,5.971718994140625,0.43815117876827714,2.6375913143247365,-3.568508474624157
1791041429489749000,5.9817490234375,-0.18939152199923992,2.5329689103335142,-4.2910102635025975
1791041429499778000,5.991778076171875,-0.6704381319031119,2.3437089057594536,-4.61329868234098
1791041429509808000,6.00180810546875,-0.9500503153145313,2.2590233743816612,-4.48729622119069
1791041429519837000,6.0118369140625,-1.203229249830544,2.2346827138513325,-3.9922377448081967
1791041429529867000,6.021866943359375,-1.3360115803793071,2.2718542143821714,-2.94594473131299
1791041429539896000,6.03189599609375,-1.464952725329995,2.251148110961914,-2.1127467714875934
1791041429549925000,6.041925048828125,-1.5714900230318307,2.1316133845210072,-1.6004542517095803
1791041429559955200,6.051955078125,-1.3913713562905787,1.8312685019433497,-1.2366174324303865
1791041429569984000,6.06198388671875,-0.9327110579788684,1.366584705558419,-0.9797966342806815
1791041429580014000,6.07201416015625,-0.44788989797234535,0.7607651762992144,-0.8647457752555608
1791041429590043100,6.082043212890625,-0.46920741128921506,0.21871640068292617,-0.988729297798872
1791041429600073200,6.0920732421875,-0.6331728156089782,-0.29423253717720504,-1.2003987025797367
1791041429610102000,6.10210205078125,-0.5742196913808584,-0.5106470906585454,-0.9477543133318423
1791041429620132000,6.112132080078125,-0.5897954461753369,-0.4702601352125406,-0.4146908082038164
1791041429630161200,6.1221611328125,-0.5814300611510872,-0.08759118969142436,0.09318038800060749
1791041429640191000,6.13219091796875,-0.33479514145106076,0.4699415707826614,0.5994616846650839
1791041429650220000,6.142219970703125,-0.19350421801507472,0.7849874711468815,1.1453256346553564
1791041429660249000,6.1522490234375,-0.30485096182525157,0.8729656143292784,1.4264046757489441
1791041429670279000,6.16227880859375,-0.38050533774644135,0.6108709674298763,1.1636936505168676
1791041429680308200,6.17230810546875,-0.377540642721951,-0.02567658530920744,0.18038520872294903
1791041429690337800,6.182337890625,-0.17492869688272475,-0.9533367896392941,-1.0917162095427513
1791041429700366800,6.192366943359375,0.01211480068564415,-1.8481603077724575,-1.7090449748098848
1791041429710397000,6.20239697265625,0.22824936818182467,-2.361540330526233,-1.2475865702122448
1791041429720426000,6.212426025390625,0.38500294142663477,-2.32941091581583,-0.08025310188829898
1791041429730456000,6.2224560546875,0.030192893689870832,-1.9974702870130538,1.1319897677421569
1791041429740484900,6.23248486328125,-0.448319521561265,-1.4869848166570065,1.7466612964987753
1791041429750515000,6.242514892578125,-0.7356085232108831,-1.0127508093774318,1.9040753794789314
1791041429760544000,6.2525439453125,-0.8644108442127704,-0.46514790676534173,1.7444383597522972
1791041429770572800,6.26257275390625,-0.9638426938235759,-0.07617138553261757,1.6497253553569315
1791041429780603000,6.272602783203125,-0.919874957281351,0.19691168837100267,2.2314818719834086
1791041429790632000,6.2826318359375,-0.9086912999659776,0.45006782653331756,2.8420594094246625
1791041429800662000,6.292662109375,-0.5382376928955316,0.8124389571741223,2.8731787703096865
1791041429810691000,6.302691162109375,0.14306231702268124,0.931934228387475,2.718426015493274
1791041429820721000,6.312720947265625,0.7427022808641195,0.7670040706887841,2.7598621877312657
1791041429830750000,6.32275,0.9802747731864452,0.16177169366776942,2.739273573210835
1791041429840780000,6.332780029296875,0.9556132101386785,-0.5107239552870393,2.583034379228949
1791041429850809000,6.34280908203125,0.6780553289085626,-1.008936219525337,1.3838421298295258
1791041429860839000,6.3528388671875,-0.001499298647046089,-1.012662546572089,-0.3156505882591009
1791041429870868000,6.362867919921875,-0.4075526268869638,-0.4353679777905345,-0.8426093467712402
1791041429880898000,6.37289794921875,-0.746737235468626,0.2031485369339585,0.3090320469021797
1791041429890927000,6.382927001953125,-1.8301409592181443,0.2036319365367293,0.7799848405539989
1791041429900956000,6.392955810546875,-2.5532225938111544,-0.057762745399773115,-0.5960387244790792
1791041429910986000,6.402986083984375,-0.9573194295346736,0.005518471160531044,-2.5546388903498647
1791041429921015000,6.41301513671875,-0.19947803172767162,-0.266962545196712,-2.7637346452504397
1791041429931045000,6.423045166015625,-0.4424257873475551,-0.3929126916378736,-0.25641513995826243
1791041429941074000,6.433073974609375,0.40559857020974155,-0.3112301414683461,1.5676596510887144
1791041429951104000,6.44310400390625,0.7340157010614872,-0.11989771453440189,1.006896238130331
1791041429961133000,6.453133056640625,-0.8823065663874149,-0.29031974764764307,0.4038946889013052
1791041429971163100,6.4631630859375,-1.179609012529254,-0.5181187417134643,1.1619745716392993
1791041429981192200,6.473192138671875,-0.1882902827590704,-0.5988204641520977,1.8511159427076578
1791041429991222000,6.483221923828125,-0.9911141471087932,-0.6015884675607085,2.07720667155087
1791041430001251000,6.4932509765625,-1.4384002339690922,-0.2847121368989348,2.4386627331733703
1791041430011281000,6.503281005859375,-0.5752770914793014,0.6800009100183844,2.40850607984066
1791041430021310200,6.513310302734375,-0.04496317732036113,1.5050979809746146,1.8405699987739323
1791041430031339000,6.523339111328125,-0.3294049728453159,2.0399971770972014,1.5732681386202574
1791041430041369000,6.533369140625,-0.7500199104011058,2.3397250968202945,1.783031417518854
1791041430051398100,6.543398193359375,-1.0849600132808088,2.42718418456465,2.077705853244662
1791041430061428000,6.553427978515625,-1.3815239160150288,2.4108500126183032,2.159955097386241
1791041430071457000,6.56345703125,-1.393860835018754,2.243645187985897,1.9482050285845993
1791041430081486800,6.57348681640625,-0.90923695115,1.9566706591129301,1.9014298334062099
1791041430091516000,6.583515869140625,-0.4852922846496105,1.7421008567154406,1.605339101141691
1791041430101546000,6.5935458984375,-0.34147359630167484,1.5972221379205584,0.9836287597894668
1791041430111574800,6.60357470703125,-0.42407676844745873,1.4806816248595713,0.2503641693562269
1791041430121604900,6.61360498046875,-0.2218316100940108,1.392584823733568,-0.24870120458006859
1791041430131634000,6.623634033203125,-0.3217205558225512,1.3590382357016204,-0.47121758206784725
1791041430141664000,6.6336640625,-0.5078808408156037,1.3519453548312186,-0.400220968824625
1791041430151693000,6.643693115234375,-0.29689357308000325,1.2207274971202016,-0.44167643028497694
1791041430161721900,6.653721923828125,-0.18529577711820602,1.0666495728254317,-0.6594914982140064
1791041430171752000,6.663751953125,-0.04242430649250745,1.0300120330408216,-0.7590642176002264
1791041430181781000,6.673781005859375,0.2665475346550345,1.368672325487435,-1.4205495199799536
1791041430191811000,6.68381103515625,0.4578071886137128,1.6117203266113995,-1.6530185516834257
1791041430201839900,6.69383984375,0.5884460773929954,1.714858045002818,-1.56585932366848
1791041430211870000,6.703869873046875,0.6141945588946343,1.8699951229616998,-1.2970096495509147
1791041430221899000,6.71389892578125,0.6378887382149696,1.9380448690980672,-0.8077437850952148
1791041430231929000,6.72392919921875,0.570333789858222,1.9763141017377375,-0.27345161495506765
1791041430241958000,6.7339580078125,0.6203598035261034,1.9811504358530043,0.1829120968520641
1791041430251988000,6.743988037109375,1.0165320814818144,1.8243652984261511,0.4998404499620199
1791041430262017000,6.75401708984375,1.5571479016855359,1.442155202588439,0.5805325277894735
1791041430272047000,6.764047119140625,1.9391566297322511,0.86922321293056,0.4722849190384149
1791041430282076000,6.774075927734375,1.983348676549643,0.14092939664721488,0.4359007694929838
1791041430292106000,6.78410595703125,1.5167425338000058,-0.6626023237109184,0.5600327605962753
1791041430302135000,6.794135009765625,1.2257282280169426,-1.415847625899315,0.865907220250368
1791041430312165000,6.8041650390625,1.176192920475453,-1.9389988088220356,1.306779932937026
1791041430322194200,6.814194091796875,1.1979741057813167,-2.1382681662350893,1.7104852367460728
1791041430332223000,6.824222900390625,1.5717705935388802,-1.9847920072257517,1.8977268872350452
1791041430342253300,6.83425341796875,1.6886233874194323,-1.3302841426432133,1.6530916169196366
1791041430352282400,6.844282470703125,1.1868696511819958,-0.22759645723104477,1.0790396833211182
1791041430362312200,6.854312255859375,1.3223732233881949,0.8058452579975127,0.4440478355914354
1791041430372341200,6.86434130859375,2.0007709359936414,1.5743629481196402,-0.23931787468492982
1791041430382371000,6.87437109375,2.3024415142171084,2.1271558205902577,-1.0723854861289261
1791041430392400400,6.884400390625,2.2096564091444013,2.4692396577447653,-2.284810142067075
1791041430402430200,6.89443017578125,1.1157060108087957,2.6290105329841373,-3.5585447144925593
1791041430412459000,6.904458984375,-0.26189386363029477,2.642058815127611,-4.395125302493572
1791041430422489000,6.914489013671875,0.32941607876122,2.261464922314882,-4.671412433135509
1791041430432518100,6.92451806640625,1.0596950775124132,1.782095013451576,-4.522232510015368
1791041430442548200,6.93454833984375,0.5248877974569797,1.6293752257674932,-3.85619787376821
1791041430452577300,6.944577392578125,-0.3838824129641056,1.7288468228667973,-2.939695023268461
1791041430462607000,6.954607177734375,-1.0873265962816774,1.8614023589223623,-2.0829788252115247
1791041430472636200,6.96463623046875,-1.0180617752671242,1.7898977961570024,-1.3649340157419443
1791041430482665200,6.974665283203125,-0.35715054644830524,1.4436398881882428,-0.7690729859173298
1791041430492695300,6.9846953125,0.3664220865320414,0.9220727595865726,-0.3018634704470634
1791041430502724000,6.99472412109375,0.9161978762038051,0.4532850350141525,-0.020422610303759574
1791041430512754200,7.004754150390625,1.1954839694660155,0.11806173127889633,0.050584524333477016
1791041430522783200,7.014783203125,1.168245249406621,-0.018866613033413887,-0.07325345225930213
1791041430532813300,7.024813232421875,1.2630261314064264,-0.09901508550345897,-0.43151627079844473
1791041430542842000,7.034842041015625,1.645463021737337,-0.23257132303416728,-0.8681073606431484
1791041430552872200,7.0448720703125,2.084611979371309,-0.7007873851984739,-1.3848036683380602
1791041430562901200,7.0549013671875,2.3720091175705194,-1.3189403263300656,-1.4756716877430676
1791041430572931300,7.064931396484375,2.421391864898801,-2.002889389452338,-1.2955138580352068
1791041430582960400,7.07496044921875,2.2200345952957865,-2.356929621860385,-0.7153115851134061
1791041430592990200,7.084990234375,2.1688404146313665,-2.6207395482450724,-0.010986673438549041
1791041430603019300,7.095019287109375,2.0395652154207227,-2.9900241115361452,0.2763631184875965
1791041430613049300,7.10504931640625,1.5243822348982095,-3.1222727735996245,0.026698621833324433
1791041430623078400,7.115078369140625,0.883754938564822,-2.746394803392887,-0.8454080375790596
1791041430633108200,7.125108154296875,0.6047643941830844,-2.06918703122437,-1.9552502709209918
1791041430643137300,7.13513720703125,1.0297007020693272,-1.5294827729076146,-2.903262358406186
1791041430653167400,7.14516748046875,1.8159668879151343,-1.2460504466861486,-3.58993120188117
1791041430663196400,7.155196533203125,1.9425234758168457,-0.7553694547355174,-3.147098587298393
1791041430673225200,7.16522509765625,1.9498380366139112,-0.45487259646654127,-2.6465017660111188
1791041430683255300,7.17525537109375,1.9273656541734934,-0.35511458364129067,-1.9867653531253338
1791041430693284400,7.185284423828125,2.0023685804486275,-0.3480634960860014,-1.2270219210892914
1791041430703314400,7.195314453125,1.889971596933156,-0.45805765624344347,-0.5674795694708824
1791041430713343200,7.20534326171875,1.6222499039322136,-0.7107552369832992,-0.043864860689640045
1791041430723373000,7.215373046875,1.4752280356287955,-1.227241116797924,0.4604296460717916
1791041430733402400,7.22540234375,1.155367428459227,-2.0295833351105452,1.1786895595967768
1791041430743432200,7.23543212890625,0.7379542095541953,-2.940845362347364,1.7099878086179494
1791041430753461200,7.245461181640625,0.2798734646961093,-3.2533857096314427,1.7568413297295569
1791041430763491000,7.255490966796875,-0.19988266700580715,-2.1506676290810107,1.7148539533495901
1791041430773520100,7.26552001953125,-0.6507417900472879,-0.08179916228652,1.8979554352939128
1791041430783550200,7.27555029296875,-0.9054064330764114,1.3277771282583475,2.2725310907304284
1791041430793579300,7.285579345703125,-1.3270751174688338,1.7551526459902524,2.2135861498087643
1791041430803609000,7.295609130859375,-1.9692156679093837,1.6719745965659618,1.7498422646224499
1791041430813638100,7.30563818359375,-2.541844290706515,1.3677239387214184,1.0043424619942902
1791041430823668200,7.315668212890625,-2.9044238034009933,0.9882762933343648,0.11108955417871474
1791041430833697300,7.325697265625,-2.917331800290942,0.5290168600857258,-1.0402139858424664
1791041430843727400,7.335727294921875,-2.245561104609817,0.06789280200898647,-2.360163196954131
1791041430853756200,7.345756103515625,-0.8105937676988542,-0.3694149116724729,-3.4934897662580013
1791041430863785200,7.35578515625,1.0428739988319575,-0.6845405992746353,-3.930472485768795
1791041430873815300,7.365815185546875,3.0118565886378286,-0.8479583065837621,-4.4561721841305495
1791041430883844000,7.375843994140625,4.569740111121535,-1.0330389796465635,-5.188413861256837
1791041430893874200,7.385874267578125,4.555720353597402,-0.9283891031265258,-4.648054938423633
1791041430903903200,7.3959033203125,3.7348026141524313,-0.4398918849557638,-3.794339675748348
1791041430913933300,7.405933349609375,2.6394486326292155,0.15216390736699104,-2.779721903455257
1791041430923962400,7.41596240234375,1.5971251072868704,0.4939765263646841,-1.8132921157479285
1791041430933992200,7.4259921875,0.8211930492550135,0.558576716569066,-0.7376350606024265
1791041430944021200,7.436021240234375,0.5464331281803548,0.840127466827631,-0.4381137693673372
1791041430954051300,7.44605126953125,0.3811129482507705,1.1801052716135978,0.6883890913963318
1791041430964080400,7.456080322265625,0.5613781838558614,1.221629122135043,2.1412439671754835
1791041430974110500,7.4661103515625,0.7993716780692338,1.0307815561085938,2.745731371048093
1791041430984139300,7.47613916015625,0.9891774799577892,0.6881120280206203,2.6282284426957365
1791041430994169300,7.48616943359375,1.1479020610146224,0.3612906419277191,2.2884534670054912
1791041431004198400,7.496198486328125,1.0402490571558476,0.17679390623271465,1.7567285170048474
1791041431014228200,7.506228271484375,0.7769710456907749,-0.014840426257252692,1.0137100097984075
1791041431024257300,7.51625732421875,0.8126938087180257,-0.22114567365646362,0.3595785773128271
1791041431034287000,7.526287109375,1.034832000543177,-0.5381424158275127,-0.10936638364791869
1791041431044316400,7.53631640625,1.1180869145959615,-0.7879828535705804,-0.6260562616020441
1791041431054346200,7.54634619140625,1.1232578874930739,-0.8347960426717996,-1.1756529683798551
1791041431064375000,7.556375,0.8331763325154781,-0.7518839507073164,-1.7329314618319271
1791041431074405000,7.566405029296875,0.5569043994426727,-0.6098837099581956,-2.039038561198115
1791041431084434200,7.57643408203125,0.771752434259653,-0.5890566105067729,-1.844539486926794
1791041431094464300,7.58646435546875,0.9841074832171202,-0.5139896790847182,-1.2761211753010748
1791041431104493000,7.5964931640625,0.8883931928247213,-0.37244361184388397,-0.5443190586358309
1791041431114522000,7.606522216796875,0.5652563404634594,-0.08671323781311512,0.16627309674024582
1791041431124552200,7.61655224609375,0.0035109307304024696,0.2841322911843657,0.7857137395948172
1791041431134581200,7.626581298828125,-0.4885296591356396,0.6933966904252767,1.502135331776738
1791041431144611300,7.636611328125,-0.5881424182713031,0.9419690079286694,2.2833909229189158
1791041431154640100,7.64664013671875,-0.29138825366199017,1.0518699368447064,3.1758301762640473
1791041431164670200,7.656670166015625,0.2495437928840518,1.0757605155199765,3.965819693481922
1791041431174699300,7.66669921875,0.666778732612729,1.00454821369946,4.482928673630952
1791041431184729300,7.676729248046875,0.5657108062326908,0.7893474199220538,4.80095358980596
1791041431194758100,7.686758056640625,-0.20838263819515704,0.4463248406127095,4.944052147185802
1791041431204788200,7.696788330078125,-1.417529295375943,0.023285598519444464,4.557783715867996
1791041431214817300,7.7068173828125,-2.52575824830234,-0.299635565264523,3.4581671084642407
1791041431224847400,7.716847412109375,-3.227549257585406,-0.2121285467252135,1.791778203076124
1791041431234876200,7.726876220703125,-4.018256567683816,0.04320727356374263,0.20770634636878965
1791041431244906200,7.73690625,-3.5998581371337175,0.5840212466880679,-0.7208458383649587
1791041431254935300,7.746935302734375,-1.2056389413207769,0.7607531936004758,-1.2915724269330502
1791041431264965400,7.75696533203125,0.1533019714862108,0.8940653932422399,-1.5378174705326557
1791041431274994200,7.766994140625,-0.10192249738276005,0.7986486244916915,-1.5410066219627856
1791041431285024300,7.777024169921875,0.05392389788925647,-0.053387014533579344,-1.3856804511725902
1791041431295053300,7.78705322265625,0.9335033774003386,-0.6347326122716069,-0.9249480227619409
1791041431305083400,7.79708349609375,0.46568654368668794,-0.911570070272684,-0.32426760995686055
1791041431315112400,7.807112548828125,0.24782939018160102,-0.6554144580334424,1.0683008471637963
1791041431325142300,7.817142333984375,0.2790282460436225,-0.008970072919130325,2.414721301093697
1791041431335171300,7.82717138671875,0.37498511302024123,0.5117237799793481,3.1745962505549192
1791041431345201700,7.83720166015625,0.026091888111829758,0.7494160992890596,3.481569026839733
1791041431355230500,7.84723046875,0.2742927419543266,0.7048688092932105,3.6797634484976527
1791041431365260500,7.857260498046875,0.6334335123717785,0.6428104125261307,3.8415228672057387
1791041431375289600,7.86728955078125,0.377536843329668,0.6566808247074485,3.8465304662346838
1791041431385318400,7.877318359375,0.049885728414356706,0.7263830142259597,3.5817519870787855
1791041431395348500,7.887348388671875,-0.28260990392267704,0.9156424342781305,3.1905800016283985
1791041431405377500,7.89737744140625,-0.05902677398622035,1.0807979251652955,2.9290561403542754
1791041431415407600,7.90740771484375,-0.07970102096349001,1.2503779544964433,2.5731051058888434
1791041431425436700,7.917436767578125,-0.239504044906795,1.4665095993831754,2.2885271167635914
1791041431435466500,7.927466552734375,-0.4044692739188671,1.6524653017148374,2.1804823371082542
1791041431445495600,7.93749560546875,-0.49333705941736694,1.8099656016737222,2.1659645669341088
1791041431455525600,7.947525634765625,-0.4696539860129356,1.9630591911062598,2.0741677422463893
1791041431465554700,7.9575546875,-0.5018266553431749,2.0724945483371613,1.8568536095768213
1791041431475584500,7.96758447265625,-0.3685620942354202,2.1466008180335163,1.6652660388380287
1791041431485613600,7.977613525390625,-0.27814766381680966,2.162588660760224,1.3982055862247944
1791041431495643600,7.9876435546875,-0.052396249930560586,2.0359905718043447,1.2056202366203068
1791041431505672700,7.997672607421875,0.1987643305003643,1.7637421951591967,1.0721411559790373
1791041431515702800,8.007702880859375,0.5967968493700027,1.324986036235094,0.8857505693614482
1791041431525731600,8.017731689453125,1.150285302889347,0.7316314362734556,0.5713461817711591
1791041431535761700,8.02776171875,1.480898482480645,0.040303368815779686,0.16652794828414916
1791041431545790700,8.037790771484374,1.6070368449702859,-0.6480372072637081,-0.18638298783302307
1791041431555820800,8.04782080078125,1.7280597641423343,-1.2200263631135224,-0.3235112386316061
1791041431565849600,8.057849609375,2.121191797619313,-1.5160563051015137,-0.3324006475299597
1791041431575879700,8.067879638671876,2.4674495594576,-1.457438696438074,-0.2696194894462824
1791041431585908700,8.07790869140625,2.405313421279192,-1.0990110427260398,-0.19498598100543021
1791041431595938600,8.0879384765625,2.114062822522223,-0.6507149020403623,-0.13525427362024783
1791041431605967600,8.097967529296875,1.8384364938765763,-0.2659896085113287,0.12697569009661674
1791041431615997400,8.10799755859375,1.8157967920452356,0.054606034934520715,-0.13004326097369193
1791041431626026800,8.11802685546875,1.7749238066479562,0.30888065573275086,-0.4513900150477886
1791041431636056600,8.128056640625,1.724522529926896,0.32939152884185313,-0.47992578918039797
1791041431646085600,8.138085693359375,1.1392013065561652,0.1325719026684761,-0.5470259795069694
1791041431656115500,8.148115478515624,0.29199586416631934,-0.18981763845682142,-0.7018430317312478
1791041431666144500,8.15814453125,0.02575403445959091,-0.8144079191595316,-1.1086936478286982
1791041431676174600,8.168174560546875,0.23172654277309773,-1.3180308102697134,-1.7976807051181791
1791041431686203600,8.17820361328125,0.27551950727030633,-1.615949342483282,-2.5568232486516234
1791041431696233500,8.1882333984375,0.12576061521843074,-1.4417881228417158,-3.111396574798226
1791041431706262500,8.198262451171875,-0.1633499027699232,-0.9901754049539565,-3.5557080297619104
1791041431716292600,8.208292724609375,0.07897825964689255,-0.4306482557922601,-3.81539240064919
1791041431726321700,8.21832177734375,0.32421777946576474,0.2029810714125633,-3.9581314770668743
1791041431736351700,8.228351806640624,0.033334114325046536,0.6508510956406592,-3.952214361977577
1791041431746380500,8.238380615234375,-0.27761984055042266,0.7530453957021236,-4.091743244177103
1791041431756409600,8.24840966796875,0.4918389298141002,0.25397476106882094,-4.290174397200346
1791041431766439700,8.258439697265626,1.1707955914765595,-0.6525584840804338,-4.370403533691167
1791041431776468500,8.268468505859374,0.6418108800947666,-1.2123381466984748,-4.1831969545155765
1791041431786498600,8.27849853515625,-0.28702260579839345,-1.179961479228735,-3.8584190569490193
1791041431796527600,8.288527587890625,-0.34821474112495776,-0.7177543020904064,-3.2122868065237995
1791041431806557700,8.2985576171875,0.10267784579470753,-0.5047743992328644,-2.8073323794364926
1791041431816586800,8.308586669921874,0.7345470314592123,-0.599552870079875,-2.621740834242105
1791041431826616600,8.318616455078125,1.0454939720720051,-0.7192670447409153,-2.167801134711504
1791041431836645600,8.328645751953125,0.9525266423001885,-0.7262766312420368,-1.2879682649612425
1791041431846675700,8.33867578125,0.9148989224344491,-0.6658885057747364,-0.1346679981648922
1791041431856704800,8.348704833984375,0.802186589359492,-0.5558458303004503,0.8343219954192638
1791041431866734800,8.35873486328125,0.5004217569813132,-0.4935486563414335,1.2875322116315364
1791041431876763600,8.368763671875,0.09807254395633935,-0.6220557937890291,1.5891712256729602
1791041431886793700,8.378793701171874,-0.2678863820433616,-0.8478215284615754,1.9928864663541317
1791041431896822800,8.38882275390625,-0.5421735710397363,-1.293873689612746,2.144150794532895
1791041431906852600,8.3988525390625,-0.6929109527349472,-1.7655273250102996,2.099164820858836
1791041431916881700,8.408881591796876,-0.7718304679319262,-2.0130396120667458,1.6909528532803058
1791041431926911500,8.418911376953124,-0.8537684541672468,-1.8468121080338953,0.9823048177093266
1791041431936940500,8.4289404296875,-0.8851602022528647,-1.4252239415317773,0.1263888301193714
1791041431946970600,8.438970703125,-0.6559849513977766,-0.9886053791582584,-0.6436421871751546
1791041431956999400,8.44899951171875,-0.3480620347812772,-0.690861618989706,-1.1684124957323074
1791041431967029500,8.459029541015624,-0.18442805437296628,-0.591904401153326,-1.6552379812985658
1791041431977058600,8.46905859375,-0.23659458720088003,-0.5824205334931611,-2.1659780109375713
1791041431987088600,8.479088623046875,-0.4300876993000507,-0.3889402808755636,-2.6877047140151262
1791041431997117400,8.489117431640626,-0.5455930240944028,0.048128363353013986,-3.120316963356733
1791041432007147500,8.4991474609375,-0.512182921923697,0.6577437777638435,-3.3799124869167803
1791041432017176600,8.509176513671875,-0.6190782392829656,1.2018290276437997,-3.1648242136031386
1791041432027206700,8.51920654296875,-0.7294166828334331,1.3500743002623319,-2.7970266739994285
1791041432037235700,8.529235595703126,-0.6608271307319402,1.2184276957452296,-2.5246312900990246
1791041432047265500,8.539265625,-0.28038755169808866,0.8358867605179547,-2.47443371925652
1791041432057294600,8.549294677734375,-0.10000731141120195,0.2347755550801754,-2.559724230790138
1791041432067324700,8.55932470703125,-0.23473405402600764,-0.2733668592810631,-2.3479952047765256
1791041432077353700,8.569353759765624,-0.6167582719027995,-0.6753910781353711,-2.017585438802838
1791041432087383600,8.579383544921875,-1.0498206030994652,-0.8139204279035329,-1.5464543659746646
1791041432097412600,8.58941259765625,-1.2914619522958992,-0.5969611000210047,-0.9577841244369745
1791041432107442700,8.599442626953126,-1.1852736141622067,-0.33696400992274284,-0.2894423802912235
1791041432117471700,8.6094716796875,-0.9672866967976093,-0.026860534396767614,0.297763049390912
1791041432127501800,8.619501708984375,-0.9348375486135482,0.2351496490895748,0.6252566356569528
1791041432137530600,8.629530517578125,-1.0411977361828089,0.5217676196098328,1.0394845025241375
1791041432147560700,8.639560791015626,-1.3244687343627213,0.709084673422575,1.3727490734070538
1791041432157589800,8.64958984375,-1.607651761998236,0.7615390832811594,1.38624042314291
1791041432167619600,8.65961962890625,-1.4110975087627768,0.8019502963855862,1.1618769564837217
1791041432177648600,8.669648681640625,-0.7635007387429475,0.6223436708196998,0.7620698291569947
1791041432187678500,8.679678466796876,-0.0004214402824640274,0.31741292175650593,0.521425674304366
1791041432197707800,8.689707763671874,0.6799255066946148,-0.17703502151221037,0.3978904800504446
1791041432207737600,8.699737548828125,0.750056735280156,-0.5571925687342881,0.36648996413648127
1791041432217766400,8.709766357421875,0.2983756283313036,-0.853672884838283,0.4872510175019502
1791041432227796500,8.71979638671875,-0.5353326191037893,-1.091364035104215,0.8634475521385669
1791041432237825500,8.729825439453125,-1.0096429064899684,-1.1173109617874026,1.585128087761998
1791041432247855600,8.739855712890625,-1.0270429541021584,-1.23355219964087,2.0475819331377743
1791041432257884700,8.749884765625,-0.9304927974075078,-1.2914108066305516,2.089509688284993
1791041432267914500,8.75991455078125,-0.8509493050932884,-1.116638761614263,1.6451280906945467
1791041432277943600,8.769943603515625,-0.9288777634263038,-0.9664493691906333,0.8440671443641186
1791041432287973600,8.7799736328125,-1.4027479058295487,-0.7301537649363279,-0.26358137832581996
1791041432298002700,8.790002685546876,-1.8361013289272785,-0.1920540192067623,-1.1293629263699054
1791041432308032500,8.800032470703124,-2.5233950263023375,-0.1676177893474698,-1.7141092724621294
1791041432318061600,8.8100615234375,-3.344987304008007,-0.03628653438985348,-1.5136550891786813
1791041432328091600,8.820091552734375,-3.063936319965124,0.06111234808862209,-0.7985083392381668
1791041432338120700,8.83012060546875,-2.0342039806485177,0.043972412717342375,-0.004638765716552734
1791041432348150500,8.840150634765624,-1.2106021166861056,-0.13250000647604465,0.47324295041561126
1791041432358179600,8.8501796875,-1.1671849997639656,-0.4215396511852741,0.6952887877821922
1791041432368209400,8.86020947265625,-2.034764537140727,-0.509632506788522,0.6728519150465726
1791041432378238500,8.870238525390626,-2.4671874013900754,-0.30656536452770233,0.855349585878849
1791041432388268500,8.8802685546875,-2.1529157002687453,-0.008764175083488226,1.540562385326624
1791041432398297600,8.890297607421875,-1.3405284732818603,0.3483294535458088,2.3320815963298083
1791041432408327400,8.900327392578125,-1.2422457937061786,0.5736947907239198,3.015740736594796
1791041432418356500,8.9103564453125,-1.661464892989397,0.6220061094284057,3.392194460862875
1791041432428386600,8.920386474609375,-1.4806184964954852,0.5129251185931265,3.680824355727434
1791041432438415600,8.93041552734375,-1.1841826040551067,0.26505641931444407,3.670197163251042
1791041432448445400,8.940445556640626,-0.8169125954568386,0.20408757134974,3.2667320979386565
1791041432458474500,8.950474609375,-1.017685343170166,0.1975701522797346,2.8531296694934367
1791041432468504300,8.96050439453125,-1.526412279421091,0.18930618180334566,3.0140181505858896
1791041432478533600,8.97053369140625,-1.6302128456354141,0.23904987139850853,3.462859065672755
1791041432488562400,8.9805625,-1.5730600488275288,0.41592444165199993,3.887450505644083
1791041432498592300,8.99059228515625,-1.336855045466125,0.5886807629317045,4.082022645151615
1791041432508622300,9.000622314453125,-1.1440110449254512,0.6697583329454064,4.100302398207783
1791041432518651400,9.0106513671875,-1.278203826794028,0.7343897950708865,3.913112185645103
1791041432528681500,9.020681396484376,-1.3671832559734582,0.8596598502933979,3.8869899023950096
1791041432538710300,9.030710205078124,-1.3405787421643733,1.0094450458303093,3.786728031700849
1791041432548739300,9.0407392578125,-1.1861620874345302,1.188784544892609,3.4798750824034212
1791041432558769400,9.050769287109375,-1.1897346852242945,1.2783660316184162,2.985157966804504
1791041432568799500,9.060799560546876,-1.184170621356368,1.2882444515541196,2.430117023146152
1791041432578828500,9.07082861328125,-0.6148372407123446,1.1842068617135286,1.9943372496843337
1791041432588858400,9.0808583984375,-0.16984774035662412,0.9270917567923664,1.345178344914317
1791041432598887400,9.090887451171875,-0.2783019775956869,0.6101613578557967,0.4516910438209772
1791041432608917500,9.10091748046875,-0.34373306566625833,0.2230629054546356,-0.3269312762081623
1791041432618946600,9.110946533203125,-0.1188905833184719,-0.3268471050560474,-0.8912819000035523
1791041432628976400,9.120976318359375,0.39295127008259295,-1.0985843417465686,-1.381454942432046
1791041432639005400,9.13100537109375,0.7691232547998428,-1.9649930817782877,-2.0193863507449628
1791041432649035500,9.141035400390624,0.6211445241630077,-2.7749399298757313,-2.7213334273725747
1791041432659064600,9.151064697265625,0.21903759546130894,-3.3136481628924606,-3.0500311287313697
1791041432669094700,9.1610947265625,0.058036886166036125,-3.3412668221801516,-2.9226252305239435
1791041432679123500,9.17112353515625,0.26903789016604424,-2.804153749400377,-2.4477222379416226
1791041432689153500,9.181153564453124,0.8994114304453134,-1.777348695707321,-1.7853940549969671
1791041432699182600,9.1911826171875,1.5383324343174696,-0.6388625516831874,-1.253593701672554
1791041432709212400,9.20121240234375,1.5594816053301095,0.1753004528045654,-0.9848848973304033
1791041432719241500,9.211241455078126,1.2460349568560718,0.33325346496701236,-0.8084551482349633
1791041432729271300,9.221271240234374,1.0352192462950944,0.03129121032059193,-0.7357581608146428
1791041432739300600,9.231300537109375,0.9222602449826895,-0.5654582927763462,-0.8520598966836929
1791041432749330400,9.241330322265625,0.9058936320714652,-1.2025415598273277,-1.0764227788209915
1791041432759359200,9.251359130859376,0.9639403089791536,-1.7248890251517295,-1.0872744277030228
1791041432769389300,9.261389404296875,1.028945426722616,-2.0467963357180357,-1.0332102445602416
1791041432779418400,9.27141845703125,1.0625484211169183,-2.1591513797879216,-0.9469003268510102
1791041432789448400,9.281448486328125,0.8158503730528056,-2.2840736444860696,-1.2564508446693419
1791041432799477500,9.2914775390625,0.9903099911190569,-2.1032857001811265,-1.5936404800415038
1791041432809507300,9.30150732421875,1.3692619619436561,-1.8689327544271945,-2.1086270612090825
1791041432819536400,9.311536376953125,1.2607036798082292,-1.5298761561393737,-2.4426959342122077
1791041432829566500,9.32156640625,0.819916453447938,-1.1824234854280948,-2.8878192900806665
1791041432839595500,9.331595458984374,0.4933475808113813,-0.9019768970191478,-3.2574013750135897
1791041432849625300,9.341625244140625,0.6685742377273738,-0.7344552615225315,-3.3865976637691255
1791041432859654400,9.351654296875,1.1438523472324014,-0.843924521023035,-3.3560359367668626
1791041432869684500,9.3616845703125,1.3952335846766828,-1.0904583184361458,-3.2083295933306215
1791041432879713500,9.371713623046874,1.2043125150226055,-1.1960048515349626,-2.914960979506373
1791041432889743600,9.38174365234375,0.8849081271879374,-1.1055465819746255,-2.362766657450795
1791041432899772400,9.3917724609375,0.7013450190812349,-0.8939929125279188,-1.6448802534133196
1791041432909802500,9.401802490234376,0.7069675351381302,-0.6306067645132541,-0.8414619303017854
1791041432919831600,9.41183154296875,0.7507198753640055,-0.4277741616606712,-0.07566928122937679
1791041432929861600,9.421861572265625,0.6440718107640743,-0.3630032910645008,0.5757394482940436
1791041432939890400,9.431890380859375,0.42591596657335756,-0.409963779681921,1.0252373659849165
1791041432949920500,9.44192041015625,0.2203429789714515,-0.5631079302579164,1.2674626525491475
1791041432959949600,9.451949462890624,0.03129968588799238,-0.8013637286692857,1.2243027252584695
1791041432969979600,9.461979736328125,-0.13273703010231255,-1.0038725063949823,1.0825292790025471
1791041432980008400,9.472008544921875,-0.24434739328473806,-1.0887024146795272,0.9414712875396013
1791041432990038300,9.482038330078124,-0.3362745663538575,-1.0679226615011692,0.7137146713107824
1791041433000068400,9.492068359375,-0.3371107249170542,-0.991500516077876,0.4225906215429306
1791041433010097400,9.502097412109375,-0.22189736880660055,-0.8749848451972008,-0.05157061276137829
1791041433020127500,9.51212744140625,-0.09038491206318139,-0.7678074960261583,-0.5941840365231037
1791041433030156300,9.52215625,-0.16355185508280992,-0.7600543976813554,-0.9970108039319515
1791041433040186400,9.532186279296875,-0.3169365364164114,-0.7470154678881168,-1.391473647621274
1791041433050215400,9.54221533203125,-0.4226461511224508,-0.6971376305192708,-1.778568592891097
1791041433060245500,9.55224560546875,-0.3598439502507448,-0.6084498777627945,-2.07614342623353
1791041433070274300,9.5622744140625,-0.16981617617458103,-0.5360369679808616,-2.231892206349969
1791041433080304400,9.572304443359375,-0.06700812812894583,-0.552364417925477,-2.1008073273688552
1791041433090333400,9.58233349609375,0.0015709025785326956,-0.6584452040314674,-2.033442348626256
1791041433100363500,9.592363525390626,0.17500380794554948,-0.6898322759419679,-2.04895146792531
1791041433110392600,9.602392578125,0.36034634681493044,-0.6923959889501333,-2.1799831554144617
1791041433120422400,9.61242236328125,0.33540070612877604,-0.5321715247243642,-2.266173830658197
1791041433130451500,9.622451416015625,0.2509229722827673,-0.25020927105546,-2.113098069143295
1791041433140481500,9.6324814453125,0.12725246121138334,-0.11617431009709835,-1.8461077591568231
1791041433150510600,9.642510498046875,0.30843349648714063,-0.004453180016577243,-1.3708932164072989
1791041433160540400,9.65254052734375,0.5659551363825798,0.07355448103249072,-0.6233738906502724
1791041433170569500,9.662569580078125,0.7167027472108602,0.07199439210891723,0.1498743351250887
1791041433180599600,9.672599609375,0.7068100064888596,0.05839373677968979,0.860810189372301
1791041433190628600,9.682628662109375,0.4905459673941135,0.03918108678758144,1.2642694094657898
1791041433200658400,9.692658447265625,0.3293947437122464,-0.09211042068153619,1.3159195172041653
1791041433210688300,9.702688232421876,0.3864417420580983,-0.2821536845877766,1.2024164721429347
1791041433220717300,9.71271728515625,0.5945756661891937,-0.645849634091556,0.8923790475904941
1791041433230747400,9.722747314453125,0.8216188734516501,-1.0520023310527205,0.7522849327236414
1791041433240776400,9.7327763671875,0.8987067893072962,-1.4562532860457897,0.8405518297195435
1791041433250806500,9.742806640625,0.7434653741911054,-1.7536378575131295,0.9730693718522786
1791041433260835300,9.75283544921875,0.40620150453895326,-2.155064694996178,1.0560340707868336
1791041433270865400,9.762865478515625,-0.11730652899742126,-2.241912665104866,1.1595090583086014
1791041433280894500,9.77289453125,-0.425053504525125,-2.1813398307204244,1.0979302617520093
1791041433290924500,9.782924560546874,-1.0646849947541952,-2.0506588563650845,1.0801005905508994
1791041433300953300,9.792953369140625,-1.9463772286355494,-1.5822195068389175,1.0843342825978994
1791041433310983400,9.8029833984375,-2.2354648041397334,-0.9923457347303628,1.4453858550727368
1791041433321012500,9.813012451171875,-1.8090327047377823,-0.4230545857928693,2.2851234457999468
1791041433331042600,9.82304248046875,-0.8207309847012162,0.01334711895957589,3.135210581105947
1791041433341070800,9.83307080078125,-0.6266483822762966,0.29342458179518577,3.774952838233113
1791041433351101000,9.843100830078125,-1.665799122801423,0.29162717698439955,3.967175199744105
1791041433361130000,9.8531298828125,-2.6873066546082494,0.2352111700184643,3.9161744958251714
1791041433371160000,9.86316015625,-2.3470889035865663,0.25545710858106613,4.038560520043969
1791041433381188900,9.87318896484375,-0.9921586877256632,0.15262158800661563,4.360625066998601
1791041433391219000,9.883218994140625,-0.4758370585620403,-0.05138546545282006,4.669708551827073
1791041433401249000,9.8932490234375,-0.8719131826668978,-0.12634455258622765,5.083831789276004
1791041433411278000,9.903278076171874,-1.938850924783945,0.09470511334985494,5.220590037718415
1791041433421308200,9.91330810546875,-2.449249301378429,0.6082751057177782,5.015210672992468
1791041433431337000,9.9233369140625,-1.7738845267280936,1.088202210072428,4.772849192827939
1791041433441366800,9.93336669921875,-1.1027452608183026,1.436732739148289,4.568554116207361
1791041433451396000,9.94339599609375,-0.9343336907446383,1.8267274975128471,4.412489109748602
1791041433461426000,9.953426025390625,-1.1149427713513373,2.2371108177810908,4.273778558194637
1791041433471455000,9.963455078125,-1.1064680807337164,2.5625287668168544,4.004018198972941
1791041433481484800,9.97348486328125,-0.727484837988019,2.7992311983063813,3.419051488128304
1791041433491513900,9.983513916015625,-0.43624271479845045,2.9075483651623126,2.6885283053576945
1791041433501544000,9.9935439453125,-0.5655410026237369,2.884496283137798,1.9998183114439247
1791041433511573000,10.003572998046875,-0.5323287611126899,2.7010540249317883,1.4662772519320248
1791041433521602800,10.013602783203124,-0.3503273493647575,2.3847651387691498,1.0409259335041046
1791041433531631900,10.0236318359375,-0.1492985810637474,1.9796508449450134,0.5161082786738872
1791041433541662000,10.033661865234375,-0.07341419577896595,1.4176079135701058,-0.182791100820899
1791041433551691000,10.04369091796875,-0.16763298691660164,0.8236676226750016,-0.7926356478124856
1791041433561720800,10.053720947265624,-0.21542408113926648,0.20083879868686197,-0.9823971721678971
1791041433571751000,10.0637509765625,-0.29466654468029735,-0.4260951225325465,-0.976110639244318
1791041433581780000,10.073780029296875,-0.3290469531878829,-1.029578610059619,-0.886896232265234
1791041433591810000,10.08381005859375,-0.5199482952281832,-1.5498545298069715,-0.8242910152703523
1791041433601839000,10.093839111328125,-0.8185033717796206,-1.903339466419816,-0.8123153307944536
1791041433611869000,10.103868896484375,-0.7104302428126335,-1.9907249044060706,-0.6988187154740094
1791041433621898000,10.11389794921875,-0.33462913723438975,-1.7987696693986652,-0.5872925234436989
1791041433631928000,10.123927978515624,-0.1309004623249173,-1.4954372954428194,-0.6096458095490932
1791041433641957000,10.13395703125,0.21377602167129514,-1.2673176911205053,-1.0240788435995578
1791041433651987200,10.1439873046875,0.5029346165850759,-1.1268997511267662,-1.4838409656733274
1791041433662016000,10.15401611328125,0.7569818583682179,-0.9657628482311963,-1.6416244664877653
1791041433672045800,10.1640458984375,1.0855077102914452,-0.8692273045837878,-1.877286741274595
1791041433682075100,10.1740751953125,1.3833258508704602,-0.752440415546298,-2.1014485478818417
1791041433692105000,10.18410498046875,1.5241431654453277,-0.8175286815285682,-2.4058342302829026
1791041433702134000,10.194134033203126,1.54295658698678,-0.9630208560466765,-2.4964234327465293
1791041433712163800,10.204163818359374,1.4187395479485392,-1.1145096406310797,-2.2400445331454275
1791041433722194000,10.21419384765625,1.29270084644109,-1.5955179643511772,-2.0736860962092876
1791041433732223000,10.224222900390625,1.2707301299124956,-1.875228055179119,-1.4898428364366292
1791041433742253000,10.234253173828124,1.1585758691117167,-2.080571179547906,-0.9098504068732262
1791041433752281900,10.24428173828125,1.0225396513335405,-2.064850463324785,-0.5997644670039415
1791041433762312000,10.25431201171875,1.086650596716255,-1.9084300675570964,-0.5327250669538974
1791041433772341000,10.264341064453125,1.254744333012402,-1.892671357411146,-1.032805170890689
1791041433782371000,10.27437109375,1.225180092614889,-1.7442998280644415,-1.5022738634645938
1791041433792400000,10.28439990234375,0.856369576576352,-1.4601158066928386,-1.8983464804381132
1791041433802430000,10.294429931640625,0.7275963355384767,-1.1564987705767154,-2.177642145246267
1791041433812459000,10.304458984375,0.8392629589527845,-0.8199825044214725,-2.2569489061951638
1791041433822489000,10.314489013671874,0.8656134980008006,-0.4757458731472492,-2.1402222229123113
1791041433832518000,10.324517822265625,0.8456710724294185,-0.3289811944752931,-2.04591136957705
1791041433842548000,10.3345478515625,0.8805994702085852,-0.46522214104533194,-2.0188404072999955
1791041433852578000,10.344578125,0.9156248986214399,-0.729538263386488,-1.8887018692582844
1791041433862607000,10.354607177734374,0.8761731781989336,-0.9127174867421388,-1.5181974087834358
1791041433872637000,10.364636962890625,0.703542675255984,-1.0904933897495268,-1.1904746899366379
1791041433882666000,10.374666015625,0.5846963694706558,-1.1560709005534648,-0.7928501673460007
1791041433892695800,10.38469580078125,0.4867693714648485,-1.0601935285538435,-0.21385434760451316
1791041433902724900,10.394724853515624,0.3765943017825484,-0.8999655571967363,0.3791553844422102
1791041433912755000,10.4047548828125,0.22794687810391187,-0.7025666698306798,0.8729688291996717
1791041433922783700,10.41478369140625,0.07118687511831522,-0.49137715752124783,1.282003219076991
1791041433932813800,10.424813720703124,0.0927829131156206,-0.3897784852653742,1.4216653722673653
1791041433942843000,10.4348427734375,0.22728870645612476,-0.5083277078002691,1.2394535326391458
1791041433952873000,10.444873046875,0.3651037704750895,-0.7846165920078754,0.7865840926885604
1791041433962902000,10.454902099609376,0.4681777759805321,-1.078956096690893,0.2250941190212965
1791041433972931800,10.464931884765624,0.38062545699477196,-1.3181342706441879,-0.3790332193672657
1791041433982961000,10.4749609375,0.21840192790627477,-1.270825991502404,-1.013897641324997
1791041433992991000,10.484990966796875,-0.03680792791545391,-0.9269061710923909,-1.6784341479688882
1791041434003021000,10.49502099609375,-0.2712748554378748,-0.4926853175103664,-2.278763263118267
1791041434013049900,10.5050498046875,-0.39898002885282036,-0.2283440607279539,-2.720916663265228
1791041434023080000,10.515079833984375,-0.42451106821149587,-0.1310638361930847,-3.153452924761176
1791041434033109000,10.52510888671875,-0.5491083387389779,-0.14516133512854576,-3.5619589068502187
1791041434043139000,10.53513916015625,-0.8491501467168331,-0.17594985662400722,-3.8142946685403585
1791041434053168000,10.545168212890625,-1.090771037647128,-0.17875497717261313,-3.6806221111536024
1791041434063198000,10.555197998046875,-1.2339976053208113,-0.05540215374827385,-3.1224364397287365
1791041434073227000,10.56522705078125,-1.24112409619987,-0.0801040488064289,-2.6442045949846507
1791041434083256800,10.5752568359375,-1.016807099030912,-0.2302782436609268,-2.036601689440012
1791041434093286100,10.5852861328125,-0.7465203778475522,-0.4878752868801355,-1.3993191004246472
1791041434103316000,10.59531591796875,-0.5082312616884708,-0.8803604007557034,-0.8331026827573775
1791041434113345000,10.605344970703126,-0.5049231600537896,-1.3403732827201484,-0.6970633962392807
1791041434123374800,10.615374755859374,-0.7575619963437318,-1.8181559223920105,-0.9524866025507449
1791041434133404000,10.62540380859375,-0.9744067579358816,-2.191356490083039,-1.1179676721304654
1791041434143434000,10.63543408203125,-1.2418188004657627,-2.3376567661136387,-0.9236942233085632
1791041434153463800,10.6454638671875,-1.1949252396047114,-2.262332645060122,-0.432599389860034
1791041434163492900,10.655492919921874,-0.7399766552925109,-1.8814321705162524,0.19731880786716938
1791041434173523000,10.66552294921875,-0.16697949144393204,-1.5677756786838173,0.9543617487728595
1791041434183552000,10.675552001953125,0.22903964177668093,-1.3644415560498833,1.6255489454776049
1791041434193582000,10.68558203125,0.13703735764473676,-1.197270049165189,2.073898277655244
1791041434203611000,10.69561083984375,-0.050175359010696405,-1.039966440822184,2.3487223500072956
1791041434213641000,10.705640869140625,-0.22151246114224193,-1.1103797012194991,2.414613749065995
1791041434223670000,10.715669921875,-0.4669821364551782,-1.2368471495330333,2.5335218680411575
1791041434233700000,10.7257001953125,-0.8724871831625699,-1.1161945249781011,2.7811072203338143
1791041434243729000,10.73572900390625,-1.2058406013727188,-0.9364854619510471,3.009793226367235
1791041434253759000,10.745759033203125,-1.3481713892504572,-0.5190463779523968,3.2447441380143163
1791041434263788000,10.7557880859375,-1.3568755047097802,0.005620470230281353,3.193755124533176
1791041434273818000,10.765818115234374,-1.700223370450735,0.34602000755965706,2.742069341409206
1791041434283847000,10.775846923828125,-2.426884032574296,0.6090731242276728,2.5005653548568487
1791041434293877000,10.785876953125,-2.7334499816238877,0.6564867634400725,2.6593781987190246
1791041434303906800,10.79590673828125,-2.4667946026802063,0.6547872660458087,3.1998551949739453
1791041434313936000,10.805935791015624,-1.7328195258900523,0.6539603137023746,3.551408286741376
1791041434323966000,10.815966064453125,-1.571343892559409,0.313462722826004,3.3629145903646944
1791041434333994800,10.825994873046875,-1.8335501831397414,-0.19843655985072253,2.978402062803507
1791041434344025300,10.836025390625,-1.1950944586917758,-0.5465498864278197,3.1700919248729944
1791041434354054400,10.846054443359375,-0.7609712202653288,-0.41852834054008126,3.8424744688421484
1791041434364084500,10.85608447265625,-1.2484043163359164,0.05617153068557381,3.997984764027595
1791041434374113500,10.866113525390626,-1.8701558664813636,0.4456479642644524,3.9022850866824386
1791041434384143400,10.876143310546874,-2.231399454396963,0.7277196696572006,4.050604593580961
1791041434394172400,10.88617236328125,-2.0110665584281087,0.9487430321082472,4.054705014637112
1791041434404202500,10.896202392578125,-1.5487144198611378,1.0330471629530191,3.881899301257729
1791041434414231600,10.9062314453125,-1.2550757569238542,1.0329846191108225,3.5887609890580174
1791041434424261600,10.91626171875,-0.8814508263409138,1.037588313513994,3.4955876153200864
1791041434434291500,10.92629150390625,-0.7840072279378771,1.025736255417764,3.3976521417468786
1791041434444320500,10.936320556640625,-0.999188147971034,1.0632464863836764,3.2154537461221215
1791041434454350600,10.9463505859375,-1.1405229105487464,1.1313923863708972,3.0762387521773573
1791041434464379600,10.956379638671875,-1.018263435319066,1.1521101802289486,2.8592408458501097
1791041434474409200,10.9664091796875,-0.7284703418940305,1.0897171446800231,2.735598099568486
1791041434484438500,10.9764384765625,-0.4999883340001106,0.9342775766432285,2.4724726483166215
1791041434494468400,10.98646826171875,-0.5663727772727608,0.6770695327416062,2.115714973643422
1791041434504497400,10.996497314453125,-0.7267457100585103,0.386746277962625,1.913684334823489
1791041434514527500,11.006527587890625,-0.5966328909799457,0.048916006599366665,1.7218524339348076
1791041434524556300,11.016556396484376,-0.3900260302856564,-0.3786135326504707,1.415617908796668
1791041434534586400,11.02658642578125,-0.3300833104982972,-0.8729910410314797,0.9560913490444422
1791041434544615400,11.036615478515625,-0.21136165400594473,-1.4494798463881016,0.2916378445088863
1791041434554645500,11.0466455078125,-0.09692132809460162,-2.0379314767390486,-0.6137433079957961
1791041434564675600,11.056675537109374,0.07614245169907807,-2.620156195399165,-1.6521821008592843
1791041434574704400,11.066704345703124,0.3658841071978211,-3.0650562639057632,-2.4483710572391746
1791041434584734500,11.076734375,0.439238681744039,-3.1773236296921965,-2.9782050789266825
1791041434594763500,11.086763427734375,0.440376453602314,-2.9764959369212387,-3.1709400661349294
1791041434604793600,11.096793701171874,0.560659952583909,-2.468386255785823,-2.998586188176274
1791041434614822400,11.106822509765625,0.9220219061821698,-1.7940771276682614,-2.696943667003512
1791041434624852500,11.1168525390625,1.5353335447624326,-1.1793202587157487,-2.1691747611522674
1791041434634881500,11.126881591796876,2.0107892027914525,-0.8806079457759857,-1.7047762114495038
1791041434644911600,11.13691162109375,2.160973334518075,-0.9270762669622897,-1.4841396563589573
1791041434654940400,11.1469404296875,2.008523888207972,-1.0960276430010796,-1.4544664026290177
1791041434664970500,11.156970458984375,1.4724579863935707,-1.2870996654331683,-1.2634288669884204
1791041434674999600,11.16699951171875,1.4267552427522838,-1.6272785457491874,-2.0579531050264834
1791041434685029600,11.177029541015624,1.098792431539297,-2.0142782139509916,-2.5485353127777577
1791041434695059500,11.1870595703125,0.8843494703918695,-2.041282540732622,-2.2280250095278022
1791041434705088300,11.197088134765625,0.9200706259839236,-2.1268203050255776,-2.159950421211123
1791041434715118300,11.207118408203126,1.0514489349536598,-1.988743375200033,-2.0851222669810054
1791041434725147400,11.2171474609375,1.1517460230916738,-1.4350614449352026,-1.7895435758918523
1791041434735177500,11.227177490234375,0.9972831911325454,-0.8594114284902811,-1.7473849345982073
1791041434745206300,11.237206298828125,0.8783309407547116,-0.44930560998916624,-1.9917454796254634
1791041434755236400,11.247236328125,0.8215604212626815,-0.26448738725483417,-2.3746891504347323
1791041434765265400,11.257265380859375,0.8692709975950419,-0.23809388584792612,-2.7913796080231665
1791041434775295500,11.26729541015625,1.0349734548404812,-0.2922399020552635,-3.158923465126753
1791041434785324500,11.277324462890626,1.0356506234496832,-0.31930560363531113,-3.330494083753228
1791041434795354400,11.287354248046874,0.8702668767645955,-0.202345696118474,-3.1974370279163122
1791041434805383400,11.297383544921875,0.6786936268121003,-0.008707038068771362,-2.6886066312909125
1791041434815413500,11.30741357421875,0.5368896392874419,0.13181143968999384,-2.053358762973547
1791041434825443600,11.317443603515626,0.4486877703517675,0.2116436858177185,-1.4394108723163603
1791041434835472400,11.327472412109374,0.3315036986902356,0.13645429705977438,-0.9677835404038428
1791041434845502500,11.33750244140625,0.21830285144597292,-0.011838906353712082,-0.4778016366332769
1791041434855531500,11.347531494140625,0.16142010375112295,-0.18596037850677966,-0.04152911121845245
1791041434865561600,11.3575615234375,0.04960545016825199,-0.34030396800041196,0.26491642632186413
1791041434875590700,11.367590576171875,-0.10315408500432968,-0.44275779578089713,0.47931730189323424
1791041434885620500,11.377620361328125,-0.2231406468659639,-0.6255798762619496,0.5808136828184127
1791041434895649500,11.3876494140625,-0.31969811008423565,-0.8778069168806075,0.5309381835371255
1791041434905679400,11.397679443359374,-0.27435850066691636,-1.2060872696101665,0.4408487472891807
1791041434915708400,11.40770849609375,-0.01896656627655029,-1.55619834587574,0.3773942199885845
1791041434925738500,11.417738525390625,0.242765969312191,-1.928951462060213,0.39516485447883604
1791041434935768300,11.427768310546876,0.4003898956507444,-2.2586662315070627,0.4755909748464823
1791041434945797400,11.43779736328125,0.35467473091930146,-2.441074470490217,0.4076648550897836
1791041434955827500,11.447827392578125,0.21216098769009112,-2.3181939407527445,0.13593933327496052
1791041434965856500,11.4578564453125,0.012802490688860416,-1.9689356819242239,-0.26009645881950855
1791041434975886300,11.46788623046875,-0.24500351910591123,-1.6074620846450327,-0.6805296100676059
1791041434985915400,11.477915283203124,-0.5024281283676624,-1.2835463568657637,-1.1570751091599463
1791041434995945500,11.487945556640625,-0.5336342907533049,-1.0993243464589117,-1.6740718611061571
1791041435005974500,11.497974609375,-0.3819651811659336,-1.0062854127556085,-2.0762357806921004
1791041435016004600,11.508004638671874,-0.1595990258038044,-0.9922948813259601,-2.347375027051568
1791041435026033400,11.518033447265625,-0.10762889233082533,-1.0253086776554583,-2.27903740388453
1791041435036063500,11.5280634765625,-0.25217969434559345,-0.9578402385383844,-1.971826142668724
1791041435046092500,11.538092529296875,-0.391186890758574,-0.8566673904791474,-1.6277689596146345
1791041435056122600,11.54812255859375,-0.42314474829435345,-0.7176423661485314,-1.2801502846866846
1791041435066152400,11.55815234375,-0.40497722344100473,-0.6496820518612861,-0.991360815346241
1791041435076181500,11.568181396484375,-0.4172866699159145,-0.7504927886098622,-0.811887460771203
1791041435086211300,11.57821142578125,-0.6269158010408282,-0.8296987195327877,-0.6113169576317071
1791041435096240600,11.58824072265625,-0.7894777683034538,-0.9749252288520336,-0.4163683860272169
1791041435106270500,11.5982705078125,-1.0339400201395152,-1.1520704327404498,-0.25075696806609626
1791041435116299300,11.60829931640625,-1.29613257445544,-1.3939663412198424,0.03423135542571545
1791041435126329300,11.618329345703126,-1.3626128793179988,-1.4504554134219885,0.54667059019804
1791041435136358400,11.6283583984375,-1.1710089419662952,-1.5277037805363536,1.1071323898613452
1791041435146388500,11.638388427734375,-0.9183516932368277,-1.569201035311818,1.4678005159765481
1791041435156417300,11.648417236328125,-0.7134826161205768,-1.5349182419598102,1.7410417030513285
1791041435166447400,11.658447265625,-0.8182847605928778,-1.3107809852719305,2.02673963611722
1791041435176476400,11.668476318359374,-1.2377742012500763,-1.2745491036787628,1.9908242731273174
1791041435186506500,11.678506591796875,-1.5676099667280912,-1.0316353964589535,1.873592562931776
1791041435196536600,11.68853662109375,-1.8557950404345989,-0.8034538328163325,1.4563713594675063
1791041435206565400,11.6985654296875,-2.4270529594004153,-0.5933646829642355,1.0978858380883931
1791041435216595500,11.708595458984375,-2.7023013946443792,-0.15775719732940197,1.4524299283653497
1791041435226624500,11.71862451171875,-2.228023840484023,0.04944266082197427,2.637355752003193
1791041435236654600,11.728654541015626,-1.0481360110133886,0.5536503660827875,4.266748513427377
1791041435246683400,11.738683349609374,-0.7634355645522475,1.0238153703577817,5.235130019724369
1791041435256713500,11.74871337890625,-1.833867870786786,1.535443581008166,5.329418076705933
1791041435266742500,11.758742431640625,-2.8009634289264675,1.796688771471381,4.572839246180654
1791041435276772600,11.768772705078124,-2.6023423062890765,1.7190993358343838,3.940204190710187
1791041435286801700,11.7788017578125,-2.0616163037091493,1.4132637468859552,3.6067081491589543
1791041435296831500,11.78883154296875,-1.7262392707169054,1.1148835885100066,3.451540383800864
1791041435306861300,11.798861328125,-1.3494330797493457,0.9603308863103389,2.9885838495999573
1791041435316890400,11.808890380859374,-1.4736229385197162,0.8919764581389724,2.7012983550816774
1791041435326920400,11.81892041015625,-1.7138561744838952,1.030761828494817,2.908300937095284
1791041435336949200,11.82894921875,-1.4451640290156007,1.1744748645111918,3.374408044281602
1791041435346978300,11.838978271484375,-1.0834475628912448,1.2024912909448147,3.667703592869639
1791041435357007600,11.849007568359376,-0.7262769235029817,1.1786565341100097,3.8286458499759433
1791041435367037400,11.859037353515625,-0.6303554201006889,1.12845925552845,3.873932267901301
1791041435377066500,11.86906640625,-0.6921867301136255,1.0555068320423364,3.755010120400786
1791041435387096300,11.879096435546876,-0.6796662712365389,0.9810971954852342,3.6428707649081944
1791041435397125400,11.88912548828125,-0.7503051570832729,0.8563190154328941,3.5080215649574993
1791041435407155500,11.899155517578125,-0.8249024251669644,0.7273693949148059,3.307814049911499
1791041435417184500,11.9091845703125,-0.7349196641638874,0.5727262379527092,3.1345670225054025
1791041435427214300,11.91921435546875,-0.48915012912154193,0.36425329112559557,2.9329443799644705
1791041435437244400,11.929244384765624,-0.37184067751467226,0.11047726749926805,2.5896844847679135
1791041435447273500,11.9392734375,-0.35745910094082356,-0.1584460563763976,2.077595963129401
1791041435457303600,11.949303466796875,-0.36788171075582504,-0.47249476239681243,1.4979811347067356
1791041435467332600,11.95933251953125,-0.4327712392956018,-0.8314785886868834,0.8528221132278442
1791041435477362400,11.969362548828125,-0.3805617441087961,-1.1552245128571987,0.23818390221893787
1791041435487391500,11.9793916015625,-0.18307634750306606,-1.5190876356214285,-0.25384499720931053
1791041435497421600,11.989421630859376,0.02866144633889198,-1.9379560217708347,-0.7814438071906566
1791041435507450600,11.99945068359375,0.35359891838133334,-2.2789374506413935,-1.4504039754956959
1791041435517480700,12.009480712890625,0.5986491992384195,-2.5686025337725877,-2.121401202586293
1791041435527509500,12.019509521484375,0.519564556607604,-2.767223071888089,-2.492432901805639
1791041435537539600,12.02953955078125,0.4034215184316039,-2.7598534199029205,-2.438598435765505
1791041435547569400,12.0395693359375,0.32582389948815105,-2.2717010696470736,-1.889569884264469
1791041435557598500,12.049598388671875,0.46760523678958416,-1.390378838121891,-1.107686516612768
1791041435567628300,12.059628173828125,0.8227870404481887,-0.5661714094817638,-0.3997077586054802
1791041435577657300,12.0696572265625,1.0459300254017114,-0.207256264513731,-0.21616496263444424
1791041435587687400,12.0796875,1.233882454508543,-0.4804875147163868,-0.7254349197208881
1791041435597716500,12.089716552734375,1.216079086792469,-1.191706862080097,-1.3783809418141841
1791041435607746600,12.09974658203125,0.9618483051359653,-2.207073991435766,-2.0620278071194886
1791041435617775400,12.109775390625,0.6768845315635204,-3.2724978218585252,-2.7362311367750167
1791041435627805400,12.119805419921875,0.617702128624171,-3.89441216135025,-3.2439714000761506
1791041435637834500,12.12983447265625,0.6713244132183491,-3.5704409039914604,-3.396339890104532
1791041435647864600,12.139864501953125,0.7559989848107099,-2.5641671816736458,-3.455526238566637
1791041435657893400,12.149893310546876,1.0132572975948453,-1.4940969867497682,-3.72363298536241
1791041435667923500,12.15992333984375,1.138523407294601,-0.5610965904355049,-3.862776083114743
1791041435677953500,12.16995361328125,1.0166340805515646,0.15756956580281256,-3.7617473197013136
1791041435687982600,12.179982666015626,0.8740943260982632,0.5375836129009723,-3.6552369100064035
1791041435698012700,12.1900126953125,0.7206546997070312,0.6803378868877887,-3.4460470470815894
1791041435708041500,12.20004150390625,0.5613233849287033,0.676197133821249,-3.069117521995306
1791041435718071600,12.210071533203125,0.4117413107484579,0.6200017838686704,-2.5585622012734413
1791041435728100600,12.2201005859375,0.4217522710226476,0.6914496480107307,-1.7285393643528222
1791041435738130700,12.230130615234375,0.5986100362718105,0.6303823081076145,-1.177977027413249
1791041435748159500,12.240159423828125,0.7333785722017288,0.30189328106343744,-0.9404998121589422
1791041435758189300,12.250189208984375,0.7434720961928367,-0.18599077364504335,-0.6785229464203119
1791041435768218600,12.260218505859376,0.6489125287935137,-0.7228969256758689,-0.42898003031909465
1791041435778248400,12.27024853515625,0.4928180039793253,-1.1589070007622242,-0.06248071383237838
1791041435788278500,12.280278564453125,0.3475207675114274,-1.4269073645740746,0.37280864576399325
1791041435798307300,12.290307373046875,0.14362696516811846,-1.4928238980740307,0.7993944744229317
1791041435808337400,12.30033740234375,-0.117489776609838,-1.4013240105062723,1.1313578995794058
1791041435818366500,12.310366455078125,-0.27472499589174987,-1.278923957762122,1.2470090625852346
1791041435828396500,12.320396484375,-0.3070943568378687,-1.2558809358268976,1.1519593735814093
1791041435838425300,12.33042529296875,-0.3039472909837961,-1.3077227667450904,1.0623977605998516
1791041435848455400,12.340455322265624,-0.346428588360548,-1.3345342013031243,0.8967693915039301
1791041435858484500,12.350484375,-0.32377164313346146,-1.324652274236083,0.5413718992680311
1791041435868514600,12.3605146484375,-0.20945494360178707,-1.3040829489380121,-0.18633271895051
1791041435878544600,12.370544677734374,-0.09611147301644087,-1.2566133417546748,-0.9524801728099584
1791041435888573400,12.380573486328124,0.22542174354046582,-1.194215630030632,-1.5738444772034883
1791041435898603500,12.390603515625,0.518747687266767,-1.155425003865361,-2.0566566354751585
1791041435908632600,12.400632568359375,0.6402978451833129,-1.0605249524652958,-2.3037872297376394
1791041435918662700,12.41066259765625,0.47102322853952644,-0.9899328283697366,-2.4948124904185534
1791041435928691500,12.42069140625,0.07500731018930673,-0.857509394261241,-2.666857740819454
1791041435938721500,12.430721435546875,-0.384754519623518,-0.6920470293819904,-2.7476842586815358
1791041435948750600,12.44075048828125,-0.6257911809250712,-0.6850397809684277,-2.8622178158342835
1791041435958780400,12.450780517578124,-0.6590832096740603,-0.865808436051011,-3.0826655703544614
1791041435968809700,12.460809814453125,-0.8311161851152777,-1.1613497177392245,-3.3775580327451227
1791041435978839300,12.47083935546875,-0.939784065105021,-1.5935142233133315,-3.6007314128369092
1791041435988869400,12.480869384765626,-0.5504395873427391,-1.9573361372843383,-3.498797809538245
1791041435998898400,12.4908984375,0.10142857638597488,-2.0464275024056433,-2.8772768532782793
1791041436008928500,12.500928466796875,0.7473857625052333,-1.7454872842833398,-1.285992580974102
1791041436018957600,12.51095751953125,0.9387380631834268,-1.4113751566603778,0.3379337317377329
1791041436028987400,12.5209873046875,0.7695520016059278,-1.0512532662510872,1.5888906551659105
1791041436039016400,12.531016357421874,0.4511456848978996,-0.7796867343902587,2.432805239316821
1791041436049046500,12.541046630859375,-0.03467266945242881,-0.6939952408403158,2.8437030849784612
1791041436059075600,12.55107568359375,-0.5036626385986804,-0.7866337770491838,2.9569267285764216
1791041436069105400,12.56110546875,-0.8899515281826257,-0.9469912200048566,2.9160335771739483
1791041436079134500,12.571134521484375,-1.1060086465284227,-1.156262623733282,2.7937019134908914
1791041436089164500,12.58116455078125,-1.2519623010784386,-1.324844289676845,2.696479556623101
1791041436099194600,12.591194580078126,-1.229714228913188,-1.416953249053657,2.6266268527179957
1791041436109223700,12.6012236328125,-1.207002046367526,-1.5615163260281084,2.695394683995843
1791041436119253500,12.61125341796875,-1.2279203312337397,-1.425839735342562,3.0421424213081596
