time,seconds_elapsed,z,y,x
1791041423563004000,0.05500390625,9.535613629493117,2.289133412093669,-0.04821560324504971
1791041423573033000,0.065032958984375,9.522164949855208,2.3442251847185194,-0.05805869157246779
1791041423583062000,0.07506201171875,9.510025014728306,2.392318476758152,-0.08136052427408284
1791041423593091800,0.085091796875,9.500294478830694,2.428863369823247,-0.12413995521403848
1791041423603121200,0.09512109375,9.493375493222475,2.451049774929136,-0.19636430188762022
1791041423613150000,0.10514990234375,9.488271448081731,2.4578636927276847,-0.3193572972899303
1791041423623180000,0.115179931640625,9.481917695140838,2.450107087251544,-0.5104910233139991
1791041423633209000,0.125208984375,9.468762445491551,2.4355308648884293,-0.7623047338914126
1791041423643238100,0.135238037109375,9.445715916424989,2.4231933613628147,-1.037770538213104
1791041423653268000,0.14526806640625,9.415189260736108,2.419981413578987,-1.2916200654670595
1791041423663297000,0.155297119140625,9.381960944873095,2.4261036958515643,-1.5043996234469115
1791041423673326000,0.165326171875,9.348407634839415,2.429708880736679,-1.6953396900624036
1791041423683356200,0.175356201171875,9.313747824868559,2.422323154399544,-1.885956223811954
1791041423693385000,0.185385009765625,9.276645882442594,2.406572627560049,-2.079093800471723
1791041423703414000,0.1954140625,9.238795751997827,2.3858251692160963,-2.263376601155102
1791041423713444000,0.205444091796875,9.205714151129126,2.3561858177557586,-2.4235521116726098
1791041423723473200,0.21547314453125,9.1856013374269,2.3131049470506606,-2.538633511966467
1791041423733502000,0.225501953125,9.18053061003387,2.2515347721919414,-2.6112907518982884
1791041423743532000,0.235531982421875,9.187900846540927,2.164774334236234,-2.6583099849656224
1791041423753561000,0.24556103515625,9.222609756350517,2.0643916136413814,-2.6176602869302035
1791041423763590000,0.25558984375,9.292750045025349,1.9498957581505179,-2.452160512650013
1791041423773620000,0.265619873046875,9.376716614478825,1.784005961639434,-2.250531294237822
1791041423783649000,0.27564892578125,9.465369880443811,1.5569395196318625,-2.0379151101261375
1791041423793678000,0.285677978515625,9.550839255675672,1.2892604967288672,-1.8137410285592077
1791041423803708200,0.295708251953125,9.62490402431786,1.027324182196334,-1.573598685748875
1791041423813737000,0.305737060546875,9.685745154249668,0.8019591372791677,-1.309042032650113
1791041423823766000,0.31576611328125,9.728943075463174,0.6172143451072275,-1.0663486171174794
1791041423833796000,0.325796142578125,9.753937815988063,0.45462939882781356,-0.9079597708210349
1791041423843825000,0.335824951171875,9.767173729658126,0.2928311094140634,-0.8288273435257375
1791041423853854000,0.34585400390625,9.772777541014552,0.12605618236521257,-0.8045607711449265
1791041423863884000,0.355884033203125,9.770874922263621,-0.052360173970181494,-0.8352548923552036
1791041423873913000,0.3659130859375,9.759673729291558,-0.2594770482795313,-0.9229451585069298
1791041423883942000,0.37594189453125,9.736161920800804,-0.5253477065863087,-1.049547046855092
1791041423893972000,0.385971923828125,9.692150929638743,-0.8907062920726835,-1.1996816403515635
1791041423904001000,0.3960009765625,9.610677930566668,-1.3387038882032036,-1.4188450541496276
1791041423914030000,0.406030029296875,9.474703525978326,-1.858558952189982,-1.7164318701907992
1791041423924060000,0.416059814453125,9.266167158526182,-2.455139820721745,-2.069015474049747
1791041423934089000,0.4260888671875,8.987686317232251,-3.0984719190344214,-2.4065222125470638
1791041423944118000,0.436117919921875,8.661383986577391,-3.7225682787403462,-2.7006112496003505
1791041423954148000,0.446148193359375,8.320738073271512,-4.268482497613132,-2.952246169544756
1791041423964177000,0.456177001953125,7.992412127834558,-4.710776767535507,-3.1780998747617004
1791041423974206000,0.4662060546875,7.6939295319974415,-5.056243525126576,-3.3776068403229114
1791041423984236000,0.476236083984375,7.428361948290467,-5.323645338523388,-3.5564904123112555
1791041423994264800,0.486264892578125,7.185623451507091,-5.533803754219412,-3.7301752466127276
1791041424004294000,0.4962939453125,6.936743967750668,-5.712267054969072,-3.9270816742867227
1791041424014324000,0.506323974609375,6.693239747291803,-5.86564969047606,-4.118868566989899
1791041424024353000,0.51635302734375,6.442055493724346,-6.000030688393116,-4.320872610063851
1791041424034381800,0.5263818359375,6.1771437435775995,-6.12104250164926,-4.532783130124211
1791041424044412000,0.536411865234375,5.89974017612636,-6.23488340036273,-4.742328966879844
1791041424054441000,0.54644091796875,5.604318721425533,-6.347793740227818,-4.946464469024539
1791041424064470000,0.556469970703125,5.290929648357629,-6.460592436411976,-5.141711146792769
1791041424074499800,0.566499755859375,4.971701201611757,-6.5667024486124514,-5.322684969058632
1791041424084529000,0.57652880859375,4.671164011332392,-6.651004533630609,-5.487691991385817
1791041424094558000,0.586557861328125,4.412413414163887,-6.698972737985849,-5.64134467600584
1791041424104588000,0.596588134765625,4.197249153004586,-6.704426911738515,-5.796908747205138
1791041424114616800,0.606616943359375,4.0096775399088855,-6.674554336044192,-5.961812309157848
1791041424124646000,0.61664599609375,3.823868552571535,-6.624701633116603,-6.1369175316512585
1791041424134676000,0.626676025390625,3.619767244957387,-6.568201162737608,-6.318735403525829
1791041424144705000,0.636705078125,3.3940269369870424,-6.509084372380375,-6.5025231141686435
1791041424154733800,0.64673388671875,3.153866473998129,-6.44506987310946,-6.684654289776087
1791041424164764000,0.656763916015625,2.905116461840272,-6.370817472940683,-6.866103912860154
1791041424174793000,0.66679296875,2.650195944353938,-6.280568462216854,-7.049915004378557
1791041424184823000,0.676822998046875,2.392107025964558,-6.1714808955103155,-7.2360922405064105
1791041424194851800,0.686851806640625,2.139118207193166,-6.040461482980847,-7.423434428760409
1791041424204881000,0.696880859375,1.9087097612813113,-5.889760633903742,-7.605126043906807
1791041424214911000,0.706910888671875,1.713752129587531,-5.719907340589165,-7.779210106658935
1791041424224940000,0.71693994140625,1.556474532468617,-5.530444506919384,-7.947450704079866
1791041424234968800,0.72696875,1.427170837815851,-5.3263762247920035,-8.109457960069179
1791041424244999000,0.7369990234375,1.309322018635273,-5.1191567851573225,-8.261374030154943
1791041424255028000,0.747028076171875,1.1777043479517102,-4.91779542390108,-8.402304011324048
1791041424265056800,0.757056884765625,1.0144047140643,-4.724574991263449,-8.533449680581688
1791041424275086800,0.7670869140625,0.8373927811667322,-4.549593687410653,-8.646984289824962
1791041424285116000,0.777115966796875,0.6656146572694182,-4.412137519831955,-8.732719037994741
1791041424295145000,0.78714501953125,0.5375916866095737,-4.309933867420256,-8.792373588490486
1791041424305175000,0.797175048828125,0.48626354083456097,-4.2332177074864505,-8.832542517271637
1791041424315203800,0.807203857421875,0.5220217039687559,-4.17476902564913,-8.858283692249655
1791041424325233000,0.81723291015625,0.6343966583155095,-4.13371074681282,-8.870195663839578
1791041424335263000,0.827262939453125,0.8045667624942958,-4.112837762393057,-8.866094658261536
1791041424345291800,0.837291748046875,0.992477471351251,-4.112419829241931,-8.847223953574895
1791041424355320800,0.84732080078125,1.160776374830678,-4.131925616961717,-8.817606229424475
1791041424365351000,0.857350830078125,1.2973225148923695,-4.163547958932817,-8.783633817195891
1791041424375380000,0.8673798828125,1.4001631500333547,-4.212288608965277,-8.744514689728618
1791041424385408800,0.87740869140625,1.4603317875310777,-4.274317779637873,-8.704483123591542
1791041424395438800,0.88743896484375,1.4743807711496948,-4.326586603796482,-8.676244871100783
1791041424405468000,0.897468017578125,1.4541159817561506,-4.34564172513932,-8.670139539963007
1791041424415497000,0.9074970703125,1.4251710423007606,-4.346952223215997,-8.674288476336002
1791041424425526800,0.91752685546875,1.4441669808022677,-4.3612543048128485,-8.663961143589018
1791041424435555800,0.927555908203125,1.5354216614373026,-4.408581580916047,-8.624225930050015
1791041424445586000,0.9375859375,1.6397735779240727,-4.490506707669795,-8.562527306506038
1791041424455615000,0.947614990234375,1.7462211515158415,-4.605144309718907,-8.480196229299903
1791041424465643800,0.957643798828125,1.849044251000136,-4.741191195021569,-8.382871581101417
1791041424475673900,0.967673828125,1.932395757295191,-4.889573830284178,-8.27818254161477
1791041424485703000,0.977702880859375,1.9718030540540814,-5.047459914690256,-8.173464860555528
1791041424495732000,0.98773193359375,1.943012574508041,-5.240318820539117,-8.058174347555637
1791041424505761800,0.99776171875,1.847756695407629,-5.501564449393749,-7.904997463753819
1791041424515790800,1.007790771484375,1.7534882199093698,-5.764694576820731,-7.737180644702911
1791041424525820000,1.01781982421875,1.6947503458671271,-5.967863279759883,-7.594920876234769
1791041424535850000,1.02785009765625,1.677625169673562,-6.119587042143941,-7.477073079967498
1791041424545878800,1.037878662109375,1.7056940569467842,-6.256736920252442,-7.356237792322039
1791041424555907800,1.047907958984375,1.7797860058568418,-6.390151703485846,-7.222789691340923
1791041424565938000,1.05793798828125,1.8843514189638195,-6.510441047686338,-7.087579841384291
1791041424575967000,1.067967041015625,1.9791702218212186,-6.610238223478198,-6.968359003198146
1791041424585996000,1.07799609375,2.042151432521641,-6.689325788718461,-6.87407620691359
1791041424596025900,1.08802587890625,2.083512932088226,-6.754253895702957,-6.797751676645874
1791041424606055000,1.098054931640625,2.1202407805047927,-6.8053270803362125,-6.735168671482801
1791041424616085000,1.1080849609375,2.1459097670294343,-6.834597013962268,-6.697294575640559
1791041424626113800,1.11811376953125,2.167319780935347,-6.850040082287788,-6.674584731182455
1791041424636142800,1.128142822265625,2.180846786506474,-6.855936154589057,-6.6641141905725
1791041424646173000,1.1381728515625,2.182674001933634,-6.85205083758831,-6.667512016317248
1791041424656202000,1.148201904296875,2.1572661505632102,-6.838842980968952,-6.689304745930433
1791041424666231000,1.15823095703125,2.0816801637031137,-6.814222918975353,-6.738200002002715
1791041424676260900,1.1682607421875,1.9621208873428404,-6.783005358412861,-6.805242324662208
1791041424686290000,1.1782900390625,1.8299762701757252,-6.744525697892904,-6.87989453780353
1791041424696319000,1.188319091796875,1.744872513385862,-6.703976829883456,-6.941362859722972
1791041424706348800,1.198348876953125,1.7083059930108486,-6.675545685169101,-6.9777616223156445
1791041424716377900,1.2083779296875,1.694556284599751,-6.662142013716697,-6.9939072859525675
1791041424726407200,1.2184072265625,1.6892261756181717,-6.660131842938065,-6.99711046590805
1791041424736436700,1.228436767578125,1.6727904429934919,-6.652249565255642,-7.0085478057235475
1791041424746466000,1.238466064453125,1.6766138006739317,-6.63183104660511,-7.026959660726785
1791041424756495000,1.2484951171875,1.708235411992669,-6.595747341310978,-7.053256131500006
1791041424766525000,1.25852490234375,1.7221483481414614,-6.54717766393125,-7.095001515817642
1791041424776554000,1.268553955078125,1.719732226910442,-6.5252499097615475,-7.115757303598523
1791041424786583800,1.278583740234375,1.7091845294110477,-6.611421880304813,-7.038335625743866
1791041424796612900,1.28861279296875,1.6814521806158125,-6.741780783098935,-6.920368002489209
1791041424806642200,1.29864208984375,1.6318528679274023,-6.834676508939266,-6.840660259523987
1791041424816671700,1.308671630859375,1.5452468898810445,-6.876586143907904,-6.818734258919954
1791041424826700800,1.31870068359375,1.428962251277268,-6.903531433978676,-6.816869049569964
1791041424836730000,1.328730224609375,1.3108655948154628,-6.924582405313849,-6.819250976270437
1791041424846760000,1.338760009765625,1.2137422413427381,-6.926545229819417,-6.835217776209116
1791041424856789000,1.3487890625,1.2207882143314928,-6.895275646808743,-6.865510038620233
1791041424866818000,1.358818115234375,1.352140585142374,-6.824511673277616,-6.911448782974481
1791041424876847900,1.368847900390625,1.499022022061795,-6.710344611349702,-6.992468777582049
1791041424886877200,1.378877197265625,1.6925025669403373,-6.641177551621198,-7.014311776077747
1791041424896906000,1.388906005859375,1.857439592771232,-6.608653584635257,-7.00328418610692
1791041424906935800,1.398935791015625,1.967015089125186,-6.6013242646604775,-6.980239410606027
1791041424916965000,1.408965087890625,2.0575050689980388,-6.593358400347828,-6.961658628776669
1791041424926995000,1.418994873046875,2.189557916228473,-6.568321574246883,-6.945025473883748
1791041424937024000,1.42902392578125,2.3877428394056857,-6.528097700408101,-6.917587431859969
1791041424947053000,1.439052978515625,2.6073876069799065,-6.493648902839422,-6.870548617309331
1791041424957083000,1.449082763671875,2.7767858500033618,-6.468899661508202,-6.8273851828873156
1791041424967112200,1.4591123046875,2.8765847793608903,-6.445338168656826,-6.808323924064636
1791041424977141000,1.46914111328125,2.9290754295766352,-6.421703610569239,-6.808275993269682
1791041424987170800,1.4791708984375,2.9487326084658503,-6.398195893731713,-6.821909966346621
1791041424997200100,1.4892001953125,2.9407258276209234,-6.367753409194946,-6.853775177162885
1791041425007229000,1.49922900390625,2.9164360204949973,-6.3374249064266674,-6.892156638005376
1791041425017259000,1.509259033203125,2.8786294369310137,-6.31800533568561,-6.925798210844397
1791041425027288000,1.5192880859375,2.830206474545598,-6.298956351822614,-6.963007120776176
1791041425037317000,1.529317138671875,2.7767911107003687,-6.27505408270955,-7.005963049927353
1791041425047347000,1.539346923828125,2.7362799443528054,-6.249014801567792,-7.045068148869276
1791041425057376000,1.5493759765625,2.71194249869287,-6.234825532695651,-7.067015192261338
1791041425067405800,1.55940576171875,2.6860420414999124,-6.245878841629624,-7.067147878730297
1791041425077435100,1.56943505859375,2.647787421907484,-6.291628200891614,-7.040953699287772
1791041425087464000,1.5794638671875,2.5821415220424533,-6.387210973858833,-6.97900256228745
1791041425097493800,1.58949365234375,2.486634444659948,-6.565851384741068,-6.8466521934151645
1791041425107523000,1.599523193359375,2.3543334678873418,-6.818503957295418,-6.643454848903417
1791041425117552000,1.60955224609375,2.192684085424989,-7.125626955705881,-6.370868910866975
1791041425127582000,1.61958203125,2.0784544796548783,-7.453170810854434,-6.025003801608086
1791041425137611000,1.629611083984375,2.0190647175751626,-7.780386164700984,-5.617772077238559
1791041425147640000,1.63964013671875,2.025592219647765,-8.093822584041952,-5.153386971539259
1791041425157670100,1.649670166015625,2.166185808469355,-8.370217851233482,-4.627904130798578
1791041425167699000,1.659698974609375,2.495129885804653,-8.587088331788777,-4.025748677004874
1791041425177728800,1.669728759765625,2.844305727046728,-8.745687825161218,-3.4048896917849776
1791041425187758000,1.679758056640625,3.0328494000449773,-8.883619209036231,-2.837874817216396
1791041425197787100,1.689787109375,3.076735888044536,-8.994578414833546,-2.4086625855766237
1791041425207817000,1.69981689453125,3.062461571237445,-9.078546153330802,-2.0908685555480417
1791041425217846000,1.709845947265625,3.03883139706403,-9.138140498071909,-1.852104807614535
1791041425227875000,1.719875,3.0154934838354586,-9.179828014722466,-1.675692740306258
1791041425237905200,1.7299052734375,2.990943564468622,-9.210127875918149,-1.5486118362694978
1791041425247934000,1.739933837890625,2.9597689662650226,-9.231178262731433,-1.4817273345202207
1791041425257963800,1.7499638671875,2.939139142951369,-9.24101108995974,-1.4613529472723603
1791041425267993000,1.7599931640625,2.945068825261295,-9.237519740712642,-1.4714603536583482
1791041425278022100,1.770022216796875,2.969281475497782,-9.223967016178369,-1.50738170799762
1791041425288052000,1.780052001953125,2.996855711121857,-9.20473624600768,-1.5691013743296265
1791041425298081000,1.7900810546875,3.019282062463462,-9.183636759355664,-1.6477644305475054
1791041425308110000,1.800110107421875,3.0289383640810845,-9.161631263774632,-1.7494079648584127
1791041425318140000,1.810139892578125,3.023286037407815,-9.13694398176372,-1.8831795987054705
1791041425328169000,1.8201689453125,2.9984552552729844,-9.109776573374868,-2.047343448206782
1791041425338198500,1.830198486328125,2.9563699714764953,-9.079479634788632,-2.2345725314751266
1791041425348228000,1.84022802734375,2.9042198052614925,-9.048490622285009,-2.420891806422174
1791041425358257400,1.85025732421875,2.830629668393731,-9.028803925040364,-2.5765488166019317
1791041425368287200,1.860287353515625,2.749192617417872,-9.019007922691106,-2.696263868045807
1791041425378316300,1.87031640625,2.6979844082280993,-9.005091041019558,-2.7927763230785727
1791041425388345300,1.880345458984375,2.6942557430937883,-8.990401421409844,-2.8432468656435606
1791041425398375200,1.890375244140625,2.71645559220314,-8.988084376639128,-2.829418831299245
1791041425417806300,1.909806396484375,2.7033462275221942,-8.994684213295578,-2.820985641735792
1791041425427835100,1.919835205078125,2.694129194104671,-8.997387627035378,-2.8211823333516715
1791041425437865200,1.929865234375,2.696237272299826,-8.99868877276182,-2.815010074457526
1791041425447894300,1.939894287109375,2.700409589548409,-8.998312925186752,-2.8122116759106515
1791041425457924400,1.94992431640625,2.7025080231323835,-8.99719765742123,-2.8137667963981627
1791041425467953400,1.959953369140625,2.703026201787591,-8.995402590698003,-2.819002943485975
1791041425477982200,1.969982177734375,2.7020918435469268,-8.992962211808562,-2.8276708185881376
1791041425488012300,1.98001220703125,2.6989278265580534,-8.990640490862727,-2.838054557697475
1791041425498041300,1.990041259765625,2.692779533061385,-8.989772475856542,-2.846629493819177
1791041425508070100,2.000070068359375,2.6831851907640694,-8.99091346258521,-2.852082498528063
1791041425518100200,2.010100341796875,2.672356045974791,-8.992427958801388,-2.857472374872863
1791041425528129300,2.02012939453125,2.663850083436072,-8.993239275184273,-2.8628558214768765
1791041425538159400,2.030159423828125,2.6575121125862,-8.993446195933222,-2.8680878769114613
1791041425548188400,2.0401884765625,2.6536919697761534,-8.992076661145687,-2.8759111178830263
1791041425558217200,2.05021728515625,2.6529376442775128,-8.988438012382387,-2.8879589908123013
1791041425568247300,2.060247314453125,2.654802561366558,-8.984525807374716,-2.8983938755869865
1791041425578276400,2.0702763671875,2.6559558230549096,-8.980916384705901,-2.9085128262802957
1791041425588305200,2.08030517578125,2.6563389771535992,-8.976840513569115,-2.9207185201197863
1791041425598335200,2.090335205078125,2.655720552994311,-8.972172521758079,-2.9355820349916812
1791041425608364300,2.1003642578125,2.653523335210979,-8.966247223362327,-2.955607462671399
1791041425618394400,2.110394287109375,2.640453133496642,-8.959910421556234,-2.986367050333321
1791041425628423400,2.12042333984375,2.559044139571488,-8.964596533545851,-3.04264569465518
1791041425638452200,2.1304521484375,2.5492756097510454,-8.958950636613368,-3.067371555110812
1791041425648482300,2.140482421875,2.5623364591151474,-8.947918954989314,-3.0886189258009193
1791041425658511400,2.150511474609375,2.567151165920496,-8.943605767965316,-3.0971006306812163
1791041425668540200,2.1605400390625,2.565763803215325,-8.95038855997324,-3.0786002206116914
1791041425678570200,2.1705703125,2.565049517466128,-8.960398497334122,-3.0499463730573653
1791041425688599300,2.180599365234375,2.5664018088579175,-8.968021247297525,-3.0263109381869433
1791041425698629400,2.19062939453125,2.5719199877575036,-8.971910655951499,-3.0100583070442077
1791041425708658200,2.200658203125,2.5833956137567755,-8.97161138074398,-3.001105769781768
1791041425718687200,2.210687255859375,2.6007880625844,-8.968204787170887,-2.996264174969494
1791041425728717300,2.22071728515625,2.6178704225495455,-8.96430076546967,-2.993070055103302
1791041425738746400,2.230746337890625,2.632342015494406,-8.958710982638596,-2.997107055534422
1791041425748775200,2.240775146484375,2.6445126380205153,-8.948684094142914,-3.016288725866377
1791041425758805200,2.25080517578125,2.6487787710323927,-8.933745468208194,-3.0565576078906656
1791041425768834300,2.260834228515625,2.635789817860722,-8.920333028927445,-3.106553518681228
1791041425778864400,2.270864501953125,2.608486508132517,-8.912371256268024,-3.15211173928529
1791041425788893200,2.28089306640625,2.5768521834626794,-8.908996811398863,-3.187472098740935
1791041425798922200,2.290922119140625,2.5427982304304835,-8.908902703374624,-3.214964793561399
1791041425808952300,2.300952392578125,2.510575292217731,-8.909594777292012,-3.2382895550474524
1791041425818981400,2.3109814453125,2.4910166052669287,-8.907543105459213,-3.2589740311577913
1791041425829010200,2.32101025390625,2.4849200419574973,-8.901980795156955,-3.278765942342579
1791041425839040300,2.331040283203125,2.4814269391447303,-8.893793397048116,-3.3035318425476548
1791041425849069300,2.3410693359375,2.472814885883033,-8.884841444307565,-3.333944224207103
1791041425859099400,2.351099365234375,2.459557052642107,-8.879493653538823,-3.3579084526404737
1791041425869128200,2.361128173828125,2.4446045443125066,-8.877675205940008,-3.373601696334779
1791041425879157200,2.3711572265625,2.4350239382795986,-8.87578603119254,-3.385477427567541
1791041425889187300,2.381187255859375,2.430619711971283,-8.871314438736439,-3.4003274984359737
1791041425899216400,2.39121630859375,2.4249663623847066,-8.862440811929106,-3.427399629756808
1791041425909246500,2.40124658203125,2.416179537077993,-8.851990729585289,-3.4604505432263015
1791041425919275300,2.411275146484375,2.4060361825957894,-8.844205482536553,-3.4873195531904697
1791041425929304300,2.42130419921875,2.397950637426227,-8.839726875817774,-3.5042058060616252
1791041425939334400,2.43133447265625,2.4060981419160963,-8.836704897648096,-3.5062399422377344
1791041425949363200,2.44136328125,2.4414586475022135,-8.833400010883807,-3.490086387555301
1791041425959392300,2.451392333984375,2.4948025535464287,-8.82927387086451,-3.462694815021753
1791041425969422300,2.46142236328125,2.5651795735865828,-8.821411466926335,-3.4311692114233967
1791041425979451400,2.471451416015625,2.6482091544508934,-8.809683035209774,-3.3980709516808387
1791041425989481500,2.4814814453125,2.7266882324039936,-8.80021553416252,-3.360321066740155
1791041425999510300,2.49151025390625,2.788441216483712,-8.797153223982454,-3.3173917333349583
1791041426009539300,2.501539306640625,2.8384932413756845,-8.795206181567908,-3.279894654111564
1791041426019569400,2.5115693359375,2.8871511815607547,-8.791039125016331,-3.248444746097922
1791041426029598200,2.52159814453125,2.9359812634423372,-8.7868469340235,-3.215854143616557
1791041426039628300,2.531628173828125,2.972917786173522,-8.781973775029181,-3.1951649913311004
1791041426049657300,2.5416572265625,3.003292173910141,-8.775238913816214,-3.1852517923429606
1791041426059686400,2.551686279296875,3.037756753569841,-8.76192993490994,-3.1892037448391317
1791041426069716500,2.561716552734375,3.076600278966129,-8.740921633672714,-3.2095489059925075
1791041426079745300,2.571745361328125,3.1098201192617414,-8.718712724474072,-3.2378149232730267
1791041426089774300,2.5817744140625,3.1356133166879414,-8.697273046082257,-3.2704405970677732
1791041426099804400,2.591804443359375,3.148499394007027,-8.688358502742648,-3.281733559976518
1791041426109833200,2.601833251953125,3.1491137265130877,-8.686668649959564,-3.285612739497423
1791041426119863300,2.61186328125,3.161813341349363,-8.669721022289991,-3.318022724714875
1791041426129892400,2.621892333984375,3.181821525633335,-8.64212165222466,-3.3704806417047974
1791041426139921400,2.63192138671875,3.192403709924221,-8.626904793870448,-3.3993323499187826
1791041426149951200,2.641951171875,3.1957085966885086,-8.620592541983724,-3.412216673672199
1791041426159980300,2.651980224609375,3.2082287633046507,-8.61041543136239,-3.426135308909416
1791041426170010400,2.66201025390625,3.2203920793071386,-8.604771872517466,-3.4289018510133027
1791041426180039400,2.672039306640625,3.2228055701896547,-8.607754687720536,-3.419132444410026
1791041426190068200,2.682068115234375,3.226882025848329,-8.60677912068665,-3.417742451356351
1791041426200098300,2.692098388671875,3.225990337705612,-8.621054314276575,-3.3824259310424325
1791041426210127400,2.70212744140625,3.2226024488329887,-8.64240105368793,-3.330786636959016
1791041426220157400,2.712157470703125,3.2120150038450954,-8.660179871484637,-3.2946377574741836
1791041426230186200,2.722186279296875,3.1971336610555645,-8.675628200507164,-3.268364959837496
1791041426240215300,2.73221533203125,3.176644415256381,-8.692351371771096,-3.243816209514439
1791041426250245400,2.742245361328125,3.1479221786409615,-8.708305896750092,-3.228988934999704
1791041426260274400,2.7522744140625,3.098068306669593,-8.725079336896538,-3.2319273265391586
1791041426270303200,2.76230322265625,3.0176883635312315,-8.759387264689803,-3.215130505517125
1791041426280333300,2.772333251953125,2.944003534117341,-8.802220444244146,-3.166094964191317
1791041426290362400,2.7823623046875,2.8787229604333637,-8.834846702560782,-3.135097183859348
1791041426300392400,2.792392333984375,2.8148884939044714,-8.851810696843266,-3.1451910001114007
1791041426310421200,2.802421142578125,2.7900775855138895,-8.854373240807652,-3.160049838808179
1791041426320450300,2.8124501953125,2.8082974250763653,-8.84766526760161,-3.1627021068826315
1791041426330480400,2.82248046875,2.8333316208288073,-8.837409246525167,-3.1690400777325034
1791041426340509000,2.832509033203125,2.8456217780813575,-8.827045088899135,-3.1868615656271575
1791041426350538800,2.842538818359375,2.8552780796989796,-8.818266739159823,-3.202491096435487
1791041426360567800,2.85256787109375,2.863919651316106,-8.815587875339387,-3.2021503201738
1791041426370596900,2.862596923828125,2.859135924170911,-8.82023014818728,-3.19362740650028
1791041426380627000,2.872626953125,2.849231493011117,-8.826499729976058,-3.185148624229431
1791041426390655700,2.88265576171875,2.8407667392656206,-8.831347754529117,-3.17926628819257
1791041426400685800,2.892685791015625,2.835394983099401,-8.834013758867979,-3.1766508449971673
1791041426410715000,2.90271484375,2.8314807322651148,-8.835610672670603,-3.1757009969264267
1791041426420744000,2.912743896484375,2.827530241073668,-8.837280651709436,-3.1745787148982285
1791041426430773800,2.922773681640625,2.8232340051844713,-8.83932647832334,-3.1727015228495
1791041426440802800,2.932802734375,2.8184631375208498,-8.84134015623331,-3.171336079715192
1791041426450833000,2.9428330078125,2.8124975071147085,-8.842977986568211,-3.1720652707725763
1791041426460862000,2.952862060546875,2.8053803685858845,-8.844279716816544,-3.174734197720885
1791041426470890800,2.962890869140625,2.7970716821849346,-8.84561184220314,-3.1783529727399347
1791041426480920800,2.9729208984375,2.7882988854035733,-8.84717952991128,-3.181694684383273
1791041426490950000,2.982949951171875,2.77998756865412,-8.849232955309748,-3.1832568191334603
1791041426500980000,2.99297998046875,2.7732673204883933,-8.851575719043613,-3.1826030313998457
1791041426511008800,3.0030087890625,2.768670055826008,-8.854075134643912,-3.1796535339444874
1791041426521037800,3.013037841796875,2.7666721600070594,-8.856246633464098,-3.1753447308346625
1791041426531068000,3.02306787109375,2.7676120712056753,-8.85769566322863,-3.170480339668691
1791041426541097000,3.033096923828125,2.7707676126271483,-8.858338637307286,-3.1659234070166944
1791041426551125800,3.043125732421875,2.7753391583263873,-8.85825680424273,-3.162146811087429
1791041426561155800,3.05315576171875,2.78086376696676,-8.85765883834958,-3.158962335832417
1791041426571185000,3.063184814453125,2.7868478098124263,-8.857036322537065,-3.1554350384891032
1791041426581215000,3.073215087890625,2.7919433793857693,-8.856812450653313,-3.151557612533867
1791041426591243800,3.083243896484375,2.795701562875509,-8.856845768401026,-3.148127638085186
1791041426601272800,3.09327294921875,2.7989734241530297,-8.856623650082945,-3.145846833671629
1791041426611303000,3.103302978515625,2.802706765462458,-8.8558894905895,-3.144592157435417
1791041426621332000,3.11333203125,2.807586061936617,-8.854643874442576,-3.143747231043875
1791041426631361800,3.12336181640625,2.81358559461236,-8.852962204965948,-3.1431139015764
1791041426641390800,3.133390869140625,2.8203382837429642,-8.851219745212793,-3.141971453543007
1791041426651420000,3.143419921875,2.8274340872228145,-8.849604711231589,-3.140143945854902
1791041426661450000,3.153449951171875,2.834003821001947,-8.848394166398048,-3.1376293326854703
1791041426671478800,3.163478759765625,2.8390993905752895,-8.847936485758423,-3.1343150935709474
1791041426681508900,3.1735087890625,2.842503938321769,-8.848167956426739,-3.13057093860656
1791041426691538000,3.183537841796875,2.845288892865181,-8.848566600355506,-3.1269150464475155
1791041426701567000,3.19356689453125,2.848244235539436,-8.848634404894709,-3.124032184487581
1791041426711596800,3.2035966796875,2.852301109714806,-8.848272001323103,-3.1213565355375406
1791041426721625900,3.2136259765625,2.8573130926579235,-8.847563560792803,-3.1187770404383537
1791041426731656000,3.223656005859375,2.8625819729715585,-8.846671580389142,-3.116475777758658
1791041426741685000,3.23368505859375,2.8679829552322627,-8.845683153873681,-3.114315969376266
1791041426751713800,3.2437138671875,2.8743709027037023,-8.844039478319884,-3.1130931495830416
1791041426761744000,3.253743896484375,2.882437889303267,-8.841541231763362,-3.1127298692286014
1791041426771773000,3.26377294921875,2.8921283854514357,-8.838229915258287,-3.113146341075003
1791041426781803000,3.273802978515625,2.903034687130153,-8.834119557330013,-3.114662298595905
1791041426791831800,3.283831787109375,2.9145196654796597,-8.829113127344845,-3.1181302669674156
1791041426801860900,3.29386083984375,2.926326423129439,-8.823219393131136,-3.1237501526758074
1791041426811891000,3.303890869140625,2.9382509619399904,-8.816039710760116,-3.132811118748784
1791041426821920000,3.313919921875,2.9495939014703034,-8.807185373175143,-3.147023768496513
1791041426831949800,3.32394970703125,2.9607927563548087,-8.796306251764298,-3.166872086043656
1791041426841979000,3.333978759765625,2.9698510920792818,-8.78322640543878,-3.1945737474396823
1791041426852008700,3.3440087890625,2.978076484110951,-8.76780204181373,-3.2291026245072483
1791041426862038000,3.3540380859375,2.983139028197527,-8.749612305128574,-3.2734625752374527
1791041426872066800,3.36406689453125,2.9870500641614197,-8.728101315066217,-3.3268861223891375
1791041426882096600,3.3740966796875,2.9905908055081962,-8.702141528901457,-3.3910888377085326
1791041426892126000,3.3841259765625,2.9966163494080305,-8.669934372779727,-3.4674092763230204
1791041426902155800,3.39415576171875,3.012952567180991,-8.630289175611734,-3.5511440828472374
1791041426912184800,3.404184814453125,3.042099458949268,-8.583160929211974,-3.6394182863667606
1791041426922214000,3.4142138671875,3.0802292831182476,-8.529286715683341,-3.732807348681986
1791041426932243700,3.42424365234375,3.126011667867005,-8.4686174351871,-3.831572258816659
1791041426942273000,3.43427294921875,3.1751866176635026,-8.398786943113803,-3.9432168165296315
1791041426952302800,3.444302734375,3.2376030340880155,-8.319647939947247,-4.058545031191408
1791041426962331600,3.45433154296875,3.306140856002271,-8.23036455938518,-4.183408259178698
1791041426972361000,3.46436083984375,3.3652176066100594,-8.12903768980801,-4.331793232528865
1791041426982390800,3.474390869140625,3.4196424397587775,-8.015705909660458,-4.497207958874106
1791041426992419800,3.484419921875,3.47589536511749,-7.890072866344451,-4.672823468977213
1791041427002449700,3.49444970703125,3.5399721159696576,-7.753261426410079,-4.850352119225263
1791041427012478700,3.504478759765625,3.6191637261062857,-7.608346174997091,-5.018476396790146
1791041427022508000,3.514508056640625,3.7098426526799795,-7.456802445355057,-5.177212668284773
1791041427032537900,3.524537841796875,3.8002342867448924,-7.298224579292535,-5.335215364807844
1791041427042566700,3.534566650390625,3.8863931055456398,-7.133771099194884,-5.4932367660313846
1791041427052596700,3.5445966796875,3.972259371140599,-6.966380981123447,-5.6445630535304545
1791041427062625800,3.554625732421875,4.0630066867753865,-6.796108585613966,-5.785781203991174
1791041427072654800,3.56465478515625,4.159109684224426,-6.62188949830532,-5.918004731613397
1791041427082684700,3.5746845703125,4.256059069369733,-6.44242023538351,-6.045788230961561
1791041427092713700,3.584713623046875,4.354622027191519,-6.256718800073862,-6.1693696024447675
1791041427102743800,3.594743896484375,4.44882240588963,-6.065103756806254,-6.29228754158318
1791041427112772900,3.60477294921875,4.539783072014153,-5.87066547281146,-6.410619321975112
1791041427122801700,3.6148017578125,4.628061951708793,-5.674290667796135,-6.523332677963376
1791041427132831700,3.624831787109375,4.718000289048255,-5.4778527344167225,-6.626009208583832
1791041427142860800,3.63486083984375,4.81150947061181,-5.281988801532983,-6.717167735368013
1791041427152891000,3.644890869140625,4.911899351599812,-5.089207637095451,-6.792907743746042
1791041427162919700,3.654919677734375,5.018322667533159,-4.901303723305464,-6.853031665319204
1791041427172948700,3.66494873046875,5.125696416059136,-4.716837675009668,-6.902830007711053
1791041427182978800,3.674978759765625,5.225105469316244,-4.5332145072787995,-6.951159446594119
1791041427193007900,3.6850078125,5.32084255606234,-4.353212160393595,-6.993464802882075
1791041427203037700,3.69503759765625,5.413569355076551,-4.179990267428756,-7.027897233837843
1791041427213066800,3.705066650390625,5.500204851478338,-4.015366399200261,-7.056554004001617
1791041427223096800,3.715096923828125,5.583972683489322,-3.861541572883725,-7.076589660814404
1791041427233126000,3.7251259765625,5.66709929498732,-3.7198058282896875,-7.0864242416083805
1791041427243154700,3.73515478515625,5.735177974957227,-3.5888381459474563,-7.099179678285122
1791041427253184800,3.745184814453125,5.802352399563789,-3.470792781281471,-7.103287113603949
1791041427263213800,3.7552138671875,5.870923246964812,-3.366273545403778,-7.0972425727427
1791041427273244000,3.765243896484375,5.931377423405647,-3.2749124817848205,-7.089718606978654
1791041427283272700,3.775272705078125,5.9796636076688765,-3.1970819308683276,-7.084679443767667
1791041427293301800,3.7853017578125,6.013393443313241,-3.1327301624670625,-7.08487759668827
1791041427303331800,3.795331787109375,6.037219140058755,-3.08106456489861,-7.087271213826536
1791041427313361000,3.80536083984375,6.052340721344947,-3.0418907846346497,-7.091293893471359
1791041427323390700,3.815390625,6.058316288623214,-3.016035335627198,-7.097233220392465
1791041427333419800,3.825419677734375,6.054087272751331,-3.0041695412665606,-7.105868946790695
1791041427343449000,3.835448974609375,6.039303545117378,-3.006334902606904,-7.117524313271045
1791041427353479200,3.845479248046875,6.016749768003821,-3.021257454189658,-7.130295532038807
1791041427363508000,3.855508056640625,5.988081891924143,-3.048152475377917,-7.142970889216661
1791041427373538000,3.8655380859375,5.950308918368816,-3.0862393371880055,-7.158166120260954
1791041427383567000,3.875567138671875,5.901738071945309,-3.13373232524693,-7.177716039383411
1791041427393597200,3.88559716796875,5.845684760811925,-3.1906752786964176,-7.198468320032954
1791041427403626200,3.895626220703125,5.786076972067356,-3.257644828380644,-7.2166089568793765
1791041427413655000,3.905655029296875,5.725041780868172,-3.333664822743833,-7.230557402732968
1791041427423685000,3.91568505859375,5.6615568584293126,-3.41658802062422,-7.241828738331795
1791041427433714200,3.925714111328125,5.595646170148253,-3.5037001946270463,-7.251427756804228
1791041427443744300,3.935744140625,5.52752306651473,-3.5933123687520623,-7.259819737574458
1791041427453773000,3.94577294921875,5.456660893306136,-3.6859739935755726,-7.2669690248072145
1791041427463802000,3.955802001953125,5.383384644693136,-3.783951552724838,-7.271263507130741
1791041427473832200,3.965832275390625,5.310946015948057,-3.8881460866928097,-7.269564886519312
1791041427483861000,3.975861083984375,5.245791114470363,-3.996562622269988,-7.258067340949177
1791041427493891000,3.98589111328125,5.19051697101593,-4.105642297931015,-7.236891866451502
1791041427503920000,3.995920166015625,5.143506213515996,-4.210081746570766,-7.2104048415422435
1791041427513950200,4.0059501953125,5.101217808362842,-4.3006838085159655,-7.1869380412369965
1791041427523979300,4.015979248046875,5.071123114350438,-4.358533063155412,-7.1733736262649295
1791041427534008000,4.026008056640625,5.061455706816911,-4.360952983778715,-7.178728431296348
1791041427544038100,4.0360380859375,5.058221547201276,-4.305253600649535,-7.214539164867997
1791041427554067200,4.046067138671875,5.031937351387739,-4.2318195311263205,-7.276103932899236
1791041427564097300,4.05609716796875,5.007381586802006,-4.183679185074568,-7.320747376745939
1791041427574126000,4.0661259765625,5.01852608115077,-4.164215482930839,-7.324212422508001
1791041427584155100,4.076155029296875,5.058664614793658,-4.162027032975852,-7.2977961247473955
1791041427594185200,4.086185302734375,5.116014980000257,-4.174258738039434,-7.25067781521976
1791041427604214300,4.09621435546875,5.171372125563026,-4.200920242732763,-7.195801731172204
1791041427614244000,4.106244140625,5.2100604603976,-4.239373892028629,-7.145164599868655
1791041427624273200,4.116273193359375,5.226550991949439,-4.284003015089035,-7.106396770057081
1791041427634303000,4.126302978515625,5.219288307470083,-4.330003426502644,-7.083819612067938
1791041427644332300,4.136332275390625,5.18678596779406,-4.3806218531057235,-7.076566864460706
1791041427654361000,4.146361083984375,5.135323491582274,-4.440423995378613,-7.076826392179727
1791041427664391200,4.15639111328125,5.073634804910421,-4.506575798939168,-7.079504086956382
1791041427674420200,4.166420166015625,5.008042681059241,-4.574586966630816,-7.082586855402589
1791041427684450000,4.176449951171875,4.944492292168736,-4.642449665762483,-7.083080776399374
1791041427694479000,4.18647900390625,4.886356037281454,-4.7086593369901175,-7.079719775533675
1791041427704509000,4.196509033203125,4.8324055436462166,-4.7711511567384,-7.074910329425334
1791041427714538000,4.2065380859375,4.784844458787143,-4.827562779790163,-7.068966326329112
1791041427724567300,4.2165673828125,4.754305528138578,-4.874910514159501,-7.057068383264541
1791041427734596900,4.226596923828125,4.746170444738865,-4.9123997023373835,-7.03651776266694
1791041427744626000,4.2366259765625,4.753995731537044,-4.943800218251347,-7.009190779802203
1791041427754656000,4.246656005859375,4.768548573024571,-4.972807117027044,-6.978718484649062
1791041427764685000,4.25668505859375,4.781680734059214,-5.001863115641474,-6.948905530187488
1791041427774714000,4.266714111328125,4.786506254519522,-5.033548878237605,-6.922652314034104
1791041427784744000,4.276743896484375,4.780528056892752,-5.068783273226022,-6.901041955250501
1791041427794773000,4.28677294921875,4.764538460600376,-5.104385332483053,-6.885840294465422
1791041427804803000,4.296802978515625,4.739849717284739,-5.138406844550371,-6.8775722323358055
1791041427814831900,4.306831787109375,4.7081201155468815,-5.171431162273883,-6.874612213486433
1791041427824862000,4.316862060546875,4.677011568316817,-5.202048418855667,-6.872746419614553
1791041427834891000,4.32689111328125,4.655153664512932,-5.22776153678298,-6.868073167106509
1791041427844920000,4.336920166015625,4.645405592958629,-5.2485915588438505,-6.858780438104271
1791041427854950100,4.3469501953125,4.646726904690265,-5.266421814566851,-6.844203046697378
1791041427864979000,4.35697900390625,4.656711415348947,-5.283516741752624,-6.824211813548207
1791041427875009000,4.367009033203125,4.673105500788987,-5.301835657775402,-6.798751793599128
1791041427885038000,4.3770380859375,4.691091239334643,-5.323707882365584,-6.769208303728699
1791041427895068200,4.387068115234375,4.705197213837504,-5.349561285546422,-6.738968063765764
1791041427905097000,4.397096923828125,4.711869238947331,-5.3779918457388876,-6.711622376200556
1791041427915126000,4.4071259765625,4.709238305921852,-5.40831333424449,-6.689065091955661
1791041427925156000,4.417156005859375,4.696890573263168,-5.4403527325838805,-6.6717433702766895
1791041427935185200,4.42718505859375,4.67435725441575,-5.47274810475409,-6.6610670779615635
1791041427945215000,4.437215087890625,4.644838022203743,-5.503630734273791,-6.656269322291016
1791041427955244000,4.447244140625,4.613076564022898,-5.533756407946348,-6.653377107980847
1791041427965274000,4.457274169921875,4.582184874413907,-5.5647091800928115,-6.648909022656083
1791041427975303200,4.46730322265625,4.554977718536556,-5.5965627004712815,-6.640863078844547
1791041427985332000,4.47733203125,4.533498292656242,-5.629281313246488,-6.627893707156181
1791041427995362000,4.487362060546875,4.517538799241185,-5.6646934028893705,-6.608591625314951
1791041428005391000,4.49739111328125,4.504434110735357,-5.703102336260676,-6.584456716489791
1791041428015421200,4.507421142578125,4.491563523246348,-5.742357072806358,-6.559083205780387
1791041428025450000,4.517449951171875,4.479440539254248,-5.782070659035444,-6.5324307611763475
1791041428035480000,4.52747998046875,4.46651266862005,-5.824871689885854,-6.503192391732335
1791041428045509000,4.537509033203125,4.448563754953444,-5.872074755087494,-6.472975532644987
1791041428055538200,4.5475380859375,4.425189016845822,-5.9221519144207235,-6.443306370568275
1791041428065568000,4.557568115234375,4.400447958821058,-5.973275367936492,-6.412988973715901
1791041428075597000,4.56759716796875,4.376301944079995,-6.023977381169796,-6.382011067128181
1791041428085627100,4.577627197265625,4.350227591624856,-6.0740142084926365,-6.352343658617139
1791041428095656200,4.58765625,4.320113316129148,-6.124804484531283,-6.3240627360284325
1791041428105686300,4.597686279296875,4.288375238823891,-6.177307409706711,-6.294528598508238
1791041428115715000,4.607715087890625,4.258625412726402,-6.231912860119342,-6.260812206867337
1791041428125744000,4.617744140625,4.230372547188401,-6.2896343967258925,-6.222123872032761
1791041428135774200,4.627774169921875,4.203050532759725,-6.350528718149661,-6.178635443440079
1791041428145803000,4.637802978515625,4.177276624555885,-6.413521473157405,-6.1308636384397746
1791041428155833000,4.6478330078125,4.154610911500454,-6.476318413332105,-6.080040629175305
1791041428165862100,4.657862060546875,4.13669473105967,-6.536425968292355,-6.027708384391665
1791041428175892200,4.667892333984375,4.122389434592425,-6.592429010543227,-5.97630026871562
1791041428185921300,4.67792138671875,4.109566777898371,-6.6442948068588965,-5.927495029014349
1791041428195950000,4.6879501953125,4.097182804882526,-6.693020551583171,-5.881068208882212
1791041428205980200,4.697980224609375,4.084845009095966,-6.739752492141723,-5.836108538693189
1791041428216009200,4.70800927734375,4.073363537877798,-6.785686560320854,-5.790729766309261
1791041428226039300,4.718039306640625,4.063852197688818,-6.8323553725153205,-5.74233486097455
1791041428236068000,4.728068115234375,4.057324257224798,-6.8805024405688044,-5.689218187814951
1791041428246098000,4.738097900390625,4.05476463586986,-6.9292720244348045,-5.631557441484928
1791041428256127200,4.748127197265625,4.055431867606938,-6.977782665103674,-5.570854843240976
1791041428266156300,4.75815625,4.056070165510476,-7.025466791820525,-5.510128279599547
1791041428276186000,4.76818603515625,4.056164273534715,-7.072536001509428,-5.44950985250771
1791041428286215200,4.778215087890625,4.054710567595064,-7.118925412240624,-5.389862316274643
1791041428296245000,4.788244873046875,4.04984179251492,-7.1645309791177505,-5.332790768009424
1791041428306274000,4.798274169921875,4.040495579759776,-7.209511107572912,-5.278989035195112
1791041428316304000,4.808303955078125,4.0254719058901065,-7.2541469526350495,-5.229081971731782
1791041428326333000,4.8183330078125,4.002036669766903,-7.29935329106152,-5.183966818720102
1791041428336362200,4.8283623046875,3.968158073301613,-7.346162973031401,-5.143735346096753
1791041428346392000,4.83839208984375,3.92570746332407,-7.394508778527379,-5.106901699218153
1791041428356421000,4.848421142578125,3.879521173949539,-7.443000714495778,-5.071630479350686
1791041428366451000,4.858450927734375,3.834139186695218,-7.491129662370681,-5.035151637259125
1791041428376480000,4.86847998046875,3.792146549618244,-7.5390733168065545,-4.995236975499988
1791041428386510000,4.878510009765625,3.7547237046748396,-7.586747506651282,-4.951132460835575
1791041428396539000,4.888538818359375,3.7211990362137555,-7.633918423148989,-4.9037072773158545
1791041428406569000,4.89856884765625,3.690229312932491,-7.68000154440999,-4.854912266747653
1791041428416598000,4.908597900390625,3.662341773575544,-7.724061050888896,-4.805884324206412
1791041428426627000,4.918626953125,3.636616088427603,-7.76595957994163,-4.757653961783647
1791041428436657200,4.9286572265625,3.6103818692356344,-7.806883126482367,-4.710426054401696
1791041428446686000,4.93868603515625,3.582626139564812,-7.847797905194759,-4.663394546374678
1791041428456716000,4.948716064453125,3.554956334611773,-7.888638449627161,-4.615414651581645
1791041428466745000,4.9587451171875,3.528334285145998,-7.9288903805166475,-4.566610288663208
1791041428476775200,4.968775146484375,3.4990146671593187,-7.969399501037597,-4.5184012612894175
1791041428486804000,4.978803955078125,3.4628725096762176,-8.010543996852636,-4.47326389644593
1791041428496833000,4.9888330078125,3.4187715021431444,-8.051375188934802,-4.4337057930395005
1791041428506863000,4.998863037109375,3.3685721777349706,-8.091184052231908,-4.399527629105746
1791041428516892200,5.00889208984375,3.3167709710881113,-8.128371919375658,-4.370238698518276
1791041428526922000,5.018921875,3.265677620449662,-8.162172482168675,-4.345652246533334
1791041428536951000,5.028950927734375,3.2148160327404733,-8.193333344107867,-4.324885060575604
1791041428546981000,5.038981201171875,3.1659310058012604,-8.221763319778441,-4.306955436131358
1791041428557010200,5.04901025390625,3.1228210551321505,-8.24701934158802,-4.290107761704921
1791041428567040000,5.0590400390625,3.088664518508315,-8.268438561713696,-4.2735745600551365
1791041428577069000,5.069069091796875,3.0621146574959157,-8.287439030259847,-4.255842796270549
1791041428587098000,5.07909814453125,3.039756695215404,-8.304502393263578,-4.238574558344483
1791041428597128200,5.089128173828125,3.0184052796289325,-8.319728019446135,-4.2239471903160215
1791041428607157000,5.099156982421875,2.9971947338178753,-8.332404545667767,-4.214055326376855
1791041428617187000,5.10918701171875,2.9795401269227266,-8.342523204100132,-4.206544804616272
1791041428627216100,5.119216064453125,2.969111379627883,-8.349254558181762,-4.200561346292496
1791041428637246200,5.12924609375,2.966421994413435,-8.353340366190672,-4.194333850079775
1791041428647275000,5.13927490234375,2.966702564920485,-8.355176349446177,-4.190474544303119
1791041428657305000,5.14930517578125,2.9662033832266923,-8.35457370737791,-4.192032002878189
1791041428667334100,5.159334228515625,2.9632264132425186,-8.350891219472885,-4.201461510002613
1791041428677363200,5.16936328125,2.9588033361032604,-8.344319439867139,-4.217606296856701
1791041428687393300,5.179393310546875,2.9546237123310566,-8.3361320417583,-4.236683630031347
1791041428697422000,5.189422119140625,2.9510856013327835,-8.326873215025662,-4.257306731343269
1791041428707452200,5.1994521484375,2.948376634635031,-8.316850418183208,-4.278723613381386
1791041428717481200,5.209481201171875,2.948374881069362,-8.306752802538872,-4.298293406248092
1791041428727511000,5.219510986328125,2.953789015072584,-8.297350183421372,-4.312714438049495
1791041428737540000,5.2295400390625,2.9656828664839265,-8.289432834425568,-4.319768448214233
1791041428747570000,5.23956982421875,2.981476940204203,-8.283893904998898,-4.319522656759619
1791041428757599200,5.24959912109375,2.99485430817157,-8.280788924720882,-4.316224199736118
1791041428767628300,5.259628173828125,3.001057254464924,-8.279313591471315,-4.314742144484818
1791041428777658000,5.269658203125,3.000058598816395,-8.278695167312026,-4.316624889491498
1791041428787687200,5.279687255859375,2.9948873336583373,-8.278204753446579,-4.321151719266176
1791041428797717000,5.289717041015625,2.9879096036002037,-8.277880928319693,-4.32659917101711
1791041428807746000,5.29974609375,2.9808789743110538,-8.278342700612544,-4.33056369073391
1791041428817776000,5.309776123046875,2.9772815343409773,-8.277869237881898,-4.3339431040391325
1791041428827805000,5.319804931640625,2.9797157757505772,-8.274595915299653,-4.338517572347819
1791041428837834200,5.329834228515625,2.988431289386749,-8.26807498909831,-4.344951697048544
1791041428847864000,5.339864013671875,2.9977532444834707,-8.261126777395605,-4.351739165231585
1791041428857892900,5.349892822265625,3.0078675190016626,-8.254094394540786,-4.358103147305548
1791041428867923000,5.3599228515625,3.0189760652542112,-8.245753267174958,-4.3662028671309345
1791041428877952000,5.369951904296875,3.024829175196588,-8.236915880724787,-4.3788153882056475
1791041428887982000,5.379982177734375,3.023039661431312,-8.228343867212534,-4.396133018231391
1791041428898011000,5.390010986328125,3.0198031637281177,-8.219114266574381,-4.415578892457485
1791041428908041000,5.400041015625,3.0201541691228746,-8.20811356461048,-4.435756003567576
1791041428918070000,5.410070068359375,3.0272695540860295,-8.19457662216723,-4.45588986005783
1791041428928099000,5.42009912109375,3.0384891594976184,-8.17873958608806,-4.477296220701932
1791041428938129200,5.430129150390625,3.050867871816456,-8.16143306197822,-4.500400325174629
1791041428948158000,5.440157958984375,3.0699478353396055,-8.142360697239637,-4.521920667587221
1791041428958188000,5.45018798828125,3.0953599244937298,-8.122824806642532,-4.539697147296369
1791041428968217000,5.460217041015625,3.120534113238752,-8.104632731869817,-4.55495024600774
1791041428978247200,5.4702470703125,3.1427225641712546,-8.088291837921739,-4.5687201204240315
1791041428988276000,5.48027587890625,3.1618983892843127,-8.07445035957396,-4.579961353145539
1791041428998306000,5.49030615234375,3.176998343260586,-8.064854848232866,-4.586410675415396
1791041429008335000,5.500335205078125,3.1860297909781337,-8.060679023852943,-4.587487364736199
1791041429018365200,5.510365234375,3.1893124659106133,-8.059111920666695,-4.58796111972779
1791041429028394000,5.52039404296875,3.188798671169579,-8.056062469968198,-4.5936695605024696
1791041429038423000,5.530423095703125,3.186628049132228,-8.049666631451249,-4.606370636643469
1791041429048453000,5.540453125,3.1862440182507035,-8.040438199856878,-4.622726143638789
1791041429058482200,5.550482177734375,3.1920556271389127,-8.028303525426983,-4.639775185856223
1791041429068512300,5.56051220703125,3.2024417043358087,-8.014604085898398,-4.656272147148847
1791041429078541000,5.570541015625,3.2193609826937317,-7.999311824220419,-4.6708793491721154
1791041429088571100,5.580571044921875,3.244835907950997,-7.982456551009416,-4.682074696925282
1791041429098600200,5.59060009765625,3.271440714021027,-7.9666919956445685,-4.690402088026702
1791041429108630300,5.60063037109375,3.2943715077534317,-7.953520379382371,-4.696700311388075
1791041429118659000,5.6106591796875,3.315937735134363,-7.94113903671503,-4.702472172787785
1791041429128688000,5.620688232421875,3.337137467290461,-7.927960406190157,-4.7097073847383255
1791041429138718200,5.63071826171875,3.3592405780270695,-7.91135472382605,-4.721901388140022
1791041429148747000,5.6407470703125,3.3784327697530387,-7.890124304270744,-4.743681258271634
1791041429158777000,5.650777099609375,3.3912332146152853,-7.864960052397847,-4.776226560306549
1791041429168806100,5.66080615234375,3.3997000141873954,-7.8355176848143335,-4.818411797346174
1791041429178836200,5.670836181640625,3.4094945552319285,-7.801928134423494,-4.86576420789063
1791041429188865300,5.680865234375,3.4227833681330084,-7.766223783835768,-4.9133191552698605
1791041429198895000,5.69089501953125,3.43669265101999,-7.731029720857739,-4.9589013412714005
1791041429208924200,5.700924072265625,3.4496526703581214,-7.697586300939321,-5.001745626741648
1791041429218953200,5.710953125,3.4645158929690716,-7.664617512795329,-5.041940274485945
1791041429228983000,5.720983154296875,3.4825942782342434,-7.630486695134639,-5.081103825616836
1791041429239012000,5.73101220703125,3.5020649946406484,-7.594801633769273,-5.12102667068243
1791041429249042000,5.7410419921875,3.5199522412478923,-7.557672803336382,-5.163517320409417
1791041429259071200,5.7510712890625,3.5347359688818454,-7.5194918335020535,-5.208959805679321
1791041429269101000,5.76110107421875,3.545652207432687,-7.480570274433493,-5.257357633623481
1791041429279129900,5.7711298828125,3.5521433230176567,-7.440256968745588,-5.3099184264659876
1791041429289160000,5.781159912109375,3.557586975376308,-7.39846014650166,-5.364395866584777
1791041429299189000,5.79118896484375,3.564684824682772,-7.355145320910215,-5.418969168293476
1791041429309219000,5.801218994140625,3.574987022988498,-7.310638655185699,-5.47215130790472
1791041429319248100,5.811248046875,3.588114800108969,-7.266741061270237,-5.521801766258478
1791041429329277000,5.82127685546875,3.6030168934255835,-7.22443628950417,-5.567420192617178
1791041429339307000,5.83130712890625,3.620127602702379,-7.182526070013642,-5.610380213421583
1791041429349335800,5.841335693359375,3.6388162288203834,-7.139715102291107,-5.65277733964622
1791041429359366000,5.851365966796875,3.6559646397590635,-7.095109652367234,-5.697693170693516
1791041429369395000,5.86139501953125,3.66772960409373,-7.0477972815722225,-5.748624901029467
1791041429379425000,5.871425048828125,3.672773151218891,-6.996002212405204,-5.808363622677326
1791041429389453800,5.881453857421875,3.6717876473128794,-6.937945160233974,-5.878202882578969
1791041429399484000,5.89148388671875,3.6656110045045613,-6.873969239407778,-5.956695404535532
1791041429409513000,5.901512939453125,3.6561926032960415,-6.806434164795279,-6.039461366027593
1791041429419543000,5.91154296875,3.645207975684106,-6.738447839283943,-6.121778414708375
1791041429429572000,5.921572021484375,3.63235083219856,-6.672747578883171,-6.200874747776985
1791041429439601000,5.931600830078125,3.616718086519837,-6.608208178955316,-6.278638955458998
1791041429449631000,5.941630859375,3.6018235919877886,-6.542088231837749,-6.355968278855085
1791041429459660000,5.951659912109375,3.595957038041949,-6.471953203859925,-6.430654394266009
1791041429469690000,5.961690185546875,3.599681903783977,-6.395662575861811,-6.504472494670749
1791041429479719000,5.971718994140625,3.6173271583288904,-6.314485929387807,-6.573629033005237
1791041429489749000,5.9817490234375,3.6505090047016737,-6.229765911218523,-6.635826838243007
1791041429499778000,5.991778076171875,3.6989530098751184,-6.141959617471694,-6.690624596357345
1791041429509808000,6.00180810546875,3.7577006746590134,-6.0526359048992395,-6.739115947803855
1791041429519837000,6.0118369140625,3.82338369166404,-5.963651215022802,-6.781369866165519
1791041429529867000,6.021866943359375,3.8943653995990752,-5.876623504433035,-6.816860866263508
1791041429539896000,6.03189599609375,3.9685394738346336,-5.789628527069091,-6.84845135179162
1791041429549925000,6.041925048828125,4.0442517174229025,-5.7006192872732875,-6.878760565337538
1791041429559955200,6.051955078125,4.1230058129251,-5.608271258443594,-6.9078580650061365
1791041429569984000,6.06198388671875,4.204836539393663,-5.513042705741524,-6.935134778988361
1791041429580014000,6.07201416015625,4.286842622429132,-5.416439357554912,-6.961001626172662
1791041429590043100,6.082043212890625,4.362328656046092,-5.320161588060856,-6.988301721030473
1791041429600073200,6.0920732421875,4.424988818098605,-5.229938880822062,-7.016949723365903
1791041429610102000,6.10210205078125,4.471530789043009,-5.150442734780907,-7.046185754722356
1791041429620132000,6.112132080078125,4.502070596474409,-5.082492065104842,-7.07601799840629
1791041429630161200,6.1221611328125,4.524829540771246,-5.022682031786442,-7.104150452435016
1791041429640191000,6.13219091796875,4.5482904958575965,-4.964605690392852,-7.129945403426885
1791041429650220000,6.142219970703125,4.5802802098363635,-4.9016672959208485,-7.152976150402426
1791041429660249000,6.1522490234375,4.6218958302944895,-4.830730888432264,-7.174433364450931
1791041429670279000,6.16227880859375,4.669119061501324,-4.750744620786607,-7.197230302670597
1791041429680308200,6.17230810546875,4.715235208249092,-4.661720767943561,-7.225322424688935
1791041429690337800,6.182337890625,4.75518669488728,-4.564849416470527,-7.260905779245495
1791041429700366800,6.192366943359375,4.78915764581114,-4.463404473471641,-7.301532973188161
1791041429710397000,6.20239697265625,4.82501251078546,-4.361826844003796,-7.339217683938145
1791041429720426000,6.212426025390625,4.868025138559937,-4.265267627219855,-7.3675097124427555
1791041429730456000,6.2224560546875,4.9163779583185905,-4.174632247526944,-7.387290517711639
1791041429740484900,6.23248486328125,4.964382403030991,-4.087016507916152,-7.404160988491773
1791041429750515000,6.242514892578125,5.009706814879179,-3.998462318411469,-7.4219614335983985
1791041429760544000,6.2525439453125,5.050971722203493,-3.9062151196077464,-7.443087223735451
1791041429770572800,6.26257275390625,5.08516157657504,-3.8118624729573725,-7.468682852762937
1791041429780603000,6.272602783203125,5.110026553240418,-3.7181834877848625,-7.498873992887139
1791041429790632000,6.2826318359375,5.137000484883785,-3.6268738620921965,-7.525117272168398
1791041429800662000,6.292662109375,5.171466233587265,-3.5376389968469737,-7.5439657650232315
1791041429810691000,6.302691162109375,5.210820923376083,-3.449137998834252,-7.557854589644074
1791041429820721000,6.312720947265625,5.242352372193336,-3.359175988358259,-7.5765464306324715
1791041429830750000,6.32275,5.262007505255937,-3.2682486399814485,-7.602645333006977
1791041429840780000,6.332780029296875,5.266767267003655,-3.1748505175769326,-7.63884009746015
1791041429850809000,6.34280908203125,5.252531820902228,-3.07886383998394,-7.687776270064711
1791041429860839000,6.3528388671875,5.215322910970449,-2.9886466857030984,-7.748470685002207
1791041429870868000,6.362867919921875,5.17889726037085,-2.9166639840319752,-7.800159371185302
1791041429880898000,6.37289794921875,5.182594945845008,-2.8655004907667636,-7.8166493182152506
1791041429890927000,6.382927001953125,5.200727399384975,-2.8219904348641633,-7.820433512929082
1791041429900956000,6.392955810546875,5.194176662567258,-2.7669460085123774,-7.84441995319426
1791041429910986000,6.402986083984375,5.163482833617925,-2.7006416447386146,-7.887671065899729
1791041429921015000,6.41301513671875,5.123602658650278,-2.6446856564998624,-7.932510909101366
1791041429931045000,6.423045166015625,5.083136792749166,-2.605525320239365,-7.97140850277245
1791041429941074000,6.433073974609375,5.05198411411643,-2.5746806846424937,-8.001179371657967
1791041429951104000,6.44310400390625,5.041247616046666,-2.553976334787905,-8.014574859803915
1791041429961133000,6.453133056640625,5.031607681041955,-2.5489041460901496,-8.022244371518493
1791041429971163100,6.4631630859375,5.011079856798053,-2.557233290757239,-8.032435510665177
1791041429981192200,6.473192138671875,4.987466926020383,-2.5805294106706977,-8.039677736878394
1791041429991222000,6.483221923828125,4.959053901484609,-2.6205577619373797,-8.044304812157154
1791041430001251000,6.4932509765625,4.9140322719752785,-2.67152807071805,-8.055159968170523
1791041430011281000,6.503281005859375,4.854912559008598,-2.7268933995872735,-8.072438435229659
1791041430021310200,6.513310302734375,4.787427753278613,-2.786743764916062,-8.092278861731291
1791041430031339000,6.523339111328125,4.709896185308694,-2.8550732047766445,-8.113927798959612
1791041430041369000,6.533369140625,4.618152259851992,-2.934085658954084,-8.138440308925508
1791041430051398100,6.543398193359375,4.514952874401211,-3.0225919176638123,-8.16391552644372
1791041430061428000,6.553427978515625,4.400313226525485,-3.1174387775719166,-8.190800610759855
1791041430071457000,6.56345703125,4.27214043559879,-3.216588887631893,-8.220265190175175
1791041430081486800,6.57348681640625,4.132281006270647,-3.3197190072387457,-8.250702414014935
1791041430091516000,6.583515869140625,3.9872611254394053,-3.425973104085028,-8.278577678412198
1791041430101546000,6.5935458984375,3.8446398301824924,-3.5339819356441495,-8.300609477478265
1791041430111574800,6.60357470703125,3.7042826804652806,-3.643244274395704,-8.317177165919542
1791041430121604900,6.61360498046875,3.5693744438037274,-3.7550630196318027,-8.32643014743328
1791041430131634000,6.623634033203125,3.4467519804805513,-3.871153743098676,-8.324929095220565
1791041430141664000,6.6336640625,3.3349835041269658,-3.9896071040436625,-8.314522852018476
1791041430151693000,6.643693115234375,3.2342797348842023,-4.106638615491986,-8.297310435932873
1791041430161721900,6.653721923828125,3.145875767505169,-4.220710984873771,-8.27402308384776
1791041430171752000,6.663751953125,3.060015931650996,-4.333411773641407,-8.247922427907586
1791041430181781000,6.673781005859375,2.97056245521903,-4.447765298052132,-8.219702295595408
1791041430191811000,6.68381103515625,2.8818042675748465,-4.563321476250887,-8.18789787505567
1791041430201839900,6.69383984375,2.7978528956905007,-4.6803757840529085,-8.15085730742812
1791041430211870000,6.703869873046875,2.7179353093668817,-4.800348025128245,-8.108013021957873
1791041430221899000,6.71389892578125,2.641718915648758,-4.925260352954268,-8.058134600067138
1791041430231929000,6.72392919921875,2.567417123380303,-5.057053087943792,-8.000310772129893
1791041430241958000,6.7339580078125,2.4928502504348753,-5.194168479260802,-7.9357859852492805
1791041430251988000,6.743988037109375,2.4188480256348845,-5.333367106592655,-7.8660507702440015
1791041430262017000,6.75401708984375,2.352284280272573,-5.472195147046446,-7.79052235879004
1791041430272047000,6.764047119140625,2.2966347276344896,-5.609892137643695,-7.70875943686068
1791041430282076000,6.774075927734375,2.2506470295719803,-5.746503086569905,-7.62119864230752
1791041430292106000,6.78410595703125,2.206989089631289,-5.883594512489438,-7.52880560529232
1791041430302135000,6.794135009765625,2.1590740767680106,-6.023534898099303,-7.431406138291955
1791041430312165000,6.8041650390625,2.1067061761491,-6.168066703152657,-7.327149060481786
1791041430322194200,6.814194091796875,2.052005156407505,-6.316854996606708,-7.2150541286528105
1791041430332223000,6.824222900390625,1.9987321236424147,-6.4671881814151995,-7.095837966641783
1791041430342253300,6.83425341796875,1.9492161053232848,-6.615023119667172,-6.9722589332461355
1791041430352282400,6.844282470703125,1.9003033135943113,-6.756139563319087,-6.849364374983311
1791041430362312200,6.854312255859375,1.847699266131967,-6.888913126039505,-6.7304737916648385
1791041430372341200,6.86434130859375,1.7861077562242744,-7.012043246623874,-6.619021833914518
1791041430382371000,6.87437109375,1.7157770595438777,-7.124602873355149,-6.516634641629457
1791041430392400400,6.884400390625,1.6465047858752309,-7.228014732512832,-6.41990854384601
1791041430402430200,6.89443017578125,1.583606285022199,-7.326882518500089,-6.322924087387323
1791041430412459000,6.904458984375,1.523338863325119,-7.424176771560311,-6.223458920028805
1791041430422489000,6.914489013671875,1.4648887201830745,-7.518383579999208,-6.123593939697742
1791041430432518100,6.92451806640625,1.4108221989527343,-7.607039184051752,-6.026022038739919
1791041430442548200,6.93454833984375,1.3572539826333523,-7.689847815641761,-5.932495029258727
1791041430452577300,6.944577392578125,1.2972702001832426,-7.767771013277769,-5.843733042222261
1791041430462607000,6.954607177734375,1.2299313787952064,-7.841818246263265,-5.7587792152971025
1791041430472636200,6.96463623046875,1.1590205441392958,-7.91396636762917,-5.67416850272119
1791041430482665200,6.974665283203125,1.089926111255586,-7.983850051194429,-5.589327488520741
1791041430492695300,6.9846953125,1.029397408273816,-8.049909792557358,-5.505421709343791
1791041430502724000,6.99472412109375,0.9815062146775424,-8.110840938860177,-5.424142187017202
1791041430512754200,7.004754150390625,0.9444835480328648,-8.165870752164722,-5.3476054753035305
1791041430522783200,7.014783203125,0.9153085992138832,-8.215241224533319,-5.276589572837948
1791041430532813300,7.024813232421875,0.8917551435384898,-8.258245084479451,-5.213113418227434
1791041430542842000,7.034842041015625,0.8718903132479637,-8.295574990442395,-5.1569011171400545
1791041430552872200,7.0448720703125,0.8563654849231243,-8.328045181414485,-5.106923911049962
1791041430562901200,7.0549013671875,0.8438524787001311,-8.354981119135022,-5.064838334992528
1791041430572931300,7.064931396484375,0.8314305848266929,-8.375375087866187,-5.033108148732781
1791041430582960400,7.07496044921875,0.8195541960068047,-8.39093973674476,-5.0090743621945375
1791041430592990200,7.084990234375,0.8104440570298582,-8.40306213621497,-4.990200734898448
1791041430603019300,7.095019287109375,0.8063921512905508,-8.411762160021066,-4.9761803928524255
1791041430613049300,7.10504931640625,0.8125083691485225,-8.414487201070784,-4.970575412452221
1791041430623078400,7.115078369140625,0.8403696050204336,-8.406094051256776,-4.980133514392375
1791041430633108200,7.125108154296875,0.89430526641272,-8.383148644477128,-5.00933213634789
1791041430643137300,7.13513720703125,0.961676309569925,-8.346897765922545,-5.057158301883936
1791041430653167400,7.14516748046875,1.0377717803221196,-8.298584109130502,-5.121221900993585
1791041430663196400,7.155196533203125,1.1268427602425217,-8.237102343207598,-5.201033688855171
1791041430673225200,7.16522509765625,1.2301106808848679,-8.162756419536471,-5.294017092978954
1791041430683255300,7.17525537109375,1.3492489553540945,-8.076665113013982,-5.396054741173982
1791041430693284400,7.185284423828125,1.4832896154008806,-7.980166978767514,-5.503378220817447
1791041430703314400,7.195314453125,1.6281582511931656,-7.875411303785443,-5.612254775121808
1791041430713343200,7.20534326171875,1.776768557731807,-7.766514291214943,-5.717931072080135
1791041430723373000,7.215373046875,1.9128664425693451,-7.660334720909595,-5.816408397445082
1791041430733402400,7.22540234375,2.016650642170757,-7.563834248575568,-5.906939147719741
1791041430743432200,7.23543212890625,2.076429695829004,-7.479318813067674,-5.99321457863748
1791041430753461200,7.245461181640625,2.093229877851903,-7.405301975220441,-6.078675770562887
1791041430763491000,7.255490966796875,2.0743929293043912,-7.341892456105351,-6.161484402152896
1791041430773520100,7.26552001953125,2.0245649224266407,-7.291743400579691,-6.237146669119596
1791041430783550200,7.27555029296875,1.9506249492079017,-7.254772391057014,-6.303468276289105
1791041430793579300,7.285579345703125,1.8671170833073556,-7.2288961915224785,-6.358248498746752
1791041430803609000,7.295609130859375,1.791595832246542,-7.211558687752484,-6.399531526249647
1791041430813638100,7.30563818359375,1.7373923867635428,-7.200597148755192,-6.426760309436917
1791041430823668200,7.315668212890625,1.7112132587596773,-7.1931485863149165,-6.442106347128749
1791041430833697300,7.325697265625,1.7097564840801058,-7.186243629232049,-6.450194961038232
1791041430843727400,7.335727294921875,1.7194352897904812,-7.1774752163648605,-6.457382826715707
1791041430853756200,7.345756103515625,1.7374493776477873,-7.165287934964895,-6.466089864784479
1791041430863785200,7.35578515625,1.7695644715718923,-7.144049332103132,-6.480862486502528
1791041430873815300,7.365815185546875,1.8100658471778035,-7.1048314204365015,-6.51271249974966
1791041430883844000,7.375843994140625,1.8567462036795912,-7.042153722727298,-6.567414980795979
1791041430893874200,7.385874267578125,1.9074270279943941,-6.953771674919128,-6.6465919778853655
1791041430903903200,7.3959033203125,1.9593571217179298,-6.847010505333542,-6.741644004976749
1791041430913933300,7.405933349609375,2.0156280211247504,-6.725894062659144,-6.846166455724835
1791041430923962400,7.41596240234375,2.080518572577834,-6.594402940964699,-6.953826035454869
1791041430933992200,7.4259921875,2.1474670794740316,-6.4574412789046765,-7.061177572149038
1791041430944021200,7.436021240234375,2.209292982659489,-6.324195422497391,-7.161979541069269
1791041430954051300,7.44605126953125,2.259092932486534,-6.201344703376293,-7.253290628066659
1791041430964080400,7.456080322265625,2.295053888183832,-6.087244861465692,-7.338157945752143
1791041430974110500,7.4661103515625,2.3237148961313068,-5.976753273180127,-7.419511702358722
1791041430984139300,7.47613916015625,2.3517812991864977,-5.866770218938589,-7.4980346194535485
1791041430994169300,7.48616943359375,2.3854905304342506,-5.757521324190497,-7.571707758429646
1791041431004198400,7.496198486328125,2.431792262881994,-5.647844559419155,-7.639281996008753
1791041431014228200,7.506228271484375,2.4929095794066787,-5.535218297192454,-7.701762125319242
1791041431024257300,7.51625732421875,2.5671707474038,-5.418845249652862,-7.759905686730146
1791041431034287000,7.526287109375,2.653285434801876,-5.296825720658898,-7.814992198657989
1791041431044316400,7.53631640625,2.7451071016699076,-5.16849160169065,-7.86902014144361
1791041431054346200,7.54634619140625,2.834656439691782,-5.036832722213864,-7.922462393295764
1791041431064375000,7.556375,2.9216800586283207,-4.904416886889934,-7.973760618856549
1791041431074405000,7.566405029296875,3.01030643658638,-4.771084228982031,-8.021546452382207
1791041431084434200,7.57643408203125,3.1095474398002025,-4.636737133334576,-8.062367707592248
1791041431094464300,7.58646435546875,3.21996070215255,-4.500815627977252,-8.095981223380566
1791041431104493000,7.5964931640625,3.338420200577378,-4.3640354599639775,-8.122840588733553
1791041431114522000,7.606522216796875,3.4607433886930346,-4.227638446049392,-8.14375419742465
1791041431124552200,7.61655224609375,3.5840500348880884,-4.093456477835774,-8.158956442731618
1791041431134581200,7.626581298828125,3.7043911092758175,-3.9625291275039314,-8.169837317708135
1791041431144611300,7.636611328125,3.816125098837912,-3.8359602646425364,-8.17881382036805
1791041431154640100,7.64664013671875,3.9141143484249707,-3.7142221829384563,-8.188689902216195
1791041431164670200,7.656670166015625,3.998069227440655,-3.5964059508532285,-8.200712932965159
1791041431174699300,7.66669921875,4.07074838694334,-3.480302367904782,-8.215041318047046
1791041431184729300,7.676729248046875,4.132311109147966,-3.3691000010013576,-8.230647467979788
1791041431194758100,7.686758056640625,4.180962035070359,-3.264150264751911,-8.248349713408947
1791041431204788200,7.696788330078125,4.198543868990242,-3.167171945773065,-8.27717599492073
1791041431214817300,7.7068173828125,4.17027580588311,-3.0791818198919296,-8.324532204857467
1791041431224847400,7.716847412109375,4.100086125108599,-3.000740151339769,-8.387803776806592
1791041431234876200,7.726876220703125,4.0145159198507665,-2.933906502994895,-8.452588675928116
1791041431244906200,7.73690625,3.909757322259247,-2.872728103932738,-8.522418583479523
1791041431254935300,7.746935302734375,3.7940702111572024,-2.816474594052136,-8.593188402229547
1791041431264965400,7.75696533203125,3.717074649760127,-2.7777035493701696,-8.639335236376523
1791041431274994200,7.766994140625,3.6794577435493467,-2.7556092064619064,-8.662481134164333
1791041431285024300,7.777024169921875,3.6678625828236338,-2.7418434236988425,-8.671762172728776
1791041431295053300,7.78705322265625,3.6771301773846146,-2.73510593213737,-8.6699641833961
1791041431305083400,7.79708349609375,3.699326519362628,-2.7410835452422497,-8.65862738134563
1791041431315112400,7.807112548828125,3.7293884801492094,-2.762457757182419,-8.638915549659728
1791041431325142300,7.817142333984375,3.7622342264354227,-2.7967347053155303,-8.613608089923858
1791041431335171300,7.82717138671875,3.7961627995222806,-2.8424788038805127,-8.583695766741037
1791041431345201700,7.83720166015625,3.8221383677780625,-2.8971643337920305,-8.553834881484509
1791041431355230500,7.84723046875,3.83610288798362,-2.9585607595190404,-8.526525434276461
1791041431365260500,7.857260498046875,3.840282219494879,-3.026837300148606,-8.50064046691358
1791041431375289600,7.86728955078125,3.8340132222279903,-3.102058837610483,-8.476317926561832
1791041431385318400,7.877318359375,3.814205821213126,-3.183582105565071,-8.454999828723073
1791041431395348500,7.887348388671875,3.7726080286726353,-3.27168650547564,-8.440017363646627
1791041431405377500,7.89737744140625,3.709435825444758,-3.3671105807498094,-8.430482642582058
1791041431415407600,7.90740771484375,3.6317984590128063,-3.4717481823101637,-8.421839317399263
1791041431425436700,7.917436767578125,3.5473932058811184,-3.586425531847775,-8.409753742808103
1791041431435466500,7.927466552734375,3.4596202298820016,-3.7110295243769884,-8.392238544383645
1791041431445495600,7.93749560546875,3.3677257900387048,-3.8451866504102945,-8.369191430795192
1791041431455525600,7.947525634765625,3.2717677540183066,-3.9879549529224634,-8.340392037290334
1791041431465554700,7.9575546875,3.17046338853389,-4.13883992639482,-8.3059350564152
1791041431475584500,7.96758447265625,3.064134180624783,-4.296893184061348,-8.265481465473771
1791041431485613600,7.977613525390625,2.9532191062301396,-4.461172184374928,-8.21868756559491
1791041431495643600,7.9876435546875,2.8399948781102893,-4.631454516756534,-8.164216555216909
1791041431505672700,7.997672607421875,2.7260519803270697,-4.807969898308813,-8.100769626700878
1791041431515702800,8.007702880859375,2.611433375239372,-4.990508777934313,-8.027804343733191
1791041431525731600,8.017731689453125,2.498328389585018,-5.177364643976092,-7.945038966763019
1791041431535761700,8.02776171875,2.392021831899136,-5.365755464500189,-7.85221513711512
1791041431545790700,8.037790771484374,2.2962600491032004,-5.553843502685427,-7.749349221402406
1791041431555820800,8.04782080078125,2.212347109533101,-5.739917278438806,-7.637357749947905
1791041431565849600,8.057849609375,2.14318078045696,-5.919884554010629,-7.518784562015533
1791041431575879700,8.067879638671876,2.0936545330047607,-6.090731534537673,-7.395268656983971
1791041431585908700,8.07790869140625,2.065109698782861,-6.24924276510477,-7.269985157757997
1791041431595938600,8.0879384765625,2.0540926302060485,-6.3940744298875325,-7.1461121098518365
1791041431605967600,8.097967529296875,2.050944249177724,-6.526959051766991,-7.02586835835874
1791041431615997400,8.10799755859375,2.044105343068391,-6.652277622306347,-6.909358532696962
1791041431626026800,8.11802685546875,2.0303608953543004,-6.774422823506593,-6.793764068314433
1791041431636056600,8.128056640625,2.0080378582566976,-6.897434870669246,-6.675595369529724
1791041431646085600,8.138085693359375,1.9734106353811918,-7.024132328346371,-6.55268035300076
1791041431656115500,8.148115478515624,1.9230900226809082,-7.1524512497454875,-6.427641183924675
1791041431666144500,8.15814453125,1.8628220164619385,-7.277694416961073,-6.303605054411292
1791041431676174600,8.168174560546875,1.805589432416111,-7.395066996932029,-6.182492118868232
1791041431686203600,8.17820361328125,1.755810671507567,-7.501619492202996,-6.0673898219168185
1791041431696233500,8.1882333984375,1.7125374931007622,-7.596922279185057,-5.960234100055694
1791041431706262500,8.198262451171875,1.6787299160450695,-7.680874820113182,-5.861435287651419
1791041431716292600,8.208292724609375,1.65262838332206,-7.753331569036841,-5.772787282383441
1791041431726321700,8.21832177734375,1.6328924401082097,-7.814147564527392,-5.695887582576274
1791041431736351700,8.228351806640624,1.6227052464842795,-7.863233959257602,-5.630877058005333
1791041431746380500,8.238380615234375,1.6221137103319168,-7.899587713664769,-5.579933637231588
1791041431756409600,8.24840966796875,1.6351101161576806,-7.923948832461237,-5.541465667149424
1791041431766439700,8.258439697265626,1.6578043246552348,-7.939483086201548,-5.512412006622553
1791041431776468500,8.268468505859374,1.6884953771255908,-7.947727767455578,-5.491173403760791
1791041431786498600,8.27849853515625,1.7256383822143078,-7.9483800938844675,-5.478667557930946
1791041431796527600,8.288527587890625,1.7681258170709013,-7.9402786204934115,-5.47687015312016
1791041431806557700,8.2985576171875,1.818668694219738,-7.922517338353395,-5.4860331182628865
1791041431816586800,8.308586669921874,1.879921327561885,-7.896421358588338,-5.5029824994981285
1791041431826616600,8.318616455078125,1.9529441859357057,-7.864993370145559,-5.522524235314131
1791041431836645600,8.328645751953125,2.038280144046247,-7.83045163359642,-5.540744367137551
1791041431846675700,8.33867578125,2.1335181952290236,-7.794471973198652,-5.555601744529604
1791041431856704800,8.348704833984375,2.233511478114873,-7.756372836428881,-5.569603381875157
1791041431866734800,8.35873486328125,2.333265107025951,-7.714222378441691,-5.587218533542752
1791041431876763600,8.368763671875,2.4305038305066526,-7.669215361979603,-5.607689074641466
1791041431886793700,8.378793701171874,2.5215783322691916,-7.623012998253107,-5.630427560672164
1791041431896822800,8.38882275390625,2.6046286636605855,-7.577690339970588,-5.653751153114437
1791041431906852600,8.3988525390625,2.676656958039105,-7.534300111055374,-5.67804738998115
1791041431916881700,8.408881591796876,2.733729090826213,-7.491641119024157,-5.707225553670526
1791041431926911500,8.418911376953124,2.776013404326141,-7.446880186277627,-5.745269745382666
1791041431936940500,8.4289404296875,2.8102479746222495,-7.396062437710166,-5.794062710124254
1791041431946970600,8.438970703125,2.8426392551392317,-7.3373805316388605,-5.85257510484755
1791041431956999400,8.44899951171875,2.875740437491238,-7.270756142130494,-5.919172021827102
1791041431967029500,8.459029541015624,2.9117227282375095,-7.197031565228104,-5.991242986303567
1791041431977058600,8.46905859375,2.9553602099120617,-7.117032730361819,-6.064988021472096
1791041431987088600,8.479088623046875,3.0132816530048845,-7.0309893546342845,-6.1364247796982525
1791041431997117400,8.489117431640626,3.0874867069005965,-6.938041606345772,-6.20494828082621
1791041432007147500,8.4991474609375,3.1785750910580157,-6.839422242161631,-6.268120484054088
1791041432017176600,8.509176513671875,3.280532952015102,-6.735876527491212,-6.3274371808975935
1791041432027206700,8.51920654296875,3.3862323375880714,-6.627493309661745,-6.385933793529868
1791041432037235700,8.529235595703126,3.4936166075080632,-6.513803217595815,-6.444796901386976
1791041432047265500,8.539265625,3.6012948919385668,-6.392828813740611,-6.5063663455933325
1791041432057294600,8.549294677734375,3.709266021835804,-6.263823663643002,-6.570862490901351
1791041432067324700,8.55932470703125,3.8179566981792448,-6.1282800516873595,-6.636097471877932
1791041432077353700,8.569353759765624,3.9276396004304286,-5.987821779683232,-6.700002081033587
1791041432087383600,8.579383544921875,4.034940868242085,-5.845401852217316,-6.761724669975042
1791041432097412600,8.58941259765625,4.134576131470501,-5.702033830246329,-6.823671130800247
1791041432107442700,8.599442626953126,4.230249797591567,-5.559506350752711,-6.882389277228713
1791041432117471700,8.6094716796875,4.326800538808107,-5.415608751949668,-6.936884253004193
1791041432127501800,8.619501708984375,4.425283709391952,-5.2691076926499605,-6.987398634710908
1791041432137530600,8.629530517578125,4.52341412101537,-5.122375747203827,-7.033517411807179
1791041432147560700,8.639560791015626,4.615148986382782,-4.978095871084928,-7.077383441540598
1791041432157589800,8.64958984375,4.694375960093736,-4.838864218266308,-7.121699553129076
1791041432167619600,8.65961962890625,4.757293311777711,-4.701056753031909,-7.172070726972818
1791041432177648600,8.669648681640625,4.802518939426541,-4.558411200116574,-7.233746554163098
1791041432187678500,8.679678466796876,4.832069735820591,-4.405063051401078,-7.308688105639815
1791041432197707800,8.689707763671874,4.854869888910651,-4.24101464497298,-7.390155844014883
1791041432207737600,8.699737548828125,4.880507018992304,-4.070499965140224,-7.468740135908126
1791041432217766400,8.709766357421875,4.912155372187495,-3.90061306181699,-7.5383245442658655
1791041432227796500,8.71979638671875,4.950239311388135,-3.7387878843963143,-7.5951944324791425
1791041432237825500,8.729825439453125,4.990302441707253,-3.5860981995895505,-7.64245828795731
1791041432247855600,8.739855712890625,5.027305015411972,-3.4394802359119057,-7.685477929994463
1791041432257884700,8.749884765625,5.06004116384387,-3.295879281967878,-7.726806550204754
1791041432267914500,8.75991455078125,5.086890592324734,-3.155065912915766,-7.767849923732876
1791041432277943600,8.769943603515625,5.098679229795932,-3.0175024855703114,-7.81463564030528
1791041432287973600,8.7799736328125,5.105231720179319,-2.889131249462068,-7.858748922798037
1791041432298002700,8.790002685546876,5.106879487386346,-2.771967636066675,-7.899770084494352
1791041432308032500,8.800032470703124,5.104643691158294,-2.6689126275226474,-7.936618344420194
1791041432318061600,8.8100615234375,5.097393866160512,-2.5811744305759667,-7.970226599511504
1791041432328091600,8.820091552734375,5.076711143615841,-2.5058918105766175,-8.00736536681652
1791041432338120700,8.83012060546875,5.045361481106281,-2.4407179121375084,-8.047211054992676
1791041432348150500,8.840150634765624,5.014838917070627,-2.3875468784421683,-8.082165463995933
1791041432358179600,8.8501796875,4.991922151863575,-2.3485515234850345,-8.10773771214783
1791041432368209400,8.86020947265625,4.983074244019389,-2.3237553742721677,-8.120315454170107
1791041432378238500,8.870238525390626,4.978554720768332,-2.3105961791001257,-8.1268393029809
1791041432388268500,8.8802685546875,4.971339967083931,-2.3076259311176837,-8.1320988309443
1791041432398297600,8.890297607421875,4.963703773117065,-2.3163630720637736,-8.13427968211472
1791041432408327400,8.900327392578125,4.956550394231081,-2.3395681526929137,-8.132000046744942
1791041432418356500,8.9103564453125,4.942418408504128,-2.3760579545699057,-8.130019686582685
1791041432428386600,8.920386474609375,4.915848966008425,-2.422600363905728,-8.132393429976702
1791041432438415600,8.93041552734375,4.882625326320529,-2.4756524473965165,-8.136430138146876
1791041432448445400,8.940445556640626,4.848448623691499,-2.534393682439625,-8.138782838752865
1791041432458474500,8.950474609375,4.812195699310302,-2.601648186545074,-8.139078606829047
1791041432468504300,8.96050439453125,4.771154079347848,-2.67972452891618,-8.137908394005894
1791041432478533600,8.97053369140625,4.723371752953529,-2.770768489409983,-8.135293243071436
1791041432488562400,8.9805625,4.668463227941095,-2.8761162850663062,-8.130424760252238
1791041432498592300,8.99059228515625,4.604640451849996,-2.996648790372908,-8.123284825369716
1791041432508622300,9.000622314453125,4.530908568423986,-3.1326439454883337,-8.113433293440938
1791041432518651400,9.0106513671875,4.442290958294272,-3.285262318624556,-8.102067849817871
1791041432528681500,9.020681396484376,4.334796505998074,-3.455274017371237,-8.089562588509917
1791041432538710300,9.030710205078124,4.211675445502996,-3.6417198413074012,-8.072797916191815
1791041432548739300,9.0407392578125,4.079255810786783,-3.8427573774367567,-8.047564106214047
1791041432558769400,9.050769287109375,3.9420191311776636,-4.055191044588387,-8.01163529922068
1791041432568799500,9.060799560546876,3.798938401715457,-4.275459643149376,-7.966109811842441
1791041432578828500,9.07082861328125,3.65352776800096,-4.499726663696766,-7.910408382886648
1791041432588858400,9.0808583984375,3.514697097198665,-4.725193707683682,-7.841546443584561
1791041432598887400,9.090887451171875,3.387472108516097,-4.9501007797002785,-7.758346182328462
1791041432608917500,9.10091748046875,3.269447202116251,-5.1736722191989415,-7.662519079211354
1791041432618946600,9.110946533203125,3.155336546550691,-5.39484594990611,-7.5571075706690545
1791041432628976400,9.120976318359375,3.044224488279223,-5.611166395363211,-7.44432056492269
1791041432639005400,9.13100537109375,2.943385986740887,-5.81870615299344,-7.324584178429841
1791041432649035500,9.141035400390624,2.855984474402666,-6.015072190180421,-7.199490064296126
1791041432659064600,9.151064697265625,2.777156144620478,-6.199114167845249,-7.073102987742423
1791041432669094700,9.1610947265625,2.6964924161046744,-6.371710622388124,-6.949865899652242
1791041432679123500,9.17112353515625,2.606248373816907,-6.534279603913426,-6.832353034427761
1791041432689153500,9.181153564453124,2.510231008824706,-6.687051998567581,-6.719559014418721
1791041432699182600,9.1911826171875,2.421377544112503,-6.829550251966714,-6.607917087054252
1791041432709212400,9.20121240234375,2.3454614485152065,-6.963011212429404,-6.495050001809001
1791041432719241500,9.211241455078126,2.2755365561567245,-7.090738597676157,-6.380734471321105
1791041432729271300,9.221271240234374,2.2030878444090485,-7.214643794286251,-6.266234231916069
1791041432739300600,9.231300537109375,2.1264561478883026,-7.332413264620303,-6.155019590052962
1791041432749330400,9.241330322265625,2.050047446468472,-7.439628023192286,-6.0514148386716835
1791041432759359200,9.251359130859376,1.9792817193716763,-7.5324413314461705,-5.959459608551859
1791041432769389300,9.261389404296875,1.9180173955917357,-7.612609677660465,-5.8770537125438445
1791041432779418400,9.27141845703125,1.867655135706812,-7.679969395706057,-5.805196098557114
1791041432789448400,9.281448486328125,1.8309395622499287,-7.736706597450375,-5.741201473030448
1791041432799477500,9.2914775390625,1.8106069683171808,-7.783271949270367,-5.684433876147866
1791041432809507300,9.30150732421875,1.805299655689299,-7.819953620457649,-5.635568430691957
1791041432819536400,9.311536376953125,1.810159224549681,-7.847313336548209,-5.5958355552405115
1791041432829566500,9.32156640625,1.8207381939701734,-7.865563278988003,-5.566705322346091
1791041432839595500,9.331595458984374,1.8374077353507279,-7.872772187453508,-5.551016170305013
1791041432849625300,9.341625244140625,1.8598524991318583,-7.867012308752536,-5.551704737091064
1791041432859654400,9.351654296875,1.8876555750757456,-7.848074384048581,-5.569097770440578
1791041432869684500,9.3616845703125,1.9213342650547622,-7.816718876320123,-5.6015837435036895
1791041432879713500,9.371713623046874,1.9627669301614163,-7.774170358926058,-5.646254659879207
1791041432889743600,9.38174365234375,2.014769212338328,-7.721574494770169,-5.6998564862072465
1791041432899772400,9.3917724609375,2.078921512644738,-7.660638672292232,-5.758738883286714
1791041432909802500,9.401802490234376,2.1539538111448286,-7.5939248509347435,-5.8192070882529014
1791041432919831600,9.41183154296875,2.234400097517669,-7.524415845900774,-5.8788593006610865
1791041432929861600,9.421861572265625,2.3142634694360193,-7.454813901886343,-5.936356965383887
1791041432939890400,9.431890380859375,2.3881685174718497,-7.386304429283737,-5.992457622790337
1791041432949920500,9.44192041015625,2.451286506294459,-7.318752988058328,-6.049581193503737
1791041432959949600,9.451949462890624,2.499820673969388,-7.251234864580631,-6.110719260555506
1791041432969979600,9.461979736328125,2.532026661047339,-7.1832502926349635,-6.1773909963369364
1791041432980008400,9.472008544921875,2.547419460490346,-7.114131163701415,-6.2506128844141955
1791041432990038300,9.482038330078124,2.54702023203969,-7.042734737485647,-6.331109731930494
1791041433000068400,9.492068359375,2.535286831887066,-6.9671244929671285,-6.418868679404258
1791041433010097400,9.502097412109375,2.518086106239259,-6.885071648180484,-6.513479392468929
1791041433020127500,9.51212744140625,2.499400694991648,-6.794876997992396,-6.614606940081715
1791041433030156300,9.52215625,2.4829350056201216,-6.695340518963336,-6.721447020122408
1791041433040186400,9.532186279296875,2.473962594613433,-6.584927841132878,-6.832908330222964
1791041433050215400,9.54221533203125,2.476421970464289,-6.462273521366715,-6.948146820774674
1791041433060245500,9.55224560546875,2.4917311832770705,-6.326055955672263,-7.0670134386956684
1791041433070274300,9.5622744140625,2.5194264149323105,-6.177603762304782,-7.187496259641647
1791041433080304400,9.572304443359375,2.5554808941319584,-6.017623628228902,-7.309452660271525
1791041433090333400,9.58233349609375,2.5986814456939697,-5.847498532235622,-7.43128514226079
1791041433100363500,9.592363525390626,2.6501541510388256,-5.67021421213746,-7.549552040722966
1791041433110392600,9.602392578125,2.7067750329270956,-5.489582335177063,-7.662129787632822
1791041433120422400,9.61242236328125,2.767035148100555,-5.312223780798912,-7.764931990459561
1791041433130451500,9.622451416015625,2.8257760908827185,-5.140335766786337,-7.858900898489355
1791041433140481500,9.6324814453125,2.882109095740318,-4.972850371646881,-7.945728118070959
1791041433150510600,9.642510498046875,2.9384035221531986,-4.807443244086206,-8.026497352787851
1791041433160540400,9.65254052734375,2.997814034759998,-4.643337554512918,-8.100797683751583
1791041433170569500,9.662569580078125,3.0631428314998743,-4.481365369836986,-8.16730809149146
1791041433180599600,9.672599609375,3.136481916216016,-4.321867758581042,-8.225224858409167
1791041433190628600,9.682628662109375,3.2159774777352808,-4.1633430840104815,-8.276137884044648
1791041433200658400,9.692658447265625,3.299167217597365,-4.005116515603661,-8.321352990299463
1791041433210688300,9.702688232421876,3.3824802915781733,-3.845000480188429,-8.363322831022739
1791041433220717300,9.71271728515625,3.46359614777565,-3.6815202290371056,-8.403588205915689
1791041433230747400,9.722747314453125,3.542261980472505,-3.5146377682268617,-8.442160220894216
1791041433240776400,9.7327763671875,3.623790801385045,-3.3465155364885923,-8.475811730605363
1791041433250806500,9.742806640625,3.7103479718536136,-3.1781179949402807,-8.503132283729315
1791041433260835300,9.75283544921875,3.8050495780721305,-3.0144653098315,-8.520854402902723
1791041433270865400,9.762865478515625,3.907776962096989,-2.8589339718580242,-8.52796335812509
1791041433280894500,9.77289453125,4.00677889585793,-2.712109087431431,-8.529980543166399
1791041433290924500,9.782924560546874,4.091554443606734,-2.575088680921495,-8.532202895390986
1791041433300953300,9.792953369140625,4.156973256717622,-2.4487181171111763,-8.537783325871825
1791041433310983400,9.8029833984375,4.201254004731774,-2.332900949888676,-8.54853385246694
1791041433321012500,9.813012451171875,4.231067251454293,-2.227925348545611,-8.561823542150854
1791041433331042600,9.82304248046875,4.259552464443445,-2.1390986257098614,-8.570347040346265
1791041433341070800,9.83307080078125,4.286634240375459,-2.0699223597615957,-8.573830206286907
1791041433351101000,9.843100830078125,4.303909784825146,-2.020091138013452,-8.577060858771205
1791041433361130000,9.8531298828125,4.305786976873875,-1.9858213502734898,-8.58411954511106
1791041433371160000,9.86316015625,4.289534345731139,-1.9626723837457596,-8.597569393792748
1791041433381188900,9.87318896484375,4.26308706831038,-1.950517251049727,-8.61347481893301
1791041433391219000,9.883218994140625,4.239522068327665,-1.9539079164013264,-8.624331143990158
1791041433401249000,9.8932490234375,4.224842677851021,-1.9786076195023952,-8.625903507873415
1791041433411278000,9.903278076171874,4.212893589121103,-2.026376940284669,-8.620655670347809
1791041433421308200,9.91330810546875,4.19162955955714,-2.0944757862597703,-8.61474264691174
1791041433431337000,9.9233369140625,4.152673221436142,-2.180556717518717,-8.612250245574117
1791041433441366800,9.93336669921875,4.096245524032414,-2.286075485827774,-8.611911222878097
1791041433451396000,9.94339599609375,4.030635280002653,-2.41375596319288,-8.6080288284868
1791041433461426000,9.953426025390625,3.9613495623305437,-2.5622736230120062,-8.597259012669324
1791041433471455000,9.963455078125,3.889876563747227,-2.725633462654054,-8.579635677695274
1791041433481484800,9.97348486328125,3.815855634246766,-2.8978420869231223,-8.556410284930466
1791041433491513900,9.983513916015625,3.7415868674650787,-3.076489219807088,-8.52678788460493
1791041433501544000,9.9935439453125,3.667228961095214,-3.26008666857481,-8.490797702813149
1791041433511573000,10.003572998046875,3.5913702947735784,-3.447446392485499,-8.449116031381488
1791041433521602800,10.013602783203124,3.516360061974823,-3.6378307249143718,-8.400701836824416
1791041433531631900,10.0236318359375,3.442972169680893,-3.8294711948841806,-8.345746257799863
1791041433541662000,10.033661865234375,3.373222926150262,-4.021751131801307,-8.28355488230288
1791041433551691000,10.04369091796875,3.3055338300198316,-4.216700580188632,-8.213603978720307
1791041433561720800,10.053720947265624,3.2348110652819275,-4.417925455583632,-8.135619406285882
1791041433571751000,10.0637509765625,3.1567846995323894,-4.628064289796352,-8.048981571796537
1791041433581780000,10.073780029296875,3.0714556095540524,-4.84758879199177,-7.952197606346011
1791041433591810000,10.08381005859375,2.9805884669318794,-5.0744519665122025,-7.8445140612185
1791041433601839000,10.093839111328125,2.882454255916178,-5.304553684562444,-7.728100681668519
1791041433611869000,10.103868896484375,2.7763272925809024,-5.533053228113055,-7.605768433463573
1791041433621898000,10.11389794921875,2.66792800039947,-5.7552352590799325,-7.478622062975168
1791041433631928000,10.123927978515624,2.5655042754963038,-5.966091593912243,-7.348081958395242
1791041433641957000,10.13395703125,2.473266429042816,-6.161590785136818,-7.217212183469534
1791041433651987200,10.1439873046875,2.386418312803656,-6.343159066164493,-7.088000112622976
1791041433662016000,10.15401611328125,2.3014611248776315,-6.512077124455571,-6.961790730723738
1791041433672045800,10.1640458984375,2.2205853610463437,-6.669515757355094,-6.837907161423564
1791041433682075100,10.1740751953125,2.1488696397483347,-6.815630447685718,-6.715647393932938
1791041433692105000,10.18410498046875,2.089006414937973,-6.949560779225826,-6.596214374300837
1791041433702134000,10.194134033203126,2.038320037665218,-7.072817741060256,-6.48003714159429
1791041433712163800,10.204163818359374,1.9979360048286616,-7.183344985181093,-6.370103771713375
1791041433722194000,10.21419384765625,1.9685007976382969,-7.281133743759989,-6.267412628045678
1791041433732223000,10.224222900390625,1.948872406452149,-7.3669889034390446,-6.172500301685929
1791041433742253000,10.234253173828124,1.937276076682657,-7.439671277812123,-6.088399876719713
1791041433752281900,10.24428173828125,1.932503455453366,-7.50207951093018,-6.012870296221971
1791041433762312000,10.25431201171875,1.9373752992734312,-7.55524996010363,-5.944338027265667
1791041433772341000,10.264341064453125,1.947799078132212,-7.599289592838287,-5.884492338111996
1791041433782371000,10.27437109375,1.9574621017515659,-7.6343866251826284,-5.835654949706792
1791041433792400000,10.28439990234375,1.968938166142255,-7.659996867257356,-5.7981140313416715
1791041433802430000,10.294429931640625,1.9872787094749509,-7.674514052909612,-5.772603157988191
1791041433812459000,10.304458984375,2.012530639631301,-7.677487515762448,-5.7598857152342795
1791041433822489000,10.314489013671874,2.0439405078954995,-7.669628034433722,-5.759297101691365
1791041433832518000,10.324517822265625,2.0810909656383094,-7.651940402051806,-5.769511037191748
1791041433842548000,10.3345478515625,2.125320567987114,-7.624484824371337,-5.789698085173964
1791041433852578000,10.344578125,2.1785817641839382,-7.588217579203843,-5.817485086765885
1791041433862607000,10.354607177734374,2.2419750628165898,-7.543153864118456,-5.8519034891963
1791041433872637000,10.364636962890625,2.3165927891664206,-7.488828984212875,-5.892471646428108
1791041433882666000,10.374666015625,2.4013215751640495,-7.426392694044113,-5.937399752435088
1791041433892695800,10.38469580078125,2.4911679964363573,-7.357519648826122,-5.985930266848206
1791041433902724900,10.394724853515624,2.5808430066645145,-7.284312958317995,-6.037252457806468
1791041433912755000,10.4047548828125,2.6655957580596206,-7.2089224940299985,-6.09068185017705
1791041433922783700,10.41478369140625,2.741551455014944,-7.13221042574942,-6.14702157703638
1791041433932813800,10.424813720703124,2.8070442101448774,-7.054692301782965,-6.206627027693391
1791041433942843000,10.4348427734375,2.861679763434827,-6.976693700823187,-6.269520998501777
1791041433952873000,10.444873046875,2.903729099135101,-6.89837653543353,-6.3364925940126176
1791041433962902000,10.454902099609376,2.9317379267841575,-6.819215320435166,-6.408867509871721
1791041433972931800,10.464931884765624,2.94776347117275,-6.736708302140236,-6.488285329979658
1791041433982961000,10.4749609375,2.958104832445085,-6.646499623426795,-6.576021481099724
1791041433992991000,10.484990966796875,2.968358223173022,-6.544649022236466,-6.672840517863631
1791041434003021000,10.49502099609375,2.981810117681324,-6.429400594812631,-6.778052119919657
1791041434013049900,10.5050498046875,3.00072875316292,-6.30079291960001,-6.889558438205719
1791041434023080000,10.515079833984375,3.0292525445967913,-6.159101890930533,-7.004246893659234
1791041434033109000,10.52510888671875,3.0718492850467563,-6.004644904190301,-7.118874558836222
1791041434043139000,10.53513916015625,3.1240906366765495,-5.837537110191583,-7.234197805061936
1791041434053168000,10.545168212890625,3.184799956922233,-5.6626481607973576,-7.345873634696006
1791041434063198000,10.555197998046875,3.25215996722877,-5.482835199004412,-7.4520041051626205
1791041434073227000,10.56522705078125,3.325127003762126,-5.299667081564665,-7.551652812394499
1791041434083256800,10.5752568359375,3.4030779661878943,-5.114926015719771,-7.643754172986745
1791041434093286100,10.5852861328125,3.4821950497835874,-4.930202485531568,-7.729023641732335
1791041434103316000,10.59531591796875,3.5570974382936953,-4.746462413422763,-7.809516397595405
1791041434113345000,10.605344970703126,3.625166765913367,-4.5619326522409915,-7.887796738106012
1791041434123374800,10.615374755859374,3.6891128761231897,-4.3747462390705945,-7.963820824122428
1791041434133404000,10.62540380859375,3.755422208333015,-4.1858991992115975,-8.034018980464339
1791041434143434000,10.63543408203125,3.826658475551009,-3.9971015514522787,-8.096310309204458
1791041434153463800,10.6454638671875,3.9039635412886735,-3.8110081942155953,-8.148966379114984
1791041434163492900,10.655492919921874,3.986064609131217,-3.6294212084874506,-8.192005894896388
1791041434173523000,10.66552294921875,4.068780009479821,-3.452715272799134,-8.227646532598138
1791041434183552000,10.675552001953125,4.151002657875418,-3.2815067654833197,-8.256589718487858
1791041434193582000,10.68558203125,4.234026685781776,-3.1169314125716685,-8.278172020220756
1791041434203611000,10.69561083984375,4.3173911976888775,-2.9568542478621005,-8.293825516426562
1791041434213641000,10.705640869140625,4.402087834982574,-2.799949867969751,-8.303750698113442
1791041434223670000,10.715669921875,4.493580708287656,-2.6493910577118394,-8.304146419432758
1791041434233700000,10.7257001953125,4.5935257681176065,-2.5081778756871818,-8.2933076300323
1791041434243729000,10.73572900390625,4.697634085106849,-2.3785860117428004,-8.273146301013231
1791041434253759000,10.745759033203125,4.7908837389513845,-2.261369791377336,-8.252515600916743
1791041434263788000,10.7557880859375,4.857796297751367,-2.1547155892975627,-8.241928740450739
1791041434273818000,10.765818115234374,4.897978670535982,-2.060866946646571,-8.24214910520315
1791041434283847000,10.775846923828125,4.914907885766029,-1.984990744668245,-8.250688970011472
1791041434293877000,10.785876953125,4.9054403847187755,-1.9296037884891033,-8.269442770320177
1791041434303906800,10.79590673828125,4.875960023212433,-1.8942355379879474,-8.295015602993965
1791041434313936000,10.805935791015624,4.835704292930663,-1.8750033065125344,-8.322902557829021
1791041434323966000,10.815966064453125,4.793789689525962,-1.868646338701248,-8.348539687910675
1791041434333994800,10.825994873046875,4.751183888986707,-1.8720988172426818,-8.372088905802368
1791041434344025300,10.836025390625,4.712774663354456,-1.886707188309729,-8.390498422718048
1791041434354054400,10.846054443359375,4.681625491853058,-1.91581813198179,-8.401333120465278
1791041434364084500,10.85608447265625,4.655503208602965,-1.9610580804169178,-8.405410745167732
1791041434374113500,10.866113525390626,4.628874437135457,-2.022828307892382,-8.405477965185046
1791041434384143400,10.876143310546874,4.598067795461416,-2.1007941756263375,-8.403263211745024
1791041434394172400,10.88617236328125,4.560142553953826,-2.1937277492590246,-8.400180443298817
1791041434404202500,10.896202392578125,4.514531434118747,-2.299729478779435,-8.396465222167969
1791041434414231600,10.9062314453125,4.459414819313586,-2.4178803496465084,-8.392725451117753
1791041434424261600,10.91626171875,4.3955400207743045,-2.5487784738838672,-8.387690379559993
1791041434434291500,10.92629150390625,4.3250311910480255,-2.694045899735391,-8.378937748783827
1791041434444320500,10.936320556640625,4.246922699972987,-2.85515679140687,-8.365531154721975
1791041434454350600,10.9463505859375,4.158863015986979,-3.0311911114439365,-8.34782131050825
1791041434464379600,10.956379638671875,4.057104184733331,-3.2208500522077084,-8.326849834150076
1791041434474409200,10.9664091796875,3.939992301525175,-3.4215199240684506,-8.303014785054325
1791041434484438500,10.9764384765625,3.8111692299962043,-3.6304479211866854,-8.274371458894015
1791041434494468400,10.98646826171875,3.6752430484637615,-3.846244342769682,-8.238286584556102
1791041434504497400,10.996497314453125,3.533498243780434,-4.067980675795674,-8.193674120369552
1791041434514527500,11.006527587890625,3.387673184046149,-4.295032358625531,-8.139210124254227
1791041434524556300,11.016556396484376,3.242866653704643,-4.526656756198406,-8.072395765131711
1791041434534586400,11.02658642578125,3.10241890309453,-4.761313653334975,-7.992200530910491
1791041434544615400,11.036615478515625,2.967237110188603,-4.995411163023114,-7.9001108607560395
1791041434554645500,11.0466455078125,2.8375343332156535,-5.224131071326136,-7.799182050585746
1791041434564675600,11.056675537109374,2.7134017575904728,-5.444862318962812,-7.69163937523365
1791041434574704400,11.066704345703124,2.597539582182467,-5.657469881376624,-7.577349563708901
1791041434584734500,11.076734375,2.490665599872172,-5.863181254535913,-7.455875393638014
1791041434594763500,11.086763427734375,2.389719546306133,-6.062363518187404,-7.328532039272785
1791041434604793600,11.096793701171874,2.2930784964576363,-6.252194016125798,-7.198767595240473
1791041434614822400,11.106822509765625,2.2040575662240385,-6.429257386949658,-7.06945381758511
1791041434624852500,11.1168525390625,2.130189196936786,-6.591361673572659,-6.941660381364822
1791041434634881500,11.126881591796876,2.0747661465309557,-6.737741736841201,-6.816786047461629
1791041434644911600,11.13691162109375,2.036211813339591,-6.871137815374135,-6.694153939527273
1791041434654940400,11.1469404296875,2.012687291497737,-6.99338121625185,-6.5735916236042975
1791041434664970500,11.156970458984375,1.9937474670976398,-7.106672079867124,-6.456823439267278
1791041434674999600,11.16699951171875,1.9692697361841798,-7.21016811017692,-6.3486868896752595
1791041434685029600,11.177029541015624,1.9422924435399471,-7.305151748207211,-6.2476113645106555
1791041434695059500,11.1870595703125,1.917016255725175,-7.389477798622846,-6.155571378716826
1791041434705088300,11.197088134765625,1.8976053066819905,-7.4582158192843195,-6.078197631657123
1791041434715118300,11.207118408203126,1.8877325858347116,-7.5121964157968755,-6.014461364805698
1791041434725147400,11.2171474609375,1.886944650327414,-7.553519775310158,-5.962731762090325
1791041434735177500,11.227177490234375,1.8944633553944528,-7.5826932628244155,-5.923188856253027
1791041434745206300,11.237206298828125,1.9110637770615517,-7.599851902896165,-5.895802252155542
1791041434755236400,11.247236328125,1.9374578629903494,-7.605703551533818,-5.879620932683348
1791041434765265400,11.257265380859375,1.9732447772949933,-7.600970093271136,-5.873834165975451
1791041434775295500,11.26729541015625,2.0167358362361787,-7.586328404456377,-5.8779895320892335
1791041434785324500,11.277324462890626,2.068132407604903,-7.561957348787784,-5.8915223828792564
1791041434795354400,11.287354248046874,2.1283212111078202,-7.527634807947278,-5.913997834059596
1791041434805383400,11.297383544921875,2.1982386508122085,-7.483198869371414,-5.9447349176287645
1791041434815413500,11.30741357421875,2.2780932549022137,-7.429038240116834,-5.9824792496114965
1791041434825443600,11.317443603515626,2.3659955563694237,-7.366116796779632,-6.026009763780236
1791041434835472400,11.327472412109374,2.458938043960929,-7.29616413963139,-6.073712595197558
1791041434845502500,11.33750244140625,2.5546312915652987,-7.2211933620601885,-6.123609721788764
1791041434855531500,11.347531494140625,2.651616624806821,-7.142540681105852,-6.174416364440321
1791041434865561600,11.3575615234375,2.7469720187589526,-7.061370464372635,-6.225880009695887
1791041434875590700,11.367590576171875,2.836734122748673,-6.978518578162789,-6.27882249533236
1791041434885620500,11.377620361328125,2.916018671865761,-6.894308263081312,-6.335277373003959
1791041434895649500,11.3876494140625,2.981451221241057,-6.808627290925383,-6.397180579209327
1791041434905679400,11.397679443359374,3.0350223601698874,-6.720365654626488,-6.464959399449825
1791041434915708400,11.40770849609375,3.0802526639938352,-6.628080754160881,-6.538423279589415
1791041434925738500,11.417738525390625,3.1194410573050377,-6.530511191290617,-6.61754474709928
1791041434935768300,11.427768310546876,3.1544013115271925,-6.426599565917253,-6.702161304894089
1791041434945797400,11.43779736328125,3.188893363715708,-6.314969328990578,-6.791354084563255
1791041434955827500,11.447827392578125,3.226212163762748,-6.194390061932801,-6.8841469345510005
1791041434965856500,11.4578564453125,3.2671035615995523,-6.064358491396904,-6.979969361492991
1791041434975886300,11.46788623046875,3.311377587611973,-5.925444526225328,-7.0777318165868515
1791041434985915400,11.477915283203124,3.3566157824814318,-5.777852164557576,-7.177739420258998
1791041434995945500,11.487945556640625,3.4003915035828944,-5.622096954700351,-7.280092125752568
1791041435005974500,11.497974609375,3.442054470314085,-5.458657620081305,-7.3841533887296915
1791041435016004600,11.508004638671874,3.483499118119478,-5.288444261282682,-7.487855755266547
1791041435026033400,11.518033447265625,3.530140457785129,-5.113724238714576,-7.586720618644356
1791041435036063500,11.5280634765625,3.585207680490613,-4.936085698351263,-7.678003648591041
1791041435046092500,11.538092529296875,3.648497957140207,-4.75698731456846,-7.760792990958691
1791041435056122600,11.54812255859375,3.7180148532196875,-4.576835330079495,-7.8357725363582365
1791041435066152400,11.55815234375,3.789181270071864,-4.394152365808188,-7.905941466605663
1791041435076181500,11.568181396484375,3.86119612044692,-4.208197832520306,-7.971988933008909
1791041435086211300,11.57821142578125,3.93600147832334,-4.019606813248992,-8.032498639029264
1791041435096240600,11.58824072265625,4.014617042137682,-3.828142284367978,-8.086936916181445
1791041435106270500,11.5982705078125,4.096423218686878,-3.6342373765975236,-8.135233037316798
1791041435116299300,11.60829931640625,4.183240209135413,-3.4424706498995423,-8.174366777831315
1791041435126329300,11.618329345703126,4.26977195290178,-3.256993963256478,-8.205572647956012
1791041435136358400,11.6283583984375,4.35050903891474,-3.079039488811791,-8.231827617675066
1791041435146388500,11.638388427734375,4.424061474120617,-2.9076567939728495,-8.254913309708238
1791041435156417300,11.648417236328125,4.497817907465994,-2.746213601607084,-8.270328905504941
1791041435166447400,11.658447265625,4.570746365554631,-2.594909818200767,-8.279196687093377
1791041435176476400,11.668476318359374,4.6387373672410845,-2.454718964961171,-8.284131805408
1791041435186506500,11.678506591796875,4.696232986137271,-2.3260827943064273,-8.288855911320448
1791041435196536600,11.68853662109375,4.732428335112333,-2.207105263356864,-8.300795355439186
1791041435206565400,11.6985654296875,4.757060087543726,-2.1019078359566628,-8.31400964179933
1791041435216595500,11.708595458984375,4.772238367453217,-2.014532042581588,-8.326931082692742
1791041435226624500,11.71862451171875,4.787425415191054,-1.9498402285709977,-8.3336098298043
1791041435236654600,11.728654541015626,4.805087036348879,-1.9092174185425042,-8.332851120391487
1791041435246683400,11.738683349609374,4.827293315199017,-1.8926111516565083,-8.323799214407801
1791041435256713500,11.74871337890625,4.849215224149823,-1.8950227428428827,-8.310498418807983
1791041435266742500,11.758742431640625,4.860275839607417,-1.9099642913870511,-8.300610062000155
1791041435276772600,11.768772705078124,4.8576799778953195,-1.9338291510991752,-8.296604333490134
1791041435286801700,11.7788017578125,4.840536827653646,-1.9679706362843512,-8.298595799568295
1791041435296831500,11.78883154296875,4.811467385035753,-2.013457399087399,-8.304587148937582
1791041435306861300,11.798861328125,4.77194464520365,-2.0719889369025823,-8.312990235623717
1791041435316890400,11.808890380859374,4.721207852917909,-2.1471366784758863,-8.322883853128552
1791041435326920400,11.81892041015625,4.659622626620531,-2.2399834506079555,-8.333114155241846
1791041435336949200,11.82894921875,4.590546167784929,-2.34883063268736,-8.341478078961371
1791041435346978300,11.838978271484375,4.515385712860525,-2.471118603359163,-8.34717073764503
1791041435357007600,11.849007568359376,4.434446090012789,-2.604702605679631,-8.349945463055372
1791041435367037400,11.859037353515625,4.348550890584289,-2.7476874735519288,-8.34929372114837
1791041435377066500,11.86906640625,4.258948945592343,-2.8991917479664084,-8.344246374630927
1791041435387096300,11.879096435546876,4.167419247408211,-3.058964669032395,-8.333409923318028
1791041435397125400,11.88912548828125,4.075102782760561,-3.227625829952955,-8.31542886094749
1791041435407155500,11.899155517578125,3.9816576063439246,-3.406630982494354,-8.289249294552206
1791041435417184500,11.9091845703125,3.885838102011382,-3.5969019176766275,-8.254267413020134
1791041435427214300,11.91921435546875,3.7877611741408703,-3.798735280358791,-8.209316510659455
1791041435437244400,11.929244384765624,3.6882591819033026,-4.012128440192342,-8.15291131734848
1791041435447273500,11.9392734375,3.587686053302884,-4.236110798579454,-8.084199015650153
1791041435457303600,11.949303466796875,3.4873771285966035,-4.469287101769447,-8.002129219728708
1791041435467332600,11.95933251953125,3.3857197118908164,-4.709451948672533,-7.907486942481994
1791041435477362400,11.969362548828125,3.2802389375045893,-4.953132110220194,-7.80236477227509
1791041435487391500,11.9793916015625,3.17133958684653,-5.195750195494294,-7.688769372755289
1791041435497421600,11.989421630859376,3.0622528969228267,-5.430947775378823,-7.569531583434343
1791041435507450600,11.99945068359375,2.960275454482436,-5.652903011852502,-7.446599031248688
1791041435517480700,12.009480712890625,2.8718960370227693,-5.859885135599971,-7.320132459717988
1791041435527509500,12.019509521484375,2.795955829897523,-6.053764032146335,-7.190615852966904
1791041435537539600,12.02953955078125,2.723105990003049,-6.238304022461175,-7.059648462885618
1791041435547569400,12.0395693359375,2.646278186388314,-6.415958344915508,-6.9284238831728695
1791041435557598500,12.049598388671875,2.5676439178735015,-6.587699059411883,-6.795573163563013
1791041435567628300,12.059628173828125,2.495277185320854,-6.753052703219652,-6.658847648346423
1791041435577657300,12.0696572265625,2.4352393345959484,-6.908310484948754,-6.520369736504555
1791041435587687400,12.0796875,2.383456978780031,-7.051970183342695,-6.384296547716856
1791041435597716500,12.089716552734375,2.3318283522211014,-7.184706921184063,-6.254034675556421
1791041435607746600,12.09974658203125,2.278703934146464,-7.305687754780053,-6.132277596890926
1791041435617775400,12.109775390625,2.2280304163552818,-7.412225637003779,-6.022057811284065
1791041435627805400,12.119805419921875,2.1830643164254724,-7.502735344490408,-5.925671320718527
1791041435637834500,12.12983447265625,2.14470565193668,-7.5769614411741495,-5.8446793831616635
1791041435647864600,12.139864501953125,2.115995690280944,-7.633785152158141,-5.780854268983006
1791041435657893400,12.149893310546876,2.099653481158614,-7.672702035051584,-5.735109001374244
1791041435667923500,12.15992333984375,2.0964920945182444,-7.695605940777063,-5.70550062957406
1791041435677953500,12.16995361328125,2.1083979286283254,-7.70529146848917,-5.688018164375424
1791041435687982600,12.179982666015626,2.134519627356529,-7.705076364433765,-5.678559431156516
1791041435698012700,12.1900126953125,2.1695959091737866,-7.697593315201997,-5.675412365302443
1791041435708041500,12.20004150390625,2.2087682281330228,-7.683576480287313,-5.679295344215631
1791041435718071600,12.210071533203125,2.2488151379697023,-7.664191980859637,-5.689761793172359
1791041435728100600,12.2201005859375,2.292524223575741,-7.639422281262278,-5.705605843514204
1791041435738130700,12.230130615234375,2.3440131494030356,-7.607234998884796,-5.727648748496175
1791041435748159500,12.240159423828125,2.4042229956939813,-7.5666493059962985,-5.756381506505608
1791041435758189300,12.250189208984375,2.471192545378208,-7.51765234311521,-5.792106315359473
1791041435768218600,12.260218505859376,2.5406132876068352,-7.461831671693921,-5.834102459567785
1791041435778248400,12.27024853515625,2.6066256826967,-7.400363934296369,-5.883070780876278
1791041435788278500,12.280278564453125,2.665731659398973,-7.334074475830793,-5.939326921105384
1791041435798307300,12.290307373046875,2.7184914819449184,-7.263968673947453,-6.001245909401774
1791041435808337400,12.30033740234375,2.7662244162395595,-7.189819149631261,-6.068350775903463
1791041435818366500,12.310366455078125,2.8097356411859393,-7.1115563447773456,-6.14015929005146
1791041435828396500,12.320396484375,2.84719268065989,-7.029253909143805,-6.217192260849475
1791041435838425300,12.33042529296875,2.876965887632966,-6.942995429360866,-6.299864114317297
1791041435848455400,12.340455322265624,2.8996950213134287,-6.851839825186133,-6.388619671612978
1791041435858484500,12.350484375,2.9196842086359855,-6.753682817816734,-6.483330922442674
1791041435868514600,12.3605146484375,2.9389941815227267,-6.646760904711485,-6.584318769323826
1791041435878544600,12.370544677734374,2.9561349936768413,-6.529779954406619,-6.692804278483987
1791041435888573400,12.380573486328124,2.9715859530478714,-6.40168899654448,-6.808705032336712
1791041435898603500,12.390603515625,2.987560644032061,-6.26211159902811,-6.930428208732605
1791041435908632600,12.400632568359375,3.007417729407549,-6.111006260803341,-7.055595388102531
1791041435918662700,12.41066259765625,3.0355840857058762,-5.949510461467504,-7.180455693480372
1791041435928691500,12.42069140625,3.0729186678439375,-5.780563761603832,-7.301549924322963
1791041435938721500,12.430721435546875,3.115192167688906,-5.606348765948415,-7.4185449031531805
1791041435948750600,12.44075048828125,3.1602032758042213,-5.4263095941841595,-7.532507382419705
1791041435958780400,12.450780517578124,3.2077108769103884,-5.240453260573744,-7.6432076450198885
1791041435968809700,12.460809814453125,3.251055513118207,-5.049060335624218,-7.752937016761303
1791041435978839300,12.47083935546875,3.2862516219228506,-4.853921502144634,-7.861958532494306
1791041435988869400,12.480869384765626,3.321279096162319,-4.656197036086023,-7.966136115327477
1791041435998898400,12.4908984375,3.3764486101984974,-4.4601147842764854,-8.054647926995157
1791041436008928500,12.500928466796875,3.457281265540421,-4.269195322057604,-8.1235180496037
1791041436018957600,12.51095751953125,3.555926348687708,-4.084963959300517,-8.175502503862976
1791041436028987400,12.5209873046875,3.661965633739531,-3.907287717275321,-8.215441715541482
1791041436039016400,12.531016357421874,3.7693829291462895,-3.7345804958343503,-8.247123971006273
1791041436049046500,12.541046630859375,3.8745232195317745,-3.5645413245588538,-8.273602812609075
1791041436059075600,12.55107568359375,3.975404975689947,-3.396036523243785,-8.296595565661788
1791041436069105400,12.56110546875,4.071097346511483,-3.2284964753076433,-8.317053247278928
1791041436079134500,12.571134521484375,4.161009672626853,-3.062320409201085,-8.335380346608162
1791041436089164500,12.58116455078125,4.245761839500069,-2.899125989253819,-8.350985912019015
1791041436099194600,12.591194580078126,4.322423931159078,-2.739979383392632,-8.365378594508767
1791041436109223700,12.6012236328125,4.3962282952994105,-2.5903283356294033,-8.374591244012118
1791041436119253500,12.61125341796875,4.468621915858984,-2.450971156734973,-8.378219371381402
1791041436129282600,12.621282470703125,4.535898047274351,-2.3220455016143617,-8.378789280223845
1791041436139312400,12.6313125,4.590361751128733,-2.203457554504275,-8.381153671267628
1791041436149341700,12.641341796875,4.6195220869004725,-2.094153714698553,-8.393147475922108
1791041436159371500,12.65137158203125,4.63247889136821,-1.997875506813079,-8.409459728297591
1791041436169400600,12.661400634765625,4.638383731497824,-1.9205002984486519,-8.424218906012177
1791041436179430400,12.671430419921874,4.6399733387768265,-1.8672367641642689,-8.43530962434709
1791041436189459500,12.68145947265625,4.628085040323436,-1.835605946625769,-8.448772332510352
1791041436199489500,12.691489501953125,4.610769456124306,-1.8213922739647328,-8.46130681991279
1791041436209519400,12.701519287109376,4.588581005191803,-1.8218838568739593,-8.473253862816096
1791041436219548400,12.71154833984375,4.557911141639948,-1.8376940049462018,-8.486384562546014
1791041436229578500,12.72157861328125,4.518840821750461,-1.8696980397112666,-8.500275725254417
1791041436239607600,12.731607666015625,4.4781718344926835,-1.9172554713085292,-8.511198685806988
1791041436249637600,12.7416376953125,4.437708598940074,-1.9803719988264141,-8.517936469629406
1791041436259666400,12.75166650390625,4.392656574292481,-2.060721692956984,-8.522229198387265
1791041436269696500,12.761696533203125,4.337935973067581,-2.1600725862860677,-8.525655081182718
1791041436279725600,12.7717255859375,4.271759911848604,-2.2777105391949415,-8.528452018424868
1791041436289755600,12.781755615234376,4.194003302951157,-2.412273615680635,-8.530043671530485
1791041436299784400,12.791784423828124,4.105902410171926,-2.5619641186714173,-8.529260996720195
1791041436309814500,12.801814453125,4.009070806187391,-2.7251012554734944,-8.524761347213387
1791041436319844600,12.8118447265625,3.9055487646535036,-2.9005972308501597,-8.514905139109493
1791041436329873700,12.821873779296874,3.799100606539845,-3.08652926004529,-8.49767869449854
1791041436339903500,12.831903564453125,3.6935149104744194,-3.2813609272718427,-8.471186993414163
1791041436349932500,12.8419326171875,3.59160088865906,-3.4847087861701844,-8.433718555763363
1791041436359962600,12.851962646484376,3.4917756558164954,-3.6956793950319287,-8.385692483741044
1791041436369991700,12.86199169921875,3.393165936243534,-3.9133018629983067,-8.327237372162937
1791041436380021800,12.872021728515625,3.297491101078689,-4.136982023568451,-8.257258996051549
1791041436390050600,12.882050537109375,3.204934690195322,-4.36537343056947,-8.175713516265153
