time,seconds_elapsed,z,y,x
1791041423552974800,0.044974853515625,0.21389257907867432,0.1740005612373352,0.5764992833137512
1791041423563004000,0.05500390625,0.2520301043987274,0.13126108050346375,0.5888978838920593
1791041423573033000,0.065032958984375,0.27247947454452515,0.23007874190807343,0.5449211001396179
1791041423583062000,0.07506201171875,0.32894858717918396,0.4215579032897949,0.4433284401893616
1791041423593091800,0.085091796875,0.450135201215744,0.6941401362419128,0.3011380136013031
1791041423603121200,0.09512109375,0.6345915794372559,1.1380784511566162,0.1369389444589615
1791041423613150000,0.10514990234375,0.7565422654151917,1.8532423973083496,-0.04015460982918739
1791041423623180000,0.115179931640625,0.6714199185371399,2.551396608352661,-0.18120786547660828
1791041423633209000,0.125208984375,0.6258955597877502,3.0313148498535156,-0.21055404841899872
1791041423643238100,0.135238037109375,0.7587454915046692,3.0767998695373535,-0.18249498307704926
1791041423653268000,0.14526806640625,1.0306247472763062,2.727227210998535,-0.11465228348970413
1791041423663297000,0.155297119140625,1.2666734457015991,2.425999164581299,-0.12780429422855377
1791041423673326000,0.165326171875,1.2177420854568481,2.3232414722442627,-0.24027039110660553
1791041423683356200,0.175356201171875,0.8767669796943665,2.30767560005188,-0.31898489594459534
1791041423693385000,0.185385009765625,0.5464262962341309,2.1922333240509033,-0.32165899872779846
1791041423703414000,0.1954140625,0.47633644938468933,2.0246434211730957,-0.3794495761394501
1791041423713444000,0.205444091796875,0.5743868350982666,1.6864550113677979,-0.5435322523117065
1791041423723473200,0.21547314453125,0.7148481011390686,1.1526848077774048,-0.7546586394309998
1791041423733502000,0.225501953125,0.8470524549484253,0.8406981825828552,-1.0411196947097778
1791041423743532000,0.235531982421875,0.9445537328720093,0.5270577073097229,-1.3490386009216309
1791041423753561000,0.24556103515625,0.9222108721733093,-1.072952151298523,-1.3510711193084717
1791041423763590000,0.25558984375,0.8809848427772522,-1.9134879112243652,-1.6867953538894653
1791041423773620000,0.265619873046875,0.939643383026123,-1.998831033706665,-2.3276150226593018
1791041423783649000,0.27564892578125,0.9408727288246155,-2.1525330543518066,-2.8918185234069824
1791041423793678000,0.285677978515625,0.7685472965240479,-2.2744884490966797,-3.0047032833099365
1791041423803708200,0.295708251953125,0.5849990248680115,-2.5774006843566895,-2.654045581817627
1791041423813737000,0.305737060546875,0.5730456709861755,-2.7025034427642822,-2.175344705581665
1791041423823766000,0.31576611328125,0.6908271908760071,-2.0760042667388916,-1.8073720932006836
1791041423833796000,0.325796142578125,0.8603139519691467,-1.0916966199874878,-1.7166826725006104
1791041423843825000,0.335824951171875,0.9434000253677368,-0.4894935190677643,-1.7568039894104004
1791041423853854000,0.34585400390625,0.8725336194038391,0.04410460963845253,-1.8144875764846802
1791041423863884000,0.355884033203125,0.6879003643989563,0.6031822562217712,-1.987712025642395
1791041423873913000,0.3659130859375,0.49517324566841125,1.1451542377471924,-2.377187490463257
1791041423883942000,0.37594189453125,-0.02321477420628071,1.3215808868408203,-3.2253239154815674
1791041423893972000,0.385971923828125,-0.7550786137580872,1.9559181928634644,-4.145195960998535
1791041423904001000,0.3960009765625,-0.8126798272132874,2.7559070587158203,-4.892179012298584
1791041423914030000,0.406030029296875,-0.8530235290527344,3.7462997436523438,-5.734541416168213
1791041423924060000,0.416059814453125,-1.0361406803131104,4.081354141235352,-6.546333312988281
1791041423934089000,0.4260888671875,-1.2044249773025513,3.9467382431030273,-6.8678202629089355
1791041423944118000,0.436117919921875,-1.2287697792053223,3.629828691482544,-6.449734210968018
1791041423954148000,0.446148193359375,-1.0782939195632935,3.408184051513672,-5.555563926696777
1791041423964177000,0.456177001953125,-0.7663384675979614,3.1103403568267822,-4.57790994644165
1791041423974206000,0.4662060546875,-0.38778260350227356,2.686143159866333,-3.754606246948242
1791041423984236000,0.476236083984375,-0.05571972206234932,2.3550071716308594,-3.127659559249878
1791041423994264800,0.486264892578125,0.22455693781375885,2.375107526779175,-2.7548468112945557
1791041424004294000,0.4962939453125,0.5211284160614014,2.4156064987182617,-2.685397148132324
1791041424014324000,0.506323974609375,0.6483579874038696,2.3094282150268555,-2.5234506130218506
1791041424024353000,0.51635302734375,0.7408421635627747,2.5633082389831543,-2.462371349334717
1791041424034381800,0.5263818359375,0.7740376591682434,2.6616759300231934,-2.4424126148223877
1791041424044412000,0.536411865234375,0.7607876062393188,2.700075149536133,-2.5169007778167725
1791041424054441000,0.54644091796875,0.7175506949424744,2.764512538909912,-2.650487184524536
1791041424064470000,0.556469970703125,0.6695738434791565,2.7523891925811768,-2.7546579837799072
1791041424074499800,0.566499755859375,0.6987969279289246,2.5423617362976074,-2.7285189628601074
1791041424084529000,0.57652880859375,0.8769893050193787,2.114626169204712,-2.4899349212646484
1791041424094558000,0.586557861328125,1.147970199584961,1.7059123516082764,-2.0741748809814453
1791041424104588000,0.596588134765625,1.4232689142227173,1.5220149755477905,-1.620338797569275
1791041424114616800,0.606616943359375,1.5958178043365479,1.580727219581604,-1.3078511953353882
1791041424124646000,0.61664599609375,1.6354358196258545,1.8543603420257568,-1.1861871480941772
1791041424134676000,0.626676025390625,1.5668164491653442,2.2159507274627686,-1.1440445184707642
1791041424144705000,0.636705078125,1.494408369064331,2.5213568210601807,-1.0781581401824951
1791041424154733800,0.64673388671875,1.4734543561935425,2.7164268493652344,-0.9794842600822449
1791041424164764000,0.656763916015625,1.5751577615737915,2.800554037094116,-0.9298411011695862
1791041424174793000,0.66679296875,1.759238362312317,2.793616771697998,-0.9669346809387207
1791041424184823000,0.676822998046875,2.013995409011841,2.6230692863464355,-1.0873292684555054
1791041424194851800,0.686851806640625,2.251767158508301,2.305574655532837,-1.22931969165802
1791041424204881000,0.696880859375,2.4189751148223877,1.8161959648132324,-1.2874191999435425
1791041424214911000,0.706910888671875,2.5753703117370605,1.3407602310180664,-1.2347631454467773
1791041424224940000,0.71693994140625,2.693372964859009,1.0463378429412842,-1.0485643148422241
1791041424234968800,0.72696875,2.6986281871795654,0.9442338943481445,-0.8222701549530029
1791041424244999000,0.7369990234375,2.565670967102051,1.0841320753097534,-0.5737197399139404
1791041424255028000,0.747028076171875,2.4018237590789795,1.518043041229248,-0.4409094750881195
1791041424265056800,0.757056884765625,2.2567737102508545,1.7630137205123901,-0.4647575616836548
1791041424275086800,0.7670869140625,1.847172498703003,1.9541375637054443,-0.24830275774002075
1791041424285116000,0.777115966796875,1.3226677179336548,1.8922526836395264,0.14383067190647125
1791041424295145000,0.78714501953125,0.959372341632843,1.2746034860610962,0.4205469489097595
1791041424305175000,0.797175048828125,0.7163887023925781,0.41061922907829285,0.669176459312439
1791041424315203800,0.807203857421875,0.51801598072052,-0.4222084879875183,0.9215267300605774
1791041424325233000,0.81723291015625,0.2638092637062073,-1.1240150928497314,1.1130952835083008
1791041424335263000,0.827262939453125,0.014193316921591759,-1.5368207693099976,1.2304006814956665
1791041424345291800,0.837291748046875,-0.29048028588294983,-1.3612380027770996,1.4975788593292236
1791041424355320800,0.84732080078125,-0.5572518110275269,-0.799251139163971,1.9568753242492676
1791041424365351000,0.857350830078125,-0.7856024503707886,-0.19899752736091614,2.4305918216705322
1791041424375380000,0.8673798828125,-1.1163686513900757,0.3233453035354614,2.650689125061035
1791041424385408800,0.87740869140625,-1.1476551294326782,0.8096145391464233,2.5203006267547607
1791041424395438800,0.88743896484375,-0.7204772233963013,0.9630720019340515,1.7652190923690796
1791041424405468000,0.897468017578125,-0.15355680882930756,0.6674118638038635,0.6131758093833923
1791041424415497000,0.9074970703125,0.008233961649239063,0.09100127965211868,-0.24755893647670746
1791041424425526800,0.91752685546875,-0.23824159801006317,-0.979476809501648,-0.5570613741874695
1791041424435555800,0.927555908203125,-0.6816632151603699,-1.4667242765426636,-0.46374768018722534
1791041424445586000,0.9375859375,-1.0641083717346191,-1.4231717586517334,-0.40943679213523865
1791041424455615000,0.947614990234375,-1.4308350086212158,-1.4973093271255493,-0.4532257914543152
1791041424465643800,0.957643798828125,-1.5785917043685913,-1.3990250825881958,-0.46640899777412415
1791041424475673900,0.967673828125,-1.8116477727890015,-0.9583001732826233,-0.2762627601623535
1791041424485703000,0.977702880859375,-2.0245308876037598,-0.038846999406814575,0.15343137085437775
1791041424495732000,0.98773193359375,-2.903439521789551,1.0346713066101074,0.28713616728782654
1791041424505761800,0.99776171875,-3.523606777191162,1.277143120765686,-0.12116317451000214
1791041424515790800,1.007790771484375,-3.0846433639526367,1.0898475646972656,0.10822713375091553
1791041424525820000,1.01781982421875,-2.3062052726745605,0.7569931745529175,0.3112228512763977
1791041424535850000,1.02785009765625,-2.0110929012298584,0.5105929374694824,0.69704270362854
1791041424545878800,1.037878662109375,-2.020521402359009,-0.05945587158203125,0.7568954229354858
1791041424555907800,1.047907958984375,-1.9712638854980469,-0.640034019947052,0.7443420886993408
1791041424565938000,1.05793798828125,-1.7560838460922241,-0.8158665895462036,0.7447910904884338
1791041424575967000,1.067967041015625,-1.4815998077392578,-0.415130615234375,0.7549670338630676
1791041424585996000,1.07799609375,-1.250915288925171,0.027605794370174408,0.7355773448944092
1791041424596025900,1.08802587890625,-1.0941048860549927,0.1972707211971283,0.7480899095535278
1791041424606055000,1.098054931640625,-0.8872747421264648,0.35393890738487244,0.8091762065887451
1791041424616085000,1.1080849609375,-0.4993629455566406,0.38555461168289185,0.7126629948616028
1791041424626113800,1.11811376953125,-0.36724644899368286,0.3147560656070709,0.5604188442230225
1791041424636142800,1.128142822265625,-0.14440910518169403,0.3247186839580536,0.42863017320632935
1791041424646173000,1.1381728515625,0.004329234827309847,0.4720761775970459,0.352101594209671
1791041424656202000,1.148201904296875,0.23519547283649445,0.8675726652145386,0.14492788910865784
1791041424666231000,1.15823095703125,0.49053484201431274,1.3150700330734253,-0.2075289636850357
1791041424676260900,1.1682607421875,0.6014219522476196,1.5517948865890503,-0.4146384596824646
1791041424686290000,1.1782900390625,0.7351245880126953,1.365312933921814,-0.41775277256965637
1791041424696319000,1.188319091796875,0.577124834060669,0.4989410936832428,-0.2646377682685852
1791041424706348800,1.198348876953125,0.36182159185409546,0.1478262096643448,-0.20413503050804138
1791041424716377900,1.2083779296875,0.13819143176078796,-0.14893434941768646,-0.2851355969905853
1791041424726407200,1.2184072265625,0.1805998682975769,-0.5273426175117493,-0.6535785794258118
1791041424736436700,1.228436767578125,0.37740400433540344,-0.36345571279525757,-0.6808698773384094
1791041424746466000,1.238466064453125,0.40832197666168213,-0.6096681356430054,-0.28236645460128784
1791041424756495000,1.2484951171875,0.665283739566803,-0.3857807219028473,-0.017221597954630852
1791041424766525000,1.25852490234375,0.6261605620384216,0.11582940071821213,0.14753805100917816
1791041424776554000,1.268553955078125,-0.32323983311653137,0.104520283639431,0.04977714270353317
1791041424786583800,1.278583740234375,-1.6443253755569458,-0.4468691051006317,-0.8227279782295227
1791041424796612900,1.28861279296875,-1.415448784828186,-0.8975153565406799,-1.4218199253082275
1791041424806642200,1.29864208984375,-0.5205715298652649,-0.5752031207084656,-1.5748107433319092
1791041424816671700,1.308671630859375,-0.07442975789308548,0.016030099242925644,-1.5226314067840576
1791041424826700800,1.31870068359375,-0.10811501741409302,0.43671366572380066,-1.3591290712356567
1791041424836730000,1.328730224609375,-0.01872015744447708,0.6624003052711487,-0.9562154412269592
1791041424846760000,1.338760009765625,0.22402989864349365,0.7862615585327148,-0.3775712549686432
1791041424856789000,1.3487890625,0.3852885663509369,-0.2728770673274994,1.183139443397522
1791041424866818000,1.358818115234375,1.2062883377075195,-0.11109429597854614,1.8487032651901245
1791041424876847900,1.368847900390625,0.9744184017181396,-0.7378761768341064,1.8909982442855835
1791041424886877200,1.378877197265625,0.3191196620464325,-1.0552107095718384,1.7058407068252563
1791041424896906000,1.388906005859375,-0.1984102874994278,-0.49121978878974915,1.526924967765808
1791041424906935800,1.398935791015625,-0.3845394253730774,0.23077036440372467,1.5649768114089966
1791041424916965000,1.408965087890625,-0.340188205242157,0.3000072240829468,1.8353179693222046
1791041424926995000,1.418994873046875,-0.18512697517871857,-0.29229870438575745,2.2144997119903564
1791041424937024000,1.42902392578125,-0.1780504286289215,-1.0982569456100464,2.2150187492370605
1791041424947053000,1.439052978515625,-0.3040110170841217,-1.2291306257247925,1.8713558912277222
1791041424957083000,1.449082763671875,-0.27528244256973267,-0.48647645115852356,1.4843370914459229
1791041424967112200,1.4591123046875,-0.12588974833488464,0.019904466345906258,1.130315899848938
1791041424977141000,1.46914111328125,-0.019772639498114586,0.2533353269100189,0.8096819519996643
1791041424987170800,1.4791708984375,0.12903335690498352,0.4876093566417694,0.573904275894165
1791041424997200100,1.4892001953125,0.3364589810371399,0.6025322079658508,0.3597930669784546
1791041425007229000,1.49922900390625,0.33908963203430176,0.4808579683303833,0.02822737768292427
1791041425017259000,1.509259033203125,0.37850841879844666,0.32588595151901245,-0.33652395009994507
1791041425027288000,1.5192880859375,0.471622109413147,0.405003160238266,-0.40378448367118835
1791041425037317000,1.529317138671875,0.4665085971355438,0.5063502788543701,-0.24530509114265442
1791041425047347000,1.539346923828125,0.31540003418922424,0.4679112732410431,0.04505935311317444
1791041425057376000,1.5493759765625,-0.013004481792449951,0.4331660866737366,0.1347450315952301
1791041425067405800,1.55940576171875,-0.36659637093544006,0.4338979125022888,0.000532365869730711
1791041425077435100,1.56943505859375,-0.8223082423210144,0.3990967869758606,-0.35466647148132324
1791041425087464000,1.5794638671875,-1.5248661041259766,0.3364666998386383,-0.8882949948310852
1791041425097493800,1.58949365234375,-2.3520350456237793,-0.7817882299423218,-2.572382688522339
1791041425107523000,1.599523193359375,-2.9191830158233643,-1.4043461084365845,-3.6954832077026367
1791041425117552000,1.60955224609375,-4.076518535614014,-0.9209442734718323,-2.870026111602783
1791041425127582000,1.61958203125,-5.0362772941589355,-0.08468373119831085,-1.2004808187484741
1791041425137611000,1.629611083984375,-5.655507564544678,0.2990271747112274,-0.19659455120563507
1791041425147640000,1.63964013671875,-5.9854865074157715,-0.21207870543003082,0.4853203594684601
1791041425157670100,1.649670166015625,-6.154280662536621,-2.3215725421905518,1.6053342819213867
1791041425167699000,1.659698974609375,-6.057199001312256,-4.130415916442871,2.517328977584839
1791041425177728800,1.669728759765625,-5.603237628936768,-4.122071743011475,1.6420925855636597
1791041425187758000,1.679758056640625,-4.892683029174805,-2.4557318687438965,0.3439733386039734
1791041425197787100,1.689787109375,-3.6392452716827393,-1.0159536600112915,-0.29434773325920105
1791041425207817000,1.69981689453125,-2.6133840084075928,-1.2524199485778809,-0.5193589925765991
1791041425217846000,1.709845947265625,-1.814277172088623,-1.1988499164581299,-0.5301647782325745
1791041425227875000,1.719875,-1.3275336027145386,-1.0523885488510132,-0.4347381293773651
1791041425237905200,1.7299052734375,-0.9083645343780518,-0.42770206928253174,-0.3820222020149231
1791041425247934000,1.739933837890625,-0.5078528523445129,0.24465182423591614,-0.303430438041687
1791041425257963800,1.7499638671875,-0.20017117261886597,0.5291887521743774,-0.003492203075438738
1791041425267993000,1.7599931640625,0.04699334129691124,0.6218243837356567,0.2869521379470825
1791041425278022100,1.770022216796875,0.3557945787906647,0.6070915460586548,0.39593854546546936
1791041425288052000,1.780052001953125,0.5909240245819092,0.5284212231636047,0.3707290589809418
1791041425298081000,1.7900810546875,0.8104792833328247,0.4464975893497467,0.254154771566391
1791041425308110000,1.800110107421875,1.112778663635254,0.47154754400253296,0.11258566379547119
1791041425318140000,1.810139892578125,1.4393413066864014,0.614693820476532,-0.04310166463255882
1791041425328169000,1.8201689453125,1.6860413551330566,0.7736046314239502,-0.2141953855752945
1791041425338198500,1.830198486328125,1.8739831447601318,0.7539030909538269,-0.35308828949928284
1791041425348228000,1.84022802734375,1.7882328033447266,0.4541004002094269,-0.5140715837478638
1791041425358257400,1.85025732421875,1.4162392616271973,0.2662433981895447,-0.8987806439399719
1791041425368287200,1.860287353515625,1.0892200469970703,0.2844748795032501,-0.7008302807807922
1791041425378316300,1.87031640625,0.7576951384544373,0.5588139891624451,-0.16196759045124054
1791041425388345300,1.880345458984375,0.09270516782999039,0.0978996679186821,0.24077533185482025
1791041425398375200,1.890375244140625,-0.2682516872882843,-0.01070963591337204,0.1765848845243454
1791041425417806300,1.909806396484375,0.047148603945970535,0.06339388340711594,-0.1617518812417984
1791041425427835100,1.919835205078125,-0.025779400020837784,-0.12124919891357422,-0.06600405275821686
1791041425437865200,1.929865234375,0.0009270463488064706,-0.18614749610424042,-0.012342685833573341
1791041425447894300,1.939894287109375,0.047699347138404846,-0.18528011441230774,-0.028378644958138466
1791041425457924400,1.94992431640625,0.09507032483816147,-0.1805250346660614,-0.05170473828911781
1791041425467953400,1.959953369140625,0.11862970888614655,-0.13595090806484222,-0.05055851489305496
1791041425477982200,1.969982177734375,0.12331634014844894,-0.0346786193549633,-0.038473356515169144
1791041425488012300,1.98001220703125,0.09227053821086884,0.06316139549016953,-0.035596877336502075
1791041425498041300,1.990041259765625,0.035224299877882004,0.14061810076236725,-0.05059792846441269
1791041425508070100,2.000070068359375,-0.008706672117114067,0.20481066405773163,-0.06458112597465515
1791041425518100200,2.010100341796875,0.005075985100120306,0.19355827569961548,-0.05360464006662369
1791041425528129300,2.02012939453125,0.011726963333785534,0.15492460131645203,-0.03740542754530907
1791041425538159400,2.030159423828125,0.025187378749251366,0.13695518672466278,-0.021150292828679085
1791041425548188400,2.0401884765625,0.0668535977602005,0.15578587353229523,0.017121728509664536
1791041425558217200,2.05021728515625,0.08361713588237762,0.18738241493701935,0.06644986569881439
1791041425568247300,2.060247314453125,0.050287406891584396,0.1871001124382019,0.07275516539812088
1791041425578276400,2.0702763671875,0.037216078490018845,0.2809786796569824,0.09429534524679184
1791041425588305200,2.08030517578125,0.034381940960884094,0.3984147608280182,0.12299596518278122
1791041425598335200,2.090335205078125,0.04499730095267296,0.47969549894332886,0.13362756371498108
1791041425608364300,2.1003642578125,0.10009224712848663,0.5285986065864563,0.14461763203144073
1791041425618394400,2.110394287109375,0.17447219789028168,1.3348016738891602,-0.0953315794467926
1791041425628423400,2.12042333984375,0.06216563656926155,1.3456475734710693,-0.23697233200073242
1791041425638452200,2.1304521484375,0.11435560137033463,0.37374162673950195,0.31257760524749756
1791041425648482300,2.140482421875,0.11679692566394806,0.3638288080692291,0.23493582010269165
1791041425658511400,2.150511474609375,-0.08056248724460602,0.09036238491535187,0.01275867223739624
1791041425668540200,2.1605400390625,-0.2797379195690155,-0.13643454015254974,-0.06447593122720718
1791041425678570200,2.1705703125,-0.25740036368370056,-0.1481146365404129,-0.05760257691144943
1791041425688599300,2.180599365234375,-0.18355917930603027,-0.1387978345155716,-0.020769460126757622
1791041425698629400,2.19062939453125,-0.09865360707044601,-0.12920406460762024,0.042632147669792175
1791041425708658200,2.200658203125,-0.009956760331988335,-0.1995658427476883,0.09271795302629471
1791041425718687200,2.210687255859375,0.02905881591141224,-0.2734834849834442,0.1111089438199997
1791041425728717300,2.22071728515625,0.0591469444334507,-0.2210221290588379,0.0869748443365097
1791041425738746400,2.230746337890625,0.11406797915697098,-0.01636379398405552,0.14527277648448944
1791041425748775200,2.240775146484375,0.24004881083965302,0.29121133685112,0.19700627028942108
1791041425758805200,2.25080517578125,0.3162890076637268,0.7779597043991089,0.23202045261859894
1791041425768834300,2.260834228515625,0.2759397029876709,0.9533680081367493,0.07377967983484268
1791041425778864400,2.270864501953125,0.19784916937351227,0.877099335193634,-0.038481879979372025
1791041425788893200,2.28089306640625,0.136023610830307,0.7174577116966248,-0.11540781706571579
1791041425798922200,2.290922119140625,0.09388761222362518,0.6527378559112549,-0.16435912251472473
1791041425808952300,2.300952392578125,0.09376697242259979,0.53885817527771,-0.11933837831020355
1791041425818981400,2.3109814453125,0.10290907323360443,0.4258306622505188,0.021449364721775055
1791041425829010200,2.32101025390625,0.11202294379472733,0.422599196434021,0.12640640139579773
1791041425839040300,2.331040283203125,0.16631174087524414,0.5771980881690979,0.14272145926952362
1791041425849069300,2.3410693359375,0.15247929096221924,0.6279518008232117,0.10503027588129044
1791041425859099400,2.351099365234375,0.08287837356328964,0.5005959868431091,0.006206497084349394
1791041425869128200,2.361128173828125,0.07836271822452545,0.21437062323093414,-0.07111945003271103
1791041425879157200,2.3711572265625,0.11909177154302597,-0.02467871457338333,-0.07293226569890976
1791041425889187300,2.381187255859375,0.20835720002651215,0.046713974326848984,-0.024278441444039345
1791041425899216400,2.39121630859375,0.30707019567489624,0.3060659170150757,0.01455710455775261
1791041425909246500,2.40124658203125,0.2858746349811554,0.27753308415412903,-0.013185043819248676
1791041425919275300,2.411275146484375,0.22061572968959808,0.199215367436409,-0.06675958633422852
1791041425929304300,2.42130419921875,0.12974414229393005,-0.04679546877741814,-0.06360241025686264
1791041425939334400,2.43133447265625,0.08942894637584686,-0.5524163246154785,0.017796307802200317
1791041425949363200,2.44136328125,-0.023794544860720634,-1.0315698385238647,0.1209368109703064
1791041425959392300,2.451392333984375,0.06348603218793869,-1.3564201593399048,0.15451793372631073
1791041425969422300,2.46142236328125,0.11604724079370499,-1.6218472719192505,0.24288082122802734
1791041425979451400,2.471451416015625,0.09624770283699036,-1.6648101806640625,0.323750376701355
1791041425989481500,2.4814814453125,-0.05974216014146805,-1.2708606719970703,0.29951879382133484
1791041425999510300,2.49151025390625,-0.18463508784770966,-0.9494733810424805,0.24829715490341187
1791041426009539300,2.501539306640625,-0.07671528309583664,-0.8427581191062927,0.20505914092063904
1791041426019569400,2.5115693359375,-0.03629249334335327,-1.057339072227478,0.18445426225662231
1791041426029598200,2.52159814453125,0.035653602331876755,-1.0468913316726685,0.11469835042953491
1791041426039628300,2.531628173828125,0.11381445080041885,-0.8457738757133484,0.039933834224939346
1791041426049657300,2.5416572265625,0.24036839604377747,-0.842147171497345,0.04030134901404381
1791041426059686400,2.551686279296875,0.4795074760913849,-0.9307374954223633,0.09363461285829544
1791041426069716500,2.561716552734375,0.6000075340270996,-0.8974807262420654,0.08785075694322586
1791041426079745300,2.571745361328125,0.6479334831237793,-0.7587087750434875,0.039316512644290924
1791041426089774300,2.5817744140625,0.597213089466095,-0.7367286086082458,-0.03997324779629707
1791041426099804400,2.591804443359375,0.13443104922771454,-0.4771527051925659,-0.13795067369937897
1791041426109833200,2.601833251953125,0.3218778967857361,-0.4386996030807495,-0.1395682841539383
1791041426119863300,2.61186328125,0.8751107454299927,-0.6113983988761902,-0.06693296134471893
1791041426129892400,2.621892333984375,0.7071422338485718,-0.5858474969863892,-0.001418665866367519
1791041426139921400,2.63192138671875,0.2788422703742981,-0.2500993311405182,-0.07972891628742218
1791041426149951200,2.641951171875,0.27681243419647217,-0.33797457814216614,-0.07493256777524948
1791041426159980300,2.651980224609375,0.3631334602832794,-0.527808427810669,-0.02256789244711399
1791041426170010400,2.66201025390625,-0.01763252355158329,-0.3342016935348511,-0.07358101010322571
1791041426180039400,2.672039306640625,0.04992787912487984,-0.14991013705730438,-0.023452328518033028
1791041426190068200,2.682068115234375,-0.10924020409584045,-0.11880041658878326,-0.025961292907595634
1791041426200098300,2.692098388671875,-0.5777605175971985,-0.07555174827575684,-0.06172461807727814
1791041426210127400,2.70212744140625,-0.486486554145813,-0.10007680207490921,-0.12934386730194092
1791041426220157400,2.712157470703125,-0.3427182137966156,0.040825460106134415,-0.1448322832584381
1791041426230186200,2.722186279296875,-0.406616747379303,0.3207913339138031,-0.07747002691030502
1791041426240215300,2.73221533203125,-0.5324053168296814,0.7177274823188782,-0.007271228823810816
1791041426250245400,2.742245361328125,-0.4605630934238434,1.186450719833374,0.018882079049944878
1791041426260274400,2.7522744140625,-0.5815073251724243,1.6902332305908203,-0.13126534223556519
1791041426270303200,2.76230322265625,-1.0270256996154785,1.7513428926467896,-0.327562153339386
1791041426280333300,2.772333251953125,-1.0257880687713623,1.248955488204956,-0.24513252079486847
1791041426290362400,2.7823623046875,-0.5112624764442444,1.3667593002319336,-0.3134165108203888
1791041426300392400,2.792392333984375,-0.09622373431921005,1.0129493474960327,-0.21766655147075653
1791041426310421200,2.802421142578125,-0.012945625931024551,0.33448824286460876,0.1253581941127777
1791041426320450300,2.8124501953125,-0.0206283126026392,0.08728377521038055,0.34904932975769043
1791041426330480400,2.82248046875,0.05848940834403038,0.3009326756000519,0.30850696563720703
1791041426340509000,2.832509033203125,0.1081770732998848,0.37340208888053894,0.21931344270706177
1791041426350538800,2.842538818359375,0.022466693073511124,0.218306764960289,0.21420443058013916
1791041426360567800,2.85256787109375,-0.13833896815776825,0.18655869364738464,0.08016381412744522
1791041426370596900,2.862596923828125,-0.18409234285354614,0.2524098753929138,-0.020184630528092384
1791041426380627000,2.872626953125,-0.1638863980770111,0.25423121452331543,-0.02503398060798645
1791041426390655700,2.88265576171875,-0.11414015293121338,0.20805120468139648,-0.009033176116645336
1791041426400685800,2.892685791015625,-0.05398174375295639,0.12368012964725494,-0.010192183777689934
1791041426410715000,2.90271484375,-0.019768910482525826,0.03887549415230751,-0.034821365028619766
1791041426420744000,2.912743896484375,-0.005781722720712423,-0.03490578755736351,-0.06527248024940491
1791041426430773800,2.922773681640625,-0.0005446164286695421,-0.06660112738609314,-0.07898083329200745
1791041426440802800,2.932802734375,0.01233363151550293,-0.05201233550906181,-0.08581876754760742
1791041426450833000,2.9428330078125,0.027816450223326683,-0.02093217894434929,-0.08715806901454926
1791041426460862000,2.952862060546875,0.03888934105634689,-0.00011424961121520028,-0.09470067918300629
1791041426470890800,2.962890869140625,0.045281462371349335,-0.008146610110998154,-0.10690780729055405
1791041426480920800,2.9729208984375,0.04444948956370354,-0.040892839431762695,-0.11858097463846207
1791041426490950000,2.982949951171875,0.03021223098039627,-0.07510700076818466,-0.12019085884094238
1791041426500980000,2.99297998046875,0.012841762974858284,-0.10800077021121979,-0.1080620214343071
1791041426511008800,3.0030087890625,0.0025185514241456985,-0.14301468431949615,-0.09670577198266983
1791041426521037800,3.013037841796875,0.005947637837380171,-0.18213039636611938,-0.07664843648672104
1791041426531068000,3.02306787109375,0.013116600923240185,-0.2166430950164795,-0.059372514486312866
1791041426541097000,3.033096923828125,0.029100893065333366,-0.2383025884628296,-0.046127814799547195
1791041426551125800,3.043125732421875,0.04081827029585838,-0.24911262094974518,-0.03807175159454346
1791041426561155800,3.05315576171875,0.04361911490559578,-0.253477543592453,-0.02961408533155918
1791041426571185000,3.063184814453125,0.0315195769071579,-0.23522290587425232,-0.024659007787704468
1791041426581215000,3.073215087890625,0.02052897773683071,-0.19600705802440643,-0.026806846261024475
1791041426591243800,3.083243896484375,0.016209596768021584,-0.15277276933193207,-0.02329600229859352
1791041426601272800,3.09327294921875,0.023517843335866928,-0.1313481628894806,-0.013647102750837803
1791041426611303000,3.103302978515625,0.034746263176202774,-0.1449452042579651,-0.009855826385319233
1791041426621332000,3.11333203125,0.04484124109148979,-0.16121791303157806,-0.0024114924017339945
1791041426631361800,3.12336181640625,0.05053454637527466,-0.18254344165325165,0.0010373012628406286
1791041426641390800,3.133390869140625,0.04729081690311432,-0.19844837486743927,0.0017835189355537295
1791041426651420000,3.143419921875,0.04374481737613678,-0.2079278975725174,-0.0005944175645709038
1791041426661450000,3.153449951171875,0.03801848739385605,-0.2176755964756012,-0.01474539004266262
1791041426671478800,3.163478759765625,0.031321968883275986,-0.2184995859861374,-0.03737134113907814
1791041426681508900,3.1735087890625,0.027043335139751434,-0.21808120608329773,-0.04899044707417488
1791041426691538000,3.183537841796875,0.028493426740169525,-0.20128357410430908,-0.04633500799536705
1791041426701567000,3.19356689453125,0.03229482099413872,-0.18676908314228058,-0.03230521082878113
1791041426711596800,3.2035966796875,0.02954883687198162,-0.1856263279914856,-0.01986105553805828
1791041426721625900,3.2136259765625,0.03626826032996178,-0.18988578021526337,-0.012074239552021027
1791041426731656000,3.223656005859375,0.03771914914250374,-0.19423818588256836,-0.015589346177875996
1791041426741685000,3.23368505859375,0.04451953247189522,-0.19540917873382568,-0.010174606926739216
1791041426751713800,3.2437138671875,0.057852115482091904,-0.1972811073064804,0.005849367007613182
1791041426761744000,3.253743896484375,0.06475742161273956,-0.19666485488414764,0.026457173749804497
1791041426771773000,3.26377294921875,0.0758388414978981,-0.19877967238426208,0.04013410210609436
1791041426781803000,3.273802978515625,0.09525035321712494,-0.20555076003074646,0.04972068592905998
1791041426791831800,3.283831787109375,0.1204925924539566,-0.20406419038772583,0.054903194308280945
1791041426801860900,3.29386083984375,0.14520034193992615,-0.19947369396686554,0.05874507129192352
1791041426811891000,3.303890869140625,0.18713846802711487,-0.17115284502506256,0.06640512496232986
1791041426821920000,3.313919921875,0.2361326366662979,-0.1377679854631424,0.07518582791090012
1791041426831949800,3.32394970703125,0.2936699688434601,-0.06301464885473251,0.08525657653808594
1791041426841979000,3.333978759765625,0.34305909276008606,0.02419694885611534,0.1034502238035202
1791041426852008700,3.3440087890625,0.39219334721565247,0.15410780906677246,0.12833453714847565
1791041426862038000,3.3540380859375,0.4531315267086029,0.2819712460041046,0.15622715651988983
1791041426872066800,3.36406689453125,0.5367454886436462,0.4503898024559021,0.18165288865566254
1791041426882096600,3.3740966796875,0.601628839969635,0.5316641330718994,0.2696644961833954
1791041426892126000,3.3841259765625,0.7205120921134949,0.6418958306312561,0.35458576679229736
1791041426902155800,3.39415576171875,0.7848567366600037,0.59004807472229,0.5069313645362854
1791041426912184800,3.404184814453125,0.8746026158332825,0.517046332359314,0.6098540425300598
1791041426922214000,3.4142138671875,0.9549981355667114,0.4448419213294983,0.6788698434829712
1791041426932243700,3.42424365234375,1.0611224174499512,0.4642411768436432,0.7601000070571899
1791041426942273000,3.43427294921875,1.194075345993042,0.4981655776500702,0.8569263815879822
1791041426952302800,3.444302734375,1.2117313146591187,0.40375491976737976,1.0395936965942383
1791041426962331600,3.45433154296875,1.418350338935852,0.6150628924369812,1.072487711906433
1791041426972361000,3.46436083984375,1.6137717962265015,0.7880551815032959,1.0921705961227417
1791041426982390800,3.474390869140625,1.7753348350524902,0.8495124578475952,1.1451441049575806
1791041426992419800,3.484419921875,1.8862842321395874,0.836313009262085,1.235456943511963
1791041427002449700,3.49444970703125,1.928741455078125,0.701586902141571,1.335047960281372
1791041427012478700,3.504478759765625,1.919266939163208,0.4383043944835663,1.4205317497253418
1791041427022508000,3.514508056640625,1.9359303712844849,0.2986692488193512,1.4484035968780518
1791041427032537900,3.524537841796875,2.0157036781311035,0.3180951476097107,1.4223756790161133
1791041427042566700,3.534566650390625,2.025296449661255,0.2809813320636749,1.3977634906768799
1791041427052596700,3.5445966796875,2.0147221088409424,0.14273610711097717,1.365304708480835
1791041427062625800,3.554625732421875,2.0211431980133057,-0.03456144034862518,1.3418771028518677
1791041427072654800,3.56465478515625,2.024533748626709,-0.11462005227804184,1.344379186630249
1791041427082684700,3.5746845703125,2.0532712936401367,-0.15616297721862793,1.3586803674697876
1791041427092713700,3.584713623046875,2.072246551513672,-0.1556127667427063,1.3907703161239624
1791041427102743800,3.594743896484375,2.0686168670654297,-0.08562329411506653,1.404378056526184
1791041427112772900,3.60477294921875,2.038180112838745,-0.09820486605167389,1.4151254892349243
1791041427122801700,3.6148017578125,2.004915714263916,-0.12139993160963058,1.4049128293991089
1791041427132831700,3.624831787109375,1.9564001560211182,-0.20455527305603027,1.3987462520599365
1791041427142860800,3.63486083984375,1.9025537967681885,-0.3483861982822418,1.3783494234085083
1791041427152891000,3.644890869140625,1.8111937046051025,-0.4788067936897278,1.3607546091079712
1791041427162919700,3.654919677734375,1.6917808055877686,-0.6339148879051208,1.3612852096557617
1791041427172948700,3.66494873046875,1.676211953163147,-0.5593951344490051,1.3246984481811523
1791041427182978800,3.674978759765625,1.6517809629440308,-0.5649672746658325,1.2760951519012451
1791041427193007900,3.6850078125,1.5905492305755615,-0.558501124382019,1.226691722869873
1791041427203037700,3.69503759765625,1.5091193914413452,-0.5995321273803711,1.1507750749588013
1791041427213066800,3.705066650390625,1.4330363273620605,-0.5579791069030762,1.0536974668502808
1791041427223096800,3.715096923828125,1.3028773069381714,-0.6717664003372192,0.9796512722969055
1791041427233126000,3.7251259765625,1.218329668045044,-0.6069315075874329,0.87270587682724
1791041427243154700,3.73515478515625,1.1348522901535034,-0.4863201081752777,0.7640436291694641
1791041427253184800,3.745184814453125,0.963041365146637,-0.629185676574707,0.7269116640090942
1791041427263213800,3.7552138671875,0.8234768509864807,-0.600047767162323,0.6641880869865417
1791041427273244000,3.765243896484375,0.7163245677947998,-0.5040562152862549,0.5655025243759155
1791041427283272700,3.775272705078125,0.6175553798675537,-0.3767387568950653,0.44553911685943604
1791041427293301800,3.7853017578125,0.534386157989502,-0.23861576616764069,0.32568514347076416
1791041427303331800,3.795331787109375,0.4276306927204132,-0.16639403998851776,0.24746012687683105
1791041427313361000,3.80536083984375,0.32652246952056885,-0.07856617867946625,0.1500491499900818
1791041427323390700,3.815390625,0.22417904436588287,0.006871754303574562,0.04590357467532158
1791041427333419800,3.825419677734375,0.12180472910404205,0.11360751837491989,-0.07042276859283447
1791041427343449000,3.835448974609375,0.02124190516769886,0.20201674103736877,-0.17595025897026062
1791041427353479200,3.845479248046875,-0.0773584395647049,0.2508287727832794,-0.2608363926410675
1791041427363508000,3.855508056640625,-0.17309747636318207,0.31198930740356445,-0.3441579043865204
1791041427373538000,3.8655380859375,-0.25284770131111145,0.42838624119758606,-0.4226529896259308
1791041427383567000,3.875567138671875,-0.30752959847450256,0.5230829119682312,-0.5074363350868225
1791041427393597200,3.88559716796875,-0.3648653030395508,0.5439136028289795,-0.6128684878349304
1791041427403626200,3.895626220703125,-0.4236591160297394,0.5173688530921936,-0.7141239643096924
1791041427413655000,3.905655029296875,-0.4720788598060608,0.49213671684265137,-0.8010492920875549
1791041427423685000,3.91568505859375,-0.5011043548583984,0.4876985549926758,-0.8684909343719482
1791041427433714200,3.925714111328125,-0.5138670206069946,0.48416879773139954,-0.9162387251853943
1791041427443744300,3.935744140625,-0.5275974869728088,0.4899417459964752,-0.9483404755592346
1791041427453773000,3.94577294921875,-0.5597200393676758,0.49340197443962097,-0.9929412007331848
1791041427463802000,3.955802001953125,-0.6077315211296082,0.4732399880886078,-1.0571210384368896
1791041427473832200,3.965832275390625,-0.6605337262153625,0.37468892335891724,-1.1033271551132202
1791041427483861000,3.975861083984375,-0.7089076638221741,0.22326025366783142,-1.108730435371399
1791041427493891000,3.98589111328125,-0.7341474890708923,0.10403532534837723,-1.0547348260879517
1791041427503920000,3.995920166015625,-0.6929785013198853,0.06070142984390259,-0.9702430963516235
1791041427513950200,4.0059501953125,-0.5239580273628235,0.04631689935922623,-0.8061026334762573
1791041427523979300,4.015979248046875,-0.18349365890026093,0.032885510474443436,-0.41436123847961426
1791041427534008000,4.026008056640625,0.3266178071498871,0.11435666680335999,0.1383480280637741
1791041427544038100,4.0360380859375,0.7616425156593323,0.3771483600139618,0.3816288411617279
1791041427554067200,4.046067138671875,0.7879678606987,0.6066228151321411,0.1603206992149353
1791041427564097300,4.05609716796875,0.34948715567588806,0.14979667961597443,0.10235992819070816
1791041427574126000,4.0661259765625,0.06327324360609055,-0.30513566732406616,0.09338401257991791
1791041427584155100,4.076155029296875,-0.08394204080104828,-0.6949359178543091,0.017492441460490227
1791041427594185200,4.086185302734375,-0.2082594633102417,-0.8715985417366028,-0.0929240807890892
1791041427604214300,4.09621435546875,-0.29942187666893005,-0.8063420653343201,-0.23356135189533234
1791041427614244000,4.106244140625,-0.332901269197464,-0.6002562642097473,-0.3653249740600586
1791041427624273200,4.116273193359375,-0.326401025056839,-0.3281075656414032,-0.43155673146247864
1791041427634303000,4.126302978515625,-0.30638521909713745,-0.006168413441628218,-0.48469850420951843
1791041427644332300,4.136332275390625,-0.35327205061912537,0.2640873193740845,-0.5822844505310059
1791041427654361000,4.146361083984375,-0.39369162917137146,0.3815838396549225,-0.7052751183509827
1791041427664391200,4.15639111328125,-0.4049381613731384,0.4294600188732147,-0.7697888612747192
1791041427674420200,4.166420166015625,-0.40999284386634827,0.4268128275871277,-0.7816007733345032
1791041427684450000,4.176449951171875,-0.4036899507045746,0.3498714566230774,-0.7865422368049622
1791041427694479000,4.18647900390625,-0.3624812662601471,0.25787389278411865,-0.8013467788696289
1791041427704509000,4.196509033203125,-0.2990034818649292,0.20083323121070862,-0.8042978048324585
1791041427714538000,4.2065380859375,-0.24209386110305786,0.0820261612534523,-0.7392692565917969
1791041427724567300,4.2165673828125,-0.18913716077804565,-0.14254729449748993,-0.6036613583564758
1791041427734596900,4.226596923828125,-0.1559259444475174,-0.34904640913009644,-0.4770163595676422
1791041427744626000,4.2366259765625,-0.140410378575325,-0.47400352358818054,-0.42151448130607605
1791041427754656000,4.246656005859375,-0.11875514686107635,-0.5186519622802734,-0.4289420247077942
1791041427764685000,4.25668505859375,-0.11639957875013351,-0.46537888050079346,-0.4591822326183319
1791041427774714000,4.266714111328125,-0.153879314661026,-0.3398371934890747,-0.4877946972846985
1791041427784744000,4.276743896484375,-0.19600705802440643,-0.17892900109291077,-0.4776991903781891
1791041427794773000,4.28677294921875,-0.2049534171819687,-0.02105335332453251,-0.43756935000419617
1791041427804803000,4.296802978515625,-0.2041235715150833,0.11746138334274292,-0.4126642644405365
1791041427814831900,4.306831787109375,-0.2133231908082962,0.20716410875320435,-0.3802317678928375
1791041427824862000,4.316862060546875,-0.20758648216724396,0.17463652789592743,-0.30491888523101807
1791041427834891000,4.32689111328125,-0.19318516552448273,0.07558450847864151,-0.21380096673965454
1791041427844920000,4.336920166015625,-0.17831940948963165,-0.051361456513404846,-0.1485210359096527
1791041427854950100,4.3469501953125,-0.16889820992946625,-0.1759052574634552,-0.1233120784163475
1791041427864979000,4.35697900390625,-0.18768706917762756,-0.27304697036743164,-0.1031586080789566
1791041427875009000,4.367009033203125,-0.23723891377449036,-0.3260052800178528,-0.08092707395553589
1791041427885038000,4.3770380859375,-0.29707083106040955,-0.31011632084846497,-0.0892060399055481
1791041427895068200,4.387068115234375,-0.34022948145866394,-0.23071789741516113,-0.10023712366819382
1791041427905097000,4.397096923828125,-0.3727586567401886,-0.10206618160009384,-0.09630709141492844
1791041427915126000,4.4071259765625,-0.394094854593277,0.03392814099788666,-0.10613575577735901
1791041427925156000,4.417156005859375,-0.4000861644744873,0.16119767725467682,-0.13320572674274445
1791041427935185200,4.42718505859375,-0.3763885498046875,0.29189151525497437,-0.14621099829673767
1791041427945215000,4.437215087890625,-0.3619678020477295,0.3674754798412323,-0.1343543380498886
1791041427955244000,4.447244140625,-0.3739650845527649,0.3859280049800873,-0.12112029641866684
1791041427965274000,4.457274169921875,-0.400631308555603,0.3550984263420105,-0.1129947304725647
1791041427975303200,4.46730322265625,-0.42294034361839294,0.30145251750946045,-0.09207560122013092
1791041427985332000,4.47733203125,-0.4624786972999573,0.22635936737060547,-0.06679980456829071
1791041427995362000,4.487362060546875,-0.5146827697753906,0.15640957653522491,-0.07322946935892105
1791041428005391000,4.49739111328125,-0.5501792430877686,0.14152278006076813,-0.06930157542228699
1791041428015421200,4.507421142578125,-0.5792529582977295,0.17448019981384277,-0.029349099844694138
1791041428025450000,4.517449951171875,-0.6142165660858154,0.1737518161535263,-0.01625753380358219
1791041428035480000,4.52747998046875,-0.6538129448890686,0.18176500499248505,-0.059124041348695755
1791041428045509000,4.537509033203125,-0.6941097974777222,0.2478359043598175,-0.09550308436155319
1791041428055538200,4.5475380859375,-0.7283175587654114,0.3080345392227173,-0.09381543844938278
1791041428065568000,4.557568115234375,-0.7476531863212585,0.31875374913215637,-0.07303453236818314
1791041428075597000,4.56759716796875,-0.7385278344154358,0.3185388445854187,-0.07614856213331223
1791041428085627100,4.577627197265625,-0.7194207310676575,0.3505913019180298,-0.1041857898235321
1791041428095656200,4.58765625,-0.7261979579925537,0.3796740770339966,-0.13475196063518524
1791041428105686300,4.597686279296875,-0.7416477203369141,0.3455864191055298,-0.15858644247055054
1791041428115715000,4.607715087890625,-0.7579566836357117,0.26150405406951904,-0.20268546044826508
1791041428125744000,4.617744140625,-0.7795924544334412,0.195909321308136,-0.25892555713653564
1791041428135774200,4.627774169921875,-0.8003294467926025,0.12690095603466034,-0.3053513765335083
1791041428145803000,4.637802978515625,-0.8099524974822998,0.06542694568634033,-0.3301057517528534
1791041428155833000,4.6478330078125,-0.7926017642021179,-0.007959122769534588,-0.328795462846756
1791041428165862100,4.657862060546875,-0.7545933723449707,-0.06713509559631348,-0.3104768991470337
1791041428175892200,4.667892333984375,-0.7056013345718384,-0.08492287993431091,-0.2855779528617859
1791041428185921300,4.67792138671875,-0.6606024503707886,-0.07902318239212036,-0.2672729790210724
1791041428195950000,4.6879501953125,-0.6265640258789062,-0.08090150356292725,-0.26412326097488403
1791041428205980200,4.697980224609375,-0.6127198338508606,-0.08096782118082047,-0.2582661807537079
1791041428216009200,4.70800927734375,-0.6212396025657654,-0.10029038786888123,-0.25095072388648987
1791041428226039300,4.718039306640625,-0.6612181663513184,-0.130456805229187,-0.23810790479183197
1791041428236068000,4.728068115234375,-0.716622531414032,-0.1430245339870453,-0.19805583357810974
1791041428246098000,4.738097900390625,-0.7640385627746582,-0.1646731048822403,-0.14575746655464172
1791041428256127200,4.748127197265625,-0.7848117351531982,-0.14969415962696075,-0.11305997520685196
1791041428266156300,4.75815625,-0.7971938252449036,-0.10750382393598557,-0.08893439918756485
1791041428276186000,4.76818603515625,-0.8129366040229797,-0.06765014678239822,-0.06449297070503235
1791041428286215200,4.778215087890625,-0.8264414668083191,0.011918711476027966,-0.03978149965405464
1791041428296245000,4.788244873046875,-0.8304399251937866,0.1043194830417633,-0.028063058853149414
1791041428306274000,4.798274169921875,-0.8283429741859436,0.19690880179405212,-0.02659672312438488
1791041428316304000,4.808303955078125,-0.8170666098594666,0.29243984818458557,-0.05362274870276451
1791041428326333000,4.8183330078125,-0.7921303510665894,0.3867274820804596,-0.12321993708610535
1791041428336362200,4.8283623046875,-0.779382050037384,0.48306572437286377,-0.1977868527173996
1791041428346392000,4.83839208984375,-0.7782635688781738,0.5642511248588562,-0.22945636510849
1791041428356421000,4.848421142578125,-0.7755846977233887,0.584077000617981,-0.23218317329883575
1791041428366451000,4.858450927734375,-0.77557772397995,0.5264925360679626,-0.24004429578781128
1791041428376480000,4.86847998046875,-0.7764046788215637,0.44683873653411865,-0.23888927698135376
1791041428386510000,4.878510009765625,-0.792818009853363,0.3747722804546356,-0.22236596047878265
1791041428396539000,4.888538818359375,-0.7928893566131592,0.332978755235672,-0.2145269513130188
1791041428406569000,4.89856884765625,-0.771597683429718,0.28165218234062195,-0.21481695771217346
1791041428416598000,4.908597900390625,-0.7292765378952026,0.2132643461227417,-0.21582309901714325
1791041428426627000,4.918626953125,-0.692773163318634,0.1720958650112152,-0.22982867062091827
1791041428436657200,4.9286572265625,-0.6766796708106995,0.16633811593055725,-0.25329697132110596
1791041428446686000,4.93868603515625,-0.6816872358322144,0.1792706847190857,-0.2605213224887848
1791041428456716000,4.948716064453125,-0.6931247115135193,0.1775076687335968,-0.24341319501399994
1791041428466745000,4.9587451171875,-0.7034580111503601,0.19369250535964966,-0.23460717499256134
1791041428476775200,4.968775146484375,-0.7071741819381714,0.2749737799167633,-0.2562730610370636
1791041428486804000,4.978803955078125,-0.697571337223053,0.3771877586841583,-0.29728519916534424
1791041428496833000,4.9888330078125,-0.6434867978096008,0.4507059156894684,-0.35185977816581726
1791041428506863000,4.998863037109375,-0.591835618019104,0.47753381729125977,-0.3876257538795471
1791041428516892200,5.00889208984375,-0.5046432018280029,0.437019407749176,-0.4004720449447632
1791041428526922000,5.018921875,-0.44941216707229614,0.4362039566040039,-0.4007865786552429
1791041428536951000,5.028950927734375,-0.40355464816093445,0.4369714558124542,-0.38979730010032654
1791041428546981000,5.038981201171875,-0.35111913084983826,0.3740673363208771,-0.3787246644496918
1791041428557010200,5.04901025390625,-0.28921636939048767,0.2407577484846115,-0.35125255584716797
1791041428567040000,5.0590400390625,-0.24600045382976532,0.11069508641958237,-0.3071887195110321
1791041428577069000,5.069069091796875,-0.23342660069465637,0.04249259829521179,-0.27160540223121643
1791041428587098000,5.07909814453125,-0.20060206949710846,0.005401689559221268,-0.2606462240219116
1791041428597128200,5.089128173828125,-0.15545350313186646,0.021623270586133003,-0.2544668912887573
1791041428607157000,5.099156982421875,-0.11403176188468933,0.051126834005117416,-0.2252245992422104
1791041428617187000,5.10918701171875,-0.07629876583814621,-0.009592439979314804,-0.18706735968589783
1791041428627216100,5.119216064453125,-0.016277773305773735,-0.15859363973140717,-0.1591622233390808
1791041428637246200,5.12924609375,0.020862670615315437,-0.26168352365493774,-0.14083807170391083
1791041428647275000,5.13927490234375,0.07553470134735107,-0.25715163350105286,-0.13361531496047974
1791041428657305000,5.14930517578125,0.1247778832912445,-0.18474029004573822,-0.11909016966819763
1791041428667334100,5.159334228515625,0.19116249680519104,-0.08266372233629227,-0.09683573246002197
1791041428677363200,5.16936328125,0.22501420974731445,-0.028854018077254295,-0.0761064887046814
1791041428687393300,5.179393310546875,0.23985520005226135,-0.010241452604532242,-0.05860152840614319
1791041428697422000,5.189422119140625,0.25862330198287964,-0.01218476053327322,-0.053282663226127625
1791041428707452200,5.1994521484375,0.26547640562057495,-0.039632897824048996,-0.04963812604546547
1791041428717481200,5.209481201171875,0.247573584318161,-0.10879731923341751,-0.03604375571012497
1791041428727511000,5.219510986328125,0.20045000314712524,-0.19853545725345612,-0.0057313889265060425
1791041428737540000,5.2295400390625,0.13285498321056366,-0.2741412818431854,0.02581748180091381
1791041428747570000,5.23956982421875,0.07295596599578857,-0.30524593591690063,0.025261681526899338
1791041428757599200,5.24959912109375,0.051056791096925735,-0.24926096200942993,-0.013435381464660168
1791041428767628300,5.259628173828125,0.0691596269607544,-0.1803026646375656,-0.07633072137832642
1791041428777658000,5.269658203125,0.08732158690690994,-0.1439414620399475,-0.12589481472969055
1791041428787687200,5.279687255859375,0.11658041179180145,-0.14103275537490845,-0.15737177431583405
1791041428797717000,5.289717041015625,0.10839544981718063,-0.13927613198757172,-0.17265672981739044
1791041428807746000,5.29974609375,0.09935960918664932,-0.1778022199869156,-0.17080795764923096
1791041428817776000,5.309776123046875,0.12119966000318527,-0.21310961246490479,-0.13336551189422607
1791041428827805000,5.319804931640625,0.1667807251214981,-0.2934683561325073,-0.08271405100822449
1791041428837834200,5.329834228515625,0.19216278195381165,-0.30048897862434387,-0.04881654307246208
1791041428847864000,5.339864013671875,0.17017492651939392,-0.26229366660118103,-0.03525013104081154
1791041428857892900,5.349892822265625,0.17413584887981415,-0.2690921723842621,-0.013265738263726234
1791041428867923000,5.3599228515625,0.2155538648366928,-0.2698170840740204,-0.027406856417655945
1791041428877952000,5.369951904296875,0.2709140479564667,-0.2378290742635727,-0.1183849647641182
1791041428887982000,5.379982177734375,0.31685277819633484,-0.24722203612327576,-0.18575255572795868
1791041428898011000,5.390010986328125,0.34268704056739807,-0.2797437608242035,-0.18276795744895935
1791041428908041000,5.400041015625,0.350010484457016,-0.27944469451904297,-0.12038499861955643
1791041428918070000,5.410070068359375,0.3701525032520294,-0.3416832983493805,-0.06473185867071152
1791041428928099000,5.42009912109375,0.3838443458080292,-0.2980239689350128,-0.03578809276223183
1791041428938129200,5.430129150390625,0.40030398964881897,-0.32104620337486267,-0.00609437795355916
1791041428948158000,5.440157958984375,0.4399816393852234,-0.5387774705886841,-0.021752700209617615
1791041428958188000,5.45018798828125,0.46744415163993835,-0.7082096338272095,-0.07929296046495438
1791041428968217000,5.460217041015625,0.46766918897628784,-0.757490336894989,-0.1409320831298828
1791041428978247200,5.4702470703125,0.4530883729457855,-0.7594571113586426,-0.18209443986415863
1791041428988276000,5.48027587890625,0.41184693574905396,-0.7633360028266907,-0.22389568388462067
1791041428998306000,5.49030615234375,0.32166457176208496,-0.7159621119499207,-0.26272135972976685
1791041429008335000,5.500335205078125,0.24308615922927856,-0.6384212374687195,-0.29947617650032043
1791041429018365200,5.510365234375,0.25094860792160034,-0.5716052055358887,-0.320873886346817
1791041429028394000,5.52039404296875,0.31700778007507324,-0.5210826396942139,-0.3253554701805115
1791041429038423000,5.530423095703125,0.3895070254802704,-0.5056591629981995,-0.328498512506485
1791041429048453000,5.540453125,0.4563520848751068,-0.6342973113059998,-0.34179434180259705
1791041429058482200,5.550482177734375,0.5016697645187378,-0.7420666813850403,-0.3322615623474121
1791041429068512300,5.56051220703125,0.49978718161582947,-0.7659648060798645,-0.29558104276657104
1791041429078541000,5.570541015625,0.5035070776939392,-0.8560805916786194,-0.23692280054092407
1791041429088571100,5.580571044921875,0.4877994954586029,-0.9148133993148804,-0.19558946788311005
1791041429098600200,5.59060009765625,0.4368356466293335,-0.8523992896080017,-0.2021925151348114
1791041429108630300,5.60063037109375,0.4049357771873474,-0.8164897561073303,-0.21780715882778168
1791041429118659000,5.6106591796875,0.4214700162410736,-0.8240978717803955,-0.23107236623764038
1791041429128688000,5.620688232421875,0.46839144825935364,-0.8731690049171448,-0.2513321042060852
1791041429138718200,5.63071826171875,0.5591674447059631,-0.8301565647125244,-0.23034292459487915
1791041429148747000,5.6407470703125,0.6196704506874084,-0.650416910648346,-0.19415003061294556
1791041429158777000,5.650777099609375,0.6642611026763916,-0.4312102496623993,-0.14700037240982056
1791041429168806100,5.66080615234375,0.7083563804626465,-0.2915562093257904,-0.08540358394384384
1791041429178836200,5.670836181640625,0.7285301089286804,-0.26461753249168396,-0.023721307516098022
1791041429188865300,5.680865234375,0.7153732776641846,-0.26771506667137146,0.006842725910246372
1791041429198895000,5.69089501953125,0.6814919710159302,-0.25015416741371155,0.00005699164830730297
1791041429208924200,5.700924072265625,0.6514073610305786,-0.2645837068557739,-0.0065106297843158245
1791041429218953200,5.710953125,0.6432231664657593,-0.29954251646995544,0.013144031167030334
1791041429228983000,5.720983154296875,0.6466325521469116,-0.2985028028488159,0.04194185882806778
1791041429239012000,5.73101220703125,0.6584047675132751,-0.2744259536266327,0.06415022164583206
1791041429249042000,5.7410419921875,0.675666868686676,-0.20699019730091095,0.06391826272010803
1791041429259071200,5.7510712890625,0.6824608445167542,-0.13978825509548187,0.06869836896657944
1791041429269101000,5.76110107421875,0.6925659775733948,-0.05799565836787224,0.06967761367559433
1791041429279129900,5.7711298828125,0.7109534740447998,0.021563349291682243,0.07392402738332748
1791041429289160000,5.781159912109375,0.7096037864685059,0.04707483574748039,0.10619887709617615
1791041429299189000,5.79118896484375,0.7114264369010925,0.042031072080135345,0.1382976919412613
1791041429309219000,5.801218994140625,0.697334885597229,0.009437976405024529,0.16273298859596252
1791041429319248100,5.811248046875,0.6512203812599182,-0.005771336145699024,0.18007495999336243
1791041429329277000,5.82127685546875,0.6050198674201965,-0.0037670412566512823,0.20537792146205902
1791041429339307000,5.83130712890625,0.580331027507782,0.003973968792706728,0.24759861826896667
1791041429349335800,5.841335693359375,0.5770023465156555,0.03717106953263283,0.28259652853012085
1791041429359366000,5.851365966796875,0.599083423614502,0.1222689226269722,0.2999292016029358
1791041429369395000,5.86139501953125,0.6480048894882202,0.24112527072429657,0.30683982372283936
1791041429379425000,5.871425048828125,0.7303476929664612,0.36077284812927246,0.31405991315841675
1791041429389453800,5.881453857421875,0.8318490386009216,0.4488433003425598,0.31941527128219604
1791041429399484000,5.89148388671875,0.9017540812492371,0.5223526954650879,0.31827038526535034
1791041429409513000,5.901512939453125,0.9244593977928162,0.5433008074760437,0.31958067417144775
1791041429419543000,5.91154296875,0.8797856569290161,0.5599618554115295,0.32314690947532654
1791041429429572000,5.921572021484375,0.8211095333099365,0.6020951867103577,0.3328991234302521
1791041429439601000,5.931600830078125,0.8230108022689819,0.6420060992240906,0.3339060842990875
1791041429449631000,5.941630859375,0.8437301516532898,0.5271016359329224,0.3334251046180725
1791041429459660000,5.951659912109375,0.9507673978805542,0.3512302041053772,0.3058595359325409
1791041429469690000,5.961690185546875,1.0444360971450806,0.11738947778940201,0.2620452046394348
1791041429479719000,5.971718994140625,1.1145861148834229,-0.1437358558177948,0.22874610126018524
1791041429489749000,5.9817490234375,1.120237112045288,-0.36946114897727966,0.25323227047920227
1791041429499778000,5.991778076171875,1.1002554893493652,-0.4999810457229614,0.3190573453903198
1791041429509808000,6.00180810546875,1.0628784894943237,-0.5577180981636047,0.3883669078350067
1791041429519837000,6.0118369140625,1.0096317529678345,-0.6100889444351196,0.43701648712158203
1791041429529867000,6.021866943359375,0.9808752536773682,-0.6616753935813904,0.45745542645454407
1791041429539896000,6.03189599609375,0.9844992756843567,-0.69846510887146,0.4538646936416626
1791041429549925000,6.041925048828125,1.0080949068069458,-0.7215840220451355,0.45722320675849915
1791041429559955200,6.051955078125,1.0241425037384033,-0.7662521600723267,0.4796915054321289
1791041429569984000,6.06198388671875,1.0482921600341797,-0.7811418771743774,0.4909271001815796
1791041429580014000,6.07201416015625,1.0725828409194946,-0.7929439544677734,0.45248332619667053
1791041429590043100,6.082043212890625,1.0922406911849976,-0.7187938094139099,0.3490131199359894
1791041429600073200,6.0920732421875,1.0351086854934692,-0.6057152152061462,0.2281772494316101
1791041429610102000,6.10210205078125,0.9346092343330383,-0.43780264258384705,0.11849895119667053
1791041429620132000,6.112132080078125,0.8277834057807922,-0.30175238847732544,0.05509867146611214
1791041429630161200,6.1221611328125,0.7472406625747681,-0.24958692491054535,0.06075229495763779
1791041429640191000,6.13219091796875,0.7371118664741516,-0.29142385721206665,0.10861409455537796
1791041429650220000,6.142219970703125,0.796120822429657,-0.40235278010368347,0.15805621445178986
1791041429660249000,6.1522490234375,0.9086822867393494,-0.4884008467197418,0.181675523519516
1791041429670279000,6.16227880859375,1.0266046524047852,-0.5541055202484131,0.18795658648014069
1791041429680308200,6.17230810546875,1.167230486869812,-0.4738464057445526,0.16858582198619843
1791041429690337800,6.182337890625,1.2501903772354126,-0.37540584802627563,0.17129690945148468
1791041429700366800,6.192366943359375,1.2267299890518188,-0.31681495904922485,0.2297852635383606
1791041429710397000,6.20239697265625,1.1209111213684082,-0.32868096232414246,0.3207862675189972
1791041429720426000,6.212426025390625,0.9851536154747009,-0.3973066210746765,0.3961004614830017
1791041429730456000,6.2224560546875,0.8940207958221436,-0.4109688997268677,0.43248724937438965
1791041429740484900,6.23248486328125,0.8678994178771973,-0.37913134694099426,0.4429904818534851
1791041429750515000,6.242514892578125,0.8844823837280273,-0.3382622003555298,0.45586898922920227
1791041429760544000,6.2525439453125,0.9147321581840515,-0.256837397813797,0.47797641158103943
1791041429770572800,6.26257275390625,0.8694051504135132,-0.10063979029655457,0.5519188046455383
1791041429780603000,6.272602783203125,0.791865348815918,-0.0016327840276062489,0.6307846307754517
1791041429790632000,6.2826318359375,0.6995391845703125,-0.03567810356616974,0.7191216945648193
1791041429800662000,6.292662109375,0.5947443246841431,-0.12391289323568344,0.8293784260749817
1791041429810691000,6.302691162109375,0.5266947150230408,-0.07212026417255402,0.9277853965759277
1791041429820721000,6.312720947265625,0.4985642731189728,0.11252867430448532,0.999640166759491
1791041429830750000,6.32275,0.478568971157074,0.30255746841430664,1.0396571159362793
1791041429840780000,6.332780029296875,0.5435786247253418,0.44580012559890747,1.0056551694869995
1791041429850809000,6.34280908203125,0.6830507516860962,0.6802674531936646,0.8081849813461304
1791041429860839000,6.3528388671875,0.677832841873169,0.8260302543640137,0.5818650126457214
1791041429870868000,6.362867919921875,0.4511544108390808,0.4153929352760315,0.4713425040245056
1791041429880898000,6.37289794921875,0.3158021569252014,-0.12674249708652496,0.36040717363357544
1791041429890927000,6.382927001953125,0.4257211983203888,-0.03213929384946823,0.23608443140983582
1791041429900956000,6.392955810546875,0.646827220916748,0.3753325939178467,0.252840518951416
1791041429910986000,6.402986083984375,0.6658006310462952,0.5528197884559631,0.22341124713420868
1791041429921015000,6.41301513671875,0.46830010414123535,0.5889441967010498,0.17706985771656036
1791041429931045000,6.423045166015625,0.30919086933135986,0.5639269948005676,0.16677460074424744
1791041429941074000,6.433073974609375,0.2669789791107178,0.28379788994789124,0.11499875783920288
1791041429951104000,6.44310400390625,0.21183475852012634,0.04248594120144844,-0.08685792982578278
1791041429961133000,6.453133056640625,0.11467571556568146,0.12844692170619965,-0.23166199028491974
1791041429971163100,6.4631630859375,0.02167040854692459,0.1908775418996811,-0.33595964312553406
1791041429981192200,6.473192138671875,-0.08879085630178452,0.14207245409488678,-0.49898770451545715
1791041429991222000,6.483221923828125,-0.20010805130004883,0.23712067306041718,-0.6300192475318909
1791041430001251000,6.4932509765625,-0.2820039987564087,0.45825597643852234,-0.6357122659683228
1791041430011281000,6.503281005859375,-0.3525276780128479,0.5939126014709473,-0.5886480808258057
1791041430021310200,6.513310302734375,-0.443745493888855,0.69016033411026,-0.5766295194625854
1791041430031339000,6.523339111328125,-0.5449383854866028,0.8209774494171143,-0.6211770176887512
1791041430041369000,6.533369140625,-0.6406607031822205,0.9642483592033386,-0.6932746171951294
1791041430051398100,6.543398193359375,-0.71437668800354,1.0477490425109863,-0.7508614659309387
1791041430061428000,6.553427978515625,-0.7601487040519714,1.1836121082305908,-0.7912060022354126
1791041430071457000,6.56345703125,-0.8104936480522156,1.3226804733276367,-0.8098576664924622
1791041430081486800,6.57348681640625,-0.8628069162368774,1.4229018688201904,-0.8134907484054565
1791041430091516000,6.583515869140625,-0.9039956331253052,1.4073463678359985,-0.8140042424201965
1791041430101546000,6.5935458984375,-0.93441241979599,1.3597080707550049,-0.8039462566375732
1791041430111574800,6.60357470703125,-0.9681386947631836,1.3281269073486328,-0.7923178672790527
1791041430121604900,6.61360498046875,-1.0235494375228882,1.193605661392212,-0.7993621826171875
1791041430131634000,6.623634033203125,-1.0796912908554077,1.0265101194381714,-0.8094635605812073
1791041430141664000,6.6336640625,-1.0952987670898438,0.8959811329841614,-0.8096345067024231
1791041430151693000,6.643693115234375,-1.0809592008590698,0.7372351288795471,-0.8017092347145081
1791041430161721900,6.653721923828125,-1.0590696334838867,0.6253957152366638,-0.7914344668388367
1791041430171752000,6.663751953125,-1.0805413722991943,0.6559280753135681,-0.7863254547119141
1791041430181781000,6.673781005859375,-1.110652208328247,0.6695844531059265,-0.8013576865196228
1791041430191811000,6.68381103515625,-1.1317241191864014,0.6098758578300476,-0.8077124953269958
1791041430201839900,6.69383984375,-1.1716084480285645,0.5440875291824341,-0.8025228381156921
1791041430211870000,6.703869873046875,-1.2399108409881592,0.5060128569602966,-0.775039553642273
1791041430221899000,6.71389892578125,-1.3430452346801758,0.4750610589981079,-0.7485101819038391
1791041430231929000,6.72392919921875,-1.4527125358581543,0.4727475643157959,-0.7231127023696899
1791041430241958000,6.7339580078125,-1.5307085514068604,0.5055004358291626,-0.6783811450004578
1791041430251988000,6.743988037109375,-1.5818641185760498,0.5035214424133301,-0.6055961847305298
1791041430262017000,6.75401708984375,-1.6119186878204346,0.42321544885635376,-0.5254805684089661
1791041430272047000,6.764047119140625,-1.635421633720398,0.30924519896507263,-0.47346529364585876
1791041430282076000,6.774075927734375,-1.648584008216858,0.22343336045742035,-0.45804691314697266
1791041430292106000,6.78410595703125,-1.701088309288025,0.2612989842891693,-0.4402759075164795
1791041430302135000,6.794135009765625,-1.787901759147644,0.3544105589389801,-0.4084759056568146
1791041430312165000,6.8041650390625,-1.90303635597229,0.4490529000759125,-0.3458247780799866
1791041430322194200,6.814194091796875,-2.011103391647339,0.5627725124359131,-0.23115305602550507
1791041430332223000,6.824222900390625,-2.079583168029785,0.6344797611236572,-0.10349470376968384
1791041430342253300,6.83425341796875,-2.0699989795684814,0.681718647480011,-0.020795825868844986
1791041430352282400,6.844282470703125,-2.0101232528686523,0.7777213454246521,0.04435654729604721
1791041430362312200,6.854312255859375,-1.9250657558441162,0.9375805258750916,0.095013327896595
1791041430372341200,6.86434130859375,-1.8068994283676147,1.1186344623565674,0.09620189666748047
1791041430382371000,6.87437109375,-1.6602803468704224,1.1925824880599976,0.07493043690919876
1791041430392400400,6.884400390625,-1.5564621686935425,1.0231508016586304,-0.005489307455718517
1791041430402430200,6.89443017578125,-1.5094077587127686,0.7985248565673828,-0.14760303497314453
1791041430412459000,6.904458984375,-1.4806687831878662,0.656391441822052,-0.26232749223709106
1791041430422489000,6.914489013671875,-1.4190014600753784,0.5347353219985962,-0.3197617530822754
1791041430432518100,6.92451806640625,-1.3314476013183594,0.41403499245643616,-0.3657899796962738
1791041430442548200,6.93454833984375,-1.2463423013687134,0.3638319969177246,-0.45182284712791443
1791041430452577300,6.944577392578125,-1.163955807685852,0.33714020252227783,-0.5779618620872498
1791041430462607000,6.954607177734375,-1.1164977550506592,0.2784140408039093,-0.6932644844055176
1791041430472636200,6.96463623046875,-1.1017974615097046,0.21824152767658234,-0.7487519979476929
1791041430482665200,6.974665283203125,-1.0773447751998901,0.15039962530136108,-0.7273508310317993
1791041430492695300,6.9846953125,-1.0401880741119385,0.07235675305128098,-0.6317782402038574
1791041430502724000,6.99472412109375,-0.9710394144058228,0.009183111600577831,-0.5148532390594482
1791041430512754200,7.004754150390625,-0.9073874354362488,-0.053585462272167206,-0.43549102544784546
1791041430522783200,7.014783203125,-0.8027340173721313,-0.08257130533456802,-0.38191407918930054
1791041430532813300,7.024813232421875,-0.719825804233551,-0.09960488975048065,-0.3219681978225708
1791041430542842000,7.034842041015625,-0.6176450848579407,-0.06523013859987259,-0.27251380681991577
1791041430552872200,7.0448720703125,-0.5560800433158875,-0.08184213191270828,-0.21325822174549103
1791041430562901200,7.0549013671875,-0.4347546398639679,-0.02526860497891903,-0.16967611014842987
1791041430572931300,7.064931396484375,-0.33379635214805603,0.07655949145555496,-0.11202134191989899
1791041430582960400,7.07496044921875,-0.269687682390213,0.19156277179718018,-0.02105282060801983
1791041430592990200,7.084990234375,-0.23061403632164001,0.3002466559410095,0.08454950153827667
1791041430603019300,7.095019287109375,-0.16171619296073914,0.3649284243583679,0.2011035531759262
1791041430613049300,7.10504931640625,-0.027480892837047577,0.30907368659973145,0.342950701713562
1791041430623078400,7.115078369140625,0.22091880440711975,0.06870609521865845,0.5319962501525879
1791041430633108200,7.125108154296875,0.47113025188446045,-0.05782708153128624,0.7142693996429443
1791041430643137300,7.13513720703125,0.667453408241272,0.008656338788568974,0.8458433747291565
1791041430653167400,7.14516748046875,0.871735692024231,-0.05735357105731964,0.939564049243927
1791041430663196400,7.155196533203125,1.081095814704895,-0.2103623002767563,1.022118330001831
1791041430673225200,7.16522509765625,1.2443921566009521,-0.3200778663158417,1.1364493370056152
1791041430683255300,7.17525537109375,1.3639283180236816,-0.40249818563461304,1.2924320697784424
1791041430693284400,7.185284423828125,1.4401628971099854,-0.45679017901420593,1.4249688386917114
1791041430703314400,7.195314453125,1.473659634590149,-0.5248837471008301,1.4991801977157593
1791041430713343200,7.20534326171875,1.4308120012283325,-0.5133152604103088,1.4880465269088745
1791041430723373000,7.215373046875,1.2946302890777588,-0.29513123631477356,1.3683580160140991
1791041430733402400,7.22540234375,1.1145659685134888,0.13008582592010498,1.1751786470413208
1791041430743432200,7.23543212890625,0.9605318903923035,0.6192983984947205,0.9788826704025269
1791041430753461200,7.245461181640625,0.8410627245903015,1.040802001953125,0.8038796782493591
1791041430763491000,7.255490966796875,0.692561149597168,1.3358296155929565,0.6234644055366516
1791041430773520100,7.26552001953125,0.5353747606277466,1.5358436107635498,0.4213853180408478
1791041430783550200,7.27555029296875,0.4146887958049774,1.5525104999542236,0.2057235985994339
1791041430793579300,7.285579345703125,0.32211652398109436,1.3208091259002686,0.010834005661308765
1791041430803609000,7.295609130859375,0.24776186048984528,0.893395185470581,-0.14140905439853668
1791041430813638100,7.30563818359375,0.20115281641483307,0.36042049527168274,-0.2606757879257202
1791041430823668200,7.315668212890625,0.18546652793884277,-0.18205901980400085,-0.33273985981941223
1791041430833697300,7.325697265625,0.21227870881557465,-0.4968622326850891,-0.36846351623535156
1791041430843727400,7.335727294921875,0.24630111455917358,-0.5785499215126038,-0.35723137855529785
1791041430853756200,7.345756103515625,0.2948787808418274,-0.6767851114273071,-0.26069843769073486
1791041430863785200,7.35578515625,0.44836926460266113,-0.5912467837333679,-0.02869689278304577
1791041430873815300,7.365815185546875,0.6931595802307129,-0.3994597792625427,0.23795317113399506
1791041430883844000,7.375843994140625,1.001970887184143,-0.24515250325202942,0.4484177231788635
1791041430893874200,7.385874267578125,1.2918754816055298,-0.1505490243434906,0.5716733336448669
1791041430903903200,7.3959033203125,1.5128147602081299,-0.15332616865634918,0.6111698746681213
1791041430913933300,7.405933349609375,1.668579339981079,-0.30033373832702637,0.5844163298606873
1791041430923962400,7.41596240234375,1.7805404663085938,-0.4557262361049652,0.5291892886161804
1791041430933992200,7.4259921875,1.7771497964859009,-0.4566620886325836,0.4995059669017792
1791041430944021200,7.436021240234375,1.6322777271270752,-0.35106801986694336,0.49108344316482544
1791041430954051300,7.44605126953125,1.456087589263916,-0.13933072984218597,0.5014476776123047
1791041430964080400,7.456080322265625,1.3383537530899048,0.035722311586141586,0.5349864363670349
1791041430974110500,7.4661103515625,1.280211091041565,0.13593652844429016,0.610505998134613
1791041430984139300,7.47613916015625,1.2242882251739502,0.17321306467056274,0.705406665802002
1791041430994169300,7.48616943359375,1.1686071157455444,0.10795816034078598,0.7946276068687439
1791041431004198400,7.496198486328125,1.1354498863220215,-0.025560753419995308,0.8871412873268127
1791041431014228200,7.506228271484375,1.1201404333114624,-0.12871217727661133,1.003304123878479
1791041431024257300,7.51625732421875,1.114613652229309,-0.20803283154964447,1.1524150371551514
1791041431034287000,7.526287109375,1.1236231327056885,-0.24445608258247375,1.3080445528030396
1791041431044316400,7.53631640625,1.1463606357574463,-0.2221289426088333,1.400223731994629
1791041431054346200,7.54634619140625,1.160040259361267,-0.22064821422100067,1.3694525957107544
1791041431064375000,7.556375,1.1827322244644165,-0.27247971296310425,1.288723111152649
1791041431074405000,7.566405029296875,1.1891123056411743,-0.40735524892807007,1.242623209953308
1791041431084434200,7.57643408203125,1.1825811862945557,-0.5744401216506958,1.2503106594085693
1791041431094464300,7.58646435546875,1.1697149276733398,-0.6989178657531738,1.2787615060806274
1791041431104493000,7.5964931640625,1.1381727457046509,-0.7833675146102905,1.3012210130691528
1791041431114522000,7.606522216796875,1.1075234413146973,-0.8320823311805725,1.290909767150879
1791041431124552200,7.61655224609375,1.060001015663147,-0.8584367036819458,1.2616519927978516
1791041431134581200,7.626581298828125,1.0071321725845337,-0.821286141872406,1.243152379989624
1791041431144611300,7.636611328125,0.9334883093833923,-0.7014915347099304,1.2262687683105469
1791041431154640100,7.64664013671875,0.8525015711784363,-0.5279005765914917,1.2458621263504028
1791041431164670200,7.656670166015625,0.7686367630958557,-0.36488422751426697,1.3003288507461548
1791041431174699300,7.66669921875,0.6953700184822083,-0.22832797467708588,1.3414642810821533
1791041431184729300,7.676729248046875,0.6373841762542725,-0.12857314944267273,1.3268272876739502
1791041431194758100,7.686758056640625,0.5945464372634888,0.022907979786396027,1.2232660055160522
1791041431204788200,7.696788330078125,0.5959739089012146,0.4488736689090729,1.0097918510437012
1791041431214817300,7.7068173828125,0.6333673596382141,0.9299420118331909,0.7370215654373169
1791041431224847400,7.716847412109375,0.642128586769104,1.1262305974960327,0.43854326009750366
1791041431234876200,7.726876220703125,0.6124380826950073,1.1721676588058472,0.2487882524728775
1791041431244906200,7.73690625,0.6660451292991638,1.4392249584197998,0.09557605534791946
1791041431254935300,7.746935302734375,0.5513132214546204,1.2160283327102661,0.040288832038640976
1791041431264965400,7.75696533203125,0.33848831057548523,0.6128623485565186,-0.024402545765042305
1791041431274994200,7.766994140625,0.20302101969718933,0.26708123087882996,-0.03175792843103409
1791041431285024300,7.777024169921875,0.1047343984246254,0.0171507578343153,0.0377282053232193
1791041431295053300,7.78705322265625,-0.022653646767139435,-0.15925836563110352,0.09083350002765656
1791041431305083400,7.79708349609375,-0.20757129788398743,-0.27959197759628296,0.1026129275560379
1791041431315112400,7.807112548828125,-0.3774048089981079,-0.3227950930595398,0.10935551673173904
1791041431325142300,7.817142333984375,-0.5036828517913818,-0.3650543987751007,0.08032652735710144
1791041431335171300,7.82717138671875,-0.594982385635376,-0.3665742576122284,0.001814677962101996
1791041431345201700,7.83720166015625,-0.6542121767997742,-0.2404051423072815,-0.06209452822804451
1791041431355230500,7.84723046875,-0.7024694681167603,-0.14335370063781738,-0.12716060876846313
1791041431365260500,7.857260498046875,-0.7591039538383484,-0.05162378028035164,-0.189686581492424
1791041431375289600,7.86728955078125,-0.8106422424316406,0.052989982068538666,-0.254898339509964
1791041431385318400,7.877318359375,-0.8568392992019653,0.22958391904830933,-0.3201729357242584
1791041431395348500,7.887348388671875,-0.9217756986618042,0.5033233165740967,-0.3579496145248413
1791041431405377500,7.89737744140625,-1.0014220476150513,0.6904873847961426,-0.4061501622200012
1791041431415407600,7.90740771484375,-1.1002687215805054,0.7922206521034241,-0.4654505252838135
1791041431425436700,7.917436767578125,-1.1928991079330444,0.7933418154716492,-0.5386208891868591
1791041431435466500,7.927466552734375,-1.292021632194519,0.8091016411781311,-0.6048339605331421
1791041431445495600,7.93749560546875,-1.382940649986267,0.8131040930747986,-0.6689255833625793
1791041431455525600,7.947525634765625,-1.4725579023361206,0.8378653526306152,-0.7295905351638794
1791041431465554700,7.9575546875,-1.5598845481872559,0.8626828193664551,-0.7843438386917114
1791041431475584500,7.96758447265625,-1.6355994939804077,0.8834831714630127,-0.8390597701072693
1791041431485613600,7.977613525390625,-1.713131070137024,0.8949366211891174,-0.8822078108787537
1791041431495643600,7.9876435546875,-1.8006808757781982,0.8728398680686951,-0.9172158241271973
1791041431505672700,7.997672607421875,-1.8932271003723145,0.849759578704834,-0.9507144093513489
1791041431515702800,8.007702880859375,-1.983661413192749,0.8220142126083374,-0.9766551852226257
1791041431525731600,8.017731689453125,-2.0508852005004883,0.7524474263191223,-0.991055965423584
1791041431535761700,8.02776171875,-2.0949697494506836,0.6255671977996826,-0.9764818549156189
1791041431545790700,8.037790771484374,-2.1431188583374023,0.5034183859825134,-0.9257254600524902
1791041431555820800,8.04782080078125,-2.164804697036743,0.4080953598022461,-0.8103394508361816
1791041431565849600,8.057849609375,-2.1522912979125977,0.3031865060329437,-0.641832709312439
1791041431575879700,8.067879638671876,-2.1018598079681396,0.15635578334331512,-0.45200449228286743
1791041431585908700,8.07790869140625,-2.007997512817383,0.04910176619887352,-0.2613988518714905
1791041431595938600,8.0879384765625,-1.9031119346618652,-0.023439545184373856,-0.0908856987953186
1791041431605967600,8.097967529296875,-1.8368868827819824,0.11676709353923798,0.05215295031666756
1791041431615997400,8.10799755859375,-1.819594383239746,0.2924286723136902,0.15036873519420624
1791041431626026800,8.11802685546875,-1.8489267826080322,0.4773399233818054,0.2039177119731903
1791041431636056600,8.128056640625,-1.9169702529907227,0.5986083149909973,0.17507274448871613
1791041431646085600,8.138085693359375,-1.969329595565796,0.7063509821891785,0.04639040306210518
1791041431656115500,8.148115478515624,-1.9569493532180786,0.8052512407302856,-0.08028125762939453
1791041431666144500,8.15814453125,-1.8951869010925293,0.8211561441421509,-0.13607928156852722
1791041431676174600,8.168174560546875,-1.7746706008911133,0.71063631772995,-0.1250191628932953
1791041431686203600,8.17820361328125,-1.624964714050293,0.640248715877533,-0.13254553079605103
1791041431696233500,8.1882333984375,-1.461169958114624,0.4723465144634247,-0.13766226172447205
1791041431706262500,8.198262451171875,-1.2963440418243408,0.35001739859580994,-0.12890471518039703
1791041431716292600,8.208292724609375,-1.1196390390396118,0.2578864097595215,-0.11094728857278824
1791041431726321700,8.21832177734375,-0.9445680975914001,0.14244689047336578,-0.09263326227664948
1791041431736351700,8.228351806640624,-0.7387033700942993,0.012746421620249748,-0.07582206279039383
1791041431746380500,8.238380615234375,-0.5366584062576294,-0.09796464443206787,-0.00407463638111949
1791041431756409600,8.24840966796875,-0.3742167353630066,-0.20589084923267365,0.09388548135757446
1791041431766439700,8.258439697265626,-0.24714668095111847,-0.3289605677127838,0.09847677499055862
1791041431776468500,8.268468505859374,-0.10675308108329773,-0.5181403756141663,0.06427831947803497
1791041431786498600,8.27849853515625,0.04350859671831131,-0.6348288655281067,0.0523497574031353
1791041431796527600,8.288527587890625,0.20761869847774506,-0.7201040983200073,0.06941769272089005
1791041431806557700,8.2985576171875,0.3657814562320709,-0.8288947939872742,0.11775832623243332
1791041431816586800,8.308586669921874,0.4687637388706207,-0.9594048261642456,0.16824066638946533
1791041431826616600,8.318616455078125,0.5113165378570557,-1.0714623928070068,0.24444729089736938
1791041431836645600,8.328645751953125,0.49765610694885254,-1.0924752950668335,0.3747573494911194
1791041431846675700,8.33867578125,0.44987475872039795,-1.0339463949203491,0.51883864402771
1791041431856704800,8.348704833984375,0.4608150124549866,-0.9316174387931824,0.6160869002342224
1791041431866734800,8.35873486328125,0.5062754154205322,-0.8425767421722412,0.6561828851699829
1791041431876763600,8.368763671875,0.5301152467727661,-0.7832980155944824,0.6484885215759277
1791041431886793700,8.378793701171874,0.540282666683197,-0.7166779637336731,0.6024307608604431
1791041431896822800,8.38882275390625,0.5216695666313171,-0.6280724406242371,0.5528477430343628
1791041431906852600,8.3988525390625,0.5040397047996521,-0.4565286636352539,0.5078219175338745
1791041431916881700,8.408881591796876,0.5223857164382935,-0.228447824716568,0.465412437915802
1791041431926911500,8.418911376953124,0.589887261390686,-0.027599936351180077,0.45963549613952637
1791041431936940500,8.4289404296875,0.6817657947540283,0.11830028146505356,0.5211212038993835
1791041431946970600,8.438970703125,0.7618968486785889,0.23712040483951569,0.6178863644599915
1791041431956999400,8.44899951171875,0.8345313668251038,0.31526419520378113,0.7118690609931946
1791041431967029500,8.459029541015624,0.8947446346282959,0.30467548966407776,0.7807728052139282
1791041431977058600,8.46905859375,0.9504417181015015,0.17849065363407135,0.8344290852546692
1791041431987088600,8.479088623046875,1.0034034252166748,-0.03356994315981865,0.9021633863449097
1791041431997117400,8.489117431640626,1.0589196681976318,-0.2534216046333313,0.9518004655838013
1791041432007147500,8.4991474609375,1.0970263481140137,-0.47459208965301514,0.9835458397865295
1791041432017176600,8.509176513671875,1.1615617275238037,-0.6068760752677917,0.9536276459693909
1791041432027206700,8.51920654296875,1.2209274768829346,-0.6983583569526672,0.9192669987678528
1791041432037235700,8.529235595703126,1.293148159980774,-0.7229350209236145,0.9110748767852783
1791041432047265500,8.539265625,1.37262761592865,-0.7186079621315002,0.9253726005554199
1791041432057294600,8.549294677734375,1.43421471118927,-0.7100077867507935,0.9465867877006531
1791041432067324700,8.55932470703125,1.4769760370254517,-0.7125273942947388,0.9756706357002258
1791041432077353700,8.569353759765624,1.4951950311660767,-0.7167101502418518,1.0030399560928345
1791041432087383600,8.579383544921875,1.5058575868606567,-0.6541118025779724,0.9969719052314758
1791041432097412600,8.58941259765625,1.4808461666107178,-0.5835715532302856,0.9781460165977478
1791041432107442700,8.599442626953126,1.452423334121704,-0.5779842734336853,0.9816624522209167
1791041432117471700,8.6094716796875,1.4530848264694214,-0.6156229972839355,0.9964216947555542
1791041432127501800,8.619501708984375,1.45967435836792,-0.6518363952636719,0.9890974760055542
1791041432137530600,8.629530517578125,1.4550846815109253,-0.6881411075592041,0.9199458360671997
1791041432147560700,8.639560791015626,1.4401421546936035,-0.6418756246566772,0.7945269346237183
1791041432157589800,8.64958984375,1.436282753944397,-0.5120816826820374,0.7020907402038574
1791041432167619600,8.65961962890625,1.4668248891830444,-0.2959331274032593,0.6807391047477722
1791041432177648600,8.669648681640625,1.5377731323242188,-0.04333522170782089,0.7218838930130005
1791041432187678500,8.679678466796876,1.6356000900268555,0.16709817945957184,0.7979602813720703
1791041432197707800,8.689707763671874,1.7009636163711548,0.18756084144115448,0.8569746017456055
1791041432207737600,8.699737548828125,1.7476317882537842,0.07629504054784775,0.8212230205535889
1791041432217766400,8.709766357421875,1.7437853813171387,-0.1041325256228447,0.6918621063232422
1791041432227796500,8.71979638671875,1.6812546253204346,-0.23680002987384796,0.5697721242904663
1791041432237825500,8.729825439453125,1.6047998666763306,-0.27567258477211,0.5025140047073364
1791041432247855600,8.739855712890625,1.5638837814331055,-0.2047339677810669,0.48427054286003113
1791041432257884700,8.749884765625,1.4747095108032227,-0.18296582996845245,0.531693160533905
1791041432267914500,8.75991455078125,1.4777510166168213,-0.018324412405490875,0.4896533191204071
1791041432277943600,8.769943603515625,1.437868356704712,0.07654856890439987,0.4092940390110016
1791041432287973600,8.7799736328125,1.3535689115524292,0.04428756982088089,0.30491170287132263
1791041432298002700,8.790002685546876,1.3398810625076294,0.0709277018904686,0.09017010778188705
1791041432308032500,8.800032470703124,1.2781058549880981,-0.008037153631448746,-0.13668221235275269
1791041432318061600,8.8100615234375,1.2141833305358887,0.06603574007749557,-0.325914204120636
1791041432328091600,8.820091552734375,1.145707368850708,0.22650450468063354,-0.43028613924980164
1791041432338120700,8.83012060546875,1.0135431289672852,0.26263508200645447,-0.44788190722465515
1791041432348150500,8.840150634765624,0.8803036212921143,0.23639017343521118,-0.4965314567089081
1791041432358179600,8.8501796875,0.7262762188911438,0.01859578862786293,-0.5643211603164673
1791041432368209400,8.86020947265625,0.6224923133850098,-0.1207842081785202,-0.648468017578125
1791041432378238500,8.870238525390626,0.5169472694396973,-0.12617550790309906,-0.6902380585670471
1791041432388268500,8.8802685546875,0.3868798017501831,-0.0836043506860733,-0.6839370727539062
1791041432398297600,8.890297607421875,0.23754464089870453,-0.11739932745695114,-0.7123660445213318
1791041432408327400,8.900327392578125,0.0889919251203537,-0.1073184683918953,-0.7644596099853516
1791041432418356500,8.9103564453125,-0.045336589217185974,0.02865135297179222,-0.7823733687400818
1791041432428386600,8.920386474609375,-0.175062358379364,0.172280415892601,-0.73760986328125
1791041432438415600,8.93041552734375,-0.28502801060676575,0.2200559377670288,-0.6637332439422607
1791041432448445400,8.940445556640626,-0.38699671626091003,0.23012694716453552,-0.6397134065628052
1791041432458474500,8.950474609375,-0.5031928420066833,0.2632273733615875,-0.6527079939842224
1791041432468504300,8.96050439453125,-0.6311081647872925,0.3223503530025482,-0.6877232789993286
1791041432478533600,8.97053369140625,-0.7829390168190002,0.3845045268535614,-0.726922333240509
1791041432488562400,8.9805625,-0.9456482529640198,0.45998305082321167,-0.7653347253799438
1791041432498592300,8.99059228515625,-1.1076388359069824,0.5411849617958069,-0.8238017559051514
1791041432508622300,9.000622314453125,-1.2643333673477173,0.6373514533042908,-0.9090567231178284
1791041432518651400,9.0106513671875,-1.428220272064209,0.7977376580238342,-1.0245590209960938
1791041432528681500,9.020681396484376,-1.5913066864013672,0.9518465399742126,-1.1416854858398438
1791041432538710300,9.030710205078124,-1.7537105083465576,1.0411479473114014,-1.2400343418121338
1791041432548739300,9.0407392578125,-1.8961453437805176,1.0419199466705322,-1.3313498497009277
1791041432558769400,9.050769287109375,-2.013094902038574,1.0408722162246704,-1.4012056589126587
1791041432568799500,9.060799560546876,-2.1110780239105225,1.0606238842010498,-1.4306522607803345
1791041432578828500,9.07082861328125,-2.1722443103790283,0.9948938488960266,-1.4474616050720215
1791041432588858400,9.0808583984375,-2.205158233642578,0.8106566667556763,-1.4772381782531738
1791041432598887400,9.090887451171875,-2.22019100189209,0.596023678779602,-1.524010419845581
1791041432608917500,9.10091748046875,-2.229203701019287,0.44599080085754395,-1.5685265064239502
1791041432618946600,9.110946533203125,-2.230402946472168,0.3595869243144989,-1.597909688949585
1791041432628976400,9.120976318359375,-2.1950390338897705,0.2388136386871338,-1.5977100133895874
1791041432639005400,9.13100537109375,-2.1213531494140625,0.033132653683423996,-1.5748496055603027
1791041432649035500,9.141035400390624,-2.0286624431610107,-0.1415744423866272,-1.533037543296814
1791041432659064600,9.151064697265625,-1.9269949197769165,-0.1996297538280487,-1.4814131259918213
1791041432669094700,9.1610947265625,-1.8435280323028564,-0.09628019481897354,-1.4430713653564453
1791041432679123500,9.17112353515625,-1.7740991115570068,0.06943313777446747,-1.3882933855056763
1791041432689153500,9.181153564453124,-1.7041155099868774,0.12080684304237366,-1.3021832704544067
1791041432699182600,9.1911826171875,-1.6327095031738281,-0.00373082235455513,-1.2106053829193115
1791041432709212400,9.20121240234375,-1.5810569524765015,-0.14200986921787262,-1.1544324159622192
1791041432719241500,9.211241455078126,-1.5561244487762451,-0.15190936625003815,-1.1332956552505493
1791041432729271300,9.221271240234374,-1.5494263172149658,-0.07159615308046341,-1.1039141416549683
1791041432739300600,9.231300537109375,-1.490090250968933,0.03527010604739189,-1.0309197902679443
1791041432749330400,9.241330322265625,-1.3397088050842285,0.12241192907094955,-0.9098114371299744
1791041432759359200,9.251359130859376,-1.1988786458969116,0.1519722193479538,-0.7659555077552795
1791041432769389300,9.261389404296875,-1.0439668893814087,0.16256627440452576,-0.617168128490448
1791041432779418400,9.27141845703125,-0.9078258275985718,0.12870657444000244,-0.48313817381858826
1791041432789448400,9.281448486328125,-0.7967695593833923,0.07225262373685837,-0.3227463662624359
1791041432799477500,9.2914775390625,-0.6743028163909912,-0.009631588123738766,-0.17105749249458313
1791041432809507300,9.30150732421875,-0.5490726828575134,-0.08137128502130508,-0.054497864097356796
1791041432819536400,9.311536376953125,-0.41465550661087036,-0.11702435463666916,0.011372762732207775
1791041432829566500,9.32156640625,-0.2613874077796936,-0.13447871804237366,0.067311130464077
1791041432839595500,9.331595458984374,-0.07520180940628052,-0.10822314023971558,0.16654343903064728
1791041432849625300,9.341625244140625,0.12507721781730652,-0.02857731655240059,0.29014527797698975
1791041432859654400,9.351654296875,0.3135499358177185,0.035467714071273804,0.40645402669906616
1791041432869684500,9.3616845703125,0.48928579688072205,0.046296127140522,0.4972470700740814
1791041432879713500,9.371713623046874,0.6358054876327515,0.009691775776445866,0.5931661128997803
1791041432889743600,9.38174365234375,0.7500702738761902,-0.05302007496356964,0.7018135190010071
1791041432899772400,9.3917724609375,0.8184298872947693,-0.1299380213022232,0.8104355931282043
1791041432909802500,9.401802490234376,0.8442577719688416,-0.18006697297096252,0.8887511491775513
1791041432919831600,9.41183154296875,0.8360349535942078,-0.19513113796710968,0.9162637591362
1791041432929861600,9.421861572265625,0.8070129156112671,-0.16681215167045593,0.9001561403274536
1791041432939890400,9.431890380859375,0.7846399545669556,-0.08926569670438766,0.8563581109046936
1791041432949920500,9.44192041015625,0.7866325378417969,0.04230005294084549,0.7945349216461182
1791041432959949600,9.451949462890624,0.8058549761772156,0.20700643956661224,0.7239811420440674
1791041432969979600,9.461979736328125,0.8333350419998169,0.38712775707244873,0.653922975063324
1791041432980008400,9.472008544921875,0.8688485622406006,0.5794026255607605,0.5982099175453186
1791041432990038300,9.482038330078124,0.9196997880935669,0.7538370490074158,0.5656484961509705
1791041433000068400,9.492068359375,0.9917188286781311,0.8651918172836304,0.5671805739402771
1791041433010097400,9.502097412109375,1.0796178579330444,0.9266029596328735,0.6023654937744141
1791041433020127500,9.51212744140625,1.1807057857513428,0.9498936533927917,0.6438120007514954
1791041433030156300,9.52215625,1.2954473495483398,0.9034616947174072,0.694349467754364
1791041433040186400,9.532186279296875,1.4184869527816772,0.7914286255836487,0.7555909752845764
1791041433050215400,9.54221533203125,1.5624147653579712,0.6529237627983093,0.8221734762191772
1791041433060245500,9.55224560546875,1.6937651634216309,0.49273937940597534,0.8918002247810364
1791041433070274300,9.5622744140625,1.80338454246521,0.3661113977432251,0.9442136287689209
1791041433080304400,9.572304443359375,1.9181205034255981,0.2861553132534027,0.9768991470336914
1791041433090333400,9.58233349609375,1.96768319606781,0.17792579531669617,1.0321946144104004
1791041433100363500,9.592363525390626,2.009190082550049,0.09268466383218765,1.0546786785125732
1791041433110392600,9.602392578125,1.9585427045822144,-0.023787088692188263,1.0319805145263672
1791041433120422400,9.61242236328125,1.8853776454925537,-0.11711090803146362,0.9435358643531799
1791041433130451500,9.622451416015625,1.8371046781539917,-0.17685626447200775,0.8286702632904053
1791041433140481500,9.6324814453125,1.801794409751892,-0.21452587842941284,0.7610251903533936
1791041433150510600,9.642510498046875,1.7639682292938232,-0.25504347681999207,0.7530559301376343
1791041433160540400,9.65254052734375,1.7127819061279297,-0.3020687699317932,0.788560688495636
1791041433170569500,9.662569580078125,1.6414382457733154,-0.3773891031742096,0.838928759098053
1791041433180599600,9.672599609375,1.5863685607910156,-0.4654009938240051,0.8735945820808411
1791041433190628600,9.682628662109375,1.5499112606048584,-0.5319405794143677,0.8964114785194397
1791041433200658400,9.692658447265625,1.5294870138168335,-0.5505784749984741,0.9259555339813232
1791041433210688300,9.702688232421876,1.526566743850708,-0.5288524031639099,0.9734074473381042
1791041433220717300,9.71271728515625,1.535604476928711,-0.48408758640289307,1.0286153554916382
1791041433230747400,9.722747314453125,1.5189685821533203,-0.4780629873275757,1.0814335346221924
1791041433240776400,9.7327763671875,1.49448561668396,-0.5413125157356262,1.1212233304977417
1791041433250806500,9.742806640625,1.4790022373199463,-0.6277132034301758,1.094530701637268
1791041433260835300,9.75283544921875,1.384742259979248,-0.7857028245925903,1.0678095817565918
1791041433270865400,9.762865478515625,1.2883979082107544,-0.8654727339744568,1.027577519416809
1791041433280894500,9.77289453125,1.2253656387329102,-0.7778816223144531,0.9205389618873596
1791041433290924500,9.782924560546874,1.1508415937423706,-0.6463635563850403,0.7930366396903992
1791041433300953300,9.792953369140625,1.0807472467422485,-0.43923622369766235,0.663275957107544
1791041433310983400,9.8029833984375,1.0101300477981567,-0.23453447222709656,0.5668730139732361
1791041433321012500,9.813012451171875,0.8884782195091248,-0.18733127415180206,0.5014638900756836
1791041433331042600,9.82304248046875,0.7227888107299805,-0.23559974133968353,0.39535796642303467
1791041433341070800,9.83307080078125,0.5640290379524231,-0.21067973971366882,0.2438073307275772
1791041433351101000,9.843100830078125,0.44137048721313477,-0.09942778944969177,0.06575451046228409
1791041433361130000,9.8531298828125,0.3295893371105194,0.08552449196577072,-0.009415339678525925
1791041433371160000,9.86316015625,0.20492304861545563,0.2827630043029785,0.003144926857203245
1791041433381188900,9.87318896484375,0.04167793691158295,0.3292141258716583,0.04476161301136017
1791041433391219000,9.883218994140625,-0.1737603396177292,0.23444072902202606,0.036195822060108185
1791041433401249000,9.8932490234375,-0.3945893943309784,0.11964011192321777,-0.058507516980171204
1791041433411278000,9.903278076171874,-0.6040315628051758,0.13753736019134521,-0.1544492244720459
1791041433421308200,9.91330810546875,-0.7987046241760254,0.2920060157775879,-0.19723743200302124
1791041433431337000,9.9233369140625,-0.9973109364509583,0.5159411430358887,-0.22180989384651184
1791041433441366800,9.93336669921875,-1.2182832956314087,0.6565533876419067,-0.2701342701911926
1791041433451396000,9.94339599609375,-1.442622423171997,0.694575846195221,-0.3561610281467438
1791041433461426000,9.953426025390625,-1.6243962049484253,0.6892822980880737,-0.436351478099823
1791041433471455000,9.963455078125,-1.7389065027236938,0.6978874802589417,-0.4873611330986023
1791041433481484800,9.97348486328125,-1.8040639162063599,0.6898037195205688,-0.5498721599578857
1791041433491513900,9.983513916015625,-1.8433130979537964,0.6404334902763367,-0.6370201110839844
1791041433501544000,9.9935439453125,-1.8616379499435425,0.6091472506523132,-0.7380969524383545
1791041433511573000,10.003572998046875,-1.8805222511291504,0.562167227268219,-0.8291370868682861
1791041433521602800,10.013602783203124,-1.8960551023483276,0.4996984899044037,-0.9030209183692932
1791041433531631900,10.0236318359375,-1.887657880783081,0.4121745228767395,-0.9824033379554749
1791041433541662000,10.033661865234375,-1.889135718345642,0.3034442961215973,-1.0681976079940796
1791041433551691000,10.04369091796875,-1.9260878562927246,0.2323533445596695,-1.173671841621399
1791041433561720800,10.053720947265624,-2.0076680183410645,0.21508966386318207,-1.284170389175415
1791041433571751000,10.0637509765625,-2.11961030960083,0.22422350943088531,-1.385837435722351
1791041433581780000,10.073780029296875,-2.2336559295654297,0.20938092470169067,-1.4836456775665283
1791041433591810000,10.08381005859375,-2.3210525512695312,0.1871507167816162,-1.5670047998428345
1791041433601839000,10.093839111328125,-2.3692729473114014,0.22288154065608978,-1.6146572828292847
1791041433611869000,10.103868896484375,-2.3726806640625,0.248079314827919,-1.6280601024627686
1791041433621898000,10.11389794921875,-2.3219408988952637,0.1807122528553009,-1.6250391006469727
1791041433631928000,10.123927978515624,-2.208466053009033,0.038711175322532654,-1.5851722955703735
1791041433641957000,10.13395703125,-2.076322078704834,-0.07331975549459457,-1.523626446723938
1791041433651987200,10.1439873046875,-1.9773396253585815,-0.07758720219135284,-1.4455180168151855
1791041433662016000,10.15401611328125,-1.8902376890182495,-0.05266720429062843,-1.3476213216781616
1791041433672045800,10.1640458984375,-1.8150217533111572,-0.07427316904067993,-1.2450746297836304
1791041433682075100,10.1740751953125,-1.7189126014709473,-0.1636059731245041,-1.1279683113098145
1791041433692105000,10.18410498046875,-1.6143888235092163,-0.2430131882429123,-1.0220119953155518
1791041433702134000,10.194134033203126,-1.5138933658599854,-0.30371275544166565,-0.9330675005912781
1791041433712163800,10.204163818359374,-1.3624387979507446,-0.38117265701293945,-0.8289349675178528
1791041433722194000,10.21419384765625,-1.2541693449020386,-0.42417603731155396,-0.7086887359619141
1791041433732223000,10.224222900390625,-1.093854308128357,-0.4345884621143341,-0.5748550295829773
1791041433742253000,10.234253173828124,-0.9577616453170776,-0.39089080691337585,-0.44375455379486084
1791041433752281900,10.24428173828125,-0.8588947653770447,-0.3792514503002167,-0.3141382336616516
1791041433762312000,10.25431201171875,-0.7557281255722046,-0.38010260462760925,-0.18231014907360077
1791041433772341000,10.264341064453125,-0.641672670841217,-0.2855912744998932,-0.09211821109056473
1791041433782371000,10.27437109375,-0.51644366979599,-0.18410725891590118,-0.027122696861624718
1791041433792400000,10.28439990234375,-0.37905678153038025,-0.12942509353160858,0.08152229338884354
1791041433802430000,10.294429931640625,-0.22584351897239685,-0.08659560978412628,0.2165413647890091
1791041433812459000,10.304458984375,-0.06780807673931122,-0.04525349661707878,0.3276849389076233
1791041433822489000,10.314489013671874,0.07228245586156845,-0.039195071905851364,0.40872812271118164
1791041433832518000,10.324517822265625,0.22008016705513,-0.0601046159863472,0.4737318754196167
1791041433842548000,10.3345478515625,0.34859395027160645,-0.10040196776390076,0.5489944219589233
1791041433852578000,10.344578125,0.45257413387298584,-0.15405215322971344,0.6397078037261963
1791041433862607000,10.354607177734374,0.5650287866592407,-0.21040304005146027,0.7357099652290344
1791041433872637000,10.364636962890625,0.6604546308517456,-0.2793075442314148,0.8397871255874634
1791041433882666000,10.374666015625,0.7277029156684875,-0.30631253123283386,0.9340097308158875
1791041433892695800,10.38469580078125,0.7733657360076904,-0.2681150734424591,1.0003082752227783
1791041433902724900,10.394724853515624,0.7835943698883057,-0.18917764723300934,1.0411702394485474
1791041433912755000,10.4047548828125,0.7841185331344604,-0.07042036950588226,1.0512341260910034
1791041433922783700,10.41478369140625,0.785502552986145,0.06902381032705307,1.041412591934204
1791041433932813800,10.424813720703124,0.7916757464408875,0.18561141192913055,1.0064115524291992
1791041433942843000,10.4348427734375,0.8045744895935059,0.2985432744026184,0.9579702019691467
1791041433952873000,10.444873046875,0.8221593499183655,0.43369099497795105,0.8972679376602173
1791041433962902000,10.454902099609376,0.86112380027771,0.5745783448219299,0.8400334119796753
1791041433972931800,10.464931884765624,0.9406929612159729,0.67491215467453,0.8159390091896057
1791041433982961000,10.4749609375,1.0753629207611084,0.6914748549461365,0.8179997801780701
1791041433992991000,10.484990966796875,1.2458105087280273,0.6617635488510132,0.8385860323905945
1791041434003021000,10.49502099609375,1.4148328304290771,0.590709388256073,0.8582103252410889
1791041434013049900,10.5050498046875,1.569746494293213,0.49092283844947815,0.8808956742286682
1791041434023080000,10.515079833984375,1.7039275169372559,0.31901368498802185,0.9266873598098755
1791041434033109000,10.52510888671875,1.8317879438400269,0.15085528790950775,0.9776424169540405
1791041434043139000,10.53513916015625,1.9282673597335815,0.043289948254823685,1.0101122856140137
1791041434053168000,10.545168212890625,1.9553018808364868,-0.06554704904556274,1.0382615327835083
1791041434063198000,10.555197998046875,1.9681572914123535,-0.16533063352108002,1.0375020503997803
1791041434073227000,10.56522705078125,1.9640387296676636,-0.26563432812690735,1.030342936515808
1791041434083256800,10.5752568359375,1.941693663597107,-0.34207451343536377,1.0286574363708496
1791041434093286100,10.5852861328125,1.9120668172836304,-0.35245418548583984,1.0063707828521729
1791041434103316000,10.59531591796875,1.908734679222107,-0.3350490927696228,0.941890299320221
1791041434113345000,10.605344970703126,1.9546257257461548,-0.3252904713153839,0.8405671119689941
1791041434123374800,10.615374755859374,2.0122017860412598,-0.38764333724975586,0.7412592172622681
1791041434133404000,10.62540380859375,2.025700330734253,-0.49908995628356934,0.6731405854225159
1791041434143434000,10.63543408203125,2.0012404918670654,-0.5798921585083008,0.6576745510101318
1791041434153463800,10.6454638671875,1.9072613716125488,-0.6473351120948792,0.7110365629196167
1791041434163492900,10.655492919921874,1.796047329902649,-0.6562595963478088,0.7856298685073853
1791041434173523000,10.66552294921875,1.7003511190414429,-0.6399128437042236,0.832426130771637
1791041434183552000,10.675552001953125,1.6060749292373657,-0.664989173412323,0.8263115286827087
1791041434193582000,10.68558203125,1.5368807315826416,-0.6967340707778931,0.8005094528198242
1791041434203611000,10.69561083984375,1.5074464082717896,-0.7183701395988464,0.7690181136131287
1791041434213641000,10.705640869140625,1.4502294063568115,-0.7904592156410217,0.757861852645874
1791041434223670000,10.715669921875,1.3607202768325806,-0.9153252840042114,0.7229752540588379
1791041434233700000,10.7257001953125,1.2603747844696045,-1.0302656888961792,0.6713014245033264
1791041434243729000,10.73572900390625,1.1281168460845947,-1.0539933443069458,0.6221242547035217
1791041434253759000,10.745759033203125,1.0297367572784424,-0.8377377986907959,0.5443397164344788
1791041434263788000,10.7557880859375,0.9930927753448486,-0.49891871213912964,0.40106192231178284
1791041434273818000,10.765818115234374,0.8924476504325867,-0.3038451075553894,0.22978632152080536
1791041434283847000,10.775846923828125,0.7893415093421936,-0.0182261411100626,0.018214423209428787
1791041434293877000,10.785876953125,0.6263789534568787,0.2190101146697998,-0.150966614484787
1791041434303906800,10.79590673828125,0.4626097083091736,0.3991074562072754,-0.24531547725200653
1791041434313936000,10.805935791015624,0.31536728143692017,0.4346502423286438,-0.2960391044616699
1791041434323966000,10.815966064453125,0.2060389220714569,0.4399038851261139,-0.33814847469329834
1791041434333994800,10.825994873046875,0.08592262864112854,0.4261060357093811,-0.3297017514705658
1791041434344025300,10.836025390625,-0.06783630698919296,0.3461536765098572,-0.3351529538631439
1791041434354054400,10.846054443359375,-0.21889212727546692,0.23970367014408112,-0.3997114598751068
1791041434364084500,10.85608447265625,-0.36154061555862427,0.19215239584445953,-0.49615997076034546
1791041434374113500,10.866113525390626,-0.5121575593948364,0.19758524000644684,-0.5818876624107361
1791041434384143400,10.876143310546874,-0.679404079914093,0.2535635530948639,-0.6233421564102173
1791041434394172400,10.88617236328125,-0.8411458134651184,0.33314093947410583,-0.6346797347068787
1791041434404202500,10.896202392578125,-0.9899702072143555,0.42402851581573486,-0.6381445527076721
1791041434414231600,10.9062314453125,-1.1364821195602417,0.5345446467399597,-0.6439118385314941
1791041434424261600,10.91626171875,-1.2789442539215088,0.5957656502723694,-0.6851146817207336
1791041434434291500,10.92629150390625,-1.4240851402282715,0.6358190774917603,-0.7760112881660461
1791041434444320500,10.936320556640625,-1.5581021308898926,0.682767927646637,-0.8974480032920837
1791041434454350600,10.9463505859375,-1.6786391735076904,0.757705569267273,-1.0255193710327148
1791041434464379600,10.956379638671875,-1.7954806089401245,0.8820493221282959,-1.131983757019043
1791041434474409200,10.9664091796875,-1.8868354558944702,0.993510901927948,-1.2174901962280273
1791041434484438500,10.9764384765625,-1.9651286602020264,1.0374034643173218,-1.297232985496521
1791041434494468400,10.98646826171875,-2.0393130779266357,1.0453826189041138,-1.372491717338562
1791041434504497400,10.996497314453125,-2.1168313026428223,1.0535856485366821,-1.4331846237182617
1791041434514527500,11.006527587890625,-2.1951775550842285,1.0153858661651611,-1.4817543029785156
1791041434524556300,11.016556396484376,-2.2740626335144043,0.9151210188865662,-1.5273483991622925
1791041434534586400,11.02658642578125,-2.331906795501709,0.7995741367340088,-1.5588264465332031
1791041434544615400,11.036615478515625,-2.3431355953216553,0.6860973834991455,-1.567705750465393
1791041434554645500,11.0466455078125,-2.3137638568878174,0.5947877168655396,-1.5482494831085205
1791041434564675600,11.056675537109374,-2.2773683071136475,0.5078563094139099,-1.5002038478851318
1791041434574704400,11.066704345703124,-2.249668836593628,0.38046079874038696,-1.458644986152649
1791041434584734500,11.076734375,-2.230336904525757,0.2553361654281616,-1.4393445253372192
1791041434594763500,11.086763427734375,-2.193679094314575,0.17855030298233032,-1.4212642908096313
1791041434604793600,11.096793701171874,-2.114588737487793,0.11979031562805176,-1.3716036081314087
1791041434614822400,11.106822509765625,-2.0032060146331787,0.029512617737054825,-1.2605804204940796
1791041434624852500,11.1168525390625,-1.8732779026031494,-0.10823459178209305,-1.1035606861114502
1791041434634881500,11.126881591796876,-1.756013035774231,-0.2581050395965576,-0.9487788081169128
1791041434644911600,11.13691162109375,-1.645339846611023,-0.3705921769142151,-0.8284023404121399
1791041434654940400,11.1469404296875,-1.568163275718689,-0.5076858401298523,-0.7308435440063477
1791041434664970500,11.156970458984375,-1.4679216146469116,-0.38702839612960815,-0.6656515002250671
1791041434674999600,11.16699951171875,-1.3610148429870605,-0.2785797119140625,-0.6220763325691223
1791041434685029600,11.177029541015624,-1.2890045642852783,-0.1998175084590912,-0.5415855050086975
1791041434695059500,11.1870595703125,-1.1175638437271118,-0.10339563339948654,-0.4107356071472168
1791041434705088300,11.197088134765625,-0.9257534146308899,-0.03448740392923355,-0.23434458673000336
1791041434715118300,11.207118408203126,-0.7694900035858154,0.023449400439858437,-0.054173488169908524
1791041434725147400,11.2171474609375,-0.62247633934021,0.08023518323898315,0.10018785297870636
1791041434735177500,11.227177490234375,-0.4650616943836212,0.113832026720047,0.23785996437072754
1791041434745206300,11.237206298828125,-0.3095051348209381,0.11238566040992737,0.35886016488075256
1791041434755236400,11.247236328125,-0.1598312109708786,0.07141825556755066,0.46097108721733093
1791041434765265400,11.257265380859375,-0.017188573256134987,0.035282623022794724,0.5398443341255188
1791041434775295500,11.26729541015625,0.12432914227247238,-0.016756342723965645,0.6009646654129028
1791041434785324500,11.277324462890626,0.2598739266395569,-0.07430379092693329,0.6686385273933411
1791041434795354400,11.287354248046874,0.3904596269130707,-0.12042601406574249,0.7553531527519226
1791041434805383400,11.297383544921875,0.5087831020355225,-0.16753360629081726,0.8612473607063293
1791041434815413500,11.30741357421875,0.615448534488678,-0.2113199681043625,0.9533791542053223
1791041434825443600,11.317443603515626,0.7052708268165588,-0.255119651556015,1.016221523284912
1791041434835472400,11.327472412109374,0.7661488056182861,-0.27626141905784607,1.0539894104003906
1791041434845502500,11.33750244140625,0.79954594373703,-0.2860008478164673,1.0848232507705688
1791041434855531500,11.347531494140625,0.8183172345161438,-0.28082555532455444,1.0999739170074463
1791041434865561600,11.3575615234375,0.8323105573654175,-0.24551761150360107,1.0947564840316772
1791041434875590700,11.367590576171875,0.8453030586242676,-0.17230865359306335,1.0588901042938232
1791041434885620500,11.377620361328125,0.8760836124420166,-0.04814888536930084,0.9958634972572327
1791041434895649500,11.3876494140625,0.9158840179443359,0.08214414119720459,0.9292663931846619
1791041434905679400,11.397679443359374,0.9665985703468323,0.1870945245027542,0.896671712398529
1791041434915708400,11.40770849609375,1.0185682773590088,0.2825307548046112,0.9012203812599182
1791041434925738500,11.417738525390625,1.0710214376449585,0.38036972284317017,0.9334589838981628
1791041434935768300,11.427768310546876,1.1365153789520264,0.43957898020744324,0.9760589003562927
1791041434945797400,11.43779736328125,1.2192851305007935,0.4421156346797943,1.0286222696304321
1791041434955827500,11.447827392578125,1.3051015138626099,0.415171355009079,1.0823036432266235
1791041434965856500,11.4578564453125,1.4011948108673096,0.3665122091770172,1.114424467086792
1791041434975886300,11.46788623046875,1.48740553855896,0.3146956264972687,1.1299365758895874
1791041434985915400,11.477915283203124,1.5809259414672852,0.28591856360435486,1.1252886056900024
1791041434995945500,11.487945556640625,1.6587355136871338,0.30154839158058167,1.1273592710494995
1791041435005974500,11.497974609375,1.723450779914856,0.29539915919303894,1.1448599100112915
1791041435016004600,11.508004638671874,1.7591006755828857,0.25693005323410034,1.1604753732681274
1791041435026033400,11.518033447265625,1.7756874561309814,0.1282586306333542,1.1690646409988403
1791041435036063500,11.5280634765625,1.780134916305542,-0.023088807240128517,1.151600956916809
1791041435046092500,11.538092529296875,1.7806355953216553,-0.16872510313987732,1.119286060333252
1791041435056122600,11.54812255859375,1.7854220867156982,-0.27063921093940735,1.0815680027008057
1791041435066152400,11.55815234375,1.8320822715759277,-0.31073683500289917,1.0360394716262817
1791041435076181500,11.568181396484375,1.8491626977920532,-0.3767171800136566,1.0110033750534058
1791041435086211300,11.57821142578125,1.8743716478347778,-0.44766274094581604,0.9913797974586487
1791041435096240600,11.58824072265625,1.8957130908966064,-0.5315597653388977,0.9658576846122742
1791041435106270500,11.5982705078125,1.9122343063354492,-0.6188709735870361,0.9173282384872437
1791041435116299300,11.60829931640625,1.85896635055542,-0.7031278014183044,0.8740159273147583
1791041435126329300,11.618329345703126,1.7711658477783203,-0.6882585287094116,0.8350277543067932
1791041435136358400,11.6283583984375,1.6927133798599243,-0.6271656155586243,0.8034170866012573
1791041435146388500,11.638388427734375,1.6089972257614136,-0.6038246154785156,0.7593069076538086
1791041435156417300,11.648417236328125,1.4953750371932983,-0.6679847240447998,0.7090248465538025
1791041435166447400,11.658447265625,1.4435944557189941,-0.647351861000061,0.5915431976318359
1791041435176476400,11.668476318359374,1.3430851697921753,-0.6435784101486206,0.47961321473121643
1791041435186506500,11.678506591796875,1.3190172910690308,-0.4582194983959198,0.31679633259773254
1791041435196536600,11.68853662109375,1.2683613300323486,-0.3077322542667389,0.15017113089561462
1791041435206565400,11.6985654296875,1.1819792985916138,-0.23193763196468353,-0.02539696916937828
1791041435216595500,11.708595458984375,0.9981269240379333,-0.20250757038593292,-0.15017539262771606
1791041435226624500,11.71862451171875,0.7383456826210022,-0.2324976921081543,-0.18727588653564453
1791041435236654600,11.728654541015626,0.4809567630290985,-0.2881271243095398,-0.2488015592098236
1791041435246683400,11.738683349609374,0.2829166650772095,-0.36930373311042786,-0.3714750111103058
1791041435256713500,11.74871337890625,0.1728133261203766,-0.32286006212234497,-0.4983767867088318
1791041435266742500,11.758742431640625,0.09039274603128433,-0.174091637134552,-0.558215320110321
1791041435276772600,11.768772705078124,-0.003614175831899047,-0.014002900570631027,-0.5843989849090576
1791041435286801700,11.7788017578125,-0.1253291517496109,0.14710156619548798,-0.6047921776771545
1791041435296831500,11.78883154296875,-0.2463301420211792,0.25752848386764526,-0.6446045637130737
1791041435306861300,11.798861328125,-0.37511128187179565,0.361664742231369,-0.7338449358940125
1791041435316890400,11.808890380859374,-0.5367196202278137,0.46760502457618713,-0.8354155421257019
1791041435326920400,11.81892041015625,-0.7186036705970764,0.5554741621017456,-0.8891962170600891
1791041435336949200,11.82894921875,-0.8901194930076599,0.6131052374839783,-0.905648410320282
1791041435346978300,11.838978271484375,-1.042617678642273,0.6682459712028503,-0.907514750957489
1791041435357007600,11.849007568359376,-1.1719474792480469,0.7176800966262817,-0.9147372245788574
1791041435367037400,11.859037353515625,-1.276923418045044,0.7517789602279663,-0.9294392466545105
1791041435377066500,11.86906640625,-1.3755130767822266,0.7615602016448975,-0.9510776400566101
1791041435387096300,11.879096435546876,-1.4746482372283936,0.7467333078384399,-0.9790871739387512
1791041435397125400,11.88912548828125,-1.581539273262024,0.7198580503463745,-1.021162509918213
1791041435407155500,11.899155517578125,-1.7107696533203125,0.705788791179657,-1.0637671947479248
1791041435417184500,11.9091845703125,-1.8532527685165405,0.6998675465583801,-1.0959302186965942
1791041435427214300,11.91921435546875,-2.0003740787506104,0.6834651231765747,-1.1336456537246704
1791041435437244400,11.929244384765624,-2.1442997455596924,0.6499905586242676,-1.1799129247665405
1791041435447273500,11.9392734375,-2.272716522216797,0.5954380631446838,-1.2428696155548096
1791041435457303600,11.949303466796875,-2.3821232318878174,0.5179682970046997,-1.3198448419570923
1791041435467332600,11.95933251953125,-2.4610161781311035,0.47536492347717285,-1.4013077020645142
1791041435477362400,11.969362548828125,-2.505880355834961,0.4512779712677002,-1.4658182859420776
1791041435487391500,11.9793916015625,-2.498420238494873,0.421144038438797,-1.4943188428878784
1791041435497421600,11.989421630859376,-2.4277334213256836,0.3620639443397522,-1.4719305038452148
1791041435507450600,11.99945068359375,-2.312769651412964,0.22815673053264618,-1.397750735282898
1791041435517480700,12.009480712890625,-2.209904909133911,0.06085110083222389,-1.3111090660095215
1791041435527509500,12.019509521484375,-2.131408452987671,-0.03843500837683678,-1.2450206279754639
1791041435537539600,12.02953955078125,-2.087637424468994,-0.00902491994202137,-1.2054692506790161
1791041435547569400,12.0395693359375,-2.07428240776062,0.0627874806523323,-1.1677292585372925
1791041435557598500,12.049598388671875,-2.0594029426574707,0.07991986721754074,-1.0954385995864868
1791041435567628300,12.059628173828125,-2.0359249114990234,-0.014620487578213215,-1.006358027458191
1791041435577657300,12.0696572265625,-1.935629963874817,-0.15907379984855652,-0.9394960999488831
1791041435587687400,12.0796875,-1.8174880743026733,-0.2085646539926529,-0.9113795161247253
1791041435597716500,12.089716552734375,-1.6971180438995361,-0.17622429132461548,-0.8954692482948303
1791041435607746600,12.09974658203125,-1.5449622869491577,-0.13725799322128296,-0.8439903855323792
1791041435617775400,12.109775390625,-1.3651065826416016,-0.08794955909252167,-0.7258373498916626
1791041435627805400,12.119805419921875,-1.178722858428955,-0.007072823122143745,-0.5689244270324707
1791041435637834500,12.12983447265625,-0.978275716304779,0.07664577662944794,-0.4010600745677948
1791041435647864600,12.139864501953125,-0.7408576011657715,0.09826718270778656,-0.22884675860404968
1791041435657893400,12.149893310546876,-0.5005089044570923,0.07363347709178925,-0.08231830596923828
1791041435667923500,12.15992333984375,-0.2915194630622864,-0.00015233281010296196,0.043118443340063095
1791041435677953500,12.16995361328125,-0.1327308863401413,-0.11860707402229309,0.16101577877998352
1791041435687982600,12.179982666015626,-0.015267369337379932,-0.22742410004138947,0.2367161363363266
1791041435698012700,12.1900126953125,0.08762358874082565,-0.30014678835868835,0.26486629247665405
1791041435708041500,12.20004150390625,0.1955239623785019,-0.33515429496765137,0.26014983654022217
1791041435718071600,12.210071533203125,0.27794215083122253,-0.34908875823020935,0.2636082172393799
1791041435728100600,12.2201005859375,0.3735658526420593,-0.41418811678886414,0.2972359359264374
1791041435738130700,12.230130615234375,0.48560717701911926,-0.4991384446620941,0.35176417231559753
1791041435748159500,12.240159423828125,0.6053690314292908,-0.5582608580589294,0.41384539008140564
1791041435758189300,12.250189208984375,0.7011751532554626,-0.5551401972770691,0.4817546606063843
1791041435768218600,12.260218505859376,0.7620694041252136,-0.4701797664165497,0.5474050641059875
1791041435778248400,12.27024853515625,0.8204943537712097,-0.29906126856803894,0.5990903377532959
1791041435788278500,12.280278564453125,0.8524810671806335,-0.12967756390571594,0.6470429301261902
1791041435798307300,12.290307373046875,0.8847700357437134,0.013084376230835915,0.686799943447113
1791041435808337400,12.30033740234375,0.9243573546409607,0.10818372666835785,0.7176233530044556
1791041435818366500,12.310366455078125,0.9687197804450989,0.19178780913352966,0.7328119277954102
1791041435828396500,12.320396484375,1.0144667625427246,0.29321908950805664,0.731853723526001
1791041435838425300,12.33042529296875,1.0672359466552734,0.3972506821155548,0.7215176820755005
1791041435848455400,12.340455322265624,1.1406593322753906,0.46735361218452454,0.723929226398468
1791041435858484500,12.350484375,1.2364915609359741,0.48082679510116577,0.7458012104034424
1791041435868514600,12.3605146484375,1.3479347229003906,0.5076901316642761,0.7700405120849609
1791041435878544600,12.370544677734374,1.466683268547058,0.5536903738975525,0.805527925491333
1791041435888573400,12.380573486328124,1.5881595611572266,0.5901026725769043,0.8513097763061523
1791041435898603500,12.390603515625,1.6978871822357178,0.5836703777313232,0.9126876592636108
1791041435908632600,12.400632568359375,1.8007656335830688,0.5148676037788391,0.9668310880661011
1791041435918662700,12.41066259765625,1.8736603260040283,0.38154175877571106,1.0120376348495483
1791041435928691500,12.42069140625,1.920393466949463,0.24737197160720825,1.0051320791244507
1791041435938721500,12.430721435546875,1.983169436454773,0.15290991961956024,0.9543938636779785
1791041435948750600,12.44075048828125,2.0403521060943604,0.02869582735002041,0.8988890051841736
1791041435958780400,12.450780517578124,2.1203200817108154,-0.04085928201675415,0.8196485638618469
1791041435968809700,12.460809814453125,2.187520980834961,-0.03365223482251167,0.7187134027481079
1791041435978839300,12.47083935546875,2.2326207160949707,-0.003993410151451826,0.6375341415405273
1791041435988869400,12.480869384765626,2.206427574157715,-0.14924781024456024,0.6482429504394531
1791041435998898400,12.4908984375,2.086662530899048,-0.43150025606155396,0.7470403909683228
1791041436008928500,12.500928466796875,1.9456164836883545,-0.6809985041618347,0.8404600620269775
1791041436018957600,12.51095751953125,1.8081423044204712,-0.8093850016593933,0.9098197221755981
