time,seconds_elapsed,z,y,x
1790942714804824000,0.087823974609375,0.033431729480624194,-0.8269394839525223,-0.12418858012873679
1790942714814854100,0.097854248046875,-0.6053583414882421,-0.9671227384075521,-0.7412173760686069
1790942714824884200,0.10788427734375,-1.4267290853977201,-1.3729799595534802,-0.1029889210378751
1790942714834914000,0.1179140625,-2.2604314876139164,-1.9545418303906916,0.6451636976540088
1790942714844944100,0.127944091796875,-2.548994746983051,-1.790571749895811,0.33101240804195403
1790942714854974000,0.137973876953125,-2.1202999633461235,-0.5633090057879686,-1.020635059821233
1790942714865004000,0.148004150390625,-1.8763094206750393,0.2618400876164436,-2.0341087035804986
1790942714875034000,0.1580341796875,-1.6833090605288743,-0.4530757761776447,-1.2482377275973557
1790942714885064200,0.168064208984375,-1.224844577050209,-1.0487065043777226,-0.45881431982964277
1790942714895094300,0.17809423828125,-0.7881541184842586,-1.0383499455362557,0.15634437138941137
1790942714905124000,0.1881240234375,-0.6495353368669748,-0.6738222213834524,0.49243046596646306
1790942714915154000,0.19815380859375,-0.6394774687111378,-0.32390988256037234,0.7482086231954396
1790942714925184000,0.20818408203125,-1.0507242739409208,-0.19961188724040985,1.0133642651006578
1790942714935214000,0.218214111328125,-1.6507628817111253,-0.3732520056173205,0.9723623926267028
1790942714945244200,0.228244140625,-1.970406923520565,-0.6224629132851958,0.6389392701812088
1790942714955274000,0.23827392578125,-1.8572656975090502,-1.020894952866435,0.20546273216046393
1790942714965304000,0.248303955078125,-1.4018307909846306,-1.3288514794915913,-0.33749081027582284
1790942714975334100,0.258334228515625,-0.8827490494579077,-1.3180308102697134,-0.763571612022072
1790942714985364200,0.2683642578125,-0.733650374880433,-1.1252262649565934,-0.720058195118606
1790942714995394000,0.27839404296875,-0.9229016116261481,-0.9085106827020645,-0.3388311189688742
1790942715005424000,0.288424072265625,-1.0399936210900544,-0.6534624471828341,0.1709608161650598
1790942715015454000,0.298453857421875,-1.1032967572212218,-0.7347893157824873,0.45450171732753514
1790942715025484000,0.308484130859375,-0.4671715215474367,-0.7301824065089225,0.35318507688343526
1790942715035514000,0.31851416015625,0.1647217756450176,-0.17690730347931383,0.24090558226779102
1790942715045544200,0.328544189453125,-0.15017010320127008,0.3404787400454283,-0.04538315629810095
1790942715055574300,0.33857421875,-0.5313035097181796,0.07119418164193629,-0.13086451422870157
1790942715065604000,0.34860400390625,-0.5332604890048503,-0.5804843047335744,-0.05485533352047205
1790942715075634000,0.358634033203125,-0.47243163403272626,-1.0386690944880246,0.1913525929391384
1790942715085664000,0.3686640625,-0.4716285009562969,-1.2744544111326337,0.5110547946766019
1790942715095694000,0.378694091796875,-0.2467652680814266,-1.3662109038099646,0.3393219712257385
1790942715105724200,0.38872412109375,-0.2644604992479086,-1.2866761793240904,0.2848468691945076
1790942715115754200,0.398754150390625,-0.98214933488667,-0.9540215570330619,0.6966855028375983
1790942715125784000,0.4087841796875,-1.6969529704779385,-0.4495426336154341,0.8624149942204355
1790942715135814100,0.418814208984375,-1.8984481872469186,-0.3808183492183685,0.6157055479794741
1790942715145844000,0.428843994140625,-1.533126097846031,-0.8684192030712962,-0.04101575486883521
1790942715155874000,0.4388740234375,-1.3022756072551012,-1.6261664928540587,-0.8639715760126709
1790942715165904100,0.448904052734375,-1.6580243971467017,-2.4195719559952615,-1.5617591948732732
1790942715175934000,0.458933837890625,-2.5228929219990968,-3.1798224607706067,-2.5898691936850544
1790942715185964000,0.468964111328125,-3.430833111336827,-3.8019817149341106,-3.738452953353524
1790942715195994000,0.478994140625,-3.9779444310396905,-3.7513948525130747,-3.7155116382271047
1790942715206024200,0.489024169921875,-3.9231419967502354,-2.8923361829832195,-1.9662281765311955
1790942715216054300,0.49905419921875,-3.3553350950211285,-2.024626004964113,-0.3884738324075937
1790942715226084000,0.509083984375,-2.93462429587543,-2.086500277335942,-0.3357020271629095
1790942715236114000,0.519114013671875,-2.9224878678798674,-3.4568250462055206,-1.1347054564416408
1790942715246144000,0.52914404296875,-2.3508394882917405,-4.022572677317261,-1.685976233911514
1790942715256174000,0.539174072265625,-2.3217554326266048,-4.082594307559728,-2.6494676300793887
1790942715266204200,0.5492041015625,-3.4250340696692465,-3.8596921456247566,-3.1405180398643013
1790942715276234200,0.559234130859375,-4.474230987912416,-3.263283126528561,-3.083783760729432
1790942715286264000,0.56926416015625,-4.803782091230154,-2.9044582901924847,-2.86625335496068
1790942715296294000,0.5792939453125,-3.9129754075229166,-3.066965020136535,-2.1832138078987597
1790942715306324000,0.589323974609375,-2.098477423116565,-3.344144131182134,-0.8725912280589342
1790942715316354000,0.59935400390625,-0.6508838288664818,-3.4809798287749287,0.7533136912494898
1790942715326384000,0.609384033203125,0.3574485795468092,-3.144909260560572,1.6611001513302326
1790942715336414200,0.619414306640625,0.7666878443464636,-2.7971289653301237,1.8543150310099124
1790942715346444000,0.629444091796875,0.451465710632503,-2.0412299337625504,2.637376210269332
1790942715356474000,0.63947412109375,0.6230791454873978,-0.5272876982055604,4.514833631935716
1790942715366504200,0.649504150390625,1.162965336242318,1.0058560814276336,6.8103481233686205
1790942715376534000,0.659533935546875,1.3589948349513112,1.7463108756259083,8.305899985101819
1790942715386564000,0.669564208984375,1.5968600266098976,1.6066455075651407,8.444854866805672
1790942715396594000,0.679593994140625,2.854259550306201,0.6250260417714715,8.732017027205229
1790942715406624000,0.6896240234375,3.4983155789792537,0.015902502530813215,8.95926394034624
1790942715416654000,0.699654052734375,4.337977766382694,0.04487374547123909,9.229513544389604
1790942715426684200,0.70968408203125,4.87329694148302,-0.022134382657706737,9.957904391306638
1790942715436714200,0.71971435546875,3.9989860500246284,1.121360821700096,12.92529289266467
1790942715446744300,0.729744384765625,2.191380163219571,1.9577900185316799,15.95195425172448
1790942715456774000,0.73977392578125,0.0808944685317576,1.7864140456944704,14.931270311260223
1790942715466804000,0.749803955078125,-1.6958435479313134,0.9128133483320474,12.395396911656857
1790942715476834000,0.759833984375,-2.5023282728761433,-0.5804647232502699,9.272964563581347
1790942715486864600,0.76986474609375,-1.9968892722547054,-1.9218828388482332,6.379222897714376
1790942715496894500,0.77989453125,-1.1566980925410986,-3.0878672306507826,4.4826913577437395
1790942715506924300,0.78992431640625,-0.21974114062078295,-4.324356068265438,4.104351965859532
1790942715516954400,0.799954345703125,0.15486030684411525,-2.641083832615614,5.449727294650674
1790942715526984400,0.809984375,0.6919640272736549,-3.1994764247894287,4.612544649103284
1790942715537014500,0.8200146484375,1.7801431487314403,-4.080573030865192,5.313709050920606
1790942715547044600,0.830044677734375,4.932799516287446,2.919952211922407,8.841813618963956
1790942715557074400,0.840074462890625,6.578551291838288,0.3837736918926239,2.7952409596264363
1790942715567104500,0.8501044921875,4.917280460116267,-4.003785559260845,-3.145785751134157
1790942715577134300,0.86013427734375,5.600435157990455,-3.7297038297086953,-4.058579810243844
1790942715587164400,0.870164306640625,5.388623714390397,-2.8159768736630677,-5.558847010061145
1790942715597194500,0.880194580078125,1.8802531898647545,-2.596735572323203,-6.081777243709563
1790942715607224600,0.890224609375,1.3763017974525689,-3.270668852865696,-6.102097562682628
1790942715617254400,0.90025439453125,-0.050558513109385965,-1.1925526652544736,-4.837416649806499
1790942715627284500,0.910284423828125,-3.125897393837571,0.6377870314061641,-3.616891689521074
1790942715637314600,0.920314453125,-5.374179593974351,1.5868723010808228,-3.0943817271113394
1790942715647344400,0.930344482421875,-15.298775589919089,4.411012022933364,1.689669243210554
1790942715657374500,0.94037451171875,-16.270508160209655,6.618555385446548,2.776438644000888
1790942715667404300,0.950404296875,-10.278716892373561,6.091590197193622,0.8063789264827966
1790942715677434400,0.960434326171875,-7.0847279590845105,4.4106332527488465,-0.06978080771267414
1790942715687464400,0.97046435546875,-4.508922946587204,4.155639085504412,-0.677586542353034
1790942715697494500,0.98049462890625,-2.4447385459557176,4.2398388791918755,-1.9639029484540222
1790942715707524600,0.990524658203125,-0.5276733365222811,4.5480268764853475,-2.100906696090102
1790942715717554700,1.0005546875,0.12695143243819473,5.0619876217365265,-1.727777147808671
1790942715727584300,1.010584228515625,-0.29385230568796394,6.044125266185403,-0.5656570302188396
1790942715737614300,1.0206142578125,-0.6249515152305364,6.734273183947801,0.9304501273095607
1790942715747644400,1.03064453125,-0.6032990708708763,6.861251212131977,1.57067052334249
1790942715757674500,1.040674560546875,-1.6942603703930974,6.6421554567426435,2.0690426543176175
1790942715767704600,1.05070458984375,-2.3599679666429756,6.1122220663338895,1.1339859099954366
1790942715777734400,1.060734375,-1.1231079576283693,5.227046081990003,1.1485282300889492
1790942715787764500,1.070764404296875,0.6382965883634985,3.0802398045122623,2.912503649482131
1790942715797794600,1.080794677734375,1.662453319504857,1.8077122697889805,3.019395751971006
1790942715807824400,1.090824462890625,2.6260242106497285,-1.3331775259971619,3.2482869251877067
1790942715817854500,1.1008544921875,0.3352538450039923,-2.1436066046535966,2.098717077091336
1790942715827884500,1.110884521484375,-0.9937043097324669,1.0076987866848706,2.541557290458679
1790942715837914400,1.120914306640625,-0.8359266541369259,-1.460881530368328,4.242633478346467
1790942715847944400,1.1309443359375,-0.7109611348189413,-0.7130453937470913,2.9838410389870402
1790942715857974500,1.140974609375,-0.06894026523530483,-0.5404068536281585,1.8422253647655247
1790942715868004600,1.151004638671875,0.010577508115768432,0.338642172268033,0.8215385016918182
1790942715878034400,1.161034423828125,-0.26236557279527184,0.4772533551007509,0.6005576632082462
1790942715888064500,1.171064453125,1.4310375962466,-0.6174474232107401,-0.9460618302002549
1790942715898094300,1.18109423828125,0.5027127905279397,-0.6597030951380729,-2.2269871909126637
1790942715908124400,1.19112451171875,1.7495646167248486,-2.7261691769659517,-2.8649782204583287
1790942715918154500,1.201154541015625,2.0771271765738724,-3.1548879260003564,-3.175502844005823
1790942715928184600,1.2111845703125,1.5391402435690165,-1.9119138180196285,-2.1649615273714065
1790942715938214700,1.221214599609375,0.6081178693294524,-4.193006985390186,-0.6579013064131141
1790942715948244500,1.231244384765625,0.585429067659378,-4.513116891145706,-0.5543760500088334
1790942715958274300,1.2412744140625,0.39248887673523275,-3.487510691848397,1.0210872605681418
1790942715968304400,1.251304443359375,-0.01575169588327408,-2.5709482201158997,2.1166616068437696
1790942715978334500,1.26133447265625,-0.33579025343563407,-1.6304221044719218,1.6668009933203458
1790942715988364500,1.271364501953125,-1.3057657874584196,-0.24384791933000086,-1.0005790178075433
1790942715998394400,1.281394287109375,-2.738610140866041,1.570178355911374,-2.5952128928005695
1790942716008424400,1.291424560546875,-2.523127315276861,2.2277526223272086,-1.1877790211118757
1790942716018454500,1.30145458984375,-2.0117652082167563,3.707057698136568,0.42098786252140996
1790942716028484400,1.311484375,-3.1496529479563233,4.721026066610217,-0.44847778086289763
1790942716038514400,1.321514404296875,-3.3001942225575447,10.514732802903652,-0.9255160319082438
1790942716048544500,1.33154443359375,4.2627860395371915,18.694331051647662,2.5858988287493583
1790942716058574300,1.34157421875,4.352667970514298,4.5895787840574975,2.370839050877839
1790942716068604400,1.3516044921875,4.485103095060587,-1.3353905258715153,-4.054669358801841
1790942716078634500,1.361634521484375,4.984435595500469,-8.847688648477197,-5.933950488764047
1790942716088664600,1.37166455078125,5.232055434584617,-12.630227411794662,-5.089888605096936
1790942716098694700,1.381694580078125,0.6774548787973821,-9.264816912961006,-2.446293958704173
1790942716108724500,1.391724365234375,-2.369324700792134,-8.228371924263238,3.111495943519473
1790942716118754300,1.40175439453125,-2.137701764523983,-5.908924184057116,5.609715027511119
1790942716128784400,1.411784423828125,-3.442250577408075,-4.474829538327455,5.766600702702998
1790942716138814500,1.421814453125,-2.753013637010753,-2.512058224251866,5.0961652011483904
1790942716148844500,1.431844482421875,-1.3512730085276066,-0.6926373964905739,3.2336601416811344
1790942716158874600,1.44187451171875,-0.42638402247652407,0.8367214577764273,2.040665577878058
1790942716168904400,1.451904541015625,-0.08916048483476043,2.1724720491319895,1.6759578209832309
1790942716178934500,1.4619345703125,-0.11346972731351852,2.2616771037608383,1.1489553694598376
1790942716188964400,1.47196435546875,0.7356361418701708,1.3020289390176534,0.23650471696034073
1790942716198994400,1.481994384765625,1.4979342268250881,0.9903753114402294,-0.18479060407504438
1790942716209024500,1.4920244140625,-0.10680398581400513,4.290649028974771,-2.1177429723396894
1790942716219054300,1.502054443359375,0.6895674875259399,5.813713751533627,-1.6457260565876959
1790942716229084400,1.51208447265625,1.143060320071876,2.8143448885470628,-0.6383274218931794
1790942716239114500,1.522114501953125,0.6027741702139378,0.549046671679616,-0.8412719606876373
1790942716249144600,1.53214453125,0.04073912988454103,-0.8201192825436592,-1.3391612765818834
1790942716259174400,1.54217431640625,-0.24348595414981244,-0.9337684580773115,-1.6465929025501012
1790942716269204500,1.55220458984375,-0.17973463585972785,-0.42706162947714327,-1.8629915278099476
1790942716279234300,1.562234375,-0.011131927128136158,2.6459365333437916,-0.1313082394082099
1790942716289264400,1.572264404296875,0.47189738102555273,3.445656001937389,0.30637459119595584
1790942716299294500,1.58229443359375,1.1964474807359278,2.55599088948071,-0.33410160622894763
1790942716309324500,1.592324462890625,1.9537083021759987,3.3078859461039305,0.1374575558181852
1790942716319354600,1.602354736328125,1.2965313645146785,3.3227889162033795,0.19249120504762976
1790942716329384400,1.612384521484375,0.32412191787585615,3.2268449087083337,0.3327656449174508
1790942716339414300,1.622414306640625,-0.25595979740619657,3.150826667910814,0.29964064329843965
1790942716349444400,1.6324443359375,-0.703899964261055,2.573923436534405,0.05746372592058033
1790942716359474400,1.642474365234375,-0.8015257873632013,1.7743752328544855,0.051869157316535706
1790942716369504500,1.65250439453125,0.04430427502021193,1.2244038475453853,0.24283114350289106
1790942716379534600,1.66253466796875,0.6900758754394948,0.6070014325201512,0.6625225364729762
1790942716389564400,1.672564453125,0.405317999702692,-1.760418603694439,0.9970578579440712
1790942716399594500,1.682594482421875,0.790187231747061,-4.320460229870677,1.0857125852137803
1790942716409624600,1.69262451171875,-0.41116073438152667,-6.195045310971141,0.03481960364244878
1790942716419654400,1.702654296875,0.0015349544823169707,-6.93508041845262,-0.0118680593829602
1790942716429684500,1.7126845703125,0.7196326631829142,-6.643015288442373,-0.13848412238694727
1790942716439714300,1.72271435546875,0.8699909824326634,-6.5545794646203515,0.37756058953143656
1790942716449744400,1.732744384765625,0.33625673843622206,-4.285031773614883,1.3344456462368368
1790942716459774500,1.7427744140625,0.05165332260876894,-1.6833341949701308,1.5520929563835262
1790942716469804500,1.752804443359375,-0.13779869740605352,-0.26538053670227524,1.1734951327588408
1790942716479835000,1.7628349609375,-0.11419321928247808,-0.4455991566866636,0.060438394349813455
1790942716489864700,1.77286474609375,0.07805588410496711,-1.2488631660193203,-0.8013418090984225
1790942716499894500,1.78289453125,-1.0508081528320907,7.2113394920438525,0.5796919853121042
1790942716509924600,1.792924560546875,-1.6926758776806294,21.694258717560768,0.40744061787985264
1790942716519954700,1.80295458984375,3.2996348351091145,1.4408499652087687,-2.6902947305083273
1790942716529984800,1.81298486328125,2.158267290429771,-7.291202133309841,-1.363653036020696
1790942716540014800,1.823014892578125,-1.0795870880708098,-1.2970651791304348,1.062034041853994
1790942716550044700,1.833044677734375,-0.568037057223171,-1.8312591495931148,0.8961018675059079
1790942716560074800,1.84307470703125,0.25823329529613254,-3.452687800270319,0.34071634819358587
1790942716570104600,1.8531044921875,-0.21967764693051575,-3.9157507174551487,0.3008635361569002
1790942716580134700,1.863134765625,-1.0626957206331193,-4.6068251024127,0.7222836160831153
1790942716590164700,1.873164794921875,-0.7561934844695031,-5.115110724636912,0.8947665272489189
1790942716600194800,1.88319482421875,-0.4082474772833288,-6.818765238580108,1.0675872190017253
1790942716610224600,1.893224609375,-0.8657859319582581,-6.540972964072227,1.9078271332278847
1790942716620254700,1.903254638671875,-0.37430662923678754,-1.829679186925292,1.2881237477838992
1790942716630284800,1.913284912109375,0.5864844219312072,1.2972919736236332,0.4245600949849933
1790942716640315000,1.92331494140625,-0.24108473822697996,2.829426722344756,0.40009332385696467
1790942716650344700,1.9333447265625,-1.6386600637242197,2.6919839987695218,0.954850920529291
1790942716660374500,1.94337451171875,-0.21005130205973982,0.9354127181529999,0.9718845459818839
1790942716670404600,1.953404541015625,0.7646949169635773,-0.7455787130832672,0.2521168947750702
1790942716680434700,1.9634345703125,0.5984710661925375,-0.8179495372891425,-0.47313682316001504
1790942716690464800,1.97346484375,0.2610615044593811,-0.4761959550023079,-0.7987550074756145
1790942716700494800,1.983494873046875,0.03177358701005578,-0.34368308904469014,-0.6907301746297627
1790942716710524700,1.993524658203125,0.06058569386601448,-0.0180599728256464,-0.3275076513240114
1790942716720554800,2.0035546875,0.09107435563206673,0.11480886696279048,-0.12278096921998076
1790942716730584600,2.01358447265625,0.21780776140540836,0.08223755370378494,-0.1370002587710507
1790942716740614700,2.02361474609375,0.40900077986866235,0.486578232806921,-0.08769281430183909
1790942716750644700,2.033644775390625,0.7103463639214634,0.8554355105966329,0.23545999368038026
1790942716760674800,2.0436748046875,0.7013713225662708,0.03896247560083866,0.6714977970238775
1790942716770704600,2.05370458984375,-0.9056475483559071,14.913140780329703,2.477323010957241
1790942716780734700,2.063734619140625,2.1554408348321914,19.748256751978396,3.5334599575966594
1790942716790764800,2.073764892578125,4.40115289222002,3.5983693598806856,0.6090257048893719
1790942716800794600,2.083794677734375,2.200645273562521,6.836572697949409,-1.2043405720733105
1790942716810824700,2.09382470703125,1.0309551591098307,4.034206416487693,-2.7063033237621186
1790942716820854800,2.103854736328125,-0.31048385314568877,-0.6811340057015418,-2.4642832043811675
1790942716830884600,2.113884521484375,-1.536662455278635,-5.381450461760163,-2.9150168013468383
1790942716840914700,2.123914794921875,-1.366697664413601,-6.2534168359190225,-2.7576342825487252
1790942716850944800,2.13394482421875,1.5747664143539963,-2.564666947889328,-1.7105203080594538
1790942716860975600,2.1439755859375,3.0691432409584523,-6.759684688580036,-0.9579129384484142
1790942716871005000,2.1540048828125,0.19647899604216218,-9.158790487390757,1.6038927017256617
1790942716881035800,2.164035888671875,-1.5088357061982154,-9.30552126379311,5.807787284094095
1790942716891065600,2.174065673828125,-2.7014415629446504,-7.34847767971456,9.584557985404134
1790942716901095700,2.184095703125,-2.232104387795925,-4.099123417556285,7.925128982156514
1790942716911125800,2.194125732421875,-0.23204474187679588,-0.12415771006643771,3.251393366770446
1790942716921155600,2.204155517578125,0.7507680984199047,3.873578047636151,-2.8852479782879352
1790942716931185700,2.214185546875,-0.4779681523066014,-0.8387228607267141,-6.208024619531631
1790942716941215700,2.2242158203125,-0.2816178972106427,-2.2463480172038075,-4.275612495623529
1790942716951245800,2.234245849609375,0.6741090755008161,-1.4585714998602866,-1.4479130354627967
1790942716961276000,2.24427587890625,0.6767793176233768,-0.8350847964853048,-0.07331891871094703
1790942716971305700,2.2543056640625,0.29543606774806974,-0.8177917163789272,-0.4294862262755632
1790942716981335600,2.26433544921875,-0.24413966881819069,-1.4365981529831886,-1.5055088998630641
1790942716991365600,2.27436572265625,-0.49710079586505884,-1.0438152252048254,-1.7002338918447493
1790942717001395700,2.284395751953125,-0.2680968099236488,-0.7869967651426791,-1.253408700494468
1790942717011425800,2.29442578125,-0.054965004440024494,-0.7174830839335918,-0.5287096938326955
1790942717021456000,2.304455810546875,-0.09720014503598212,-0.6835796452879905,0.5803361284345389
1790942717031485700,2.314485595703125,-0.26361579205207525,-0.5094681100070476,1.463304373601079
1790942717041515800,2.324515869140625,-0.2609668119132519,-0.6739227591484784,1.7073597982019184
1790942717051545600,2.334545654296875,-0.2749041518509388,-0.7440922739177942,1.811767390398681
1790942717061575700,2.34457568359375,-0.24087679456472397,-0.027694062611460683,1.8667431354284285
1790942717071605800,2.354605712890625,0.3082274525210261,0.9498153375148772,1.8431839806646106
1790942717081635800,2.3646357421875,-0.9006465251982212,0.9063450291007756,1.6982713596001267
1790942717091665700,2.374665771484375,-0.6522562862634659,0.8067658799737691,1.1715829424619675
1790942717101695700,2.38469580078125,0.22288301884308456,0.7851333093583583,0.45794542804062366
1790942717111725800,2.394725830078125,0.4315105717100203,0.5526414813011884,-0.36821956440806386
1790942717121755600,2.404755615234375,0.4774246200144291,0.6353472370386123,-0.45688364402800796
1790942717131785700,2.41478564453125,0.43433702730759977,0.3861608792901039,-0.4063634171023965
1790942717141815600,2.424815673828125,0.219934544301033,-0.22269465666413304,-0.38102848483771085
1790942717151845600,2.434845703125,-0.21092706198096275,-0.8801245461732149,-0.25691461391299963
1790942717161875700,2.444875732421875,-0.3078910601735115,-1.2875585151165723,-0.29142069462686776
1790942717171905800,2.45490576171875,-0.21206337253451346,-1.4335878652513026,-0.17324352027475834
1790942717181935900,2.464935791015625,-0.2258651033937931,-1.4702742126137018,0.19157383447438478
1790942717191965700,2.474965576171875,-0.2261174707196653,-1.681243360170722,0.3186673057317734
1790942717201995500,2.48499560546875,-0.3876607624590397,-1.8478280070781707,0.4347334792792797
1790942717212025600,2.495025634765625,-0.5643430250108241,-1.8807436037302017,0.5706029621884227
1790942717222055700,2.5050556640625,-0.7339113639041781,-2.044817144599557,0.5569552528470755
1790942717232085800,2.515085693359375,-0.9347533774614334,-2.351296584409475,0.634407910361886
1790942717242115800,2.52511572265625,-1.1476499859496951,-2.638328396427631,0.5266761421784758
1790942717252145700,2.535145751953125,-1.2329434200927614,-2.9531255827277896,0.38526217688471076
1790942717262175700,2.54517578125,-1.154800442226231,-3.242915169021487,0.40433746423274275
1790942717272205800,2.555205810546875,-1.0036553565129638,-3.511063416871428,0.44080023197233675
1790942717282235600,2.565235595703125,-0.8687056187972426,-3.8012171603024005,0.5797931075990199
1790942717292265700,2.575265625,-0.669044631718099,-3.9230870516926046,0.6132379888221621
1790942717302295800,2.5852958984375,-0.6929872328415513,-3.9440819089263677,0.5889128181219101
1790942717312325600,2.59532568359375,-0.6770286162093281,-3.6690275349497794,0.5800941363722085
1790942717322355700,2.605355712890625,-0.28720073884427544,-2.9548434925615785,0.5490899262994527
1790942717332386800,2.61538671875,0.4531166927099228,-1.9868793348938225,0.5326429416283964
1790942717342416600,2.625416748046875,1.2389070046722888,-1.0308867700487374,0.3423611927911639
1790942717352446700,2.63544677734375,1.408118492951989,-0.3169137400627136,-0.18863544293493031
1790942717362476800,2.645476806640625,0.7844815674513578,0.17577917623221873,-0.7773813800573348
1790942717372506600,2.655506591796875,-0.21121932292580603,0.3214426156640053,-0.9282356661304831
1790942717382536700,2.66553662109375,-1.1312246285885572,0.1479869139432907,-0.5175014865979553
1790942717392566800,2.67556689453125,-1.746981029972434,-0.19284078567028046,0.02339782672226429
1790942717402596600,2.6855966796875,-1.8536638736248015,-0.6617787323683499,0.0027010756522417067
1790942717412626700,2.695626708984375,-1.6509779857665299,-1.1432675330817699,-0.14650076703876255
1790942717422656800,2.70565673828125,-1.2071510994493961,-1.2617986354380846,-0.41363866880238054
1790942717432686800,2.715686767578125,-0.38627603010237216,-0.7260825699746608,-0.8331748712107538
1790942717442716700,2.725716552734375,0.10277706838548183,0.0840215145111084,-1.0805755145862699
1790942717452746800,2.735746826171875,0.2614537186473608,0.5041676655113697,-1.493386792653799
1790942717462776600,2.745776611328125,0.09734861359596252,0.683621730864048,-1.9678379498153924
1790942717472806700,2.755806640625,-0.3687824589878321,0.9530290388643741,-1.9152581600114702
1790942717482836200,2.765836181640625,-0.7781956190496683,0.5471060590058565,-1.6676836213737725
1790942717492866300,2.7758662109375,-1.126415182480216,-0.14278350008130072,-1.6282155343383549
1790942717502896400,2.785896484375,-1.4628689047932624,-0.6294967574447393,-1.0293103145122529
1790942717512926500,2.795926513671875,-1.7694477133244275,-1.1357076192215085,-0.6653226885855198
1790942717522956300,2.805956298828125,-1.6625807452768087,-1.7803411555215716,0.13938918146789073
1790942717532986400,2.815986328125,-1.3141735503196716,-2.27536368380785,1.0466735372453928
1790942717543016400,2.826016357421875,-1.0162012420922517,-2.2323808666497467,1.7031985868692396
1790942717553046300,2.83604638671875,-0.5929547869890928,-1.5858812442168593,1.9214549688249825
1790942717563076400,2.846076416015625,-0.11615969704985618,-0.7415586637869477,0.7915092741310596
1790942717573106200,2.856106201171875,0.21287468891739844,-0.023971827217936514,0.0042991584986448285
1790942717583136300,2.86613623046875,0.5122983649969101,0.045673955938220025,-0.3632213177293539
1790942717593166300,2.876166259765625,0.620019319525361,0.12970306923389435,-0.5124123467653989
1790942717603196400,2.886196533203125,0.35887130582630633,0.3480323702953756,0.49341246274113654
1790942717613226500,2.8962265625,0.041567689663171765,0.11852642618119716,0.774355894756317
1790942717623256300,2.90625634765625,-0.12220365338921546,-0.016225304744392634,0.7252882047265767
1790942717633286100,2.9162861328125,-0.44297874505519863,-0.6171675102908164,1.3937199652433394
1790942717643317200,2.926317138671875,-0.35461247933804985,-1.3035039800062775,1.3760931231379507
1790942717653347300,2.936347412109375,0.5061147079259157,-1.3115496315568684,2.420667642277479
1790942717663377400,2.94637744140625,1.3040262503147124,-1.080552718232572,2.583605457115173
1790942717673407200,2.9564072265625,1.9559850149363278,-1.1639688872616738,3.2205490234345198
1790942717683437300,2.966437255859375,1.9490823959410188,-0.9448236667074262,2.057168676650524
1790942717693467400,2.97646728515625,1.9221072952538727,-0.4093089690349996,2.8760306526094674
1790942717703497500,2.98649755859375,2.608910578763485,-0.23432839583456516,4.576581355318427
1790942717713527600,2.996527587890625,3.5413299603193997,0.23224720564633605,4.556438730999827
1790942717723557000,3.00655712890625,4.036987571638822,0.011303338172286749,4.468131501993537
1790942717733587200,3.016587158203125,3.651845514002442,0.08833367862179875,5.270516974925995
1790942717743617300,3.0266171875,3.183283122618496,-0.4084989678263664,4.885745504167676
1790942717753647400,3.0366474609375,2.6616835530519483,-0.8092495134830474,3.0642332570850845
1790942717763677400,3.046677490234375,1.9584692329674958,-0.645970922383666,2.3657220001250505
1790942717773707300,3.056707275390625,1.6778952187865972,-0.1358671448215842,4.144295853713155
1790942717783737300,3.0667373046875,1.543965764029324,-0.4308715431541204,4.343194039726257
1790942717793767400,3.076767333984375,1.7954519231528043,-0.5732105143383145,3.258698429086804
1790942717803797200,3.08679736328125,1.9356743405744432,0.9668155721545219,3.328039676338434
1790942717813827300,3.096827392578125,1.8314289532020687,1.038200600193441,2.4312802217066287
1790942717823857400,3.106857421875,1.766656621301174,1.4638129076451063,1.2468962498605252
1790942717833887200,3.11688720703125,1.9287357734829187,1.388273098014295,2.77430806171298
1790942717843917300,3.126917236328125,2.082651785214245,0.9615426001876592,3.4912452022016045
1790942717853947400,3.136947509765625,1.6391402484565973,1.5140692229375243,2.5225702659159897
1790942717863977500,3.1469775390625,1.2826239813238383,2.012548321418464,2.415055647614598
1790942717874007300,3.15700732421875,1.5281360344737767,1.8308830097571014,3.2390497257649895
1790942717884037400,3.167037353515625,2.0361030922681094,1.0765247778907419,3.783908882626891
1790942717894067200,3.177067138671875,2.415457214152813,1.4253032903783023,2.7529864567428826
1790942717904097300,3.18709716796875,2.2045348283469677,1.6519266647934914,2.597493112692237
1790942717914127400,3.19712744140625,1.938160604432225,1.613011389335245,2.6190093634516
1790942717924157400,3.207157470703125,1.8623899086549878,1.5981721321217714,2.6194208668619394
1790942717934187500,3.2171875,1.6517495546609162,1.6193739101044833,2.1980016271859406
1790942717944217300,3.22721728515625,1.496464008142054,1.646322853437066,1.945932407477498
1790942717954248400,3.23724853515625,1.5947303211048245,1.6164396102182566,1.8601970747858285
1790942717964278300,3.2472783203125,1.9091341241732238,1.44543071712777,1.7409861734718084
1790942717974308400,3.257308349609375,1.9692758736640215,1.336414900483191,1.7820663718789815
1790942717984338200,3.267338134765625,1.450575532670319,1.1694752295929938,1.6215215896576642
1790942717994368300,3.2773681640625,1.3017796404317021,1.013651630674675,1.48400404728055
1790942718004398300,3.2873984375,1.2661354955986142,1.1052218800649045,1.4136159213244914
1790942718014428400,3.297428466796875,0.7586269952267408,1.1262516624815762,0.9843529824107885
1790942718024458500,3.30745849609375,0.49507513525635,1.0163501490436493,0.7540548650056124
1790942718034488300,3.31748828125,0.3985845997944474,0.8138045464389025,0.5895043542742728
1790942718044518100,3.32751806640625,0.4651823935568332,0.6468261509735137,0.6042687926858663
1790942718054548200,3.33754833984375,0.49071109482794995,0.6310318580575287,0.4888327337354421
1790942718064578300,3.347578369140625,0.06757365305721759,0.4959000417731702,0.3215805628299713
1790942718074608400,3.3576083984375,-0.2741267377376556,0.23702669500783086,0.13660101205408573
1790942718084638500,3.367638427734375,-0.44372342594265934,0.08429331718981266,0.06778817259073257
1790942718094668300,3.377668212890625,-0.9252624955385923,0.2305298803344369,0.40036651477515695
1790942718104698400,3.387698486328125,-1.2779442990750074,0.507334751240164,0.6867167742699384
1790942718114728400,3.397728515625,-1.5046894001737237,0.7972690067015588,1.065390512675047
1790942718124758300,3.40775830078125,-1.864851038071513,0.9989920408770442,1.484082373213768
1790942718134788400,3.417788330078125,-1.9950372146472333,0.9554086274772882,1.7083745282024143
1790942718144818400,3.427818359375,-1.8450865994155405,0.8019403595134615,1.847888797354698
1790942718154848300,3.43784814453125,-1.6891534026429056,0.8047039790078997,2.0514473763942718
1790942718164878300,3.44787841796875,-1.6723755785822867,0.8390943243876099,2.352130112624168
1790942718174908400,3.457908447265625,-1.9068223400995135,0.920578137114644,2.559191146826744
1790942718184938500,3.4679384765625,-2.1679621704921126,0.9575725275129079,2.6510014155179262
1790942718194968300,3.47796826171875,-1.8603803223982451,0.7346946232363581,2.770919588318467
1790942718204999400,3.48799951171875,-1.5521812191888689,0.43311113877445456,3.231619283503294
1790942718215029200,3.498029296875,-1.3013520626693964,0.22022797428965568,3.618462299838662
1790942718225059300,3.508059326171875,-1.2395321508333086,0.07648819639682769,3.4360768572092053
1790942718235089400,3.51808935546875,-1.027890510842204,-0.08303893321454525,2.8720389526247976
1790942718245119200,3.528119140625,-0.5917267064988613,-0.47579088133275504,2.2088936080783603
1790942718255149300,3.5381494140625,-0.12568155863285063,-0.800029849717021,1.6016782405465841
1790942718265179400,3.548179443359375,-0.05351823969781398,-1.1908142971545457,0.7583879257738589
1790942718275209500,3.55820947265625,0.07307137369066477,-1.960861681061983,-0.3188087600290775
1790942718285239300,3.5682392578125,0.13943185156583784,-2.5637609389603138,-0.6633113487631083
1790942718295269400,3.578269287109375,-0.08004910374879837,-2.8012235411673783,-0.3805079680949449
1790942718305299200,3.58829931640625,-0.2592065242424607,-2.6919594488501546,-0.04986030171215534
1790942718315329300,3.598329345703125,-0.0808735718742013,-2.3960814825534817,0.21588731473684308
1790942718325359400,3.608359375,0.39403877305835483,-1.885392306318879,0.13047580717206
1790942718335389400,3.618389404296875,0.5655775352418423,-1.0762579436481,-0.5370400075435638
1790942718345419500,3.62841943359375,0.41556203808039427,-0.7380863115012646,-1.6514800900697708
1790942718355449300,3.638449462890625,0.25414368789494035,-0.7361264096051454,-2.642948457443714
1790942718365479200,3.648479248046875,0.4337222564101219,-0.6314134047210216,-3.283482741731405
1790942718375509200,3.65850927734375,0.8033630857929587,-0.4805471359491348,-3.3746786779165268
1790942718385539300,3.668539306640625,0.9483844279289245,-0.4378004656344652,-2.7677000417500732
1790942718395569400,3.6785693359375,0.9472241519778967,-0.13130115208029747,-1.8420482546329497
1790942718405599200,3.68859912109375,0.6867606134116649,0.1798497866719961,-1.252027183008194
1790942718415629300,3.69862939453125,1.2476827240630983,0.034141339054703713,-1.3239186992645262
1790942718425659400,3.708659423828125,1.6451988178431987,-0.007363806766271591,-1.3351125857129693
1790942718435689500,3.718689453125,0.9381132092833518,0.2091208893418312,-0.9296639453679323
1790942718445719300,3.72871923828125,0.16798077744096518,0.24884967314004897,-0.7719991024971008
1790942718455749400,3.738749267578125,0.023621406345069408,0.21290157692432402,-0.7548901467859744
1790942718465780200,3.7487802734375,0.07050006189793348,0.1071048684567213,-0.7098758238002657
1790942718475810300,3.758810302734375,0.07728402294963597,0.2914110500156879,-0.42521921648085115
1790942718485840600,3.768840576171875,0.16219430299401283,0.2521288409411907,-0.356704775442183
1790942718495870500,3.778870361328125,0.03149403941631317,-0.03348492097258567,-0.5524816145643592
1790942718505900500,3.788900634765625,0.1985747992776334,-0.5667664527654648,-0.42625557379126544
1790942718515930600,3.7989306640625,0.4583164533101022,-0.8098013021469116,-0.2715916663020849
1790942718525960700,3.808960693359375,0.18257526611313224,-0.7918675860494375,-0.8399941958367824
1790942718535990800,3.81899072265625,-0.07305266899019479,-1.0285381610959767,-1.6428040316611527
1790942718546020900,3.829020751953125,-0.021933599388599394,-1.9215835636407135,-2.5364772107154128
1790942718556050700,3.83905078125,0.3701601770818233,-3.5303467940121886,-3.3666654673308134
1790942718566080500,3.84908056640625,1.155769141127914,-4.630307684808969,-3.7787683048680423
1790942718576110600,3.859110595703125,2.020077255618572,-5.415875878453255,-4.163561110675334
1790942718586140700,3.869140625,2.920767327697575,-5.457005176699162,-3.959293798844516
1790942718596170800,3.879170654296875,3.985481840807199,-4.788185293647647,-2.92967251868695
1790942718606200600,3.88920068359375,3.5228070461571215,-4.481920373371243,-2.4669500855028628
1790942718616230700,3.899230712890625,1.6637936281979082,-4.195407616791129,-2.592197928893566
1790942718626260700,3.9092607421875,-0.2767103244900703,-3.641011985298991,-2.686025967147946
1790942718636290800,3.919290771484375,-1.6292263188160956,-3.2059833224654195,-2.2313328189015387
1790942718646320600,3.929320556640625,-2.035128840408474,-2.2471914822906256,-0.7254770052969455
1790942718656350700,3.939350830078125,-1.4522867205023764,-1.2870447203755377,1.2493570870161055
1790942718666380500,3.949380615234375,-0.914365180883929,-0.27560616264045235,3.0113273040667177
1790942718676410600,3.95941064453125,-0.8434392217241227,0.7335843239068984,4.01685020801723
1790942718686440700,3.969440673828125,-0.7455611774265766,1.1948521743685006,4.189038666281104
1790942718696470800,3.979470703125,-0.13610226875171064,1.1650240223377943,3.9359488713532684
1790942718706500900,3.9895009765625,0.8340459549568593,0.8532394618570804,3.6587680067420005
1790942718716530700,3.99953076171875,1.8883026408076284,0.17509996179640291,3.3287472400858995
1790942718726561800,4.009561767578125,2.682788300400972,-0.43384909766018387,3.0312451797187325
1790942718736591600,4.019591552734375,3.1607483424663543,-1.0197942981481551,2.522446639536321
1790942718746621700,4.02962158203125,3.2335631110474465,-1.426734930616617,1.8893766997799277
1790942718756651500,4.039651611328125,2.828068877995014,-1.5572212591826915,1.227034196048975
1790942718766681600,4.049681640625,1.7480371148966252,-1.4335773438572883,0.7530217225655913
1790942718776711700,4.059711669921875,0.3393522202335298,-0.8334165710121393,0.593496200389415
1790942718786741800,4.06974169921875,-1.069122100418806,-0.06788461870253086,0.5997445932596922
1790942718796771800,4.079771728515625,-2.244710186868906,0.3854600375443697,0.30941096321716904
1790942718806801700,4.0898017578125,-3.0332278779685495,0.40490766533613204,-0.2827932976655662
1790942718816831500,4.09983154296875,-3.146759564602375,0.21426468197107315,-0.4127414277017116
1790942718826861600,4.109861572265625,-2.664274446327984,0.05765314754545688,0.12352175025045871
1790942718836891600,4.1198916015625,-1.7633681011497973,0.12778174578249454,0.9960416666388511
1790942718846921700,4.129921630859375,-0.8478748660840093,0.18954700482189654,1.7539147747583685
1790942718856951800,4.139951904296875,-0.12711239515356718,0.24648820470571517,2.060268103970587
1790942718866981600,4.149981689453125,0.38065124902315434,0.3732856156259775,2.083312002688646
1790942718877011700,4.16001171875,0.784229711582139,0.42109249193966386,2.0030163768328726
1790942718887041500,4.17004150390625,0.779001674735546,0.3185831345796585,2.211101054994762
1790942718897071600,4.180071533203125,0.34912440331578254,0.24503449876606462,2.787726930734515
1790942718907101700,4.190101806640625,-0.03030278380513191,-0.020244331127405167,3.20705504335016
1790942718917131800,4.2001318359375,-0.16671397237554192,-0.5104150354683399,2.9494907333567735
1790942718927161600,4.21016162109375,-0.11307692860364914,-0.6690116062313318,2.0310024081282316
1790942718937191700,4.220191650390625,-0.17154899131655693,-0.4129460103631019,0.8013330412700772
1790942718947221800,4.2302216796875,-0.34160745181441304,0.028143559944629668,-0.18480068707764147
1790942718957251800,4.240251953125,-0.3037690118074417,0.40339492268562316,-0.7210637188993394
1790942718967282700,4.25028271484375,-0.2856828816272318,0.5634142197281122,-0.7049785532779991
1790942718977312500,4.2603125,-0.3447663542367518,0.48687107827365395,-0.27444968608170744
1790942718987342600,4.270342529296875,-0.3508345682345331,0.36769407922923564,0.16129720802381634
1790942718997372700,4.28037255859375,-0.3340003378115594,0.32278409340083597,0.37673560994938016
1790942719007402800,4.29040283203125,-0.15319982628598808,0.14086217662990091,0.18613763476982711
1790942719017432600,4.3004326171875,0.05129530295133591,-0.054875499525666234,-0.30289917017035184
1790942719027462700,4.310462646484375,0.1447882640324533,-0.1311035836815834,-0.7591507999051362
1790942719037492700,4.32049267578125,0.17281287377253174,-0.0007335749715566634,-0.9314879459246993
1790942719047522800,4.330522705078125,-0.020528262635320423,0.1696457880437374,-0.9801916980128734
1790942719057552600,4.340552734375,-0.5284006278835237,0.2867395510733127,-1.028344172893837
1790942719067582700,4.350582763671875,-1.035212816554308,0.24811083747148513,-0.8237099274467676
1790942719077612500,4.360612548828125,-1.053881276667118,0.10089023172557353,-0.059806380056589836
1790942719087642600,4.370642578125,-0.5525730922400951,0.04873509707450866,1.0628233656007795
1790942719097672700,4.380672607421875,-0.12314254167452454,-0.025954525467753408,1.8399476290918886
1790942719107702800,4.390702880859375,0.016481179201602934,0.0832803407549858,2.057920664061606
1790942719117732900,4.40073291015625,-0.03531564353108406,0.42489539135396476,1.8874919089466333
1790942719127762400,4.410762451171875,-0.1093570312976837,0.6434685841739177,1.468374370341748
1790942719137792500,4.42079248046875,-0.05073533098101616,0.6282254223346709,0.9436242277897894
1790942719147822600,4.430822509765625,0.004488105199486017,0.5090910933881998,0.6996873150020837
1790942719157853700,4.440853759765625,-0.0644669192135334,0.26332828034758565,0.9091272071652113
1790942719167883500,4.450883544921875,-0.11334113249778748,-0.09047229808568955,1.4087120749309658
1790942719177913600,4.46091357421875,-0.15270999694243073,-0.2987140665054321,2.030580383323878
1790942719187943700,4.470943603515625,-0.14527823950648308,-0.3816863642245531,2.518282213333249
1790942719197973800,4.480973876953125,0.008563245683908462,-0.5129740723013878,2.855729038336873
1790942719208003800,4.49100390625,0.3088241032399237,-0.6037514908134937,3.006295155118406
1790942719218033700,4.50103369140625,0.6413691276766359,-0.8604267430126666,2.7990006044209004
1790942719228063500,4.5110634765625,0.796309440954402,-1.1030208628892897,2.1756531633861362
1790942719238093600,4.521093505859375,1.1718216465886682,-1.19561789804399,0.9283267054148018
1790942719248123600,4.53112353515625,1.5730349143862723,-1.0073252771973609,-0.4893414139099419
1790942719258153700,4.54115380859375,1.646264985769987,-0.4659738361954689,-1.56855367731899
1790942719268183800,4.551183837890625,1.418813636098057,0.0704582685828209,-2.4397927601166067
1790942719278213600,4.561213623046875,0.7634101378500461,0.48339726468324656,-2.9324899141952394
1790942719288243700,4.57124365234375,0.10140051933526992,0.7016016241908073,-2.783692560651898
1790942719298273500,4.5812734375,-0.19125453939214349,0.7809253362745047,-2.139047772305459
1790942719308303600,4.5913037109375,-0.38175723750367757,0.5874421610474586,-1.0829521075244992
1790942719318333700,4.601333740234375,-0.3237735428296029,0.18208792098760604,0.011745273253507911
1790942719328364500,4.611364501953125,-0.09102072574868798,-0.18264789295792577,0.9376358740951866
1790942719338394600,4.62139453125,0.11331775162220001,-0.42452071282267567,1.7462042003810405
1790942719348424700,4.6314248046875,0.22089221035204826,-0.4306558545768261,2.489309509088099
1790942719358454800,4.641454833984375,0.2524655255496502,-0.24073650931119916,3.118638508750498
1790942719368484600,4.651484619140625,0.1727262184023857,0.016261983492970467,3.176172706091404
1790942719378514700,4.6615146484375,0.15097513597384093,0.13572773635089397,2.7258763314992187
1790942719388544500,4.67154443359375,0.3285737827181816,0.19455168124139308,2.0564413852892813
1790942719398574600,4.68157470703125,0.40623569906949997,0.1482224762648344,1.165270690575242
1790942719408604700,4.691604736328125,0.21433482459783554,-0.07159750174582004,0.1352609864888247
1790942719418634800,4.701634765625,-0.1505753230012953,-0.122141109547019,-0.6196864343091845
1790942719428664600,4.71166455078125,-0.559914833305031,-0.13697393701970575,-1.2245830035045742
1790942719438694700,4.721694580078125,-0.7004128527976572,0.06316518896520137,-1.3974744954712688
1790942719448724700,4.731724853515625,-0.6037012219309806,0.1555512117177248,-1.5341795524217188
1790942719458754800,4.7417548828125,-0.6203752202909439,0.10819266369342803,-1.6278813339479266
1790942719468785700,4.75178564453125,-0.6766917854703962,-0.0282990427672863,-1.4460172848440707
1790942719478815500,4.7618154296875,-0.6009409634374082,-0.19256898299157618,-1.4486455875210462
1790942719488845300,4.77184521484375,-0.6312274536948651,-0.10107377159893512,-1.5380515715494751
1790942719498875400,4.78187548828125,-0.6427274104177951,0.12418401355147361,-1.4158707145139575
1790942719508905500,4.791905517578125,-0.5197510921556502,0.39418051961660383,-1.0452665930569172
1790942719518935600,4.801935546875,-0.270606746917963,0.5739765302747488,-0.43936504807006566
1790942719528965400,4.81196533203125,-0.2345826628565788,0.448339979827404,0.32727358683981
1790942719538995500,4.821995361328125,0.051599181268736714,0.4746685993045568,0.9620000616315751
1790942719549025500,4.832025634765625,0.3608897329766303,0.646830754083395,1.4657758782811463
1790942719559055600,4.8420556640625,0.4827892888527363,0.6564379558622837,1.9840816669993102
1790942719569085400,4.85208544921875,0.5024995131034403,0.4180091389715671,2.378014349334687
1790942719579115300,4.862115234375,0.5668752469021827,0.12835107010304928,2.646872060628235
1790942719589145300,4.872145263671875,0.6542145076591521,0.09497545472383499,2.693062733916938
1790942719599175400,4.882175537109375,0.7578431513726711,0.10824234805405139,2.349288605587929
1790942719609205500,4.89220556640625,0.7577987277090549,0.040457098072767254,1.7805771562345325
1790942719619236400,4.902236328125,0.5419874738831073,-0.1447849030315876,1.2811077315419912
1790942719629266400,4.912266357421875,0.2066623172085732,-0.39373452941477294,0.6551624560337513
1790942719639296500,4.922296630859375,-0.34241526106595993,-0.4610065691769123,0.04135681882489007
1790942719649326600,4.93232666015625,-0.8126900093257426,-0.38092064054906366,-0.2294158729442395
1790942719659356400,4.9423564453125,-0.8632183464925736,-0.24331191275715827,-0.4854818889375776
1790942719669386500,4.952386474609375,-0.5763701474130153,0.038919220981001854,-0.6459006336264312
1790942719679416300,4.962416259765625,-0.14680734876990317,0.18096505443751812,-0.2933740206517279
1790942719689446400,4.9724462890625,0.3298492094814777,0.10316694448590279,0.2034019089068286
1790942719699476500,4.9824765625,0.5563210465967655,0.09862871653437613,0.3629661739245057
1790942719709506600,4.992506591796875,0.5791688382208346,0.12670973263680935,0.27267385378191245
1790942719719536600,5.00253662109375,0.5383236906785518,0.15919278309047222,0.044208833555411546
1790942719729566500,5.01256640625,0.31453122884035106,0.1703074668228626,0.03501767893123906
1790942719739596300,5.02259619140625,0.0812801068484783,0.14933949759602547,0.267011060513556
1790942719749626400,5.03262646484375,0.009489055291935802,0.2223918743252754,0.6209269358895718
1790942719759656400,5.042656494140625,0.1305155546605587,0.2647521756708622,0.9744161833513527
1790942719769687300,5.052687255859375,0.27106968825459477,0.18759411718845367,1.1258421318326144
1790942719779717400,5.06271728515625,0.31677696194052696,0.0493348165333271,1.0970835817947984
1790942719789747500,5.07274755859375,0.18081249422430992,-0.0025368250012397764,0.9256978182159363
1790942719799777500,5.082777587890625,-0.1828781945824623,0.10033961210548877,0.7061363450109959
1790942719809807600,5.0928076171875,-0.6106114397108554,0.1497550926595926,0.4327443147560581
1790942719819837700,5.102837646484375,-1.0588345151603222,0.09399638055860995,0.07244609053232706
1790942719829867300,5.1128671875,-1.424513747435808,0.029964345631003378,-0.2448754174805246
1790942719839897300,5.1228974609375,-1.5522119065880775,0.08970774345397949,-0.4047933913066983
1790942719849927400,5.132927490234375,-1.4711363824009895,0.3537660916417837,-0.36017592215146865
1790942719859957500,5.14295751953125,-1.2443781295597554,0.5463672233372926,-0.12780267897266895
1790942719869987600,5.152987548828125,-0.8382149112045765,0.376460738530755,0.15778848751680924
1790942719880017400,5.163017333984375,-0.3981459161162376,0.040807811206579205,0.2987048785519786
1790942719890047500,5.173047607421875,-0.03912086276663467,-0.28266426445841786,0.22991227815905585
1790942719900077300,5.183077392578125,0.18027356504201889,-0.3856336405456066,0.13300514298658817
1790942719910107400,5.193107421875,0.20149402945889158,-0.23456045102477072,0.12087333636721595
1790942719920138200,5.20313818359375,-0.048525847371155395,0.026153262910246847,0.1976157267208211
1790942719930168300,5.213168212890625,-0.4915981067955494,0.16919103001356123,0.4499486936656758
1790942719940198400,5.223198486328125,-0.889471635711193,0.20442659404575825,0.84575473212488
1790942719950228500,5.233228515625,-1.057352167648077,0.2279606143683195,1.3463270765580235
1790942719960258600,5.243258544921875,-1.2943711177408694,0.2730389425009489,1.8177189922794699
1790942719970288600,5.25328857421875,-1.4794202266216276,0.023481997874379157,2.0384696752689777
1790942719980318500,5.263318359375,-1.5551871230065821,-0.26857904048264025,2.1319746190488336
1790942719990348500,5.2733486328125,-1.2108698277115821,-0.28485329893529415,1.9723292698852717
1790942720000378400,5.28337841796875,-0.7190601239919662,-0.1282896953046322,1.6873728028364479
1790942720010408400,5.293408447265625,-0.2743611310154199,0.0653776043176651,1.3088481175132094
1790942720020438500,5.3034384765625,0.031464817888406105,0.19571137267053126,0.8565443486213684
1790942720030468400,5.31346826171875,0.21543255670666694,0.26419045013487336,0.4131234127566218
1790942720040498400,5.32349853515625,0.27180852392315863,0.3260200065821409,-0.04395980896409601
1790942720050528500,5.333528564453125,0.11307225242853164,0.321502821418643,-0.48541477851811793
1790942720060558600,5.34355859375,-0.18983458959162233,0.24198329450190065,-0.8440021893691271
1790942720070588400,5.35358837890625,-0.5092693725645542,0.08015081055760383,-0.9624426177673041
1790942720080619500,5.36361962890625,-0.7533148602932691,-0.0097118311971426,-0.8277283693078905
1790942720090649300,5.3736494140625,-0.8719143517106771,0.08415946167707443,-0.6491706682730466
1790942720100679400,5.383679443359375,-0.9782558345794677,0.2248416055649519,-0.43721572454907
1790942720110709500,5.39370947265625,-0.9651245503276586,0.2588204475343227,-0.2053706151639111
1790942720120739600,5.403739501953125,-0.8113537922859192,0.2854302220404148,-0.022852328518580177
1790942720130769400,5.413769287109375,-0.644797786951065,0.2782861955046654,0.16658464690744876
1790942720140799500,5.423799560546875,-0.5909966386586427,0.21281272959709166,0.2612723524647765
1790942720150829600,5.43382958984375,-0.8050579070121049,0.08306991287469863,0.31384587692469357
1790942720160859400,5.443859375,-0.9932254401743411,-0.02690437353849411,0.32898853753153234
1790942720170889500,5.453889404296875,-1.0717366668313741,-0.02105798559784889,0.2776255396388471
1790942720180919300,5.463919189453125,-1.4286328731924294,-0.28346798205673696,0.22796413976596666
1790942720190949400,5.473949462890625,-1.710348458623886,-0.45927346177399153,0.24755703951362518
1790942720200979500,5.4839794921875,-1.8299352075129747,-0.5701841522544622,0.17438326489441094
1790942720211009500,5.494009521484375,-1.736214136764407,-0.5079600435316562,0.11802379215499385
1790942720221039600,5.50403955078125,-1.5848247209012507,-0.2404606149792671,0.08088033040855079
1790942720231069400,5.5140693359375,-1.546882235997915,-0.0736690473228693,0.188530667386204
1790942720241099300,5.524099365234375,-1.6175789895117283,-0.12136661804318427,0.2920805833077058
1790942720251130600,5.534130615234375,-1.7393471740931272,-0.3317202640503645,0.3311560177637264
1790942720261160400,5.544160400390625,-1.8676871382802724,-0.6771493199795484,0.18434656836828217
1790942720271190500,5.5541904296875,-1.75987558285892,-0.9626783262193203,-0.12557287409398704
1790942720281220400,5.564220458984375,-1.8224159179240464,-1.2477508208632468,-0.38581239464599637
1790942720291250400,5.57425048828125,-1.9778461336106061,-1.3439116859793663,-0.2994675517538562
1790942720301280500,5.584280517578125,-2.1673609897285697,-1.3118553365051746,-0.15205514976289122
1790942720311310600,5.594310546875,-2.266252156591415,-1.2210638894677162,-0.049416686130501326
1790942720321340700,5.604340576171875,-2.496491237285733,-1.1704144832044838,-0.14244392939601092
1790942720331370200,5.614370361328125,-2.753052507716417,-1.1203864237099885,-0.4797036708623171
1790942720341400300,5.624400390625,-2.741402401933074,-0.9359709365576505,-0.7942759623654186
1790942720351430400,5.634430419921875,-2.6588673265874383,-0.6073883860111237,-0.9218681038599461
1790942720361460500,5.64446044921875,-2.595563605934381,-0.18500293165147302,-0.7352944157604128
1790942720371490600,5.654490478515625,-2.1231495075583457,0.1931084966957569,-0.27646540981829165
1790942720381520400,5.664520263671875,-0.9560440027713775,0.44718321100771424,0.21164894651472568
1790942720391550500,5.674550537109375,0.35215810845587403,0.4292670305669307,0.6560412116296589
1790942720401580500,5.68458056640625,0.8623521581172943,0.3633107495784759,0.9065691201802343
1790942720411610400,5.6946103515625,0.606349142623879,0.5210100792407989,0.9902033158741891
1790942720421640400,5.704640380859375,0.3950175914952531,0.8550356976240873,1.0145630464311688
1790942720431670500,5.71467041015625,0.2700164528746158,1.3626578875035047,1.2126844759181141
1790942720441701400,5.724701416015625,0.22838676735851912,1.9748083733499049,1.7267331917136906
1790942720451731500,5.7347314453125,0.47542091550920157,2.3231863422125576,2.334522121349722
1790942720461761500,5.744761474609375,0.7038976261734962,2.3691963982373476,3.0169039351552724
1790942720471791600,5.75479150390625,0.880439603471756,2.2231121030449867,3.484621400147676
1790942720481821200,5.7648212890625,0.8353460777699947,1.9154589432805775,3.5252798660114406
1790942720491850800,5.774850830078125,0.6125941014280543,1.6208248395651579,3.042917497333884
1790942720501880800,5.784880859375,0.331234562892653,1.2319494406193494,2.2847847153648733
1790942720511911000,5.794910888671875,0.07973934367988258,0.791264359459281,1.4876786441400647
1790942720521941000,5.80494091796875,-0.061622635698318474,0.43246787243485446,0.7195207272410392
1790942720531971000,5.81497119140625,-0.19647298642648384,0.005404489392042159,0.28260793116129934
1790942720542001000,5.8250009765625,-0.11089315482378005,-0.4486608823448419,0.4032829867437482
1790942720552031000,5.835031005859375,-0.001220477139088325,-0.5774520974308252,1.0062634931847452
1790942720562061000,5.84506103515625,-0.15645137542784213,-0.5328846414297819,1.788285100263357
1790942720572091000,5.8550908203125,-0.32408874625861644,-0.6365864234447479,2.5223043084561825
1790942720582121000,5.865120849609375,-0.20037231368627398,-0.9162257871240377,2.903128502893448
1790942720592151000,5.875151123046875,-0.02516885498277843,-1.2949603158056735,2.6718910588115454
1790942720602180900,5.885180908203125,0.15451010516695676,-1.9473171398341655,2.031767108890414
1790942720612211000,5.8952109375,0.2630768628697842,-2.8281320063591,1.3994265063218772
1790942720622242000,5.905241943359375,0.021562574119120836,-3.964864584714174,0.5247580335974693
1790942720632272100,5.915272216796875,-0.4041119849137962,-5.281414216515421,-0.6756083741478621
1790942720642302000,5.925302001953125,-0.3294723389931023,-6.395819227728247,-2.1997382417201994
1790942720652332000,5.93533203125,-0.6875894654512404,-6.663409841695428,-2.932537552729249
1790942720662361900,5.94536181640625,-1.91120187035799,-6.522587997075915,-3.482733102183044
1790942720672392000,5.955391845703125,-2.6531851892977953,-5.851435871684551,-4.280154522967338
1790942720682422000,5.965422119140625,-2.855971030399203,-4.7261739508926865,-5.689071472820639
1790942720692451800,5.975451904296875,-3.8731855411872265,-3.489243214729428,-7.0388120110839605
1790942720702482000,5.98548193359375,-4.75226905387491,-3.5778953116506336,-7.295844990679622
1790942720712512000,5.995511962890625,-5.020882873409986,-3.6024762106776236,-5.146757908788323
1790942720722542000,6.0055419921875,-4.916710551273822,-3.326519334903359,-2.6096111282482743
1790942720732572200,6.015572265625,-4.716969776956737,-2.721041166427731,-0.7195644202522933
1790942720742602000,6.02560205078125,-3.6666640206888315,-2.2036785037785767,0.8100688670419156
1790942720752631800,6.0356318359375,-2.1201924113184214,-1.8585218350499868,1.838258945352584
1790942720762662000,6.045661865234375,-1.066218195670843,-1.5579098259687423,2.7295976901099084
1790942720772692000,6.05569189453125,-0.571616815406084,-1.2412205423116682,3.465089601203799
1790942720782722000,6.06572216796875,-0.3730979840993881,-0.8597545428395271,4.0991064664214845
1790942720792752000,6.075752197265625,-0.4840475452855229,-0.6898439663797616,4.815142858678102
1790942720802782000,6.085781982421875,-1.3358856159120798,-0.48958559792935846,5.556890030774474
1790942720812811800,6.095811767578125,-3.016938129685819,-0.09907295317053794,5.685882905912399
1790942720822843100,6.105843017578125,-4.826567339012026,0.12230945185124874,4.980904498764872
1790942720832873000,6.115873046875,-6.060777710300684,0.4146382012337446,3.963482774966955
1790942720842902800,6.12590283203125,-6.583846475636959,0.9760960261970758,3.0697113962352276
1790942720852932900,6.135932861328125,-6.378206414148211,1.566739029112458,2.3524657743193207
1790942720862963000,6.145962890625,-5.850293715912104,1.7728233272373675,1.3325826288439333
1790942720872993000,6.155992919921875,-5.3749394724309445,1.573630542191863,0.37730084261670704
1790942720883023000,6.166023193359375,-5.001989956891537,1.1787503498733043,-0.007556845120340585
1790942720893053000,6.176052978515625,-4.808700258409977,0.7077747598677874,0.2785772874057293
1790942720903082800,6.186082763671875,-4.716788575170934,-0.03688625384867191,1.0649470066912472
1790942720913112800,6.19611279296875,-4.450905349643528,-0.9297422713011503,1.6701261922203003
1790942720923143000,6.206142822265625,-3.8784488685429093,-1.717273289451003,1.7098409474931657
1790942720933173000,6.216173095703125,-3.395204164072871,-2.1049246995598074,1.3145669335514307
1790942720943203000,6.226203125,-3.0545284401506185,-2.1797674668371676,0.5520459996260703
1790942720953233000,6.23623291015625,-2.6442367436885834,-1.9201444707483053,-0.4687184587284922
1790942720963263000,6.246262939453125,-2.3039842136144637,-1.4600076701432465,-1.2772551477670668
1790942720973293000,6.25629296875,-2.037513105196506,-0.7649392471134662,-1.8092483933150767
1790942720983323000,6.266322998046875,-1.8334705420322714,0.13176175532937048,-1.8788138047114014
1790942720993353000,6.27635302734375,-1.7220647615112363,0.8064315334528684,-1.7433955727010964
1790942721003383000,6.286383056640625,-1.5781708159700034,1.5718804836541413,-1.4326083526946602
1790942721013414000,6.296413818359375,-1.1764373967558144,2.2708511748194695,-1.0574133963160217
1790942721023444000,6.30644384765625,-0.4941390234500169,2.838867335385084,-0.1964392485536635
1790942721033474000,6.31647412109375,0.3056026204427704,3.1819056967854498,0.6994754258170723
1790942721043503900,6.32650390625,0.31724224136471746,3.0409003122925755,1.12398298689723
1790942721053534000,6.336533935546875,-0.6405144105434417,1.8027058398038147,0.5302545851871371
1790942721063564000,6.34656396484375,0.35765378326270725,0.7429127087444066,-0.27928865054547786
1790942721073593900,6.35659375,0.793960685871169,0.8711194019407034,-0.32135902903378005
1790942721083624000,6.3666240234375,-0.19876075030378995,0.7552326766133308,-0.5392845715999603
1790942721093654000,6.376654052734375,-1.7810897819317877,0.39111762491464613,-0.4222364012777805
1790942721103683800,6.386683837890625,-2.9379356123805045,0.3212508924841881,0.06972703169882297
1790942721113714000,6.3967138671875,-3.436456796437502,0.05770516999363899,0.2637421218454838
1790942721123744000,6.406743896484375,-2.761594710612297,-0.8333154487252235,0.07785276274830102
1790942721133774000,6.416774169921875,-2.0331544715955854,-1.62497962115705,-0.0762479579001665
1790942721143804200,6.42680419921875,-1.7770345151916145,-1.8120049985468387,0.100316815751791
1790942721153834000,6.436833984375,-1.5782020878911018,-1.6471540435642003,0.16602175232768057
1790942721163863800,6.44686376953125,-1.5831342835962772,-1.5014724839538336,-0.39700522164851426
1790942721173894000,6.456893798828125,-1.5756906895920633,-1.6007231317788362,-0.5439736061990261
1790942721183925000,6.466925048828125,-1.3224427814930677,-1.7542308549702166,0.16601006188988685
1790942721193955000,6.476955078125,-0.8708440921306609,-1.8546371025711297,1.3670774575114248
1790942721203985000,6.48698486328125,-0.5441609454646706,-2.3354250615388152,2.0049735022500155
1790942721214015000,6.497014892578125,-1.0161208703324198,-3.1934973503798245,1.3191042847201226
1790942721224045000,6.507045166015625,-1.1271855823308228,-3.715229898676276,1.1796113506168127
1790942721234075100,6.5170751953125,-0.3891530468434095,-3.9426603516906495,1.1190534215405583
1790942721244105000,6.52710498046875,0.37228959032595155,-3.982093367412686,1.1119763227611779
1790942721254134800,6.537134765625,0.6133829502508044,-3.808735280847549,1.1678370339319109
1790942721264164900,6.547164794921875,0.3819640121221542,-3.2911621903181074,1.0661559440895914
1790942721274195000,6.55719482421875,0.007878186029195785,-2.5825416272759436,1.1771686336398124
1790942721284225000,6.56722509765625,-0.1914768038406968,-1.7293302224695681,1.3589075950592755
1790942721294255000,6.577255126953125,0.08887889141440392,-0.8743979852199554,1.5453116256803274
1790942721304285000,6.587284912109375,0.7634013700217008,-0.06937047334611415,1.490081905889511
1790942721314316000,6.59731591796875,1.7260662522375583,0.8233657171189784,1.004322588250041
1790942721324346000,6.60734619140625,2.333919917672872,1.8796254133552313,0.255332313157618
1790942721334376000,6.6173759765625,2.7138474555313588,2.979194674485922,-0.9727326872438192
1790942721344406000,6.627406005859375,2.563532975423336,4.028286963310838,-1.985636056834459
1790942721354435800,6.637435791015625,2.401124737417698,4.298621323028207,-2.7728581551656126
1790942721364466000,6.6474658203125,2.1279408334881067,3.2388539109319447,-3.1420199688598514
1790942721374496000,6.65749609375,1.8256816417217254,1.3269734106600284,-3.049178895816207
1790942721384526000,6.667526123046875,1.5847785436719655,-0.7387824770718813,-2.7027541068479417
1790942721394556200,6.67755615234375,1.2296475934177635,-2.6478397366166115,-2.753718570409715
1790942721404586000,6.6875859375,0.6449228746354579,-4.25491837490201,-3.143816496887803
1790942721414615800,6.69761572265625,-0.521412814822793,-4.795567220592498,-3.873766555945575
1790942721424646000,6.70764599609375,-1.7625398336321114,-4.595382501900196,-3.336963864289224
1790942721434677000,6.717677001953125,-2.6463684950202704,-4.435577432130277,-1.2855983209595083
1790942721444706800,6.727706787109375,-2.255853512173891,-4.279735713033378,1.0245040832743049
1790942721454737000,6.73773681640625,-1.3320704415380955,-3.9664030463278293,2.2362626765191553
1790942721464767000,6.74776708984375,-0.6785819831311702,-3.5014901173621413,2.0685680225431917
1790942721474797000,6.757797119140625,0.5391793576598167,-3.5069685487732287,1.9239687052115797
1790942721484827000,6.767826904296875,1.4361398878216742,-3.6062776487872004,1.0782707447752355
1790942721494857000,6.77785693359375,1.633963138079643,-3.3887036961376666,-0.17836919272541998
1790942721504886800,6.78788671875,1.9049650217950342,-2.8816271574422716,-1.5228551714614034
1790942721514916900,6.797916748046875,2.519720721703768,-2.240705335141718,-2.400229249882698
1790942721524947000,6.807947021484375,3.0167928759962317,-0.7524962373867631,-2.678691094215214
1790942721534977800,6.817977783203125,3.3935745170444247,1.3097215393468737,-2.868011889065802
1790942721545007900,6.8280078125,3.7342350433975455,2.927505403780937,-2.7218723565548655
1790942721555038000,6.838037841796875,4.127441749545931,3.0023502168849108,-1.941872318431735
1790942721565068000,6.848068115234375,4.445923761838674,2.4625492201954127,-0.7305050625920295
1790942721575098000,6.85809814453125,4.650062186592817,2.005003897388279,0.2790580566599965
1790942721585128000,6.8681279296875,4.580276118183136,1.6740059562630951,0.9406626015052199
1790942721595157800,6.87815771484375,4.577256478101015,1.561218804386258,1.337026310379803
1790942721605187800,6.888187744140625,4.564724328786134,1.6469053295001386,1.3762927373632787
1790942721615218000,6.898218017578125,4.479645998698473,1.8006687810182571,1.0129913401350379
1790942721625248000,6.908248046875,4.407940944924951,1.7815115144751965,0.7010156409963965
1790942721635278800,6.91827880859375,4.301297848761082,1.5405958492048084,0.8397726620405912
1790942721645309000,6.928308837890625,4.275550828564167,1.2925246130913495,1.2824310891002415
1790942721655339000,6.938339111328125,4.455239287194609,1.053390570540726,1.7070678295180202
1790942721665369000,6.948369140625,4.452335966968536,0.8800318994536995,1.618325716225803
1790942721675399000,6.95839892578125,4.024772233188152,0.7675538135260344,1.134354743307829
1790942721685428700,6.9684287109375,3.402736897665262,0.710073099938035,0.5163274743825197
1790942721695458800,6.978458740234375,2.974104657870531,0.6576859100967646,-0.027482173426449298
1790942721705489000,6.988489013671875,2.885680524486303,0.5747001683741808,-0.503264286930859
1790942721715519000,6.99851904296875,1.400867498910427,0.35487829066738485,-0.8711474589914083
1790942721725549000,7.008549072265625,-2.4410621955305336,0.1405177471064031,-0.875168969592452
1790942721735580000,7.018579833984375,-6.299156258308887,-0.8978571867406367,-1.6178727117612957
1790942721745610000,7.02860986328125,-7.218418636649846,-2.18188022120744,-2.9905045885294674
1790942721755640000,7.03864013671875,-3.151296623510122,-1.027445470488444,-3.0117510824367404
1790942721765670000,7.048669921875,0.44271512568295,0.26524215114489197,-1.6666171611860394
1790942721775700000,7.058699951171875,0.4839098903805017,0.47968540455326436,0.46513826215416193
1790942721785729800,7.068729736328125,-0.5638526111453771,-0.3579355593461543,0.9339519979506731
1790942721795759900,7.078759765625,-0.43043958147764205,-0.8509100690614432,-0.09645897127985954
1790942721805790000,7.0887900390625,0.6582827069461346,-0.4696755402576178,-0.6245324130356311
1790942721815820000,7.098820068359375,0.928295579624176,0.19327764271758496,-1.3495558293461798
1790942721825850000,7.10885009765625,0.3649731298327446,0.24377916494272647,-2.2398066327363253
1790942721835881000,7.118880859375,-0.7085428216308355,-0.02541048171892762,-2.9224145103827115
1790942721845911000,7.1289111328125,-1.3925520905077458,-0.06757204562202096,-3.046129737378657
1790942721855940900,7.13894091796875,-0.8647282395988702,-0.22919351716414094,-2.46695534619987
1790942721865971000,7.148970947265625,-0.22816052085459232,-0.37235103818960485,-1.4812144165620207
1790942721876000800,7.159000732421875,0.713642775118351,-0.46169075204879045,-0.3427595444589853
1790942721886030800,7.16903076171875,2.0710785440593957,-0.6312166400399059,0.6382403281316161
1790942721896061000,7.17906103515625,2.1164462105274198,-0.6546531913373619,0.2795537312224507
1790942721906091000,7.189091064453125,1.7118635393619537,-0.5284814380347729,-0.3275321647107601
1790942721916121000,7.19912109375,2.4159476280182597,-0.24284042278788984,0.022851298755407333
1790942721926151000,7.20915087890625,2.60039643291831,0.40891726630367337,0.47815293428897854
1790942721936180700,7.2191806640625,-0.8392401625990867,0.8002258837457745,-0.0800344907015562
1790942721946211800,7.2292119140625,-2.1021932287693024,0.6736153736997396,0.3532584343805909
1790942721956242000,7.239241943359375,1.899734135404229,1.1444649261727928,1.4815250899463892
1790942721966272000,7.24927197265625,2.5144284605145453,1.7423732439160347,0.9998758379742503
1790942721976301800,7.2593017578125,0.7832628393113613,1.679576742132753,0.933021439102292
1790942721986332000,7.269331787109375,2.101589417657256,1.3362279996089637,1.3086489416792988
1790942721996362000,7.279362060546875,4.379479405072331,1.1060356806658207,1.2252645560279487
1790942722006392000,7.28939208984375,5.316092146664857,1.3938544052779673,0.879911780205369
1790942722016422100,7.299422119140625,6.877290492784977,2.3267552867405117,0.9730319624513387
1790942722026451700,7.30945166015625,6.779428668969869,2.382918487989157,1.8104981011152266
1790942722036481800,7.319481689453125,0.7329927877545356,1.8921353508383034,0.9493640866160392
1790942722046511900,7.329511962890625,-4.7924762688398355,1.7117925199523567,-0.9059399554312229
1790942722056543000,7.33954296875,-6.427299823141098,1.498578077686578,-1.439726806397736
1790942722066572800,7.34957275390625,-4.587102164810895,0.8563448805265128,-0.5304696892425418
1790942722076603000,7.359602783203125,-1.7331681931972502,0.2074149622067809,-0.21285306160748005
1790942722086633000,7.369633056640625,0.14930091915130614,-0.15925634984597561,0.14431874682456255
1790942722096663000,7.3796630859375,2.5311019474178553,-0.04245572454407811,-0.2617506557673216
1790942722106693000,7.389693115234375,2.3167092551529405,0.07410057060793042,-1.555145475821942
1790942722116723000,7.399722900390625,0.9525029691636562,-0.1024061892464757,-2.051192817111313
1790942722126752800,7.409752685546875,0.42659693457484243,0.06232698457539081,-0.9214934983938932
1790942722136782800,7.419782958984375,0.3418143725633621,0.15920710387676953,0.33276056688353417
1790942722146813000,7.42981298828125,0.5317898319303989,0.35668607074171305,0.4002244759559631
1790942722156843000,7.439843017578125,0.22277298259735107,0.5663251387387513,-0.4025450278580189
1790942722166873000,7.449873046875,-0.4608230293035507,0.6120882342651486,-1.039909888329357
1790942722176903000,7.45990283203125,0.11162848336100578,0.6541016218692064,-0.9612877486437559
1790942722186932700,7.4699326171875,1.1827356201171875,0.7079436866939067,-0.6066917820490897
1790942722196964000,7.479964111328125,1.7429291242331266,0.874203047169745,-0.43803325147703287
1790942722206994000,7.489993896484375,1.739918251979351,1.1695485140249133,-0.5959596678934991
1790942722217023700,7.500023681640625,1.5569862813830375,1.455101777923107,-1.1507399147890507
1790942722227053800,7.5100537109375,1.27245622305274,1.6263547089025376,-1.4098396176561712
1790942722237084000,7.520083984375,1.2246136909037828,1.543389717707038,-1.2601201808318494
1790942722247114000,7.530114013671875,1.0344798261046408,1.234853929889202,-0.9921564957685768
1790942722257144000,7.54014404296875,0.8088035232812165,0.8198053942888974,-0.7879315617747604
1790942722267174000,7.550173828125,0.9182616768658161,0.13527064023315905,-0.7891098117738962
1790942722277204000,7.560203857421875,1.2205243757635353,-0.5350859508663416,-0.7650558592304587
1790942722287233800,7.57023388671875,1.4491571903049945,-0.8847183037042617,-0.7117072770111262
1790942722297263900,7.580263916015625,1.3259376378715038,-1.0491624314516783,-0.7387579271525144
1790942722307294000,7.5902939453125,1.14789285479486,-0.9644324764102696,-0.8883635283388197
1790942722317324000,7.600323974609375,0.9323065688312053,-0.8326847496062517,-1.1093128026403487
1790942722327353900,7.610353759765625,0.5658908389747143,-0.6390192035496235,-1.2569850976765156
1790942722337384000,7.620384033203125,0.11868716970086098,-0.4786714052051306,-1.3703950576268136
1790942722347414000,7.6304140625,-0.2996235825657844,-0.40442251216769215,-1.4669552973240614
1790942722357443800,7.64044384765625,-0.5170575422227383,-0.44107904891371724,-1.6146271539688108
1790942722367475000,7.650474853515625,-0.3793587980598211,-0.5547966135084629,-1.5844365983664987
1790942722377504800,7.6605048828125,-0.07230886488556862,-0.6792904236614704,-1.4126939841739832
1790942722387534800,7.670534912109375,0.02181786405444145,-0.7641121486395597,-1.3247034199014305
1790942722397565000,7.68056494140625,-0.22795827628076076,-0.8179968835622071,-1.2909716845609247
1790942722407595000,7.690594970703125,-0.4279483491837978,-0.8920388558506965,-1.2333628145486115
1790942722417624800,7.700624755859375,-0.34360768572092054,-0.9610182840526104,-1.0726007363148033
1790942722427655000,7.710655029296875,-0.2528700146973133,-0.9830448224216699,-0.829627407862246
1790942722437685000,7.72068505859375,-0.3541577213078737,-0.9739888247847557,-0.6040439709540456
1790942722447714800,7.73071484375,-0.5991308452755213,-1.0177923106759785,-0.48959326977916057
1790942722457745000,7.740744873046875,-0.7768091331273317,-1.0818196694284676,-0.5516315736062825
1790942722467775000,7.75077490234375,-0.7568161464124917,-0.9685521866887807,-0.5324314908348023
1790942722477804800,7.7608046875,-0.5303992543548345,-0.8103466610699892,-0.4333781922128051
1790942722487835600,7.770835693359375,-0.2944008794814348,-0.5851935053378343,-0.44961109574176367
1790942722497865500,7.780865478515625,-0.355624871250987,-0.3678431323111057,-0.5472222327314317
1790942722507895600,7.7908955078125,-0.5451081631869077,-0.02052256354689598,-0.6748670542612671
1790942722517925400,7.80092529296875,-0.7496861484020948,0.24096330380439757,-0.8468891429822891
1790942722527955500,7.81095556640625,-0.8668646671056747,0.42713644827902314,-1.021105380746722
1790942722537985500,7.820985595703125,-0.9921125104963779,0.5536486125171184,-1.2956497593745588
1790942722548015600,7.831015625,-1.3051713286966085,0.6365145272523164,-1.4815107691600917
1790942722558045700,7.841045654296875,-1.8094938925087451,0.6219394739329814,-1.5511565523162483
1790942722568075800,7.85107568359375,-2.1413550263345242,0.5576619398117065,-1.5735954708784818
1790942722578106600,7.861106689453125,-2.319696746531129,0.41992812433540816,-1.3454723594248295
1790942722588136400,7.871136474609375,-2.46216226670444,0.04704465976953506,-1.0309835084214807
1790942722598166500,7.88116650390625,-2.44437000490427,-0.34283260969519613,-0.8198457993645221
1790942722608196600,7.891196533203125,-2.2551398109465834,-0.65375909204185,-0.4658760749094188
1790942722618226400,7.901226318359375,-1.8010142334550618,-0.8298977492362261,-0.18121238026209174
1790942722628256500,7.911256591796875,-1.2646557784348726,-0.8668722658902406,-0.022810199560038744
1790942722638286600,7.92128662109375,-1.1363286737293004,-0.9350924001574515,-0.0023978183893486856
1790942722648316700,7.931316650390625,-1.4435475337296724,-0.8827952266871929,-0.17554734023772178
1790942722658346800,7.9413466796875,-1.2647265055835246,-0.8735393225640058,-0.45029999132137744
1790942722668376300,7.951376220703125,-0.934114495036006,-0.8365098608523607,-0.7032170234981924
1790942722678406400,7.961406494140625,-0.4815764789968729,-0.7380968328952789,-0.8087889102339744
1790942722688436500,7.9714365234375,-0.3683639413148165,-0.5817144310504198,-0.9031572659101337
1790942722698466600,7.981466552734375,-0.49488838051259515,-0.515112837895751,-0.8992254794191569
1790942722708496600,7.99149658203125,-0.6870867766261101,-0.5012514858037233,-0.7038473572909831
1790942722718526700,8.001526611328124,-0.8154542133420706,-0.5913917754560709,-0.4844405631911009
1790942722728556500,8.011556640625,-1.1697025355428456,-0.8927923045665025,-0.6057998016454279
1790942722738586600,8.021586669921875,-1.6980483644992113,-1.2818898218303918,-0.5945841417565941
1790942722748616400,8.031616455078124,-2.091969940918684,-1.642764284172654,-0.4365775727760046
1790942722758646500,8.041646484375,-2.3752777639776466,-1.9819097297877073,-0.2368839255362749
1790942722768676600,8.051676513671875,-2.4230782105505466,-2.166003145378828,-0.22531506829559803
1790942722778706400,8.06170654296875,-2.216605789890885,-2.136636765640974,-0.2304828993875533
1790942722788736500,8.071736572265625,-1.7726187445759771,-1.885097707286477,-0.28309067317694425
1790942722798766600,8.0817666015625,-1.3887205495208501,-1.425306943640113,-0.5319750523041934
1790942722808796700,8.091796630859376,-0.8438865271002054,-0.8042460061073303,-0.7332586721491068
1790942722818826500,8.101826416015625,-0.10419394944608211,-0.1043944404542446,-0.6088231680545956
1790942722828856600,8.111856689453125,0.175541860345006,0.518253474009037,-0.23345833500176666
1790942722838886400,8.121886474609376,0.16752572714984415,0.9348287807852029,0.5953611905436963
1790942722848917500,8.13191748046875,0.3178869690090418,1.1565893714696167,1.3332970607236028
1790942722858947600,8.141947509765625,0.3858084125906229,1.4061439780086278,1.9216120590828358
1790942722868977700,8.151977783203124,0.07708382420241833,1.4345260228842496,2.557327691042423
1790942722879007500,8.162007568359375,-0.3135287737995386,1.1086088921546935,2.936931403774023
1790942722889037600,8.17203759765625,-0.5369318709939718,0.5180845471829175,2.605061209858954
1790942722899067600,8.182067626953126,-0.5075730900406837,0.23303952506780623,2.202141211208701
1790942722909097500,8.192097412109375,-0.25519874990582464,0.425596233099699,2.145407224334776
1790942722919127600,8.20212744140625,0.1841629736959934,0.9682336222589015,2.1510709491848945
1790942722929157400,8.212157470703126,0.3757867847919464,1.5252309606820345,1.796785802105069
1790942722939187500,8.2221875,0.34887364342510696,1.816172639620304,1.1482101771157234
1790942722949217500,8.232217529296875,0.22260230220556257,1.922440472730994,0.3235172299809754
1790942722959247600,8.24224755859375,0.15321780033409593,2.3030273512810466,0.1734228954296559
1790942722969277700,8.252277587890624,-0.1923071171849966,2.3236638965964316,0.07540894979275763
1790942722979307800,8.262307861328125,-0.498327707311511,1.9664467877179383,-0.13142930850461124
1790942722989337300,8.27233740234375,-0.7099749002605676,1.5786562613993882,-0.2816860670760274
1790942722999367400,8.282367431640624,-1.0916326229125262,1.1253291408091783,-0.4303853670723736
1790942723009397500,8.2923974609375,-1.5104951638430355,0.45755613646209237,-0.41981195060983295
1790942723019427600,8.302427490234376,-1.8411399076163768,-0.11995908933281897,-0.34938276199102397
1790942723029457700,8.312457763671874,-2.049926450437307,-0.359438876581192,0.039708617793023586
1790942723039487500,8.322487548828125,-2.1925912925750017,-0.47558746771514415,0.24381065605953334
1790942723049517600,8.332517578125,-2.344821250915527,-0.26037410671710964,0.07187602642625569
1790942723059547600,8.342547607421874,-2.3896149168878793,0.11076280644237994,-0.06739698131605983
1790942723069577500,8.352577392578125,-2.240382386797666,0.3580541442245245,-0.0907515534184873
1790942723079607600,8.362607666015625,-2.2645827620744705,0.6930003845840692,-0.10751564121469855
1790942723089637600,8.3726376953125,-2.292793542036414,0.9882295315831899,0.22999445828348397
1790942723099667500,8.38266748046875,-2.5282249306768176,1.2232149300217627,0.6938283598408103
1790942723109697500,8.392697509765625,-2.377138297152519,1.1530576902121306,1.104785680604726
1790942723119728600,8.402728759765624,-1.969060185086727,0.7398398771703243,1.869646163393557
1790942723129758700,8.4127587890625,-1.9605285035848616,0.22704057691395282,2.1741217160351574
1790942723139788500,8.42278857421875,-1.6216788260459898,-0.13613807071745396,2.021103383795917
1790942723149818600,8.432818603515624,-1.0197036972552538,-0.4222369857996702,1.8904801309771835
1790942723159848400,8.442848388671875,-0.43114568392038344,-0.6805868932127952,1.511567615380138
1790942723169878500,8.45287841796875,-0.042461423632502555,-0.8415589609354734,0.9219253139398992
1790942723179908600,8.46290869140625,0.204214412599802,-0.8125432943314314,0.5126439635641873
1790942723189938400,8.4729384765625,0.4906313075900077,-0.895008811572194,0.1645265453338623
1790942723199968500,8.482968505859375,0.7897942869067192,-0.9147536687448621,-0.032787878619134424
1790942723209998600,8.49299853515625,1.1702250981122255,-0.9044120152115821,0.0335842896938324
1790942723220028700,8.503028564453125,1.5211556740671395,-0.8272773376047611,0.25444997736513614
1790942723230058500,8.51305859375,1.620789183729887,-0.8079846081137657,0.3866337574988603
1790942723240088600,8.523088623046876,1.6069629029512404,-0.6792334327772259,0.3150532068878412
1790942723250118400,8.533118408203125,1.4944243190079927,-0.4013631245970726,0.2204962698370218
1790942723260148500,8.5431484375,1.3480085999041795,-0.2451908583715558,0.06605886458009481
1790942723270178600,8.553178466796876,1.1071171922922134,-0.027764205238223073,-0.2983662759810686
1790942723280208600,8.563208740234375,1.0780898352503776,0.31271745741665363,-1.007334337286651
1790942723290238700,8.57323876953125,1.173122573119402,0.29829233396202326,-0.8316624208211898
1790942723300268500,8.5832685546875,1.3573276323914527,-0.5194204719617963,-0.08045622324496507
1790942723310298400,8.59329833984375,1.1216694492578505,-0.7358420397058129,-0.727501496861875
1790942723320328400,8.603328369140625,0.9343114789128303,-0.4726762564435601,-1.046910268610716
1790942723330358500,8.613358642578126,0.7554606401503086,-0.15053893651366232,-0.841675280791521
1790942723340388600,8.623388671875,0.641783992087841,0.12925269511789084,-0.40017391481250525
1790942723350419500,8.63341943359375,0.21092940006852148,0.33343758936226364,-0.22253712801486253
1790942723360449500,8.643449462890626,-0.3397492567270994,0.4231900487408042,-0.2563090492352843
1790942723370479600,8.653479736328125,-0.462915033146739,0.30942922952622176,-0.2331117135211825
1790942723380509700,8.663509765625,-0.011232172632217407,0.1358718209967017,-0.01525485227704048
1790942723390539500,8.67353955078125,0.8796353013515472,-0.07390022573024034,0.2691419350624084
1790942723400569300,8.6835693359375,1.1717279038906097,-0.3197349349632859,0.460475531040132
1790942723410599400,8.693599365234375,1.5249661722660064,-0.3571044422842562,0.35830665768086906
1790942723420629500,8.70362939453125,1.8826959068417548,-0.15928367624431847,0.3266115427345037
1790942723430659600,8.71365966796875,1.460574071854353,-0.10811521454304455,0.38599458281248805
1790942723440689700,8.723689697265625,1.4696008433967829,-0.2537033967815339,0.7789198416709899
1790942723450719500,8.733719482421876,1.7622750452160834,-0.26422552144825456,1.210631635041535
1790942723460749600,8.74374951171875,2.3395056088507173,-0.13103972466513514,1.323859662553668
1790942723470779600,8.753779541015625,2.8480063351303335,0.21193229350075124,0.9157482327401637
1790942723480809500,8.7638095703125,2.135720819839835,0.6152367614239453,0.4276908672913909
1790942723490839800,8.77383984375,1.4944038607418537,0.6776669141128658,0.2088981865018606
1790942723500869600,8.78386962890625,2.065147400444746,0.7827364773496985,0.3678565763145685
1790942723510899700,8.793899658203125,2.2214941464543343,1.0047750081926583,0.2547317169159651
1790942723520929500,8.803929443359374,1.8245827405691146,0.9999082789391278,-0.11424041942507028
1790942723530959600,8.813959716796875,1.3750076659888029,0.8006659556634723,-0.21527941197156905
1790942723540989700,8.82398974609375,1.5058406160354614,0.7473214650973677,0.06075228260457515
1790942723551019800,8.834019775390624,1.7851660914599894,0.9020110915496945,0.2295160271167755
1790942723561050600,8.844050537109375,1.5508908871173859,1.1491979460440576,0.1391997963756323
1790942723571080700,8.854080810546876,1.167450957223773,1.3766836363770067,0.06019260289520025
1790942723581110800,8.86411083984375,1.090994909530878,1.5731192316688596,0.34586394021511074
1790942723591140900,8.874140869140625,1.233462767791748,1.727621226594597,0.8609490133211016
1790942723601170700,8.884170654296875,1.48221365673244,1.766811519601941,1.2619488575637339
1790942723611200500,8.894200439453124,1.575924790608883,1.782146597508341,1.443794494228065
1790942723621230600,8.904230712890625,1.4064800780951976,1.803110036690533,1.381724991545081
1790942723631260700,8.9142607421875,1.3659037375569343,1.9013018231123684,1.204381634736061
1790942723641290800,8.924290771484374,1.366599903127551,2.0444187929317352,1.1902438037902117
1790942723651320600,8.934320556640625,1.1844926929175854,2.1426918278962375,1.1870230881780386
1790942723661350700,8.9443505859375,1.1850947504639624,2.1341516708269714,1.2307125923007727
1790942723671380700,8.954380615234374,1.1912602873563767,2.076354146374762,1.337867729640007
1790942723681410800,8.964410888671875,1.0525964975535869,1.9391990075692533,1.4950241845972836
1790942723691440600,8.974440673828125,0.9261790258616208,1.8358342024236916,1.4119127706684171
1790942723701470700,8.984470703125,0.907177972793579,1.8144409935221075,1.1708829774990677
1790942723711500500,8.99450048828125,0.6766589061141014,1.7809210012361407,0.8890459576450288
1790942723721530600,9.004530517578125,0.6686497871816158,1.474583600245416,0.7690683097422123
1790942723731560700,9.014560791015626,1.159597321113944,1.244703123730421,1.0861622286774217
1790942723741591800,9.024591796875,1.8949404713869094,1.0810542380139232,1.6381544522896407
1790942723751621600,9.03462158203125,1.7657003434896468,0.705695907767117,1.5092342039965092
1790942723761651700,9.044651611328124,1.2275398074835537,0.3047770198062062,1.3594646444201468
1790942723771681800,9.054681884765625,0.8536556414425372,-0.2662286779642105,1.360829503032565
1790942723781711600,9.064711669921875,0.490237339836359,-0.5782184056282043,1.2163852301321922
1790942723791741700,9.07474169921875,0.25643209109306336,-0.6813163765311241,1.2368603012755512
1790942723801771500,9.084771484375,-0.10907061557173728,-0.6598451339572667,1.2450868623510003
1790942723811801600,9.094801513671875,-0.3162812873780727,-0.519191631641984,0.9469704694777726
1790942723821831700,9.104831787109376,-0.5158095879882574,-0.3771498898386955,0.48309974304139613
1790942723831861800,9.11486181640625,-0.44314474927186964,-0.2120528511404991,0.0603873948149383
1790942723841891800,9.124891845703125,-0.5113602073639631,0.03674947572648525,0.03386252211332321
1790942723851921700,9.134921630859376,-0.7403314600795508,0.011876900276541709,0.11692220585495233
1790942723861951500,9.144951416015624,-0.9381704924285411,-0.21614216628074645,-0.05378602378852665
1790942723871981600,9.154981689453125,-1.1805056691080331,-0.5622761556088924,-0.5886491256844252
1790942723882011600,9.16501171875,-1.5356296050995588,-0.9121656980782746,-1.3092746723622082
1790942723892041700,9.175041748046874,-1.6802052492946384,-1.0890373457223177,-1.3825500441923737
1790942723902071800,9.18507177734375,-1.676890425658226,-1.268380936437845,-1.2375108741387724
1790942723912102700,9.1951025390625,-1.392377902984619,-1.62953012406826,-1.1201437009952961
1790942723922132700,9.2051328125,-1.3850029903024434,-1.9809248104035853,-1.0397028214499353
1790942723932162800,9.215162841796875,-1.4243845680981873,-2.1646944008678197,-0.8268932336580008
1790942723942192600,9.225192626953126,-1.2328805839896202,-2.102904007387161,-0.5744594914861023
1790942723952222500,9.235222412109374,-1.3043313707411288,-1.9557061979949473,-0.30562260378487405
1790942723962252500,9.24525244140625,-1.5775328103274107,-1.972407741948962,-0.16751286766827106
1790942723972282600,9.25528271484375,-1.8443851731479166,-2.124866248348355,-0.1177381984129548
1790942723982312700,9.265312744140624,-1.6425450884640216,-2.1130530609577893,0.21793796365633605
1790942723992342800,9.2753427734375,-1.3987597129762173,-2.074710763081908,0.600567307819426
1790942724002372900,9.285372802734376,-0.7961112149685621,-2.0059341639757156,0.814720346109569
1790942724012402700,9.295402587890624,-0.12934826444685457,-1.768241844666004,0.9807551040492951
1790942724022432500,9.3054326171875,0.02597790634334087,-1.5795605167627333,0.7218520927980542
1790942724032462600,9.315462646484375,-0.7207412089467048,-1.6280372551620006,0.18776216723173855
1790942724042492700,9.32549267578125,-2.025663531318307,-1.766419889935851,-0.1248218730635941
1790942724052522800,9.335522705078125,-2.358917580807209,-1.7624913183152675,-0.3151508220434189
1790942724062552600,9.345552490234375,-1.879604955089092,-1.5663976683288812,-0.23530096719376742
1790942724072582700,9.355582763671874,-1.5105623838603495,-1.2024229018837214,-0.1469817554887384
1790942724082612700,9.36561279296875,-1.3255202892422675,-0.8499012573450804,0.01369593239724636
1790942724092643800,9.375643798828126,-1.0117945315659045,-0.5054302327930927,0.1828134587831795
1790942724102673700,9.385673583984374,-0.7270534608334303,-0.11589900028705596,0.2940660215038806
1790942724112703500,9.395703369140625,-0.5063374107658862,0.1108516537696123,0.38651020418442783
1790942724122733600,9.405733642578125,-0.27477555703520773,0.07215922728180885,0.14836867980249224
1790942724132763600,9.415763671875,-0.23713410090506076,-0.03650397653281688,-0.1403016932029277
1790942724142793700,9.425793701171875,-0.38890404051840305,-0.20707506272792814,-0.3985877415996045
1790942724152823800,9.43582373046875,-0.43271337162852286,-0.2874316249907017,-0.4975589148961007
1790942724162853600,9.445853515625,-0.6145528708130121,-0.5312596705764532,-0.5223682158514857
1790942724172883700,9.4558837890625,-0.37663434153199193,-0.45512160279154773,-0.5206214452493936
1790942724182913800,9.465913818359375,-0.053309565383195874,-0.22777181379795072,-0.5496241062413901
1790942724192943600,9.475943603515624,0.3770207105010748,-0.1525847631275654,-0.5185459541495889
1790942724202973700,9.4859736328125,0.852484844097495,-0.23700725965499878,-0.4165287642206996
1790942724213003500,9.49600341796875,1.0446908389955758,-0.4631371514648199,-0.28977190450653434
1790942724223033600,9.50603369140625,1.0101794975847005,-0.5324415738373994,-0.30997889929823574
1790942724233063700,9.516063720703125,0.5909206508129835,-0.4288111034929752,-0.22501696213185785
1790942724243093800,9.52609375,0.01120586914718151,-0.3018143706083298,-0.09531959198638797
1790942724253123800,9.536123779296876,-0.7743769375443458,-0.39851474942862986,-0.40571942011043427
1790942724263153700,9.546153564453125,-1.6927870829701424,-0.5759130512952805,-0.4168441868454218
1790942724273184800,9.556184814453125,-2.2521283541709183,-0.8530763802498579,-0.48146249722838397
1790942724283214600,9.566214599609374,-2.4915163714826107,-1.0935463475793599,-0.34665362928807736
1790942724293244700,9.57624462890625,-2.395165536752343,-1.1965829436838626,-0.004885433954000473
1790942724303274800,9.586274658203125,-2.16784497385323,-1.0807184301882982,0.3042402825810015
1790942724313304600,9.5963046875,-1.9924445678055285,-0.8413456104457377,0.8341035303629935
1790942724323334700,9.606334716796875,-1.9075275657594202,-0.6322270591914654,1.4085470936276019
1790942724333364700,9.61636474609375,-1.7444541418433188,-0.4656085100144148,1.9410459506101905
1790942724343394800,9.626394775390626,-1.446153332313895,-0.3043704848319292,2.210263435126841
1790942724353425000,9.6364248046875,-1.0777712708204985,-0.047992169752717015,2.448062721942365
1790942724363454500,9.646454345703125,-0.6240829157024621,0.25081132860183714,2.5689520778626203
1790942724373484500,9.656484619140626,-0.35762452063560485,0.4764174887984991,2.503128775604069
1790942724383514600,9.6665146484375,-0.3309422654151916,0.5773953988075256,2.3142776440918444
1790942724393544700,9.676544677734375,-0.2887158195823431,0.5052291572630405,2.008905581001937
1790942724403574800,9.68657470703125,-0.25201836630403995,0.4628735320925712,1.6860263566635547
1790942724413604900,9.69660498046875,-0.24285247855186462,0.450197590392828,1.4922206714838742
1790942724423634700,9.706634765625,-0.17360124767124652,0.3060983315378427,1.307132399636507
1790942724433664500,9.71666455078125,-0.009915829336643218,-0.06243161399364471,1.2315614642150698
1790942724443694600,9.726694580078124,0.09122750036716461,-0.3195364897817373,1.2222282570719718
1790942724453724700,9.736724609375,0.16114391715824603,-0.18889000221788882,1.346218355486542
1790942724463754800,9.746754638671876,0.2565881584376097,-0.25032325282394885,1.3942480807706712
1790942724473785600,9.75678564453125,0.34127076720595356,-0.4790875847905874,1.3976463449068366
1790942724483815700,9.766815673828125,0.4436602975785732,-0.560165739326179,0.9018390959836542
1790942724493845500,9.776845458984376,0.7841653411090374,-0.5232242481589316,0.6581598112188279
1790942724503875600,9.78687548828125,1.2829068899184464,-0.40921325357556343,0.8299521097719669
1790942724513905400,9.796905517578125,1.7338818944245575,-0.48141895034760235,0.9538941312611102
1790942724523935200,9.806935302734376,1.4945435614734888,-0.5165530998319388,0.7567100556895137
1790942724533965300,9.81696533203125,0.9450637590736151,-0.6614461394131184,0.46055546440854667
1790942724543995400,9.826995361328125,0.37236850078105926,-0.8996905396476388,0.2850628500327468
1790942724554025500,9.837025390625,-0.0072772975265979764,-1.2542752541959286,0.2298272850230336
1790942724564055600,9.8470556640625,-0.13847440471053124,-1.6645114210784435,0.1333712363526225
1790942724574085400,9.85708544921875,-0.4191057020366192,-2.385151799999177,-0.07719429883956909
1790942724584115500,9.867115478515625,-0.7010346379578113,-2.351504381941259,0.035760172428190705
1790942724594145500,9.8771455078125,-0.2750251478821039,-2.238392674285173,-0.27704642457664014
1790942724604175400,9.88717529296875,0.2820095999419689,-1.9534473131522536,-0.4648196977242827
1790942724614205400,9.897205322265625,0.2753787836253643,-1.4528177586391566,-0.35893911036550996
1790942724624235300,9.9072353515625,0.06002513737380504,-0.8104688261449337,-0.41335517568588254
1790942724634265300,9.917265380859375,0.09474632214307785,-0.24344606053084134,-0.39105888046473264
1790942724644295400,9.92729541015625,0.17405249857008456,0.1921951812431216,-0.2592258134648204
1790942724654325500,9.937325439453126,0.42623920717835423,0.4025171169377863,-0.2235036349594593
1790942724664355600,9.94735546875,0.8020739227652549,0.35324674394279715,-0.19884762486964463
1790942724674385400,9.957385498046875,1.1828478483200073,0.18646788963750005,-0.07452595641314982
1790942724684416500,9.96741650390625,1.5708078859865664,-0.18721067082881926,0.1334407944574952
1790942724694446300,9.9774462890625,1.5476327621042727,-0.7004518696337938,0.40434535527825355
1790942724704476400,9.987476318359375,1.612232367786765,-0.9351127122931182,0.39805473070144654
1790942724714506500,9.997506591796874,2.182670202541351,-0.8999499212361871,0.4442679080829024
1790942724724536300,10.007536376953125,2.705314020463824,-0.627474750097841,0.4648772731304168
1790942724734566400,10.01756640625,3.0881080536693335,-0.301263750988245,0.4379448425412178
1790942724744596500,10.027596435546876,3.8223207386076448,0.19729498860016464,-0.1287313015922904
1790942724754626600,10.03762646484375,4.433842863422632,0.770606990551576,-0.9335963163807988
1790942724764656400,10.047656494140625,4.1768145600020885,1.1199275740265846,-1.294079149056971
1790942724774686500,10.0576865234375,3.508814761161804,1.014167982698977,-1.4693229032382369
1790942724784716300,10.06771630859375,3.1076784310579297,0.862162480764091,-1.344549691621959
1790942724794746400,10.077746337890625,3.265168501883745,0.9712846073273569,-0.8318348547786474
1790942724804776400,10.0877763671875,3.6804403248459097,1.3442358033671975,-0.3053083502039313
1790942724814806500,10.097806640625,3.239278273823857,1.5524015839412808,-0.06485884114056825
1790942724824836600,10.107836669921875,2.489081253290176,1.6543711353361605,-0.31129590018093584
1790942724834866400,10.117866455078126,1.7359779899209737,1.7647620397262274,-0.396968396769464
1790942724844896300,10.127896240234374,1.4704349561333656,1.7119152695491908,0.16226853727400303
1790942724854926300,10.13792626953125,1.4582061736792324,1.5865851547025143,0.8493556061610579
1790942724864956400,10.147956298828126,1.446270821213722,1.546909562396258,0.9800663911327719
1790942724874986500,10.157986572265624,1.3816110097765921,1.5107207892924546,0.9578864157676696
1790942724885016300,10.168016357421875,1.3209873219877482,1.4588628840222955,0.8912161412909626
1790942724895047400,10.17804736328125,1.1928922724723816,1.4239527525521813,0.8825677015416323
1790942724905077500,10.188077392578125,1.3429770354777575,1.4340971299476921,1.0477106252081692
1790942724915107600,10.198107666015625,1.4099024537593126,1.4619685949526726,1.1724961117841302
1790942724925137400,10.208137451171876,1.443285083401203,1.5246858940199017,1.1607415227130056
1790942724935167200,10.218167236328124,1.7735417046397923,1.562082143217325,1.1225206592597066
1790942724945197300,10.228197265625,1.880813746356964,1.5881076880946754,1.0726511513277888
1790942724955227400,10.238227294921876,1.7398866877973078,1.5688845167085528,0.9877775500319897
1790942724965257500,10.248257568359374,1.7746680783212183,1.572877093476057,0.7951322869338094
1790942724975287600,10.25828759765625,1.7357716536939143,1.569107804070413,0.5881374498352409
1790942724985317400,10.2683173828125,1.5711235278069973,1.4902332970589398,0.4901178051099181
1790942724995347500,10.278347412109374,1.4913503183901309,1.4778385103881357,0.5836946450822055
1790942725005377500,10.28837744140625,1.551528015977144,1.226291853249073,0.5633639508455991
1790942725015407400,10.298407470703125,1.5069307493597268,0.8464493633255362,0.5975538052171468
1790942725025437400,10.3084375,1.2619067719876766,0.47132104244232176,0.8339229130990803
1790942725035467300,10.31846728515625,0.8875263468623161,0.029749826097488403,1.154390400120616
1790942725045497300,10.328497314453125,0.653123132225871,-0.44067280620038507,1.4528662739560008
1790942725055527400,10.33852734375,0.678830404934287,-0.8147977952599526,1.638452850714326
1790942725065557500,10.3485576171875,0.5218967989474534,-1.3401508721411228,1.626635863931477
1790942725075587600,10.358587646484375,0.17860183243751523,-1.7071563845843076,1.5489973284557461
1790942725085617400,10.368617431640626,-0.15205401725172996,-1.686722668364644,1.8022275547675788
1790942725095647200,10.378647216796875,-0.6735574329674243,-1.8183552443563937,1.4827294973000884
1790942725105677300,10.38867724609375,-1.3845423870533704,-1.79672793443799,0.9839496623069047
1790942725115707400,10.398707275390626,-1.784723023867607,-1.6948872701197861,0.4913979080483317
1790942725125738500,10.408738525390625,-1.7581179255366324,-1.552746159595251,0.27867168769091366
1790942725135768300,10.418768310546875,-1.712621664252877,-1.542898719319701,-0.10935410868823528
1790942725145798400,10.42879833984375,-1.6191227118223905,-1.508351722073555,-0.28677491464763877
1790942725155828500,10.438828369140625,-1.1359604249387978,-1.5759943487137555,-0.5395774901319295
1790942725165858600,10.448858642578125,-0.8796481608331203,-1.7776666756153106,-1.0280122375257312
1790942725175888600,10.458888671875,-1.1402613370031118,-1.9488404038786886,-1.4161847488991914
1790942725185918200,10.468918212890625,-1.553096872729063,-2.0427175419718027,-1.7482015116780996
1790942725195948300,10.4789482421875,-2.0426269410789013,-2.048966665494442,-2.1383906235709786
1790942725205978400,10.488978271484376,-2.4729268218249083,-1.9910048903912305,-2.429538492605835
1790942725216008400,10.499008544921875,-2.5714783814698454,-1.9665023172974585,-2.5543983595922586
1790942725226038500,10.50903857421875,-2.4264257674127814,-1.8340894045829772,-2.4818390270769592
1790942725236068600,10.519068603515626,-2.3576456611752508,-1.752337004047632,-2.350381223130226
1790942725246098400,10.529098388671875,-2.548060681003332,-1.777505347573757,-1.987588944467902
1790942725256128300,10.539128173828125,-2.4817402428776023,-1.8403391126275062,-1.2494547021716833
1790942725266158300,10.549158447265626,-1.970296448883414,-1.9021020335793495,-0.28959589035250244
1790942725276188400,10.5591884765625,-1.7119056249380111,-1.897503599873185,0.2418598873179406
1790942725286218500,10.569218505859375,-1.4440402856826782,-1.7131933266609907,0.40380350348651406
1790942725296248300,10.579248291015626,-1.189620118933916,-1.5943454134404658,0.40954781929217277
1790942725306278400,10.5892783203125,-1.0934960786968468,-1.7022727041959762,0.2524675713762641
1790942725316308500,10.59930859375,-1.722726294159889,-1.8599036447972057,0.006214563665911555
1790942725326338600,10.609338623046876,-1.7360206600189207,-1.3665619092047214,-0.13942929428257048
1790942725336369400,10.619369384765625,-1.550164910930395,-0.5662286926269531,-0.01957264241091907
1790942725346399200,10.629399169921875,-1.1709259398579597,0.03968085300326347,0.1653459719579667
1790942725356429300,10.63942919921875,-0.6209340962827206,0.3160504012316465,0.3615936434622854
1790942725366459400,10.64945947265625,-0.04465864141583442,0.28533494497239587,0.5418496728476137
1790942725376489500,10.659489501953125,0.40581776591837404,0.15265022957921026,0.7162657440330833
1790942725386519600,10.66951953125,0.6577677431613207,0.13538228391408919,0.8642200708810239
1790942725396549400,10.67954931640625,0.7165683071762323,0.22977438579201698,0.941875995882973
1790942725406579500,10.689579345703125,0.3381944285005331,0.18577742315530776,0.7911352531868964
1790942725416609500,10.699609619140626,-0.15718261231184005,-0.007062193471193313,0.4863260846767574
1790942725426639400,10.709639404296874,-0.4777689034074545,-0.21350304994881153,0.20104440426155923
1790942725436669400,10.71966943359375,-0.6085381405681372,-0.46625908287763596,0.05868256365843117
1790942725446699300,10.72969921875,-0.4746119006812572,-0.6030448038488626,-0.016166268033534287
1790942725456729300,10.739729248046874,-0.35108547425568104,-0.5139274275034665,-0.24921499932110308
1790942725466759400,10.749759521484375,-0.3777805889576673,-0.2366489477366209,-0.4019559759236872
1790942725476789500,10.75978955078125,-0.45524961308538914,-0.21753625098764895,-0.530376896392554
1790942725486819300,10.7698193359375,-0.6742933460265398,-0.5514426269054412,-0.6957138813264667
1790942725496849400,10.779849365234375,-0.986228128632903,-0.977395418357849,-0.5256184498190879
1790942725506879200,10.789879150390625,-1.2178835058659314,-1.2927449778437614,-0.19756255349516869
1790942725516909000,10.799908935546876,-1.351747201910615,-1.4276158051043748,0.14610504571944474
1790942725526939100,10.809939208984375,-1.4156722693324089,-1.5151105486840009,0.41143063736408947
1790942725536970200,10.81997021484375,-1.2279390359342097,-1.5823557004392146,0.4682324287772178
1790942725547000000,10.83,-0.7159136426597833,-1.602099680829048,0.5492663057796657
1790942725557030100,10.840030029296875,-0.26762860789000986,-1.6308359459698198,0.7114104860216379
1790942725567060200,10.850060302734375,-0.31110008534789085,-1.5209037451326846,0.82066785633713
1790942725577090300,10.86009033203125,-0.5435720396608114,-1.3351193077147006,1.0110378679797052
1790942725587120400,10.870120361328125,-0.9122422704458236,-1.3179635902523994,1.1835431371077894
1790942725597150200,10.880150146484375,-1.18427875790596,-1.435431447291374,1.2569763298481702
1790942725607180000,10.890179931640626,-1.2575059066802263,-1.44948276899755,1.3696408782586456
1790942725617210000,10.900210205078125,-1.1627344500958918,-1.6107003359138965,1.345076053583622
1790942725627240200,10.910240234375,-0.894029737406969,-1.6683026300549506,0.8025183055318892
1790942725637270300,10.920270263671876,-0.4715460833698511,-1.4783072969436644,0.5195775622196496
1790942725647300400,10.93030029296875,-0.39276714568734167,-1.1225865641027688,0.384473802985996
1790942725657330200,10.940330078125,-0.32893735533356666,-0.740377637308836,0.3950878437198698
1790942725667360300,10.9503603515625,-0.018526421293616292,-0.6712886112526059,0.5920142912685871
1790942725677390000,10.96039013671875,0.20464812784194944,-0.6335951326742768,0.6550421175897121
1790942725687420200,10.970420166015625,0.2081447377860546,-0.5396501900419592,0.558466826453805
1790942725697450200,10.9804501953125,0.2391886953473091,-0.39360155068486924,0.5753435808442533
1790942725707480300,10.990480224609374,0.14837620552182196,-0.39831513520330186,0.6000656419076025
1790942725717510100,11.00051025390625,0.046563013732433316,-0.6732020436584949,0.5588176857180893
1790942725727541200,11.010541259765626,0.10682020629644394,-0.8930594310700893,0.48048137723654505
1790942725737571300,11.0205712890625,0.1414209795564413,-0.9532757071018219,0.5234054499447346
1790942725747601200,11.03060107421875,0.6025397769361734,-0.6320037718296051,1.0712754790604113
1790942725757631200,11.04063134765625,0.833847948166728,-0.4468599704027176,0.9492287697985767
1790942725767661000,11.0506611328125,0.7827870384931563,-0.16856880646198988,0.8444842007324099
1790942725777691100,11.060691162109375,1.1327286034107207,0.22779811728298663,0.8311541790381074
1790942725787721200,11.07072119140625,1.7808908983588219,0.7111164715111256,1.0305357646539808
1790942725797751300,11.080751220703124,2.6533880183935166,1.2181094235762953,1.5362357542991638
1790942725807781000,11.090781005859375,3.4915234346210955,1.5296379634693265,1.9513114701673386
1790942725817811200,11.100811279296876,3.9776591843575235,1.3722346941441297,2.0440721714511514
1790942725827841300,11.11084130859375,3.921131825971603,1.1159887732729314,1.8188044494286177
1790942725837871400,11.120871337890625,3.2427859896838664,0.90035017260015,1.077447445693612
1790942725847901200,11.130901123046876,1.9399696996808051,0.7073293541878461,0.23586948779672384
1790942725857931300,11.14093115234375,0.8022972101271152,0.31082017242796717,-0.2446501756235957
1790942725867961000,11.150961181640625,0.6601648674309253,-0.21977599273845552,-0.26864333789050576
1790942725877991200,11.1609912109375,1.6774959903359412,-0.3756109167683869,0.26825433857291936
1790942725888022300,11.171022216796874,2.808356461787224,-0.2538068571560085,0.959232277418673
1790942725898052000,11.181052001953125,3.386625136297941,0.10412358762361108,1.0013146386057137
1790942725908082200,11.191082275390626,2.909219220983982,0.5375562134373932,0.3052154112234711
1790942725918112300,11.2011123046875,1.5643623631089925,0.5668571267236023,-0.5543456548705696
1790942725928142300,11.211142333984375,1.1849275772035122,0.2926038399968296,-0.4849474167346954
1790942725938172200,11.221172119140626,1.9888941818475723,0.07303812900818885,0.8977531418442726
1790942725948202200,11.2312021484375,2.722912220996618,0.007884615769982338,1.8456044858098029
1790942725958232000,11.241232177734375,2.3414579119622707,0.17557620100602506,1.4859776854410767
1790942725968262100,11.25126220703125,1.598089860665798,0.19756788725741206,0.8015913999453187
1790942725978292200,11.261292236328124,0.9892004224419593,0.13066599598191678,0.3314741803348064
1790942725988322300,11.271322265625,0.8721779710829257,0.27537052725367245,0.21747166131883858
1790942725998352400,11.281352294921875,1.4373533552646636,0.6747892397847026,0.3545665943697095
1790942726008382200,11.29138232421875,1.6561153486549853,0.8219747011519968,0.7781967880934476
1790942726018412000,11.301412109375,2.0043466025233267,0.8300317508794367,1.2549819411605596
1790942726028442000,11.311442138671875,2.288052484989166,0.9230416776839643,1.5713620127379893
1790942726038472200,11.32147216796875,2.126395942133665,0.9653010759383439,1.5004957478761671
1790942726048503000,11.3315029296875,2.1272493440926072,1.0825821782335638,1.2890972689911722
1790942726058533000,11.341533203125,2.252735672414303,1.291220983146876,1.1496169021084903
1790942726068563200,11.351563232421874,2.2917203598469493,1.4784341381937265,1.0916481127426028
1790942726078593300,11.36159326171875,2.2369190946012734,1.6566757590167223,0.9789835643321275
1790942726088623400,11.371623291015625,2.2572703932344913,1.7610044407583771,0.9972072032868862
1790942726098653400,11.3816533203125,2.452489013952017,1.8025994568198918,1.0748913314700126
1790942726108683000,11.39168310546875,2.511213590121269,1.8405474946811795,1.0494473858729003
1790942726118713000,11.401713134765625,2.4058365683704612,1.757118977627158,0.8608177881568669
1790942726128743200,11.4117431640625,2.210681076017022,1.5522642212972044,0.6606383301615715
1790942726138773200,11.421773193359375,1.9424679462373255,1.1787968193635343,0.5481704733669758
1790942726148803300,11.43180322265625,1.9219839611351488,0.7944955964654684,0.664514587073028
1790942726158833200,11.441833251953126,2.1285697790414093,0.18735826260596514,0.5575730924844742
1790942726168863200,11.45186328125,2.1260218481242656,-0.39472909341007467,0.500120874338597
1790942726178893300,11.461893310546875,1.8643536099433897,-0.8363330429807305,0.5571567667685449
1790942726188923100,11.471923095703126,1.386322256207466,-1.282169223293662,0.5393650894902646
1790942726198954000,11.4819541015625,0.8679927943527698,-1.579184669187665,0.47871188334599135
1790942726208984000,11.491984130859375,0.5275958873718977,-1.7784972812205553,0.4598150213047862
1790942726219014100,11.50201416015625,0.283245863738656,-2.014234374809265,0.6319581791222095
1790942726229044200,11.512044189453125,-0.12216449042260646,-2.2807523911088703,1.057036818088591
1790942726239074300,11.52207421875,-0.35244916382431984,-2.3907354453504084,1.3335288236528635
1790942726249104400,11.5321044921875,-0.5289525626778603,-2.3778327091574667,1.3468977160528302
1790942726259134200,11.54213427734375,-0.8265408400237559,-2.25540693745017,1.2320666372582316
1790942726269164300,11.552164306640625,-0.984963807785511,-1.9916355895102023,1.022952908309549
1790942726279194000,11.562194091796876,-1.16547936488986,-1.8114567170143125,0.6199759187750518
1790942726289224200,11.57222412109375,-1.4653057765513657,-1.813380963075161,0.03329670492410659
1790942726299254300,11.582254150390625,-1.77688458532691,-1.9341332486122846,-0.4245034694269299
1790942726309284000,11.5922841796875,-2.1688468443721534,-2.1563678865492344,-0.5855873269610107
1790942726319314200,11.602314208984374,-2.1815730549544097,-2.584700266614556,-0.6434945953980088
1790942726329344300,11.61234423828125,-1.9542618444055317,-2.778220851242542,-0.7085879759468138
1790942726339375400,11.622375244140626,-1.8876877237796783,-2.7502058861136436,-0.8847809936769306
1790942726349405200,11.6324052734375,-1.9335943194299936,-2.6066578314006326,-1.033253353049606
1790942726359435300,11.642435302734375,-1.9611726467072963,-2.4370243183165785,-1.2509390955105424
1790942726369465000,11.652465087890626,-2.012205499330163,-2.144416167470813,-1.4417550973549484
1790942726379495200,11.6624951171875,-2.1733424022257326,-1.7732792543113232,-1.5198450298599897
1790942726389525200,11.672525146484375,-2.2825912969738242,-1.3834978464365004,-1.4199880867049097
1790942726399555300,11.682555419921876,-2.2008365583509204,-1.0147481206744908,-1.1424356853675097
1790942726409585200,11.692585205078124,-2.0366502047568558,-0.6785790605217218,-0.6842122441031039
1790942726419615200,11.702615234375,-2.0454683019846676,-0.4431920955449343,-0.06208002407699823
1790942726429645300,11.712645263671876,-2.1548849545150994,-0.45494332361519335,0.6009246698897331
1790942726439675400,11.72267529296875,-2.3686849415838718,-0.6559937192261218,1.1174191714022308
1790942726449705200,11.732705322265625,-2.428810616722703,-0.9974468572616576,1.2732513189531862
1790942726459736000,11.742736083984376,-2.200751802676916,-1.2152514037966728,0.9234903712995349
1790942726469766100,11.75276611328125,-1.9669331099301575,-1.088924532997608,0.24157493289671836
1790942726479796200,11.762796142578125,-1.6908394560337066,-0.7701379848003387,-0.06679433924779296
1790942726489826000,11.772825927734376,-1.3117261571675538,-0.5446481444597244,-0.14805698350481689
1790942726499856000,11.78285595703125,-0.9787719674080609,-0.3056196081101894,-0.19965733381733297
1790942726509886000,11.792885986328125,-0.7106967847943305,-0.12059797175824641,-0.14944938771128655
1790942726519915800,11.802915771484376,-0.5427431876212359,-0.05152852718532085,0.04589819314815104
1790942726529945900,11.81294580078125,-0.4650982224047184,-0.19539748441576957,0.21786723650768397
1790942726539976000,11.822975830078125,-0.4015238681167364,-0.4368886114865541,0.270278537876904
1790942726550006000,11.833006103515626,-0.3281301306039095,-0.7242968556016683,0.3376039152614772
1790942726560035800,11.843035888671874,-0.2626683551341295,-1.0459393777519463,0.3135843033790588
1790942726570066000,11.85306591796875,-0.33789632233679295,-1.2852157513827085,0.10301073101088404
1790942726580096000,11.863095947265625,-0.4696896418482065,-1.343522394400835,-0.1162773320801556
1790942726590126000,11.8731259765625,-0.5718365956366062,-1.382086810594797,-0.12231310511305928
1790942726600157000,11.883156982421875,-0.6070224753081798,-1.6052069991946218,-0.112136286752671
1790942726610186800,11.893186767578126,-0.7006307333320378,-1.7208721907258033,0.023440204559266566
1790942726620216800,11.903216796875,-0.7546797189056873,-1.7402783174633978,0.3919515915207565
1790942726630247000,11.913246826171875,-0.6516226645350456,-1.7235796961188314,0.6958243559636175
1790942726640277000,11.923277099609376,-0.6924848362773657,-1.7716273954510688,0.9002404286153614
1790942726650306800,11.933306884765624,-0.8751543565452098,-1.9468167890965937,0.9285282193362713
1790942726660337000,11.9433369140625,-1.1303414160132408,-2.0240233628958464,0.876779473529011
1790942726670367000,11.953366943359375,-1.3707792346388101,-1.8799287802159785,0.9535884263128042
1790942726680397000,11.96339697265625,-1.4980857641249894,-1.5017670829862355,0.9433902729034424
1790942726690427000,11.973427001953125,-1.4133131389856337,-0.9785229610830545,0.7841390376240015
1790942726700457000,11.98345703125,-1.2217927882641553,-0.5397703092902898,0.45077071410566566
1790942726710486800,11.99348681640625,-0.8832160824477672,-0.3701175069838762,0.40374665873274207
1790942726720516900,12.003516845703125,-0.48216158540844917,-0.23236966298222542,0.7531060398481786
1790942726730547000,12.013546875,-0.24275486339628696,-0.2401782909065485,1.1268775392949582
1790942726740578000,12.023578125,-0.024136077868938444,-0.43951954451203346,1.3182352468006313
1790942726750608000,12.03360791015625,0.35168811632394786,-0.6087929921120405,1.3025713753312826
1790942726760638000,12.043637939453125,0.9621054947674273,-0.7382593299806117,1.659338402354717
1790942726770668000,12.05366796875,0.9953495927214622,-0.6871867298692464,1.7387405865021048
1790942726780697900,12.06369775390625,0.7074047575116157,-0.5366320112645626,1.4335450490228832
1790942726790728000,12.07372802734375,0.4828858080297708,-0.46343993380367754,1.1327286034107207
1790942726800757800,12.0837578125,0.4512017989993095,-0.4951841485887766,0.974058967411518
1790942726810787800,12.093787841796875,0.6054957041323185,-0.5479395872205496,0.9312997298762201
1790942726820818000,12.10381787109375,0.8666454713970422,-0.5403282354339957,0.9740569215849041
1790942726830848000,12.113847900390626,1.2392559642404317,-0.5244938297033309,1.1062380713701248
1790942726840878000,12.123878173828125,1.3235679861307144,-0.6611380963772535,1.1496069652363656
1790942726850908000,12.133907958984375,1.189275251019001,-0.8606292798474431,0.9904366862386464
1790942726860937700,12.143937744140626,0.9447603922128677,-0.9898378435626626,0.6869234027579426
1790942726870968800,12.15396875,0.5623731862425804,-1.1005781459122896,0.43523879845291374
1790942726880999000,12.1639990234375,0.6009539690494538,-1.0171168956324457,0.3834180103227496
1790942726891029000,12.174029052734374,1.056205335700512,-0.7045910152651369,0.547013704547286
1790942726901058800,12.184058837890625,1.5466367368042468,-0.1320683370605111,0.7727855766996741
1790942726911089000,12.1940888671875,1.9636895979642868,0.49288697756230826,0.853040724414587
1790942726921119000,12.204118896484376,1.9607634813845156,1.124788019669801,0.7818450814679264
1790942726931149000,12.214149169921875,1.7800515249252318,1.3468164675101637,0.7424874690696597
1790942726941179100,12.22417919921875,1.749627160567045,1.1199245052866638,0.8159259225070477
1790942726951208700,12.234208740234376,1.6713152558743953,0.6607946897670626,0.7422460615292191
1790942726961238800,12.24423876953125,1.2399170584976673,0.2048369284123182,0.18721096308976412
1790942726971268900,12.254268798828125,1.4493097505182027,0.00805251968279481,-0.28190146339237687
1790942726981299000,12.264298828125,2.1171464677512644,0.17967990999780595,-0.5525757225885987
1790942726991329000,12.2743291015625,2.34009772952497,0.30381482371054586,-0.562528669065237
1790942727001360000,12.28435986328125,2.3792004903793336,0.05771320716962218,-0.3267980052173137
1790942727011390000,12.294389892578126,2.638737561750412,0.2597371239878237,0.22649989416599273
1790942727021420000,12.304419921875,3.1036481526285407,0.11600823281519114,0.7276546415969729
1790942727031450000,12.3144501953125,3.367031378033757,0.006220774210989475,1.0432117063537238
1790942727041480000,12.32447998046875,3.37670521530807,0.04911006786674261,1.004470180027187
1790942727051509800,12.334509765625,3.2914801702260967,0.4035944638457149,0.5982680909663438
1790942727061539800,12.344539794921875,3.065165569499135,0.8131848071053623,0.26496786424815655
1790942727071570000,12.35456982421875,2.966996871691942,0.9457744646262377,0.23075988969802855
1790942727081600000,12.36460009765625,2.92886091004312,1.0163942073810845,0.29617402663379905
1790942727091630000,12.374630126953125,2.896120669957995,1.1160378731116651,0.4780097264260053
1790942727101660000,12.384659912109376,2.7580735507488248,1.150340759403631,0.54047874982059
1790942727111689700,12.394689697265624,2.6135680491805076,1.19354328372702,0.4352560418486595
1790942727121719800,12.4047197265625,2.588615394231677,1.338428140001744,0.31703970452994107
1790942727131750000,12.41475,2.4235855755507947,1.491392257835716,0.3901785904988646
1790942727141780700,12.42478076171875,2.3343933804035184,1.530916020581126,0.6432657550781965
1790942727151810800,12.434810791015625,2.3506267223238946,1.523955826179683,0.9153387751564382
1790942727161841000,12.4448408203125,2.1631167762875556,1.5286550899118183,0.9662702132314444
1790942727171871000,12.45487109375,2.033031429737806,1.5198640268214045,0.866502263534069
1790942727181901000,12.464901123046875,2.1008803926050663,1.4855384172409771,0.7426213245823979
1790942727191931100,12.47493115234375,2.0147674587726594,1.4624889655649662,0.6017746377825737
1790942727201960700,12.484960693359374,1.7761708840996027,1.448191852404177,0.4171338174417615
1790942727211990800,12.49499072265625,1.463141876515746,1.3522405383855103,0.3108927262075245
1790942727222020900,12.505020751953126,1.2860603855133055,1.0050056020781397,0.4463106659568846
1790942727232051000,12.515051025390624,1.3360147952497006,0.6187272338882088,0.7520413332261144
1790942727242081000,12.5250810546875,1.538596053689718,0.014284838201105593,0.8624399825312197
1790942727252110800,12.53511083984375,1.5965245110452173,-0.7054600531846285,0.8009512023456394
1790942727262141000,12.545140869140624,1.3684417316019535,-1.281460782763362,0.8210022028580307
1790942727272172000,12.555172119140625,1.0612672952651976,-1.7638190597876906,0.8344390459276735
1790942727282202000,12.5652021484375,0.7571265275359154,-2.1265335970386863,0.8198147466391325
1790942727292232000,12.57523193359375,0.4633545936077833,-2.359740003105998,0.8250424181595444
1790942727302261800,12.58526171875,0.1157668983399868,-2.6050702699482438,0.8731707815125584
1790942727312291800,12.595291748046876,-0.03687514793276787,-2.818427189424634,0.8295626720629632
1790942727322322000,12.605322021484374,0.0017839608073234557,-2.7714672853291034,0.8807011770173907
1790942727332352000,12.61535205078125,0.1090180086016655,-2.6295254967689514,0.9744514738604426
1790942727342382000,12.625382080078126,0.1449801333427429,-2.334958028548956,0.8965523877523839
1790942727352412000,12.635411865234374,-0.0030839374899864196,-1.8761486771553755,0.640972675704956
1790942727362442000,12.64544189453125,-0.34236090053021906,-1.5380805053830147,0.26935893881395456
1790942727372471800,12.655471923828125,-0.6171943252325057,-1.4043266994535921,-0.2598720024138689
