time,seconds_elapsed,z,y,x
1790942714779749000,0.0627490234375,9.4496146774292,4.504091873168945,0.1092354507446289
1790942714789779200,0.072779296875,9.606434886169433,4.618115727233887,0.6132149002075195
1790942714799809000,0.08280908203125,9.213785813903808,4.0903438987731935,0.28371289672851563
1790942714809839000,0.092839111328125,8.596979611206054,3.8060324516296387,-0.4016273284912109
1790942714819869000,0.102868896484375,7.84669666595459,3.7901708656311035,-0.8770259956359863
1790942714829899000,0.11289892578125,6.947673942565918,3.469796755981445,-0.010175357055664061
1790942714839929000,0.12292919921875,6.0799254783630365,3.0163948165893553,0.7077858657836914
1790942714849959200,0.132959228515625,5.850082118988037,3.4192192459106443,0.3913023338317871
1790942714859989200,0.1429892578125,6.284330445098877,4.745457328033447,-0.9614216041564941
1790942714870019000,0.15301904296875,6.462399193572998,5.396380904388427,-1.6602292137145995
1790942714880049000,0.163048828125,6.7088523269653315,4.581604151916504,-0.6989572471618652
1790942714890079000,0.173078857421875,7.1972694656372065,4.038419650268555,0.1500865165710449
1790942714900109000,0.183109130859375,7.6199956962585444,4.061314203643799,0.8234557334899902
1790942714910139100,0.19313916015625,7.763498158264159,4.377947373199462,1.2322656669616698
1790942714920169200,0.203169189453125,7.764545621490478,4.653579839324951,1.5876549758911132
1790942714930199000,0.213198974609375,7.317578099060058,4.687846850585937,1.9156606033325194
1790942714940229000,0.22322900390625,6.748805567169189,4.44992306060791,1.9205986442565917
1790942714950259000,0.233259033203125,6.50579409866333,4.128501487731933,1.6719009468078612
1790942714960289000,0.2432890625,6.679373719024658,3.666570204925537,1.3334206871032714
1790942714970319000,0.253319091796875,7.184699906921386,3.329287046051025,0.8966285217285156
1790942714980349200,0.26334912109375,7.704540942382812,3.314173648071289,0.6238391700744629
1790942714990379000,0.27337890625,7.817816608428955,3.4289456901550293,0.8240542839050292
1790942715000409000,0.2834091796875,7.649923217010498,3.5787329315185543,1.3437456817626952
1790942715010439200,0.293439208984375,7.552060224151611,3.7069723579406735,1.945288848876953
1790942715020469200,0.30346923828125,7.580940281677246,3.4796728378295896,2.2922984519958494
1790942715030499000,0.3134990234375,8.33750800628662,3.4234090988159176,2.2596774543762206
1790942715040529000,0.32352880859375,8.913463143157959,3.9094320358276367,2.1785738731384274
1790942715050559000,0.33355908203125,8.562413324737548,4.248211570739746,1.9033903198242186
1790942715060589000,0.343589111328125,8.26179137878418,3.780893334197998,1.883937431335449
1790942715070619100,0.353619140625,8.329726850891113,3.035698067474365,2.0241478660583496
1790942715080649200,0.363649169921875,8.385541677093505,2.5101708030700682,2.3862708671569823
1790942715090679300,0.37367919921875,8.430133683013915,2.2129905220031736,2.7385177864074706
1790942715100709000,0.383709228515625,8.699032456970214,2.0483891578674314,2.5962124252319336
1790942715110739000,0.393739013671875,8.610895908355712,2.0465935066223144,2.651877613830566
1790942715120769000,0.40376904296875,7.877522012329101,2.308010400390625,3.1100679565429687
1790942715130799000,0.413799072265625,7.2450038612365715,2.6638486221313475,3.2365117317199705
1790942715140829200,0.4238291015625,7.175123100280762,2.517353408050537,2.9611785408020017
1790942715150859000,0.43385888671875,7.598747156524658,1.8371008613586424,2.29214881439209
1790942715160889000,0.44388916015625,7.792228578186035,0.929548794555664,1.5650596977233886
1790942715170919200,0.453919189453125,7.3463085189819335,-0.009427169036865234,0.9864110839843749
1790942715180949000,0.463948974609375,6.432770948028564,-0.8880991783142089,0.11073182678222655
1790942715190979000,0.47397900390625,5.465812752532958,-1.6006734474182127,-0.6552630668640136
1790942715201009200,0.484009033203125,4.874295304870605,-1.5538368774414062,-0.002992752075195312
1790942715211039000,0.4940390625,4.819976854705811,-0.7844003189086913,2.364124501800537
1790942715221069000,0.504069091796875,5.2162172294616695,-0.10564414825439453,4.249558309173584
1790942715231099100,0.51409912109375,5.316324786376953,-0.5009866973876953,4.616619351196289
1790942715241129200,0.524129150390625,5.10084663696289,-2.058265239715576,4.255843088531494
1790942715251159300,0.5341591796875,5.440823272705078,-2.7186159851074216,4.128202212524414
1790942715261188900,0.54418896484375,5.027224935913086,-2.9990368545532227,3.5221699172973633
1790942715271219000,0.554218994140625,3.5405753425598143,-2.9828759933471676,3.555239827728271
1790942715281249000,0.5642490234375,2.1541829437255857,-2.644395733642578,4.048744644927979
1790942715291279000,0.574279052734375,1.444152513885498,-2.6828525978088376,4.776581949615478
1790942715301309200,0.58430908203125,1.9324200149536133,-3.1757588645935058,5.971438215637207
1790942715311339300,0.59433935546875,3.1215900520324706,-3.827280991363525,7.761253594207763
1790942715321369000,0.604369140625,3.8181530975341795,-4.281730393981934,9.680804775238036
1790942715331399200,0.614399169921875,4.159925384521484,-4.303577484130859,10.697442655181884
1790942715341429000,0.624428955078125,3.850325182342529,-4.356100283050536,11.05133558807373
1790942715351459000,0.634458984375,2.995445552062988,-3.912424787902832,12.062287239074706
1790942715361489200,0.6444892578125,2.7515362579345704,-2.7521348083496093,14.073266996002197
1790942715371519000,0.65451904296875,2.837278604888916,-1.6537947967529296,16.3181303276062
1790942715381549000,0.664549072265625,2.6282348724365234,-1.3835492843627928,17.573739460754393
1790942715391579100,0.6745791015625,2.7823616043090817,-1.9424457344055175,17.56954960784912
1790942715401609200,0.684609130859375,3.918559929656982,-3.263596138000488,17.790414710998533
1790942715411639000,0.69463916015625,4.501847309112549,-4.020762413024902,17.85101794052124
1790942715421669000,0.704669189453125,5.4013189453125,-4.270806848907471,18.062605512237546
1790942715431699000,0.714698974609375,5.844395890045166,-4.515165055847167,18.78326021194458
1790942715441729000,0.72472900390625,4.846911623382568,-3.4784757369995116,21.946150242614745
1790942715451759000,0.734759033203125,3.020883944702148,-2.9689596961975098,24.43327685470581
1790942715461789200,0.7447890625,0.9412205276489257,-3.305793942260742,22.980445359802246
1790942715471819300,0.7548193359375,-0.7363666481018066,-4.369717304992675,20.344429331970215
1790942715481849300,0.764849365234375,-1.35990654296875,-5.932831713867187,17.12288136062622
1790942715491879400,0.77487939453125,-0.7493851196289062,-7.322366502380371,14.292785360717772
1790942715501909500,0.784909423828125,0.12180500946044921,-8.605359317016601,12.468254058074951
1790942715511939600,0.794939697265625,1.0881646545410155,-9.848698166656494,12.240505625152586
1790942715521969700,0.8049697265625,1.4613608383178711,-7.901464028930664,13.49626439590454
1790942715531999200,0.814999267578125,2.2381296394348142,-9.870844532012939,12.00976444015503
1790942715542029300,0.825029296875,3.5137902114868163,-9.100809423065185,13.498060047149657
1790942715552059400,0.835059326171875,7.141305001831054,-3.212719352722168,15.959448991394042
1790942715562089500,0.84508935546875,8.485649234008788,-6.574777033996582,8.914360968780517
1790942715572119600,0.85511962890625,7.03566085357666,-10.59793364868164,3.7951089065551757
1790942715582149600,0.865149658203125,8.325985910797119,-10.02946039199829,2.6728268783569336
1790942715592179500,0.875179443359375,7.770680763244629,-9.172186560058593,1.1698667861938477
1790942715602209500,0.88520947265625,4.696825106811523,-9.362226316833496,0.43140521163940426
1790942715612239400,0.8952392578125,4.700865322113037,-9.769090961456298,0.366462491607666
1790942715622269400,0.90526953125,2.9830256309509275,-7.658602198028564,1.6093524284362792
1790942715632299500,0.915299560546875,0.40761283264160153,-6.068852295684814,2.351704580688476
1790942715642329300,0.925329345703125,-2.5357588333129883,-5.100248086547851,3.1616929298400875
1790942715652359400,0.935359375,-12.508656211090088,-2.1639093879699707,7.993940068054199
1790942715662389500,0.945389404296875,-11.972654314422607,-0.3763385734558105,8.310124324798583
1790942715672419600,0.955419677734375,-6.249165608215332,-1.2961609237670897,6.376207933807373
1790942715682449700,0.96544970703125,-3.4478000282287597,-2.9331963088989257,5.533897862243652
1790942715692479500,0.9754794921875,-0.9540893615722655,-3.258059546661377,4.780173252105713
1790942715702509300,0.98550927734375,0.903362213897705,-3.2013468948364254,3.39018955078125
1790942715712539400,0.995539306640625,2.652027251434326,-3.0316578521728514,3.395726142120361
1790942715722569500,1.005569580078125,3.007566197967529,-2.5125650047302246,3.681384327697754
1790942715732599600,1.015599609375,2.4150012870788573,-1.6183306846618652,4.950161569976807
1790942715742629600,1.025629638671875,2.0684405967712403,-1.0773907470703123,6.242282278442382
1790942715752659500,1.035659423828125,1.9457377616882323,-1.0500070655822753,6.860135944366455
1790942715762689300,1.045689208984375,0.6845920372009276,-1.3476362594604492,7.174973462677001
1790942715772719400,1.05571923828125,0.06643909606933593,-1.9553145683288573,6.161926885223388
1790942715782749400,1.06574951171875,1.405695649719238,-3.0021792442321775,6.519860033416748
1790942715792779500,1.075779541015625,2.8917466926574704,-5.206939698028564,8.192658805847168
1790942715802809600,1.0858095703125,3.782090435028076,-6.480355706024169,8.241141389465332
1790942715812839400,1.09583935546875,4.29639487915039,-9.92725790863037,8.435071723937988
1790942715822869500,1.105869384765625,1.6789339141845703,-9.835380419921874,7.15028325805664
1790942715832899600,1.115899658203125,0.5183446594238281,-7.2629603736877435,7.955632841491699
1790942715842929400,1.125929443359375,0.6341641647338867,-9.951199925231933,9.2443118850708
1790942715852959500,1.13595947265625,0.5925649108886718,-8.887426200103759,7.79537096786499
1790942715862989300,1.1459892578125,1.3072341064453123,-9.047388798522949,6.527641188812256
1790942715873019400,1.156019287109375,0.8678981018066406,-7.85911658706665,5.577143129730224
1790942715883049500,1.166049560546875,0.9226654647827148,-8.388085516357421,5.155913275146484
1790942715893079600,1.17607958984375,2.1812673500061033,-9.132831870269776,3.45393516998291
1790942715903109600,1.186109619140625,1.1938088027954101,-9.631424365997313,2.155230406951904
1790942715913139500,1.196139404296875,2.433107437133789,-11.575665751647948,1.4419079498291014
1790942715923169300,1.206169189453125,2.302922721862793,-11.945120995330809,1.0468646759033202
1790942715933199400,1.216199462890625,1.7815853103637693,-10.75759697189331,2.0796634170532227
1790942715943229400,1.2262294921875,0.52986675491333,-13.667000901794433,3.14089330291748
1790942715953259500,1.236259521484375,0.5321113189697265,-13.446285436248779,3.136853087615967
1790942715963289600,1.24628955078125,0.07616554031372069,-12.637344550323485,4.415955324554443
1790942715973319400,1.2563193359375,-0.47809214401245115,-11.815385192871092,5.240009608459473
1790942715983349500,1.266349609375,-0.9606734161376953,-10.860996556091308,4.115931929016113
1790942715993379300,1.27637939453125,-2.1953332847595215,-9.491812481689452,1.2286743644714355
1790942716003409400,1.286409423828125,-3.6290111663818356,-7.761552869415283,-0.27997195663452146
1790942716013439500,1.296439453125,-3.2809541000366207,-7.154922023773193,1.2641384765625
1790942716023469600,1.306469482421875,-3.056647332000732,-5.721244142150878,2.3377882835388184
1790942716033499400,1.31649951171875,-4.4020390274047845,-4.68620083694458,1.2122142280578612
1790942716043529500,1.326529541015625,-4.09228918762207,2.624643569946289,0.7742249618530272
1790942716053559600,1.3365595703125,3.6469676788330077,8.08192697906494,4.682759172058105
1790942716063589600,1.346589599609375,2.717119609069824,-6.359598159790039,3.1459809814453124
1790942716073619500,1.356619384765625,3.071461454772949,-11.500846949768066,-3.0781951469421385
1790942716083649300,1.366649169921875,3.484760516357422,-19.461417832183837,-4.321085083770751
1790942716093679400,1.376679443359375,3.236212456512451,-21.82075393066406,-3.4784757369995116
1790942716103709400,1.38670947265625,-1.834856297302246,-18.587683863830566,-0.39279870986938475
1790942716113739500,1.396739501953125,-4.2506057723999024,-17.516128983306885,4.920234049224853
1790942716123769600,1.40676953125,-4.093635926055908,-15.272612390136718,6.967725381469726
1790942716133799700,1.416799560546875,-5.340416440582275,-13.769053747558592,6.892607304382324
1790942716143829200,1.426829345703125,-4.32243182220459,-11.906215218353271,6.130802263641357
1790942716153859300,1.436859375,-2.9200281997680664,-10.018836122131347,4.223371728515625
1790942716163889400,1.446889404296875,-2.092681888580322,-8.590694831848143,3.2568624458312985
1790942716173919500,1.45691943359375,-1.7549498168945312,-7.251887191009521,3.0555998687744137
1790942716183949600,1.466949462890625,-1.777994007873535,-7.3654621322631835,2.541594699859619
1790942716193979400,1.4769794921875,-0.74055650100708,-8.411279344940185,1.8703204093933103
1790942716204009500,1.487009521484375,-0.23597850112915036,-8.24892254486084,1.4808137268066406
1790942716214039600,1.49703955078125,-1.9291279876708982,-4.684105910491943,-0.3477577911376953
1790942716224069400,1.5070693359375,-0.9439140045166015,-3.879205239868164,0.48976387710571284
1790942716234099500,1.517099365234375,-0.8843582382202148,-6.9545572723388664,1.2847884658813475
1790942716244129500,1.527129638671875,-1.4989198768615721,-9.086294575500487,0.8928875816345214
1790942716254159400,1.537159423828125,-2.0777181282043458,-10.350133776855468,0.3028665100097656
1790942716264189400,1.547189453125,-2.283170558166504,-10.359710583496094,-0.18405425262451172
1790942716274219500,1.557219482421875,-2.152387292480469,-9.76789386062622,-0.49111061553955077
1790942716284249600,1.56724951171875,-1.9008464805603027,-6.51881257019043,1.1956044540405273
1790942716294279700,1.57727978515625,-1.3365630767822265,-6.299443843078613,1.0763432838439941
1790942716304309200,1.587309326171875,-0.5113116920471191,-7.015310139465331,0.4305073860168457
1790942716314339300,1.59733935546875,0.16609774017333984,-6.261435891723632,0.7998129920959473
1790942716324369400,1.607369384765625,-0.5636848533630371,-6.341791284942627,0.7607575775146483
1790942716334399500,1.6173994140625,-1.4285902030944824,-6.4225955909729,0.900818374633789
1790942716344429600,1.6274296875,-1.9387047943115234,-6.54380205001831,0.81073653717041
1790942716354459600,1.637459716796875,-2.3774422485351563,-7.1860466453552245,0.5991489654541016
1790942716364489500,1.647489501953125,-2.3644237770080565,-7.968501675415038,0.6132149002075195
1790942716374519300,1.657519287109375,-1.4776713371276855,-8.455721713256835,0.8672995513916015
1790942716384549400,1.66754931640625,-1.0474632263183594,-9.221417331695555,1.2720692695617675
1790942716394579500,1.677579345703125,-1.266682315826416,-11.7465518951416,1.67908355178833
1790942716404609500,1.687609619140625,-1.0314520027160643,-14.238915823364257,1.6490063934326171
1790942716414639400,1.697639404296875,-2.2629694816589354,-15.959897904205322,0.6836942115783691
1790942716424669400,1.70766943359375,-1.7428291709899901,-16.53016681213379,0.7336731712341308
1790942716434699500,1.717699462890625,-1.0748469078063965,-16.245256814575196,0.6189011291503906
1790942716444729600,1.7277294921875,-1.1412860038757324,-15.99251890182495,1.2394482719421387
1790942716454759400,1.737759521484375,-1.6575357368469237,-13.48324592437744,2.174533657836914
1790942716464789500,1.74778955078125,-1.9607015220642088,-11.02619647064209,2.320729596710205
1790942716474819300,1.7578193359375,-2.185906115722656,-9.734375037384032,1.946635587310791
1790942716484849700,1.767849609375,-2.13862063293457,-10.13271033859253,0.7869441581726073
1790942716494879700,1.777879638671875,-2.016067435455322,-10.597035823059082,0.1301847152709961
1790942716504909800,1.787909912109375,-3.4898481948852536,0.029328970336914062,1.7127520126342772
1790942716514940000,1.79793994140625,-3.4885014564514156,11.476156745147705,0.886153889465332
1790942716524969700,1.8079697265625,1.2777554985046387,-10.838700553131103,-2.1601684478759764
1790942716534999600,1.81799951171875,-0.6310217750549316,-16.13317824935913,-0.39324762268066404
1790942716545029600,1.828029541015625,-3.5208231788635254,-10.475829364013672,1.6210241615295409
1790942716555059700,1.838059814453125,-2.6574142051696774,-11.694328371429442,1.2020388710021972
1790942716565089800,1.84808984375,-1.9831471626281738,-13.0237088432312,0.5602431884765625
1790942716575119600,1.85811962890625,-2.5822961280822754,-13.586645508575439,0.4923077163696289
1790942716585149700,1.868149658203125,-3.29427184677124,-14.183998822784423,0.771830760192871
1790942716595179800,1.8781796875,-2.888753940582275,-14.816816249084471,0.7857470573425293
1790942716605209900,1.8882099609375,-2.5960627876281737,-16.603040325164795,0.9398737892150878
1790942716615239700,1.89823974609375,-3.1105168693542478,-15.634286478424071,1.7268179473876952
1790942716625269800,1.908269775390625,-2.3225252479553222,-10.880000531768799,0.8999205490112304
1790942716635299600,1.918299560546875,-1.5146318252563475,-7.996932820129394,0.19048866958618163
1790942716645329700,1.92832958984375,-2.491765377807617,-6.696133130645752,0.24256255569458007
1790942716655359700,1.93835986328125,-3.6201825477600096,-7.040299619293212,0.8677484642028808
1790942716665389800,1.948389892578125,-1.9915268684387206,-8.932467118835449,0.7356184600830078
1790942716675420000,1.958419921875,-1.2808978881835937,-10.434978298187255,-0.009427169036865234
1790942716685449700,1.96844970703125,-1.4671967048645018,-10.351480515289307,-0.7140706451416016
1790942716695479600,1.9784794921875,-1.8180968856811521,-10.056245523071288,-0.9636661682128905
1790942716705509600,1.988509521484375,-1.9820996994018554,-9.906308644104003,-0.8128314636230468
1790942716715539700,1.998539794921875,-1.9283797996520995,-9.57665700302124,-0.4257189826965332
1790942716725569800,2.00856982421875,-1.8834885185241699,-9.517400511932372,-0.25483283920288086
1790942716735599900,2.018599853515625,-1.7525556152343749,-9.483732051086426,-0.24600422058105467
1790942716745629700,2.028629638671875,-1.5860089622497557,-9.057264880371093,-0.18210896377563476
1790942716755659800,2.03865966796875,-1.2229881355285643,-8.756044384002685,0.19213468322753904
1790942716765689600,2.048689697265625,-1.458218448638916,-9.351003496551513,0.66394204788208
1790942716775719700,2.0587197265625,-2.85388837890625,8.486846334838866,2.6898855651855467
1790942716785749800,2.068749755859375,0.8152256652832031,7.490559169006347,3.1042320899963376
1790942716795779600,2.078779541015625,2.4048259300231933,-6.196493171691894,0.1497872413635254
1790942716805809700,2.0888095703125,0.25438392639160157,-2.6638486221313475,-1.4872481437683105
1790942716815839700,2.09883984375,-0.678007982635498,-6.324582960510254,-2.7659014678955076
1790942716825869800,2.108869873046875,-1.9681834022521971,-10.793809272003173,-2.3573908096313474
1790942716835900000,2.11889990234375,-3.014748802947998,-15.768361771392822,-3.022380320739746
1790942716845929700,2.1289296875,-2.542941438293457,-15.423297457122802,-2.7335797454833983
1790942716855959600,2.13895947265625,0.66394204788208,-12.382362073516845,-1.975964557647705
1790942716865989600,2.14898974609375,1.706467233276367,-16.94511188735962,-1.408987677001953
1790942716876020700,2.159020751953125,-1.1522095489501953,-19.022979653167724,0.950647696685791
1790942716886050800,2.16905078125,-2.4754548789978026,-18.800618173980713,4.8686090759277345
1790942716896080600,2.17908056640625,-3.4184710578918454,-16.588226202392576,7.783250321960449
1790942716906110700,2.18911083984375,-2.6692355758666992,-13.204620706176756,5.11356583328247
1790942716916140800,2.199140869140625,-0.5328595069885254,-8.82981572265625,0.10100538253784179
1790942716926171000,2.2091708984375,0.060902504730224606,-5.8360161842346185,-6.249165608215332
1790942716936200700,2.21920068359375,-1.1777975791931152,-10.743830312347411,-8.802282403564453
1790942716946230500,2.22923046875,-0.758513013458252,-11.566986770629882,-6.62056614074707
1790942716956260600,2.239260498046875,0.07781155395507812,-10.776152034759521,-3.8928222618103026
1790942716966290700,2.249290771484375,-0.028431144714355466,-10.179995821380615,-2.7837083427429197
1790942716976320800,2.25932080078125,-0.4682160621643066,-10.287734896087645,-3.282001563262939
1790942716986350800,2.269350830078125,-1.0431237358093262,-10.838999828338622,-4.308515525054931
1790942716996381000,2.279380859375,-1.2840402778625488,-10.383652600097655,-4.331410078430175
1790942717006410500,2.289410400390625,-1.0850222648620604,-10.178499445343016,-3.815160345458984
1790942717016440600,2.299440673828125,-0.9439140045166015,-10.133458526611328,-3.0131027893066404
1790942717026470700,2.309470703125,-1.068113215637207,-10.089165795898436,-1.8516157089233398
1790942717036500700,2.319500732421875,-1.2752116592407226,-9.923816243743897,-1.0170867927551268
1790942717046530800,2.32953076171875,-1.2963105613708494,-10.143783521270752,-0.7764695259094238
1790942717056560600,2.339560546875,-1.3787608810424803,-10.120739330291748,-0.6347627151489258
1790942717066590700,2.3495908203125,-1.3192051147460937,-9.309853155517578,-0.5898714340209961
1790942717076620800,2.359620849609375,-0.8869020774841309,-8.43357534790039,-0.615459464263916
1790942717086650600,2.369650634765625,-2.1142297035217283,-8.526799575042723,-0.8653542625427245
1790942717096680700,2.3796806640625,-1.6431705268859862,-8.599224175262451,-1.4193126716613769
1790942717106710800,2.389710693359375,-0.8891466415405272,-8.639775965881347,-2.1884499549865724
1790942717116740600,2.39974072265625,-0.7881412590026855,-8.830863185882567,-2.947561518859863
1790942717126770700,2.409770751953125,-0.8346785537719726,-8.751555255889892,-3.001281418609619
1790942717136800800,2.41980078125,-0.9509469718933105,-9.036914166259765,-2.9735984619140625
1790942717146830800,2.429830810546875,-1.2877812179565429,-9.6656913772583,-2.9556419494628905
1790942717156861000,2.43986083984375,-1.7711106781005859,-10.275464612579345,-2.8663083000183103
1790942717166890500,2.449890380859375,-1.8730138862609862,-10.630554646301269,-2.93035319442749
1790942717176920600,2.459920654296875,-1.8649334556579589,-10.71958902053833,-2.79627790145874
1790942717186950700,2.46995068359375,-1.9518729034423827,-10.771812544250487,-2.4727614021301267
1790942717196980700,2.479980712890625,-2.0546739372253415,-10.942249774932861,-2.39420166015625
1790942717207010800,2.4900107421875,-2.3183353950500485,-11.079467457580567,-2.290652438354492
1790942717217041000,2.500041015625,-2.5966613380432126,-11.065102247619627,-2.1918916198730467
1790942717227070700,2.51007080078125,-2.888155390167236,-11.238981143188475,-2.244115143585205
1790942717237100500,2.5201005859375,-3.2243910858154297,-11.49845274810791,-2.184110464477539
1790942717247130600,2.530130615234375,-3.5685575744628903,-11.757325802612304,-2.3431752372741697
1790942717257160700,2.54016064453125,-3.7829882606506344,-12.020687985229491,-2.47081611328125
1790942717267190800,2.550190673828125,-3.8467338798522945,-12.253374459075927,-2.4747066909790036
1790942717277220600,2.560220703125,-3.863642929077148,-12.464962030792236,-2.445826633453369
1790942717287250700,2.570250732421875,-3.9079356597900388,-12.665925332641601,-2.335244444274902
1790942717297280800,2.58028076171875,-3.8991070411682127,-12.712013714599609,-2.3307553161621093
1790942717307310800,2.590310791015625,-4.159476471710205,-12.623278615570067,-2.368015079498291
1790942717317340700,2.600340576171875,-4.29669415435791,-12.198756733703613,-2.411409984588623
1790942717327370800,2.610370849609375,-4.077175789642334,-11.330409719085692,-2.4616882194519043
1790942717337401600,2.620401611328125,-3.5039141296386718,-10.25271969680786,-2.526930214691162
1790942717347431700,2.630431640625,-2.9774890396118163,-9.195530026245116,-2.7825112419128417
1790942717357461800,2.640461669921875,-3.0897172424316404,-8.406939854431151,-3.4017116462707517
1790942717367491800,2.650491943359375,-3.9633015731811523,-7.817816608428955,-4.027346467590331
1790942717377521700,2.660521728515625,-5.128379956054687,-7.589319987487793,-4.199878624725342
1790942717387551700,2.6705517578125,-6.164919637298584,-7.638999671936035,-3.845087866210937
1790942717397581800,2.680581787109375,-6.88243194732666,-7.8362220336914055,-3.4669536415100097
1790942717407611600,2.690611572265625,-7.086088726043701,-8.169614614868163,-3.6730046218872068
1790942717417641700,2.700641845703125,-7.004536231994629,-8.432827159881592,-3.958812445068359
1790942717427671600,2.710671630859375,-6.661417206573486,-8.303689907836914,-4.395903885650634
1790942717437701600,2.72070166015625,-5.983409223937988,-7.492654095458984,-4.977844526672363
1790942717447731700,2.730731689453125,-5.669918444061279,-6.497564030456543,-5.3499932472229
1790942717457761800,2.74076171875,-5.658545986175537,-5.901258179473877,-6.022913551330566
1790942717467792000,2.7507919921875,-5.963357785034179,-5.47778376083374,-6.637624827575683
1790942717477822000,2.760822021484375,-6.533626692962646,-4.97305612335205,-6.752995420074463
1790942717487851300,2.770851318359375,-6.992565223693847,-5.208136798858642,-6.750601218414306
1790942717497881300,2.78088134765625,-7.4185834815979,-5.567715960693359,-6.945429378509521
1790942717507911400,2.790911376953125,-7.790432926940918,-5.751620575714111,-6.53766690826416
1790942717517941200,2.800941162109375,-8.09524472579956,-5.936871929168701,-6.469132885742187
1790942717527971300,2.810971435546875,-7.9204680046081535,-6.266523570251464,-5.792770916748046
1790942717538001400,2.82100146484375,-7.584681221771239,-6.36513475112915,-5.188384635162353
1790942717548031200,2.83103125,-7.253682842254638,-5.898265427398681,-4.767454055786133
1790942717558061300,2.841061279296875,-6.788908444976807,-4.868160163116455,-4.920533324432372
1790942717568091400,2.85109130859375,-6.267421395874023,-3.6667198425292966,-6.303932971191406
1790942717578121500,2.86112158203125,-5.923703820037842,-2.688987739562988,-7.1583636886596675
1790942717588151600,2.871151611328125,-5.537638802337646,-2.3178864822387695,-7.770830400848388
1790942717598181000,2.88118115234375,-5.430498278045654,-1.8522142593383788,-7.882908966064453
1790942717608211200,2.891211181640625,-5.638793822479248,-1.3211504035949706,-7.005134782409668
1790942717618241300,2.9012412109375,-5.893776299285888,-1.2406453727722166,-7.002740580749511
1790942717628271400,2.911271240234375,-5.977872632598877,-1.0251672233581541,-7.019948905181884
1790942717638301400,2.921301513671875,-6.264727919006347,-1.3691840744018553,-6.460154629516601
1790942717648331500,2.93133154296875,-5.990442191314697,-1.60875387802124,-6.488286499023437
1790942717658362400,2.9413623046875,-5.044882173156738,-1.2216413970947264,-5.501725777435302
1790942717668392400,2.951392333984375,-4.209455431365966,-0.6648398735046386,-5.416581980895995
1790942717678422500,2.961422607421875,-3.5124434730529783,-0.4472667976379394,-4.895543844604492
1790942717688452400,2.971452392578125,-3.4783260993957517,0.1806125877380371,-6.144568923187255
1790942717698482200,2.981482177734375,-3.3720834007263183,0.9443629173278808,-4.9920600990295405
1790942717708512300,2.99151220703125,-2.4666262603759765,1.4100351402282714,-3.495983336639404
1790942717718542300,3.001542236328125,-1.452981132507324,2.0976199295043942,-3.7098154724121093
1790942717728572400,3.011572509765625,-0.9720458740234375,2.0096330184936524,-3.6351463081359863
1790942717738602500,3.0216025390625,-1.2581529724121092,2.253093399810791,-2.899228572845459
1790942717748632300,3.03163232421875,-1.6274585784912108,1.8363526733398436,-3.585466623687744
1790942717758662100,3.041662109375,-1.988085203552246,1.585859324645996,-5.461772537231445
1790942717768692200,3.051692138671875,-2.578704825592041,2.0407576400756833,-5.791723453521728
1790942717778722300,3.061722412109375,-2.6171616897583005,2.4136545486450194,-4.2694601104736325
1790942717788752400,3.07175244140625,-2.6247932075500486,2.203114440155029,-4.027047192382812
1790942717798782500,3.081782470703125,-2.222866603851318,2.2182278381347653,-5.485265641021728
1790942717808812300,3.091812255859375,-1.9970634597778318,3.809623754119873,-5.181351667785644
1790942717818842400,3.10184228515625,-2.0560206756591795,3.736151690673828,-6.419153926086425
1790942717828872400,3.11187255859375,-2.028188081359863,4.236390200042725,-7.218518005371093
1790942717838902300,3.12190234375,-1.7905635665893553,4.007145391082763,-5.681141264343261
1790942717848932400,3.131932373046875,-1.674594423675537,3.656694123077392,-5.295225884246826
1790942717858962200,3.141962158203125,-2.1517887420654294,4.195988047027588,-6.208613817596436
1790942717868992300,3.1519921875,-2.4148516494750973,4.605097255706787,-6.280439867401123
1790942717879022300,3.162022216796875,-2.1260510742187497,4.198232611083984,-5.3305403587341305
1790942717889052400,3.172052490234375,-1.6163853958129881,3.452738069152832,-5.08782816543579
1790942717899082500,3.18208251953125,-1.3186065643310547,3.763535372161865,-6.078878015136718
1790942717909112600,3.192112548828125,-1.6117466300964354,3.812766143798828,-6.194847158050536
1790942717919142100,3.20214208984375,-1.87061968460083,3.6414310874938964,-6.169259127807617
1790942717929172200,3.212172119140625,-1.9940707077026365,3.494337322998047,-6.248567057800293
1790942717939202300,3.222202392578125,-2.242768405151367,3.3527801498413083,-6.6784758934021
1790942717949233400,3.2322333984375,-2.427121932983398,3.21780703125,-6.923881563568115
1790942717959263200,3.24226318359375,-2.338536471557617,2.987215483856201,-7.023240932464599
1790942717969293300,3.252293212890625,-2.0591630653381348,2.6273370468139645,-7.1321771080017085
1790942717979323400,3.262323486328125,-2.139518458557129,2.325218724822998,-7.08653763885498
1790942717989353500,3.272353515625,-2.7268460533142087,1.9505261650085448,-7.2903440551757805
1790942717999383600,3.282383544921875,-2.8675054008483887,1.6270096656799315,-7.35468822479248
1790942718009413000,3.2924130859375,-3.018938655853271,1.5261539207458494,-7.467215702819824
1790942718019443200,3.302443115234375,-3.5776854682922363,1.2994529510498045,-7.879317663574218
1790942718029473300,3.312473388671875,-3.851073370361328,0.9593266777038574,-8.067711406707764
1790942718039503400,3.32250341796875,-3.959560633087158,0.5161000953674316,-8.190563879394531
1790942718049533400,3.332533447265625,-3.9261914474487303,0.14829086532592772,-8.153304116058349
1790942718059563500,3.3425634765625,-3.986944314575195,-0.10190320816040038,-8.244882329559326
1790942718069593300,3.35259326171875,-4.458901316833495,-0.4848258361816406,-8.379107260131835
1790942718079623200,3.362623046875,-4.789001870727539,-0.9677063835144042,-8.52335791015625
1790942718089653200,3.3726533203125,-5.001936180877685,-1.3106757713317871,-8.499715168762206
1790942718099683300,3.382683349609375,-5.510255120849609,-1.3558663276672362,-8.107215734100341
1790942718109713400,3.39271337890625,-5.799504608917236,-1.3120225097656248,-7.792078940582275
1790942718119743200,3.4027431640625,-6.0136360198974605,-1.2523171058654785,-7.360075178527832
1790942718129773300,3.412773193359375,-6.329371363830566,-1.3088801200866698,-6.909366716003418
1790942718139803400,3.422803466796875,-6.3886278549194335,-1.6217723495483398,-6.6525885879516595
1790942718149833500,3.43283349609375,-6.195445708465575,-1.9943699829101562,-6.456862602233886
1790942718159863300,3.44286328125,-6.03937368774414,-2.208351756286621,-6.166116738128662
1790942718169893400,3.452893310546875,-6.01378565750122,-2.409464695739746,-5.7888803390502925
1790942718179923200,3.462923095703125,-6.246172856140136,-2.546682378387451,-5.53539423828125
1790942718189953300,3.472953369140625,-6.373963369750976,-2.774430811309814,-5.386355184936523
1790942718199983400,3.4829833984375,-5.958419744110107,-3.2390555709838864,-5.155314724731445
1790942718210014500,3.493014404296875,-5.569960524749756,-3.7536592903137205,-4.611980585479736
1790942718220044300,3.503044189453125,-5.266046551513671,-4.179827185821533,-4.179228635406494
1790942718230074400,3.513074462890625,-5.155464362335205,-4.552873731994628,-4.330512252807617
1790942718240104400,3.5231044921875,-4.845265609741211,-4.981735104370117,-4.804564181518554
1790942718250134300,3.53313427734375,-4.337994132995605,-5.644629689025878,-5.309291819000244
1790942718260164400,3.543164306640625,-3.8453871414184566,-6.215497147369384,-5.768529624938965
1790942718270194200,3.553194091796875,-3.7389948051452633,-6.912808380889892,-6.499060406494141
1790942718280224300,3.563224365234375,-3.5148376747131347,-7.936628865814209,-7.372495099639893
1790942718290254300,3.57325439453125,-3.407397875213623,-8.713547304534911,-7.464222950744628
1790942718300284400,3.583284423828125,-3.5562872909545895,-9.101108698272705,-7.014113038635253
1790942718310314500,3.593314453125,-3.590554302215576,-9.155726423645019,-6.558017622375488
1790942718320344600,3.603344482421875,-3.2787095359802243,-9.036764528656006,-6.178536659240723
1790942718330374100,3.6133740234375,-2.696170344543457,-8.648454946899413,-6.181230136108398
1790942718340404200,3.623404296875,-2.480991470336914,-8.055141847991942,-6.759729112243652
1790942718350434300,3.633434326171875,-2.5828946784973144,-7.971793702697753,-7.693767034912109
1790942718360464400,3.64346435546875,-2.6228479187011717,-8.145672598266602,-8.48549959640503
1790942718370494500,3.653494384765625,-2.3452701637268065,-8.16617294998169,-8.885031998443603
1790942718380524300,3.663524169921875,-1.9002479301452635,-8.185326563262938,-8.757540760040282
1790942718390554400,3.673554443359375,-1.7024270179748535,-8.23470697250366,-7.9272016967773435
1790942718400584200,3.683584228515625,-1.6425719764709472,-8.02476541442871,-6.919841348266601
1790942718410614300,3.6936142578125,-1.8243816650390623,-7.840860799407959,-6.2401873519897455
1790942718420644400,3.703644287109375,-1.0588356842041016,-8.134898690795898,-6.260089153289795
1790942718430674400,3.71367431640625,-0.751480046081543,-8.22258632659912,-6.050596508026123
1790942718440704300,3.723704345703125,-1.4309844047546385,-8.115894715118408,-5.52881018371582
1790942718450734300,3.733734375,-2.0669442207336424,-8.182633086395263,-5.276371546173095
1790942718460764400,3.743764404296875,-2.0600608909606932,-8.316259466552735,-5.1511248718261715
1790942718470795500,3.75379541015625,-1.9557634811401365,-8.483255032348632,-4.9543514228820795
1790942718480825600,3.76382568359375,-1.8459294799804686,-8.360402559661864,-4.5599066993713375
1790942718490855700,3.773855712890625,-1.7293617866516113,-8.498069155120849,-4.3926118583679195
1790942718500885800,3.7838857421875,-1.7848773376464844,-8.89999575881958,-4.506785350036621
1790942718510915800,3.793915771484375,-1.4833575660705565,-9.492859944915772,-4.171297842407227
1790942718520945700,3.803945556640625,-1.1939584403991699,-9.753678288269043,-3.9835026496887203
1790942718530975500,3.8139755859375,-1.4003086959838866,-9.813982242584228,-4.471770150756836
1790942718541005600,3.824005615234375,-1.5272013839721679,-10.164732785797119,-5.1800049293518065
1790942718551035600,3.83403564453125,-1.3527239379882812,-11.222670644378661,-5.971438215637207
1790942718561065700,3.844065673828125,-0.8291419624328613,-12.881403482055664,-6.704662474060058
1790942718571095800,3.854095703125,0.04144961624145507,-13.921384828186035,-7.028029335784912
1790942718581125600,3.864125732421875,0.9328408218383788,-14.687529359436034,-7.359925540924072
1790942718591155700,3.87415576171875,1.9062334342956542,-14.60073954925537,-7.015310139465331
1790942718601185500,3.884185546875,2.8892028533935545,-13.93694713897705,-5.9503393135070795
1790942718611215600,3.894215576171875,2.1914427070617672,-13.688698354339598,-5.597793119049072
1790942718621245700,3.90424560546875,0.2813186950683594,-13.34917063140869,-5.71421117477417
1790942718631275800,3.91427587890625,-1.6154875701904297,-12.822146990966797,-5.812373442840576
1790942718641305600,3.9243056640625,-2.865260836791992,-12.336124053955077,-5.226392586517334
1790942718651335700,3.934335693359375,-3.139097651672363,-11.32562131576538,-3.656245210266113
1790942718661365800,3.94436572265625,-2.532766081237793,-10.38140803604126,-1.670105295562744
1790942718671395800,3.954395751953125,-2.071732624053955,-9.346065455627441,0.043544542694091797
1790942718681425700,3.96442578125,-2.0759224769592284,-8.398410511016845,0.9988310050964355
1790942718691455500,3.97445556640625,-1.9553145683288573,-8.043170839691161,1.1611878051757811
1790942718701485600,3.984485595703125,-1.3211504035949706,-8.11439833908081,0.967856021118164
1790942718711515600,3.994515625,-0.36810850524902344,-8.506748136138915,0.7600093894958496
1790942718721546800,4.004546630859375,0.6283282981872558,-9.208398860168456,0.5125087928771972
1790942718731576600,4.01457666015625,1.3537714012145996,-9.818770645904541,0.28042086944580075
1790942718741606700,4.024606689453125,1.7525556152343749,-10.427496417999267,-0.19422960968017577
1790942718751636700,4.03463671875,1.7654244491577147,-10.813262160491943,-0.771830760192871
1790942718761666800,4.044666748046875,1.2897265068054198,-10.931026954650878,-1.3612532814025877
1790942718771696600,4.054696533203125,0.18525135345458985,-10.773608195495605,-1.7446248222351073
1790942718781726700,4.064726806640625,-1.1821370697021483,-10.145878447723389,-1.8189947113037108
1790942718791756500,4.074756591796875,-2.510918991088867,-9.426420848846435,-1.7829320487976072
1790942718801786600,4.08478662109375,-3.5884593757629393,-9.036614891052245,-2.0944775398254394
1790942718811816700,4.094816650390625,-4.248211570739746,-9.074173929595947,-2.6357167526245115
1790942718821846800,4.1048466796875,-4.246864832305908,-9.293243381500243,-2.6319758125305173
1790942718831876900,4.114876953125,-3.681384327697754,-9.438691132354736,-1.9777602088928221
1790942718841906700,4.12490673828125,-2.756175023651123,-9.360430665588378,-1.0449193870544433
1790942718851936500,4.1349365234375,-1.8698714965820311,-9.315389746856688,-0.2859574607849121
1790942718861966600,4.144966552734375,-1.1984475685119629,-9.2573303565979,0.019901801300048826
1790942718871996700,4.15499658203125,-0.7347206344604492,-9.140014475250243,0.07796119155883789
1790942718882026800,4.16502685546875,-0.37020343170166015,-9.126846366119384,0.06928221054077148
1790942718892056600,4.175056640625,-0.4560954162597656,-9.24416224746704,0.36930560607910157
1790942718902086700,4.185086669921875,-0.9063549659729003,-9.318681774139403,1.0115502014160156
1790942718912116700,4.19511669921875,-1.273116732788086,-9.643844287109374,1.4119804290771483
1790942718922146600,4.205146484375,-1.3836989219665528,-10.122684619140625,1.1176432624816894
1790942718932176600,4.2151767578125,-1.328632283782959,-10.232967533111571,0.18719664230346678
1790942718942206700,4.225206787109375,-1.4200608596801756,-9.957484704589843,-0.9712976860046386
1790942718952236500,4.235236572265625,-1.5741875915527344,-9.523386016082764,-1.862239978790283
1790942718962267600,4.245267578125,-1.543661520385742,-9.172934748077392,-2.277035416412353
1790942718972297700,4.255297607421875,-1.5451578964233397,-9.04753843612671,-2.145653600311279
1790942718982327800,4.265327880859375,-1.633144807434082,-9.153032946777342,-1.6460136413574218
1790942718992357600,4.275357666015625,-1.6304513305664061,-9.26331586074829,-1.175852290344238
1790942719002387700,4.2853876953125,-1.6051625755310057,-9.320028512573241,-0.9361328491210937
1790942719012417500,4.29541748046875,-1.4145242683410644,-9.520393264007568,-1.1284171699523926
1790942719022447600,4.305447509765625,-1.2255319747924804,-9.723750767517089,-1.5685013626098632
1790942719032477700,4.315477783203125,-1.1379939765930176,-9.785850373077391,-1.9342156661987304
1790942719042507800,4.3255078125,-1.1279682571411132,-9.63351929244995,-2.0247464164733886
1790942719052537600,4.33553759765625,-1.3569137908935547,-9.472658868408203,-2.0492869834899903
1790942719062567700,4.345567626953125,-1.886630908203125,-9.373598774719238,-2.0400094520568848
1790942719072597800,4.35559765625,-2.356492984008789,-9.44288098526001,-1.779340746307373
1790942719082627800,4.3656279296875,-2.298882506561279,-9.577255553436279,-0.9338882850646972
1790942719092657700,4.37565771484375,-1.7812860351562498,-9.626336687469482,0.17133505630493162
1790942719102687500,4.3856875,-1.3934253662109375,-9.698611650085448,0.8906430175781249
1790942719112717600,4.395717529296875,-1.2900257820129393,-9.547776945495604,1.051503441619873
1790942719122747600,4.40574755859375,-1.3488333602905274,-9.204508282470703,0.8812158485412597
1790942719132777700,4.41577783203125,-1.3916297149658203,-9.026289896392822,0.4584896179199218
1790942719142807800,4.425807861328125,-1.3033435287475585,-9.063699297332763,-0.006883329772949218
1790942719152837600,4.435837646484375,-1.2446855880737304,-9.204358644866943,-0.16355390090942382
1790942719162868700,4.44586865234375,-1.2832920898437499,-9.470414304351806,0.12868833923339842
1790942719172898800,4.45589892578125,-1.3105261337280272,-9.836427883148193,0.6813000099182128
1790942719182928600,4.4659287109375,-1.3289315589904784,-10.02317561264038,1.3281833709716797
1790942719192958700,4.475958740234375,-1.294814185333252,-10.104877744293212,1.820790362548828
1790942719202988500,4.485988525390625,-1.1194389137268066,-10.238953037261963,2.1583727966308595
1790942719213018600,4.4960185546875,-0.8013093681335449,-10.344447547912598,2.290053887939453
1790942719223048700,4.506048583984375,-0.513256980895996,-10.607660092926025,2.0676924087524413
1790942719233078800,4.516078857421875,-0.3719990829467773,-10.836007076263428,1.396867031097412
1790942719243108900,4.52610888671875,-0.001945288848876953,-10.900051970672607,0.13213000411987305
1790942719253138700,4.536138671875,0.34745851593017574,-10.666467671203613,-1.2241852363586425
1790942719263168500,4.54616845703125,0.3763385734558105,-10.099191515350341,-2.2143372604370115
1790942719273198600,4.556198486328125,0.1044470474243164,-9.592668226623534,-3.0352491546630858
1790942719283228700,4.566228759765625,-0.5671265182495117,-9.198672415924072,-3.4196681587219238
1790942719293258800,4.5762587890625,-1.1369465133666992,-9.000701866149901,-3.197905229949951
1790942719303288600,4.58628857421875,-1.389834063720703,-8.9508725440979,-2.4869769744873045
1790942719313318700,4.596318603515625,-1.5243582695007323,-9.191340173339842,-1.4065934753417968
1790942719323349800,4.606349853515625,-1.4185644836425781,-9.599701194000243,-0.32097266006469727
1790942719333379800,4.6163798828125,-1.1553519386291504,-9.954342314910889,0.5942109245300292
1790942719343409700,4.62640966796875,-0.951844797515869,-10.166378799438476,1.4098855026245116
1790942719353439500,4.636439453125,-0.830638338470459,-10.15755018081665,2.1716905433654783
1790942719363469600,4.646469482421875,-0.814028564453125,-9.958681805419921,2.793584424591064
1790942719373499600,4.656499755859375,-0.8783727340698242,-9.7039986038208,2.799569928741455
1790942719383529700,4.66652978515625,-0.869544115447998,-9.605387422943116,2.361431024932861
1790942719393559800,4.676559814453125,-0.6777087074279785,-9.547926583099365,1.7191864295959471
1790942719403589600,4.686589599609375,-0.6310217750549316,-9.620051908111572,0.8441057228088379
1790942719413619700,4.69661962890625,-0.8511386901855468,-9.843311212921142,-0.12240355987548827
1790942719423649800,4.70664990234375,-1.2096703887939453,-9.871742357635497,-0.8071452346801757
1790942719433679600,4.7166796875,-1.5982792457580566,-9.887005393218994,-1.344493869781494
1790942719443709700,4.726709716796875,-1.6891092712402342,-9.658508772277832,-1.434575707244873
1790942719453739500,4.736739501953125,-1.5888520767211913,-9.607183074188232,-1.5716437522888183
1790942719463769600,4.74676953125,-1.6208745239257811,-9.652223992919922,-1.6041151123046875
1790942719473800700,4.75680078125,-1.6551415351867675,-9.814880068206786,-1.4130278923034667
1790942719483830500,4.76683056640625,-1.5631144088745117,-9.956437241363524,-1.415422093963623
1790942719493860600,4.776860595703125,-1.5806220085144043,-9.83822353439331,-1.4905401710510253
1790942719503890400,4.786890380859375,-1.5643115097045897,-9.604788872528076,-1.328632283782959
1790942719513920500,4.79692041015625,-1.3991115951538085,-9.344868354797363,-0.9478045822143554
1790942719523950600,4.80695068359375,-1.157446865081787,-9.194781838226318,-0.33324294357299805
1790942719533980400,4.81698046875,-1.0954968971252441,-9.3331966217041,0.4242226066589355
1790942719544010500,4.827010498046875,-0.7652467056274413,-9.273491217803954,1.0054150596618652
1790942719554040300,4.837040283203125,-0.4734533782958984,-9.109488404083251,1.492635097503662
1790942719564070400,4.8470703125,-0.3485059791564941,-9.131335494232177,1.9859902770996092
1790942719574100500,4.8571005859375,-0.30885201416015623,-9.398588254547118,2.347514727783203
1790942719584130600,4.867130615234375,-0.2302922721862793,-9.666589202880859,2.5944167739868162
1790942719594160600,4.87716064453125,-0.13377601776123046,-9.673921445465087,2.6108769104003904
1790942719604190500,4.8871904296875,-0.01750759963989258,-9.675118546295165,2.226158631134033
1790942719614221600,4.8972216796875,-0.03621230010986328,-9.751433724212646,1.6799813774108885
1790942719624251400,4.90725146484375,-0.24316110610961914,-9.95957963104248,1.2029366966247559
1790942719634281500,4.917281494140625,-0.5790975265502929,-10.188076251983642,0.560542463684082
1790942719644311600,4.9273115234375,-1.1279682571411132,-10.23371572113037,-0.0040402153015136714
1790942719654341400,4.93734130859375,-1.5521908638000488,-10.153659603118896,-0.25049334869384765
1790942719664371500,4.947371337890625,-1.549497386932373,-10.002375985717773,-0.5163993705749511
1790942719674401500,4.957401611328125,-1.242291386413574,-9.707440268707275,-0.6337152519226074
1790942719684431600,4.967431640625,-0.8031050193786621,-9.602693946075439,-0.22221184158325194
1790942719694461400,4.97746142578125,-0.3290530906677246,-9.68559317855835,0.24001871643066405
1790942719704491300,4.9874912109375,-0.13287819213867186,-9.674519995880127,0.3640682899475097
1790942719714521300,4.997521240234375,-0.09816226806640624,-9.654767832183838,0.2397194412231445
1790942719724551400,5.007551513671875,-0.13871405868530273,-9.618106619262695,0.00987608184814453
1790942719734581500,5.01758154296875,-0.35613749694824215,-9.62080009613037,0.042048166656494135
1790942719744611600,5.027611572265625,-0.5497685562133788,-9.636512044525146,0.2871545616149902
1790942719754641400,5.037641357421875,-0.5714660087585449,-9.552565348815918,0.6480804618835448
1790942719764672500,5.047672607421875,-0.4103063095092773,-9.531167171478272,0.9879074600219726
1790942719774702600,5.05770263671875,-0.2289455337524414,-9.616460605621338,1.1225813034057617
1790942719784732700,5.067732666015625,-0.17028759307861327,-9.76894132385254,1.0784382102966308
1790942719794762500,5.077762451171875,-0.2952349922180176,-9.795277542114258,0.8915408432006835
1790942719804792300,5.087792236328125,-0.6385036552429199,-9.681253688049315,0.6904279037475586
1790942719814822400,5.097822509765625,-1.025316860961914,-9.65970587310791,0.4103063095092773
1790942719824852500,5.1078525390625,-1.4414590370178222,-9.712827222442627,0.04938040924072265
1790942719834882600,5.117882568359375,-1.7604864082336424,-9.772382988739013,-0.2572270408630371
1790942719844912600,5.12791259765625,-1.8234838394165038,-9.686341366577148,-0.39863457641601563
1790942719854942500,5.1379423828125,-1.7063175956726073,-9.40382557067871,-0.3298012786865234
1790942719864972300,5.14797216796875,-1.4208090476989745,-9.262567672729492,-0.08664017257690429
1790942719875002400,5.15800244140625,-0.9888052856445312,-9.467122277069091,0.18570026626586913
1790942719885032400,5.168032470703125,-0.5244798011779784,-9.80724855041504,0.2929904281616211
1790942719895062500,5.1780625,-0.15771803436279297,-10.120440055084227,0.20515315475463866
1790942719905092400,5.18809228515625,0.05521627578735351,-10.186280600738526,0.10549451065063475
1790942719915123500,5.19812353515625,0.06928221054077148,-10.014346994018554,0.08544307174682617
1790942719925153500,5.208153564453125,-0.1975216369628906,-9.75547393951416,0.16729484100341796
1790942719935183600,5.21818359375,-0.6304232246398925,-9.625887774658203,0.43290158767700193
1790942719945213400,5.22821337890625,-0.974888988494873,-9.6020953956604,0.8346785537719726
1790942719955243300,5.2382431640625,-1.1348515869140625,-9.568426934814452,1.3335703247070312
1790942719965273300,5.2482734375,-1.354070676422119,-9.543437454986572,1.7863737136840818
1790942719975303400,5.258303466796875,-1.5219640678405761,-9.830741654205323,1.9818004241943359
1790942719985333500,5.26833349609375,-1.5370774658203123,-10.098144052124022,2.0479402450561524
1790942719995363600,5.278363525390625,-1.1432312927246093,-10.072107109069824,1.8701707717895506
1790942720005393400,5.288393310546875,-0.637755467224121,-9.910797772216796,1.5842133110046386
1790942720015423500,5.298423583984375,-0.19512743530273435,-9.722703304290771,1.2116156776428222
1790942720025453600,5.30845361328125,0.10743979949951171,-9.604639234924315,0.7728782234191894
1790942720035483400,5.3184833984375,0.2998737579345703,-9.532663547515869,0.3407248237609863
1790942720045513500,5.328513427734375,0.3573345977783203,-9.476699083709716,-0.1140238540649414
1790942720055543300,5.338543212890625,0.18300678939819334,-9.484779514312743,-0.5330091445922851
1790942720065573400,5.348573486328125,-0.10818798751831055,-9.576058452606201,-0.8623615104675293
1790942720075604500,5.3586044921875,-0.41105449752807616,-9.744849669647216,-0.9341875602722167
1790942720085634600,5.368634521484375,-0.6171054779052734,-9.81338369216919,-0.7894879974365234
1790942720095664400,5.378664306640625,-0.7161655715942382,-9.695020347595214,-0.6093243225097655
1790942720105694500,5.388694580078125,-0.8002619049072265,-9.568127659606933,-0.39668928756713867
1790942720115724500,5.398724609375,-0.750133307647705,-9.539397239685059,-0.18555062866210936
1790942720125754400,5.40875439453125,-0.5843348426818847,-9.51964507598877,-0.01705868682861328
1790942720135784400,5.418784423828125,-0.39983167724609375,-9.529371520233154,0.14499883804321287
1790942720145814500,5.428814453125,-0.3582324234008789,-9.606285248565673,0.222810391998291
1790942720155844400,5.43884423828125,-0.565630142211914,-9.736469963836669,0.2549824768066406
1790942720165874400,5.44887451171875,-0.7167641220092773,-9.83223803024292,0.2518400871276855
1790942720175904500,5.458904541015625,-0.7920318367004394,-9.833884043884277,0.17028759307861327
1790942720185934600,5.4689345703125,-1.163133094024658,-10.126275921630858,0.13781623306274413
1790942720195964700,5.478964599609375,-1.4061445625305176,-10.279504827880858,0.12105682144165038
1790942720205994200,5.488994140625,-1.5044564682006836,-10.377218183135986,0.03336918563842773
1790942720216024300,5.4990244140625,-1.3907318893432616,-10.283993955993651,-0.04668693237304687
1790942720226054400,5.509054443359375,-1.2421417488098143,-10.011653517150878,-0.0796072052001953
1790942720236084500,5.51908447265625,-1.2086229255676268,-9.86994670639038,0.002992752075195312
1790942720246114600,5.529114501953125,-1.2574047843933105,-9.936984352874756,0.09382277755737305
1790942720256145400,5.5391455078125,-1.3729250144958496,-10.160243657684326,0.0818517692565918
1790942720266175500,5.549175537109375,-1.450586930847168,-10.519074631500244,-0.11656769332885741
1790942720276205600,5.55920556640625,-1.317708738708496,-10.785130290985107,-0.4677671493530273
1790942720286235600,5.569235595703125,-1.4086884017944334,-11.06345623397827,-0.7119757186889648
1790942720296265500,5.579265380859375,-1.5759832427978515,-11.14007068710327,-0.6461351730346679
1790942720306295300,5.58929541015625,-1.7688661140441893,-11.08350767288208,-0.5312134933471679
1790942720316325400,5.599325439453125,-1.9141642272949217,-11.00674358215332,-0.4795885200500488
1790942720326355500,5.60935546875,-2.2001216880798338,-10.951676943969726,-0.6507739387512207
1790942720336385500,5.619385498046875,-2.503736386108398,-10.89900450744629,-1.0586860466003418
1790942720346415600,5.62941552734375,-2.5309704299926756,-10.685022734069824,-1.4103344154357909
1790942720356445400,5.639445556640625,-2.549226217651367,-10.340856245422362,-1.5649100601196289
1790942720366475300,5.649475341796875,-2.5541642585754394,-9.913640886688231,-1.4073416633605955
1790942720376505300,5.65950537109375,-2.096123553466797,-9.535805937194823,-1.0088567245483397
1790942720386535400,5.669535400390625,-0.9680056587219238,-9.30192236251831,-0.5801449897766113
1790942720396565500,5.6795654296875,0.20739771881103514,-9.344718717193603,-0.2141314109802246
1790942720406595600,5.689595703125,0.5198410354614258,-9.37853681564331,-0.03486556167602539
1790942720416625400,5.69962548828125,0.19482816009521484,-9.190891260528565,-0.016460136413574217
1790942720426655500,5.709655517578125,-0.02124853973388672,-8.830114997863769,-0.00613514175415039
1790942720436686600,5.7196865234375,-0.15726912155151365,-8.29291600036621,0.18869301834106444
1790942720446716700,5.729716552734375,-0.18734627990722655,-7.697059062194824,0.699106884765625
1790942720456746500,5.73974658203125,0.05596446380615234,-7.388805598449706,1.2846388282775878
1790942720466776300,5.7497763671875,0.2855085479736328,-7.37399147567749,1.933168202972412
1790942720476806400,5.759806396484375,0.4611830947875976,-7.530213134002685,2.3418284988403317
1790942720486836000,5.7698359375,0.40013095245361324,-7.845499565124511,2.2979846809387205
1790942720496866000,5.779865966796875,0.20216040267944335,-8.145672598266602,1.7622820594787596
1790942720506896100,5.789896240234375,-0.061949967956542965,-8.547748839569092,1.0007762939453124
1790942720516926000,5.799926025390625,-0.2620154441833496,-8.986037380981445,0.20844518203735352
1790942720526955800,5.809955810546875,-0.3618237258911133,-9.341725965118407,-0.5355529838562011
1790942720536985900,5.81998583984375,-0.41359833679199215,-9.79333225326538,-0.9042600395202636
1790942720547016000,5.830015869140625,-0.2198176399230957,-10.220846887207031,-0.6919242797851562
1790942720557046000,5.8400458984375,-0.019602526092529295,-10.314520027160643,-0.017657237243652344
1790942720567075800,5.850075927734375,-0.0948702407836914,-10.27845736465454,0.8128314636230468
1790942720577106000,5.86010595703125,-0.07900865478515624,-10.410288093566894,1.578826357269287
1790942720587136000,5.870135986328125,0.19662381134033202,-10.718541557312012,1.9571102195739745
1790942720597166000,5.880166015625,0.5229834251403809,-11.111489904785156,1.7094599853515624
1790942720607196000,5.89019580078125,0.8451531860351562,-11.79219136428833,1.1264718811035155
1790942720617226000,5.90022607421875,1.124825867462158,-12.69241118850708,0.5178957466125488
1790942720627256800,5.9102568359375,1.0070610733032226,-13.851504067230223,-0.3064578125
1790942720637287000,5.920286865234375,0.8833107749938964,-15.140781661224365,-1.5397709426879882
1790942720647317000,5.93031689453125,1.1929109771728514,-16.152631137847898,-2.9501053581237793
1790942720657347000,5.94034716796875,0.988356372833252,-16.277428899383544,-3.6098575531005856
1790942720667377000,5.950376953125,-0.06628945846557617,-16.048932278442383,-4.134935904693603
1790942720677407000,5.960406982421875,-0.4887164138793945,-15.286379049682616,-5.0471267372131345
1790942720687437000,5.97043701171875,-0.5804442649841308,-14.034959769439697,-6.459107166290283
1790942720697467000,5.980466796875,-1.5587749183654784,-12.911181365203857,-7.785943798828124
1790942720707497000,5.9904970703125,-2.2188263885498047,-13.032836737060546,-7.822455374145507
1790942720717527000,6.000527099609375,-2.36861362991333,-12.991087845611572,-5.524769968414306
1790942720727556900,6.010556884765625,-2.18336227645874,-12.6536550491333,-3.1759085021972653
1790942720737587000,6.0205869140625,-1.9069816223144531,-12.004227848815917,-1.4547767837524412
1790942720747617000,6.030616943359375,-0.7127239067077636,-11.502642601013182,-0.14170681076049804
1790942720757647000,6.040647216796875,0.7914332862854003,-11.150694956970215,0.7121253562927246
1790942720767677200,6.05067724609375,1.7624316970825193,-10.839299103546143,1.4624083015441893
1790942720777706800,6.060706787109375,2.1903952438354493,-10.50261449508667,2.051232272338867
1790942720787736800,6.07073681640625,2.366219428253174,-10.110563973236083,2.5813983024597165
1790942720797767000,6.080766845703125,2.1857564781188965,-9.946411521911621,3.2390555709838864
1790942720807797000,6.090796875,1.2339116806030272,-9.696666361236572,3.8706758964538572
1790942720817827000,6.1008271484375,-0.49679684448242184,-9.29593685836792,3.832518307495117
1790942720827858000,6.11085791015625,-2.2521955741882325,-9.079560883331299,3.030460751342773
1790942720837888000,6.120887939453125,-3.391386651611328,-8.747365402984618,2.001702225494385
1790942720847918000,6.13091796875,-3.839551274871826,-8.173804467773436,1.1218331153869627
1790942720857948200,6.1409482421875,-3.569605037689209,-7.606229036712646,0.38666356811523434
1790942720867978000,6.15097802734375,-3.055450231170654,-7.46317548751831,-0.6718728408813476
1790942720878007800,6.1610078125,-2.6197055290222164,-7.704840217590331,-1.5970821449279784
1790942720888038000,6.171037841796875,-2.2930466400146483,-8.112303412628174,-1.9243395843505857
1790942720898068000,6.18106787109375,-2.1718401809692383,-8.617180687713622,-1.5887024391174316
1790942720908098000,6.19109814453125,-2.1517887420654294,-9.401880281829833,-0.8060977714538574
1790942720918128000,6.201128173828125,-1.9213468322753906,-10.313622201538085,-0.28865093765258787
1790942720928158000,6.211157958984375,-1.4336778816223144,-11.084704773712158,-0.34970307998657224
1790942720938188000,6.22118798828125,-1.1106102951049803,-11.45296291656494,-0.7968202400207519
1790942720948217900,6.2312177734375,-0.9038111267089843,-11.520748751068114,-1.6397288619995116
1790942720958248000,6.241248046875,-0.6545148788452148,-11.25514200439453,-2.6797102081298827
1790942720968278000,6.251278076171875,-0.4921580787658691,-10.801590427398681,-3.464858715057373
1790942720978307800,6.261307861328125,-0.4116530479431152,-10.084975942993163,-3.979911347198486
1790942720988338000,6.271337890625,-0.40776247024536133,-9.234585440826416,-4.031835595703125
1790942720998368000,6.281367919921875,-0.49425300521850585,-8.586504978942871,-3.9228994201660154
1790942721008398000,6.291398193359375,-0.5370493598937988,-7.816619507598877,-3.6659716545104977
1790942721018429000,6.301428955078125,-0.32306758651733397,-7.1315785575866695,-3.342155879974365
1790942721028459000,6.311458984375,0.16220716247558592,-6.582558189392089,-2.518700146484375
1790942721038488800,6.32148876953125,0.7166144844055176,-6.275352188873291,-1.7534534408569336
1790942721048519000,6.331518798828125,0.32501287536621093,-6.488286499023437,-1.5126865364074706
1790942721058549000,6.341549072265625,-0.764199242401123,-7.816020957183837,-2.307411849975586
1790942721068579000,6.3515791015625,0.15981296081542967,-8.671948050689696,-3.106775929260254
1790942721078609000,6.36160888671875,0.15726912155151365,-8.455572075653075,-3.190124074554443
1790942721088639000,6.371638916015625,-1.18108960647583,-8.633491186523438,-3.496581887054443
1790942721098669000,6.3816689453125,-2.9435213035583496,-8.91899973449707,-3.3197102394104
1790942721108699000,6.391698974609375,-4.239532589721679,-8.942941751098632,-2.9103017555236814
1790942721118729000,6.40172900390625,-4.841075756835937,-9.223512258148192,-2.808398547363281
1790942721128758800,6.4117587890625,-4.318391606903076,-10.110264698028564,-3.042880672454834
1790942721138788900,6.421788818359375,-3.910928411865234,-10.78258645172119,-3.2070331237792966
1790942721148819000,6.43181884765625,-3.9209541313171385,-10.83361287460327,-2.9875147590637203
1790942721158849000,6.44184912109375,-3.9912838050842283,-10.602871689605712,-3.0035259826660154
1790942721168879000,6.451879150390625,-4.266766633605957,-10.414178671264647,-3.567061198425293
1790942721178910000,6.461909912109375,-4.460248055267334,-10.469095671844482,-3.548356497955322
1790942721188940000,6.47193994140625,-4.37959338684082,-10.54645831298828,-2.792387323760986
1790942721198970000,6.48197021484375,-4.060566015625,-10.590751043701172,-1.5818191093444822
1790942721209000000,6.492,-3.9852983009338376,-11.075277604675293,-1.1979986557006834
1790942721219030000,6.502030029296875,-4.631283836364746,-11.851447855377197,-1.9219453826904296
1790942721229059800,6.512059814453125,-4.791096797180176,-12.239757437133788,-2.024896054077148
1790942721239090000,6.52208984375,-4.159177196502685,-12.362011359405518,-2.118269918823242
1790942721249120000,6.5321201171875,-3.6008792968749996,-12.306346170806885,-2.122160496520996
1790942721259150000,6.542150146484375,-3.60072965927124,-11.9894137260437,-2.1109376762390135
1790942721269180200,6.55218017578125,-4.026299004364013,-11.352406446838378,-2.2444144187927244
1790942721279209700,6.562209716796875,-4.574571184539795,-10.506355435180664,-2.1474492515563965
1790942721289239800,6.57223974609375,-4.915296008300781,-9.50617769165039,-2.0115783073425293
1790942721299270000,6.582269775390625,-4.7864580314636225,-8.521262983703613,-1.8815432296752927
1790942721309300000,6.592300048828125,-4.279036917114258,-7.537395738983154,-2.0395605392456053
1790942721319330800,6.602330810546875,-3.535637301635742,-6.469432160949706,-2.6198551666259764
1790942721329361000,6.61236083984375,-3.1745617637634274,-5.202899482727051,-3.466055815887451
1790942721339391000,6.622390869140625,-3.0693665283203124,-3.926939635467529,-4.743362401580811
1790942721349421000,6.632421142578125,-3.4677018295288082,-2.7066449768066403,-5.753416226959228
1790942721359451100,6.642451171875,-3.845985691833496,-2.389413256835937,-6.519710395812988
1790942721369481000,6.65248095703125,-4.368520204162597,-3.3761236160278316,-6.846818197631835
1790942721379510800,6.6625107421875,-4.875642043304443,-5.1152118469238275,-6.680720457458496
1790942721389540900,6.672540771484375,-5.353584549713134,-6.935104383850097,-6.323086584472656
1790942721399571000,6.682571044921875,-5.9108349861145015,-8.594435771942138,-6.4071829177856445
1790942721409601000,6.69260107421875,-6.743717888641357,-9.880421338653564,-6.884227598571777
1790942721419631000,6.702631103515625,-8.092102336120606,-10.037989735412596,-7.6005428077697745
1790942721429661000,6.712660888671875,-9.456348369598388,-9.58339069519043,-6.927472866058349
1790942721439692000,6.722692138671875,-10.318111329650879,-9.197325677490234,-4.842272857666015
1790942721449722000,6.73272216796875,-9.905560456085205,-8.782979152679443,-2.64948341217041
1790942721459752000,6.742751953125,-9.147496355438232,-8.231564582824706,-1.6300024177551269
1790942721469781800,6.75278173828125,-8.576179984283447,-7.5798928184509275,-1.8231845642089843
1790942721479811800,6.762811767578125,-7.4411787597656245,-7.468113528442382,-1.918503717803955
1790942721489842000,6.772842041015625,-6.7645175155639645,-7.349600546264648,-2.812139487457275
1790942721499872000,6.7828720703125,-6.692691465759277,-6.942885539245605,-4.044554792022705
1790942721509902000,6.792902099609375,-6.45446840057373,-6.208164904785156,-5.360467879486084
1790942721519932000,6.802931884765625,-5.893626661682129,-5.323956304168701,-6.171503691864014
1790942721529961700,6.812961669921875,-5.4795794120788575,-3.5058594184875487,-6.472125637817382
1790942721539992800,6.822992919921875,-5.1328690841674804,-1.2369044326782226,-6.728305215454101
1790942721550023000,6.83302294921875,-4.808005846405029,0.4159925384521484,-6.612934622955322
1790942721560053000,6.843052978515625,-4.426280319213867,0.5334580574035644,-5.833472344970703
1790942721570082800,6.853082763671875,-4.137629381561279,0.15936404800415038,-4.696076918792724
1790942721580113000,6.86311279296875,-3.9737762054443357,-0.12090718383789062,-3.7789480453491207
1790942721590143000,6.87314306640625,-4.09228918762207,-0.30690672531127927,-3.1603461914062496
1790942721600173000,6.883173095703125,-4.093336650848388,-0.2694973243713379,-2.794332612609863
1790942721610203100,6.893203125,-4.166210163879394,-0.05491700057983398,-2.8075007217407224
1790942721620232700,6.903232666015625,-4.267664459228516,0.18270751419067383,-3.17920052947998
1790942721630262800,6.9132626953125,-4.3637318008422845,0.21083938369750976,-3.4268507637023924
1790942721640294000,6.9232939453125,-4.483142608642578,0.02663549346923828,-3.2324715164184568
1790942721650324000,6.933323974609375,-4.499602745056152,-0.1680430290222168,-2.738068873596191
1790942721660353800,6.943353759765625,-4.335450293731689,-0.3456628646850586,-2.3671172538757324
1790942721670383900,6.9533837890625,-4.406827430725097,-0.47644613037109373,-2.478447631072998
1790942721680414000,6.9634140625,-4.900032972717285,-0.5614402893066406,-2.953247747802734
1790942721690444000,6.973444091796875,-5.550956549072265,-0.5998971534729004,-3.5167829635620116
1790942721700474000,6.98347412109375,-5.95048895111084,-0.6621463966369628,-3.9757214942932126
1790942721710504000,6.99350390625,-6.102670394134521,-0.7463923675537109,-4.381089762878418
1790942721720533800,7.00353369140625,-7.950694800567627,-1.0437222862243651,-4.610933122253417
1790942721730563800,7.013563720703125,-11.97100830078125,-1.220743571472168,-4.57112951965332
1790942721740595000,7.023594970703125,-15.702371588134765,-2.372204932403564,-5.328445432281494
1790942721750624800,7.033624755859375,-16.038457646179197,-3.3460464576721187,-6.5689411674499505
1790942721760654800,7.04365478515625,-11.67682077178955,-1.85146607131958,-6.308721374511719
1790942721770685000,7.053684814453125,-8.547599201965332,-0.6085761344909668,-4.768052606201172
1790942721780715000,7.063715087890625,-8.82921717224121,-0.47584757995605464,-2.673575066375732
1790942721790745000,7.0737451171875,-9.814131880187988,-1.356015965270996,-2.4890719009399414
1790942721800775000,7.08377490234375,-9.477297634124755,-1.7127520126342772,-3.5384804161071775
1790942721810804700,7.0938046875,-8.428038756561278,-1.24498486328125,-4.027346467590331
1790942721820834800,7.103834716796875,-8.27391202468872,-0.6151601890563965,-4.824765258026122
1790942721830865000,7.113864990234375,-8.924237050628662,-0.6471826362609863,-5.701940891265869
1790942721840896000,7.12389599609375,-10.019584310150146,-0.8919897560119628,-6.328024625396728
1790942721850925800,7.13392578125,-10.558130046081542,-0.9094973556518554,-6.367828227996826
1790942721860956000,7.143955810546875,-9.950302099609374,-1.0736498069763183,-5.678298149871826
1790942721870986000,7.153986083984375,-9.350554583740234,-1.1770493911743163,-4.667196861267089
1790942721881016000,7.16401611328125,-8.307730123138427,-1.2713210815429687,-3.4524387939453125
1790942721891046000,7.1740458984375,-7.0549641044616695,-1.4585177238464355,-2.58558815536499
1790942721901075700,7.18407568359375,-7.182156067657471,-1.463904677581787,-3.0449755989074707
1790942721911105800,7.194105712890625,-7.500734526062011,-1.3428478561401367,-3.5494039611816404
1790942721921135900,7.204135986328125,-6.681319007873535,-1.0462661254882812,-3.0819360870361328
1790942721931166000,7.214166015625,-6.858340293121337,-0.3808277015686035,-2.755875748443603
1790942721941196800,7.22419677734375,-10.552892729949951,-0.10414777221679687,-3.318363500976562
1790942721951227000,7.234226806640625,-10.981604464721679,-0.18944120635986328,-2.6499323249816893
1790942721961257000,7.244257080078125,-6.944082640075683,0.361973363494873,-1.6811784782409667
1790942721971287000,7.254287109375,-6.976703637695312,0.8686462898254395,-2.216731462097168
1790942721981316900,7.26431689453125,-8.49672241668701,0.7161655715942382,-2.1363760688781737
1790942721991347000,7.274346923828125,-6.8302084236145015,0.33414076919555663,-1.7518074272155761
1790942722001376800,7.284376708984375,-4.717475096130371,0.07646481552124022,-1.8671780197143553
1790942722011406800,7.29440673828125,-3.8160581710815427,0.39848493881225583,-2.1772271347045895
1790942722021437000,7.30443701171875,-2.1683985160827635,1.1649287452697754,-1.8945617012023925
1790942722031467000,7.314467041015625,-2.953846298217773,0.912340470123291,-1.0715548805236816
1790942722041497000,7.3244970703125,-9.41744259262085,0.25947160491943355,-2.1262007118225097
1790942722051527000,7.33452685546875,-14.441974051666259,-0.0047884033203125,-3.8060324516296387
1790942722061558000,7.34455810546875,-15.636680680084227,-0.34880525436401366,-4.083759844207764
1790942722071588000,7.354588134765625,-13.46484049911499,-1.0746972702026367,-3.086874127960205
1790942722081618000,7.364617919921875,-10.724975974273681,-1.758840394592285,-2.7979239151000974
1790942722091647700,7.374647705078125,-8.831611373901367,-2.1493945404052734,-2.3499089294433593
1790942722101677800,7.384677734375,-6.562506750488281,-2.0866963844299313,-2.8392238937377927
1790942722111708000,7.3947080078125,-7.1416042770385735,-2.1685481536865234,-4.0349779853820795
1790942722121738000,7.404738037109375,-8.393921382904052,-2.4494179359436035,-4.2974423423767085
1790942722131768000,7.41476806640625,-8.818742539978027,-2.4069208564758298,-2.977638677215576
1790942722141798100,7.424798095703125,-8.83639977722168,-2.4425346061706543,-1.812560294342041
1790942722151827700,7.43482763671875,-8.610895908355712,-2.359036823272705,-1.8601450523376464
1790942722161857800,7.44485791015625,-8.996212738037109,-2.3039701850891112,-2.657114929962158
1790942722171887900,7.454887939453125,-9.571120411682129,-2.386420504760742,-3.1645360443115234
1790942722181918000,7.46491796875,-8.806023343658447,-2.4672248107910155,-3.0027777946472165
1790942722191948800,7.47494873046875,-7.739406504058837,-2.518101596069336,-2.6357167526245115
1790942722201979000,7.484978759765625,-7.200711130523681,-2.4914661026000977,-2.4787469062805174
1790942722212009000,7.495009033203125,-7.186345920562744,-2.3407810356140137,-2.674472891998291
1790942722222039000,7.5050390625,-7.340921565246582,-2.2267571815490723,-3.1944635650634763
1790942722232069000,7.515069091796875,-7.538592839813232,-2.2459107948303223,-3.348440659332275
1790942722242098700,7.5250986328125,-7.530961322021484,-2.510918991088867,-3.125779904937744
1790942722252128800,7.535128662109375,-7.683142765045165,-2.976441576385498,-2.814084776306152
1790942722262158800,7.545158935546875,-7.83951406097412,-3.5482068603515624,-2.586037068176269
1790942722272189000,7.55518896484375,-7.626879026031494,-4.376899909973145,-2.5617957763671875
1790942722282219000,7.565218994140625,-7.261314360046386,-5.144690454864501,-2.493561029052734
1790942722292249000,7.5752490234375,-6.9898717468261715,-5.58642066116333,-2.4003368019104
1790942722302279000,7.58527880859375,-7.0853405380249015,-5.853523783874511,-2.3868694175720213
1790942722312309000,7.59530908203125,-7.1875430213928215,-5.894973400115966,-2.503736386108398
1790942722322338800,7.6053388671875,-7.342866854095458,-5.896469776153564,-2.675819630432129
1790942722332369000,7.615368896484375,-7.649773579406737,-5.8363154594421385,-2.7693431327819824
1790942722342399000,7.62539892578125,-8.013841869354248,-5.821950249481201,-2.8329391143798826
1790942722352428800,7.6354287109375,-8.346635900115967,-5.896918688964844,-2.9020716873168944
1790942722362460000,7.6454599609375,-8.441805416107178,-6.070348671722412,-2.9891607727050777
1790942722372490000,7.655489990234375,-8.184428737640381,-6.310367388153076,-2.886958289337158
1790942722382520000,7.66552001953125,-7.800009733581542,-6.570437543487548,-2.662801158905029
1790942722392550000,7.6755498046875,-7.663390601348876,-6.774393597412109,-2.523039636993408
1790942722402580000,7.685580078125,-7.830236529541015,-6.962039152526855,-2.4531588760375973
1790942722412609800,7.69560986328125,-7.900266928100585,-7.165396656036377,-2.3454198013305665
1790942722422639900,7.705639892578125,-7.69286920928955,-7.350049459075927,-2.1333833168029783
1790942722432670000,7.715669921875,-7.512705534362793,-7.4974424987792965,-1.8504186080932616
1790942722442700000,7.725699951171875,-7.527519657135009,-7.618648957824707,-1.5928922920227049
1790942722452729900,7.735729736328125,-7.668777555084228,-7.789385463714599,-1.474229672241211
1790942722462760000,7.745760009765625,-7.713369561004638,-7.947103498077392,-1.5141829124450683
1790942722472790000,7.7557900390625,-7.563283044433593,-7.927351334381103,-1.4462474403381347
1790942722482820000,7.765820068359375,-7.206247721862793,-7.888894470214844,-1.3359645263671873
1790942722492850400,7.775850341796875,-6.886921075439453,-7.767538373565674,-1.331026485443115
1790942722502880500,7.785880615234375,-6.858041017913818,-7.636455832672119,-1.3983634071350097
1790942722512910600,7.79591064453125,-6.942436626434326,-7.395389653015136,-1.5090952339172363
1790942722522940700,7.805940673828125,-7.0376061424255365,-7.2438067604064935,-1.6490063934326171
1790942722532970500,7.815970458984375,-7.01620796508789,-7.153575285339355,-1.8110639183044432
1790942722543000600,7.82600048828125,-7.065139461517334,-7.126191603851318,-2.066794583129883
1790942722553030400,7.836030517578125,-7.296628834533691,-7.1312792823791495,-2.2149358108520505
1790942722563060500,7.846060546875,-7.706785506439209,-7.238120531463623,-2.2635680320739744
1790942722573090600,7.856090576171875,-7.912686849212646,-7.370699448394775,-2.264016944885254
1790942722583121700,7.86612158203125,-8.00576143875122,-7.593958753204345,-1.9823989746093749
1790942722593151500,7.8761513671875,-8.071452346801758,-8.02536396484375,-1.6692074699401855
1790942722603181600,7.886181640625,-7.968052762603759,-8.447042732238769,-1.4342764320373533
1790942722613211600,7.896211669921875,-7.716063037872314,-8.77789147415161,-1.0577882209777831
1790942722623241700,7.90624169921875,-7.18888975982666,-8.960449350738525,-0.7893383598327637
1790942722633271600,7.916271484375,-6.637774465179443,-9.007136283111572,-0.6139630882263183
1790942722643301400,7.92630126953125,-6.58195963897705,-9.09781667098999,-0.6159083770751953
1790942722653331500,7.93633154296875,-6.827365309143066,-9.03990691833496,-0.7978677032470702
1790942722663361500,7.946361572265625,-6.622511429595947,-9.05307502746582,-1.0902595809936524
1790942722673391600,7.9563916015625,-6.253205823516845,-8.981997165679932,-1.3325228614807128
1790942722683421700,7.966421630859375,-5.865045879364013,-8.896554093933105,-1.4531307701110838
1790942722693451500,7.976451416015625,-5.774066216278076,-8.718335707855225,-1.5554828910827636
1790942722703481300,7.9864814453125,-5.933280626678466,-8.659228854370117,-1.5677531745910644
1790942722713511400,7.996511474609375,-6.12900661239624,-8.646958570861816,-1.3787608810424803
1790942722723541500,8.00654150390625,-6.283582257080078,-8.733000193023681,-1.2451345008850097
1790942722733571600,8.016571533203125,-6.703914286041259,-9.038709817504882,-1.433827519226074
1790942722743601700,8.0266015625,-7.263708561706543,-9.39739115371704,-1.4405612113952635
1790942722753631500,8.036631591796874,-7.700500727081298,-9.707589906311034,-1.3199533027648924
1790942722763661600,8.04666162109375,-8.026411428070068,-9.983521647644043,-1.1866261978149413
1790942722773691600,8.056691650390626,-8.112752325439452,-10.10053825378418,-1.2403460975646972
1790942722783721500,8.066721435546874,-7.935132489776611,-9.97783541870117,-1.2566565963745115
1790942722793751600,8.07675146484375,-7.556100439453124,-9.651625442504882,-1.3420996681213377
1790942722803781600,8.08678173828125,-7.2444053108215325,-9.121459412384032,-1.576282518005371
1790942722813811500,8.0968115234375,-6.7100494277954095,-8.442403966522216,-1.696890426635742
1790942722823841500,8.106841552734375,-6.055384911346435,-7.704690579986572,-1.4713865577697753
1790942722833871600,8.11687158203125,-5.899312890625,-7.072022791290283,-0.9832686943054199
1790942722843901700,8.126901611328124,-5.944653084564209,-6.648847647857665,-0.06838438491821289
1790942722853931500,8.136931640625,-5.838709661102294,-6.392967345428467,0.6786065330505371
1790942722863962600,8.146962646484376,-5.8642976913452145,-6.106112059020996,1.2912228828430174
1790942722873992400,8.156992431640624,-6.245723943328857,-6.087556996154785,1.9250877723693847
1790942722884022500,8.1670224609375,-6.689549076080322,-6.414515160369873,2.2073042930603024
1790942722894052600,8.177052490234376,-6.9330094573974606,-6.943484089660644,1.7925088554382322
1790942722904082400,8.18708251953125,-6.935702934265136,-7.113921320343017,1.375917766571045
1790942722914112500,8.197112548828125,-6.694936029815674,-6.816591401672363,1.317110188293457
1790942722924142600,8.207142578125,-6.328024625396728,-6.200533386993408,1.250072541809082
1790942722934172700,8.217172607421874,-6.197839910125732,-5.625924988555908,0.8291419624328613
1790942722944202800,8.22720263671875,-6.282385156249999,-5.338920064544677,0.08783727340698241
1790942722954232600,8.237232666015625,-6.440252828216552,-5.172223773956299,-0.7556698989868164
1790942722964262400,8.247262451171874,-6.560561461639404,-4.759223987579346,-0.9136872085571288
1790942722974292500,8.25729248046875,-6.956203285980224,-4.754136309051513,-1.121683477783203
1790942722984322600,8.267322509765625,-7.283011812591552,-5.065382524871826,-1.4239514373779296
1790942722994352600,8.2773525390625,-7.537246101379394,-5.399224018859863,-1.664269429016113
1790942723004382700,8.2873828125,-7.982717247772216,-5.830928505706787,-1.8770541015625
1790942723014412500,8.29741259765625,-8.436568099975586,-6.460753179931641,-1.9306243637084959
1790942723024442400,8.3074423828125,-8.780884226226807,-6.947374667358398,-1.8631378044128417
1790942723034472400,8.317472412109375,-9.030928662109375,-7.113173132324218,-1.485602130126953
1790942723044502500,8.32750244140625,-9.202862268829346,-7.15028325805664,-1.355417414855957
1790942723054532600,8.33753271484375,-9.414599478149414,-6.833500450897216,-1.5786767196655274
1790942723064562400,8.3475625,-9.496301609802245,-6.37785394744873,-1.7277157730102537
1790942723074592500,8.357592529296875,-9.437643669128418,-6.03982260055542,-1.8209400001525877
1790942723084622600,8.36762255859375,-9.55645592651367,-5.571606538391113,-1.8752584503173828
1790942723094652700,8.377652587890625,-9.671527243804931,-5.173420874786377,-1.591695191192627
1790942723104682500,8.3876826171875,-10.0234748878479,-4.810400048065185,-1.243039574432373
1790942723114713300,8.39771337890625,-9.840468098449707,-4.789301145935059,-0.9178770614624023
1790942723124743400,8.407743408203125,-9.585036708831787,-5.0966567840576165,-0.23642741394042968
1790942723134773500,8.4177734375,-9.64623848876953,-5.4506993545532225,-0.10609306106567382
1790942723144803600,8.427803466796876,-9.351751684570312,-5.657947435760498,-0.3012204963684082
1790942723154833700,8.437833740234375,-8.824129493713379,-5.804741925048828,-0.49036242752075193
1790942723164863500,8.447863525390625,-8.321796057891845,-5.925200196075439,-0.9234136528015137
1790942723174893600,8.4578935546875,-8.053795109558106,-5.927744035339355,-1.5605705696105956
1790942723184923600,8.467923583984375,-7.872883246612548,-5.745186158752441,-1.9864391899108886
1790942723194953500,8.477953369140625,-7.650222492218017,-5.697451763153076,-2.403628829193115
1790942723204983600,8.487983642578126,-7.406911748504638,-5.534795687866211,-2.657863117980957
1790942723215013600,8.498013671875,-7.072172428894042,-5.362113893127441,-2.6818051345825196
1790942723225043500,8.50804345703125,-6.797737063598633,-5.101445187377929,-2.560748313140869
1790942723235073500,8.518073486328126,-6.768557730865478,-4.9342999839782715,-2.601000828552246
1790942723245103600,8.528103515625,-6.8511576881408685,-4.573224446105956,-2.7525837211608883
1790942723255133700,8.5381337890625,-6.998850003051757,-4.14361488571167,-2.95609086227417
1790942723265163800,8.548163818359376,-7.222558220672607,-3.8003462226867675,-3.19850378036499
1790942723275193300,8.558193359375,-7.490559169006347,-3.425204750061035,-3.6565444854736326
1790942723285223400,8.568223388671875,-7.533056248474121,-2.862716997528076,-4.493467603302002
1790942723295253500,8.57825341796875,-7.457189983367919,-2.855085479736328,-4.109347874450683
1790942723305283600,8.58828369140625,-7.358578802490234,-3.47952320022583,-3.598784370422363
1790942723315313700,8.598313720703125,-7.63570764465332,-3.452738069152832,-4.3245267486572265
1790942723325343500,8.608343505859375,-7.856123834991455,-3.0199861190795896,-4.604199430084228
1790942723335374600,8.61837451171875,-8.051400907897948,-2.563890702819824,-4.352957893371582
1790942723345404700,8.62840478515625,-8.214805171203613,-2.1625626495361328,-3.9459436111450192
1790942723355434800,8.638434814453126,-8.724620487213134,-1.8245313026428223,-3.796006732177734
1790942723365464600,8.648464599609374,-9.28306802444458,-1.657386099243164,-3.8284780921936035
1790942723375494400,8.658494384765625,-9.371653485870361,-1.665017617034912,-3.774458917236328
1790942723385524500,8.6685244140625,-8.866925848388671,-1.7308581626892088,-3.5238159309387207
1790942723395554600,8.678554443359374,-8.032995482635497,-1.8405425262451172,-3.2109237014770504
1790942723405584600,8.688584716796875,-7.828141603088379,-1.979705497741699,-3.030460751342773
1790942723415614700,8.69861474609375,-7.446565713500976,-1.896806265258789,-3.1103672317504882
1790942723425644500,8.70864453125,-7.2072951850891105,-1.6289549545288085,-3.106775929260254
1790942723435674400,8.71867431640625,-7.649175028991698,-1.5487491989135742,-3.005920184326172
1790942723445704400,8.728704345703125,-7.595904042053222,-1.6460136413574218,-2.567033092498779
1790942723455734500,8.738734619140626,-7.281814711761474,-1.5806220085144043,-2.148945627593994
1790942723465764600,8.7487646484375,-6.677278792572021,-1.4067431129455565,-2.0974702919006347
1790942723475794400,8.75879443359375,-6.273406900024414,-1.0178349807739258,-2.537255209350586
1790942723485824500,8.768824462890626,-7.12529377822876,-0.6392518432617187,-2.9988872169494627
1790942723495854600,8.7788544921875,-7.5996449821472165,-0.6100725105285644,-3.1356559867858884
1790942723505884700,8.788884765625,-7.005134782409668,-0.4951508308410644,-2.9599814399719238
1790942723515914800,8.798914794921876,-6.9354036590576165,-0.31438860549926756,-3.1075241172790524
1790942723525944800,8.80894482421875,-7.3672577835083,-0.3962403747558593,-3.4467525650024413
1790942723535974700,8.818974609375,-7.7784619186401365,-0.6355109031677245,-3.4729391456604004
1790942723546004700,8.829004638671876,-7.5813891944885246,-0.7231985389709472,-3.1447838806152344
1790942723556035800,8.839035888671875,-7.3569327888488765,-0.605882657623291,-2.971653173065185
1790942723566065700,8.849065673828125,-7.642590974426269,-0.4439747703552246,-3.049165451812744
1790942723576095500,8.859095458984376,-8.003516874694824,-0.30092122116088865,-3.027168724060058
1790942723586125600,8.86912548828125,-8.034192583465575,-0.203656778717041,-2.6574142051696774
1790942723596155600,8.87915576171875,-7.879616938781738,-0.1649006393432617,-2.08130943069458
1790942723606185700,8.889185791015626,-7.6182000450134275,-0.24765023422241209,-1.6506524070739745
1790942723616215800,8.8992158203125,-7.565527608489989,-0.376039298248291,-1.444152513885498
1790942723626245600,8.90924560546875,-7.710526446533203,-0.48183308410644526,-1.471536195373535
1790942723636275700,8.919275634765626,-7.729979335021972,-0.5207388610839844,-1.5682020874023437
1790942723646305500,8.929305419921874,-7.719055789947509,-0.5313631309509277,-1.4853028549194336
1790942723656335600,8.939335693359375,-7.877522012329101,-0.5955576629638671,-1.416020644378662
1790942723666365700,8.94936572265625,-7.823951750183105,-0.788440534210205,-1.2758102096557618
1790942723676395800,8.959395751953124,-7.791031477355957,-1.024119760131836,-1.083376251220703
1790942723686425600,8.969425537109375,-7.908496996307373,-1.3410522048950195,-0.8473977500915527
1790942723696455700,8.97945556640625,-7.964012547302246,-1.6268600280761718,-0.9111433692932128
1790942723706485800,8.98948583984375,-7.9563810295104975,-1.8155530464172362,-1.057339308166504
1790942723716515800,8.999515869140625,-8.117690366363524,-2.069637697601318,-1.2599486236572266
1790942723726545700,9.009545654296875,-8.024017226409912,-2.578405550384521,-1.2542623947143554
1790942723736575500,9.019575439453124,-7.362619017791747,-2.9691093338012693,-0.7806593788146973
1790942723746606600,9.029606689453125,-6.612485710144043,-3.38345585861206,-0.23612813873291014
1790942723756636700,9.03963671875,-6.74850629196167,-3.9782653335571285,-0.3333925811767578
1790942723766666800,9.049666748046874,-7.159111876678466,-4.630086735534667,-0.38322190322875976
1790942723776696600,9.059696533203125,-7.405415372467041,-5.419574732971191,-0.34117373657226563
1790942723786726700,9.0697265625,-7.6099699768066404,-5.9199628799438475,-0.4132990615844726
1790942723796756700,9.0797568359375,-7.733720275115966,-6.221183376312256,-0.3055599868774414
1790942723806786800,9.089786865234375,-7.944260383605957,-6.386981841278076,-0.2677016731262207
1790942723816816600,9.099816650390625,-8.003816149902343,-6.448482896423339,-0.5472247169494628
1790942723826846700,9.1098466796875,-8.043320477294921,-6.514024166870117,-0.9561842880249023
1790942723836876500,9.11987646484375,-7.803900311279296,-6.508487575531006,-1.2873323051452636
1790942723846906600,9.12990673828125,-7.752724250793457,-6.467935784912109,-1.2057798110961913
1790942723856936700,9.139936767578124,-7.827991965484618,-6.708702689361572,-1.1034276901245117
1790942723866966800,9.149966796875,-7.854028908538818,-7.1321771080017085,-1.243638124847412
1790942723876996900,9.159996826171875,-7.961767983245849,-7.644835538482665,-1.8095675422668456
1790942723887026700,9.170026611328124,-8.148066799926758,-8.129960649871826,-2.4060230308532713
1790942723897056500,9.180056396484375,-8.153154478454589,-8.409334056091309,-2.377142973327637
1790942723907086600,9.190086669921875,-7.982118697357177,-8.726565776062012,-2.1820155380249022
1790942723917117700,9.20011767578125,-7.585728684997558,-9.204358644866943,-2.0527286483764646
1790942723927147500,9.2101474609375,-7.50821640625,-9.641599723052979,-1.926733786010742
1790942723937177600,9.220177490234375,-7.396886029052734,-9.879224237823486,-1.697638614654541
1790942723947207700,9.230207763671874,-7.113173132324218,-9.867402867126465,-1.4112322410583495
1790942723957237800,9.24023779296875,-7.147440143585205,-9.809193839263916,-1.1276689819335937
1790942723967267800,9.250267822265625,-7.330446932983398,-9.906159006500243,-0.9817723182678222
1790942723977297700,9.260297607421874,-7.504774741363525,-10.10622448272705,-0.8681973770141601
1790942723987327500,9.270327392578125,-7.205948446655273,-10.127323384857178,-0.481384171295166
1790942723997357600,9.280357666015625,-6.892607304382324,-10.130316136932372,-0.09591770401000976
1790942724007387600,9.2903876953125,-6.212654032897949,-10.078092613220214,0.1379658706665039
1790942724017417700,9.300417724609375,-5.542277568054199,-9.853636207580566,0.2793734062194824
1790942724027447800,9.31044775390625,-5.403413871765136,-9.702202952575684,-0.02259527816772461
1790942724037477600,9.3204775390625,-6.293159063720703,-9.835081144714355,-0.5383960983276367
1790942724047507700,9.3305078125,-7.486219678497314,-9.945064783477783,-0.8432078971862792
1790942724057537500,9.34053759765625,-7.680748563385009,-9.944915145874022,-1.0461164878845215
1790942724067567600,9.350567626953126,-7.173776361846923,-9.70369932861328,-0.9668085578918456
1790942724077597700,9.36059765625,-6.832901900482177,-9.337087199401855,-0.9274538681030273
1790942724087627800,9.370627685546875,-6.641665042877197,-8.986336656188964,-0.7815572044372558
1790942724097658600,9.38065869140625,-6.319345644378662,-8.624064017486571,-0.6486790122985839
1790942724107688700,9.390688720703125,-6.0513446960449215,-8.232911321258545,-0.5532102210998535
1790942724117718800,9.40071875,-5.8631005905151365,-8.027758166503906,-0.5000888717651367
1790942724127748600,9.41074853515625,-5.6563014221191406,-8.067112856292724,-0.7806593788146973
1790942724137778700,9.42077880859375,-5.729474210357665,-8.154800492095946,-1.0667664772033691
1790942724147808500,9.43080859375,-5.9120320869445795,-8.27391202468872,-1.3159130874633789
1790942724157838600,9.440838623046876,-6.054786360931396,-8.324489534759522,-1.4071920257568358
1790942724167868700,9.45086865234375,-6.281188055419921,-8.491934013366699,-1.4451999771118162
1790942724177898800,9.460898681640625,-6.098630178833007,-8.297105853271484,-1.4808137268066406
1790942724187928600,9.470928466796876,-5.889436808776855,-7.9934911552429195,-1.5610194824218748
1790942724197958700,9.480958740234374,-5.5276130828857415,-7.856572747802734,-1.5876549758911132
1790942724207988700,9.49098876953125,-5.189581735992431,-7.8724343338012694,-1.5173253021240234
1790942724218018800,9.501018798828126,-5.116708222961425,-8.02476541442871,-1.452382582092285
1790942724228048600,9.511048583984374,-5.275024807739258,-7.98660782546997,-1.5307926864624022
1790942724238078700,9.52107861328125,-5.799354971313476,-7.798064444732666,-1.446097802734375
1790942724248108500,9.531108642578126,-6.451774923706054,-7.636006919860839,-1.4037503608703612
1790942724258138600,9.541138671875,-7.322366502380371,-7.6957123237609855,-1.749862138366699
1790942724268168700,9.551168701171875,-8.284237019348144,-7.8249992134094235,-1.7583914817810058
1790942724278199600,9.561199462890626,-8.86752439880371,-8.046163591766357,-1.85131643371582
1790942724288229600,9.571229736328124,-9.147795630645751,-8.18457837524414,-1.6865654319763184
1790942724298259700,9.581259765625,-9.120112673950194,-8.18412946243286,-1.3543699516296386
1790942724308289800,9.591289794921876,-8.981697890472411,-7.942913645172118,-1.0384849700927734
1790942724318319600,9.601319580078124,-8.924536325836181,-7.59755005569458,-0.5080196647644043
1790942724328349700,9.611349609375,-8.934861320495605,-7.288099491119384,0.05835866546630859
1790942724338379500,9.621379638671876,-8.834604125976561,-7.033865202331542,0.5349544334411621
1790942724348409600,9.63140966796875,-8.623166191864014,-6.757484548187255,0.7742249618530272
1790942724358439700,9.641439697265625,-8.322095333099364,-6.377704309844971,0.9967360786437988
1790942724368469800,9.6514697265625,-7.975085729980468,-5.98206248550415,1.064821188354492
1790942724378499800,9.661499755859374,-7.836521308898925,-5.653308670043945,0.9674071083068847
1790942724388529700,9.67152978515625,-7.911190473175048,-5.448754065704345,0.7242460021972655
1790942724398559500,9.6815595703125,-7.952490451812744,-5.383212795257568,0.35030163040161133
1790942724408589600,9.691589599609374,-8.019977011108399,-5.280711036682129,-0.007930792999267577
1790942724418619600,9.70161962890625,-8.110956674194336,-5.158157839202881,-0.24615385818481444
1790942724428649700,9.711649658203125,-8.121580944061279,-5.176862539672851,-0.47644613037109373
1790942724438679800,9.7216796875,-8.049605256652832,-5.417180531311035,-0.5711667335510253
1790942724448709600,9.731709716796875,-8.038980986785889,-5.461173986816406,-0.5942109245300292
1790942724458739700,9.74173974609375,-8.049605256652832,-5.185092607879638,-0.5225345123291015
1790942724468770800,9.751770751953124,-8.011746942901611,-5.149029945373535,-0.5183446594238281
1790942724478801000,9.76180078125,-8.014739694976805,-5.24165562210083,-0.6214449684143066
1790942724488830200,9.771830322265625,-7.934234664154053,-5.163844068145751,-1.193210252380371
1790942724498860300,9.7818603515625,-7.634061631011963,-4.99235937423706,-1.4272434646606444
1790942724508890400,9.791890380859375,-7.164199555206299,-4.760421088409424,-1.301098964691162
1790942724518920400,9.80192041015625,-6.821529442596435,-4.7289971916198725,-1.2554594955444336
1790942724528950500,9.811950439453126,-7.179462590789795,-4.651484912872315,-1.5460557220458984
1790942724538980600,9.821980712890625,-7.775618804168701,-4.693832354736328,-1.8860323577880858
1790942724549010400,9.832010498046875,-8.378508709716796,-4.831947863006591,-2.0943279022216794
1790942724559040300,9.842040283203126,-8.75918677368164,-5.06298832321167,-2.2053590042114255
1790942724569070300,9.8520703125,-8.929025453948974,-5.360018966674804,-2.392854921722412
1790942724579100400,9.862100341796875,-9.288155702972412,-5.884798043060302,-2.62389538192749
1790942724589130500,9.872130615234376,-9.541342528533935,-5.6383449096679685,-2.6062381446838376
1790942724599160300,9.882160400390624,-9.08479819946289,-5.361515342712402,-3.002628157043457
1790942724609190400,9.8921904296875,-8.602665840148925,-4.886116675567627,-3.214515003967285
1790942724619220500,9.902220458984376,-8.712649478912352,-4.205564853668212,-3.183839295196533
1790942724629250600,9.91225048828125,-8.920047197723388,-3.4124855537414547,-3.3227029914855954
1790942724639280400,9.9222802734375,-8.895356993103027,-2.7274446037292477,-3.333476898956299
1790942724649310500,9.932310546875,-8.815151237487793,-2.1633108375549317,-3.2704794677734372
1790942724659340300,9.94234033203125,-8.569147016906738,-1.840692163848877,-3.291129457092285
1790942724669370400,9.952370361328125,-8.20403126373291,-1.7645266235351562,-3.2869396041870114
1790942724679401500,9.9624013671875,-7.853879270935058,-1.8059762397766113,-3.201945445251465
1790942724689431600,9.972431640625,-7.4974424987792965,-2.0820576187133786,-3.00068286819458
1790942724699461400,9.98246142578125,-7.588122886657715,-2.4467244590759276,-2.780565953063965
1790942724709491500,9.992491455078126,-7.456142520141601,-2.536507021331787,-2.824260133361816
1790942724719521500,10.002521484375,-6.878990282440185,-2.3624784881591796,-2.787449282836914
1790942724729551400,10.01255126953125,-6.3980550239562985,-1.984194625854492,-2.7627590782165528
1790942724739581400,10.02258154296875,-6.0048074012756345,-1.559074193572998,-2.8480525123596188
1790942724749611300,10.032611328125,-5.239859970855712,-0.975487538909912,-3.4675521919250487
1790942724759641300,10.042641357421875,-4.723310962677002,-0.3678092300415039,-4.228160131835938
1790942724769671400,10.05267138671875,-5.111171631622314,-0.03232172241210937,-4.502894772338867
1790942724779701500,10.062701416015624,-5.774365491485596,-0.165349552154541,-4.625747245025634
1790942724789731600,10.072731689453125,-6.14771131286621,-0.28057050704956055,-4.399195912933349
1790942724799761400,10.082761474609375,-5.919065054321289,-0.14021043472290037,-3.8090252037048336
1790942724809791200,10.092791259765624,-5.590909789276123,0.2141314109802246,-3.2339678924560546
1790942724819821300,10.1028212890625,-6.137835231018066,0.33324294357299805,-2.9951462768554684
1790942724829851400,10.112851318359375,-6.902782661437988,0.37618893585205077,-3.1809961807250975
1790942724839881500,10.122881591796874,-7.6379522087097165,0.39279870986938475,-3.1302690330505367
1790942724849911600,10.13291162109375,-7.848641954803466,0.21757307586669922,-2.445676995849609
1790942724859941400,10.14294140625,-7.850736881256103,0,-1.744175909423828
1790942724869971500,10.152971435546876,-7.874080347442627,-0.14724340209960937,-1.5951368560791015
1790942724880001300,10.163001220703125,-7.924059307098388,-0.3007715835571289,-1.5487491989135742
1790942724890031400,10.17303125,-7.996783182525634,-0.4795885200500488,-1.5702970138549803
1790942724900062200,10.183062255859374,-8.081627703857421,-0.6510732139587402,-1.5023615417480467
1790942724910092300,10.19309228515625,-7.898770552062988,-0.7914332862854003,-1.2741641960144041
1790942724920122400,10.203122314453125,-7.828291240692138,-0.9045593147277832,-1.1341033988952636
1790942724930152400,10.21315234375,-7.720252890777587,-1.0158896919250489,-1.111508120727539
1790942724940182500,10.2231826171875,-7.344512867736816,-1.1409867286682127,-1.1043255157470702
1790942724950212400,10.23321240234375,-7.242160746765136,-1.3072341064453123,-1.118541088104248
1790942724960242400,10.243242431640626,-7.326107442474365,-1.5225626182556151,-1.1688193229675292
1790942724970272300,10.253272216796875,-7.228244449615478,-1.698835715484619,-1.3296797470092772
1790942724980302300,10.26330224609375,-7.222558220672607,-1.9083283607482908,-1.4751274978637694
1790942724990332400,10.27333251953125,-7.315932085418701,-2.197428211212158,-1.5065513946533202
1790942725000362500,10.283362548828125,-7.29722738494873,-2.413953823852539,-1.3531728507995604
1790942725010392300,10.293392333984375,-7.147290505981445,-2.93065246963501,-1.3334206871032714
1790942725020422400,10.30342236328125,-7.125593053436279,-3.5271079582214355,-1.209221475982666
1790942725030452500,10.313452392578125,-7.274781744384765,-4.14346524810791,-0.8821136741638184
1790942725040482600,10.323482666015625,-7.545925082397461,-4.831349312591552,-0.46731823654174803
1790942725050512400,10.333512451171876,-7.61640439376831,-5.526565619659424,-0.11896189498901366
1790942725060542500,10.34354248046875,-7.445218975067138,-6.1355906669616695,0.1288379768371582
1790942725070572300,10.353572265625,-7.511807708740234,-6.912509105682372,0.1662473777770996
1790942725080602400,10.363602294921876,-7.691372833251953,-7.4411787597656245,0.19557634811401367
1790942725090632400,10.373632568359374,-7.898920189666748,-7.638850034332275,0.4686649749755859
1790942725100662500,10.38366259765625,-8.290222523498535,-7.987505651092529,0.1336263801574707
1790942725110692600,10.393692626953126,-8.832209924316405,-8.129212461853028,-0.3151367935180664
1790942725120723500,10.403723388671875,-9.025392070770263,-8.209867130279541,-0.7432499778747558
1790942725130753500,10.41375341796875,-8.815001599884033,-8.24129102706909,-0.9054571403503417
1790942725140783400,10.423783447265626,-8.625859668731689,-8.400206162261963,-1.2565069587707518
1790942725150813400,10.4338134765625,-8.351873216247558,-8.524405373382567,-1.3584101669311524
1790942725160843300,10.44384326171875,-7.691073558044433,-8.757690397644042,-1.624166551208496
1790942725170873300,10.453873291015626,-7.359925540924072,-9.112331518554686,-2.0869956596374513
1790942725180903400,10.4639033203125,-7.493103008270263,-9.39185456237793,-2.4444798950195312
1790942725190933500,10.47393359375,-7.781005757904052,-9.611372927093505,-2.765003642272949
1790942725200963600,10.483963623046876,-8.141482745361328,-9.710881933593749,-3.127874831390381
1790942725210993400,10.493993408203124,-8.417115211486816,-9.749638072967528,-3.384054409027099
1790942725221023200,10.504023193359375,-8.380603636169432,-9.80021558303833,-3.445106551361084
1790942725231053300,10.51405322265625,-8.124872971343994,-9.72973627166748,-3.3411084167480465
1790942725241083400,10.52408349609375,-8.020126648712157,-9.728239895629882,-3.17291575012207
1790942725251113500,10.534113525390625,-8.135497241210937,-9.810540577697754,-2.7519851707458494
1790942725261143600,10.5441435546875,-7.9566803047180175,-9.91498762512207,-1.956810944366455
1790942725271173400,10.55417333984375,-7.407211023712158,-10.000131421661376,-1.0063128852844239
1790942725281203500,10.564203369140625,-7.142352465057373,-9.995941568756104,-0.5303156677246094
1790942725291233300,10.5742333984375,-6.83783994140625,-9.812186591339112,-0.37289690856933594
1790942725301263400,10.584263427734374,-6.579565437316894,-9.730933372497558,-0.38097733917236326
1790942725311293400,10.59429345703125,-6.584802753448486,-9.86351228942871,-0.5499181938171387
1790942725321323500,10.604323486328125,-7.196371640014648,-9.960926369476319,-0.8451531860351562
1790942725331354400,10.614354248046874,-7.174973462677001,-9.363423417663574,-0.9979331794738769
1790942725341384400,10.624384521484375,-7.0269818725585935,-8.535029643249512,-0.9005190994262695
1790942725351414500,10.63441455078125,-6.669946549987793,-7.9192709037780755,-0.7591115638732909
1790942725361444400,10.6444443359375,-6.168062026977538,-7.653215244293213,-0.6049848320007324
1790942725371474400,10.654474365234375,-5.670516994476318,-7.658452560424804,-0.44861353607177734
1790942725381504500,10.66450439453125,-5.306747979736328,-7.735067013549804,-0.29927520751953124
1790942725391534300,10.674534423828124,-5.137956762695312,-7.680898200988769,-0.15128361740112303
1790942725401564400,10.684564453125,-5.17776036529541,-7.536647550964355,-0.11043255157470702
1790942725411594500,10.694594482421875,-5.677998874664306,-7.5525091369628905,-0.31049802780151364
1790942725421624300,10.704624267578126,-6.232855109405517,-7.6847887786865225,-0.6491279251098633
1790942725431654400,10.714654296875,-6.617872663879394,-7.8269445022583,-0.9654618194580078
1790942725441684500,10.7246845703125,-6.806864957427978,-7.998578833770751,-1.1327566604614256
1790942725451714600,10.734714599609376,-6.756885997772216,-8.021473387145996,-1.2820949890136717
1790942725461744400,10.744744384765625,-6.753294695281982,-7.806893063354492,-1.5671546241760252
1790942725471774500,10.7547744140625,-6.872256590270996,-7.439832021331787,-1.7536030784606933
1790942725481804300,10.76480419921875,-7.042394545745849,-7.387009947204589,-1.952920366668701
1790942725491834000,10.774834228515624,-7.365312494659423,-7.666832266235351,-2.1211130332946775
1790942725501864200,10.7848642578125,-7.74419490737915,-8.01803172225952,-1.9402011703491209
1790942725511894300,10.794894287109376,-8.038831349182129,-8.234108422088623,-1.61533793258667
1790942725521924400,10.80492431640625,-8.25565623703003,-8.270919272613526,-1.261594637298584
1790942725531954200,10.8149541015625,-8.403198914337157,-8.253262035369872,-1.0224737464904785
1790942725541985300,10.8249853515625,-8.275109125518798,-8.1969982963562,-0.9855132583618164
1790942725552015400,10.835015380859375,-7.836521308898925,-8.109460298156737,-0.8846575134277344
1790942725562045200,10.845045166015625,-7.556399714660644,-8.009652016448975,-0.7408557762145995
1790942725572075000,10.855074951171876,-7.733570637512207,-7.7596075805664055,-0.6379051048278809
1790942725582105000,10.86510498046875,-8.089708134460448,-7.456741070556641,-0.4547486778259277
1790942725592135200,10.87513525390625,-8.559869485473632,-7.333888597869873,-0.3060088996887207
1790942725602165200,10.885165283203126,-8.910919303894042,-7.316231360626221,-0.2551321144104004
1790942725612195300,10.8951953125,-9.052326839447021,-7.17617056350708,-0.14499883804321287
1790942725622225400,10.905225341796875,-9.071031539916993,-7.211185762786865,-0.26830022354125976
1790942725632255200,10.915255126953125,-8.858246867370605,-7.057657581329345,-0.8755296195983886
1790942725642285000,10.92528515625,-8.562712599945067,-6.698527332305908,-1.1387421646118163
1790942725652315100,10.935315185546875,-8.613888660430908,-6.138433781433105,-1.3208511283874511
1790942725662345200,10.94534521484375,-8.617031050109862,-5.617395645141602,-1.3437456817626952
1790942725672375300,10.955375244140624,-8.377760521697997,-5.369745410919189,-1.2280758140563963
1790942725682405000,10.965405029296875,-8.281393904876708,-5.131522345733642,-1.3037924415588378
1790942725692435200,10.975435302734375,-8.355763793945313,-4.824316345214844,-1.4788684379577637
1790942725702465300,10.98546533203125,-8.403198914337157,-4.488379924774169,-1.5699977386474608
1790942725712495400,10.995495361328125,-8.591443019866944,-4.3245267486572265,-1.6521487831115722
1790942725722526200,11.005526123046875,-8.719832083892822,-4.399495188140869,-1.8234838394165038
1790942725732556000,11.01555615234375,-8.722675198364257,-4.388122730255127,-2.0150199722290036
1790942725742586000,11.025586181640625,-8.705317236328124,-4.174140956878662,-1.988683753967285
1790942725752616200,11.0356162109375,-8.271966735839843,-3.6414310874938964,-1.5933412048339843
1790942725762646300,11.045646240234374,-8.142679846191406,-3.2415994102478027,-1.873163523864746
1790942725772676400,11.05567626953125,-8.186972576904296,-2.7302877182006835,-2.0849007331848144
1790942725782706200,11.0657060546875,-7.809287265014648,-2.1058499977111813,-2.201767701721191
1790942725792736300,11.075736328125,-7.139958263397216,-1.3962684806823729,-2.101809782409668
1790942725802766300,11.085766357421875,-6.251260534667968,-0.6878840644836426,-1.688660358428955
1790942725812796200,11.095796142578125,-5.45219573059082,-0.24465748214721678,-1.4227543365478514
1790942725822826200,11.105826171875,-5.0182466796875,-0.27518355331420896,-1.4704887321472166
1790942725832856000,11.11585595703125,-5.141548065185547,-0.3752911102294922,-1.8222867385864256
1790942725842886100,11.12588623046875,-5.894225212097168,-0.4608838195800781,-2.69422505569458
1790942725852916200,11.135916259765626,-7.237521981048584,-0.5289689292907714,-3.5275568710327145
1790942725862946300,11.1459462890625,-8.280944992065429,-0.8518868782043456,-4.013430170440674
1790942725872976400,11.155976318359375,-8.278401152801512,-1.2342109558105467,-3.981258085632324
1790942725883006200,11.166006103515626,-7.178265489959716,-1.2262801628112792,-3.4118870033264157
1790942725893037300,11.176037353515625,-6.092794312286377,-0.9941922393798828,-2.778321389007568
1790942725903067100,11.186067138671875,-5.620837310028076,-0.5478232673645019,-2.832041288757324
1790942725913097200,11.19609716796875,-6.272957987213134,-0.10250175857543944,-3.5507506996154783
1790942725923127300,11.206127197265625,-7.621192797088622,-0.11088146438598633,-4.345775288391113
1790942725933157000,11.2161572265625,-7.813028205108642,-0.3790320503234863,-4.0529344978332515
1790942725943187200,11.226187255859376,-6.965031904602051,-0.5735609352111816,-2.5924714851379393
1790942725953217300,11.23621728515625,-6.32667788696289,-0.6362590911865234,-1.7769465446472168
1790942725963247400,11.246247314453125,-6.865073985290527,-0.4982932205200195,-2.196979298400879
1790942725973277400,11.25627734375,-7.589319987487793,-0.5533598587036133,-2.816927890777588
1790942725983307000,11.26630712890625,-8.201936337280273,-0.6678326255798339,-3.206883486175537
1790942725993337000,11.276337158203125,-8.207622566223144,-0.5340566078186035,-3.247884189605713
1790942726003367200,11.2863671875,-7.654113069915771,-0.20949264526367187,-3.035099517059326
1790942726013397200,11.296397216796874,-7.4764932342529296,-0.1897404815673828,-2.5354595581054684
1790942726023427300,11.30642724609375,-7.105990527343749,-0.2647089210510254,-2.0163667106628416
1790942726033457200,11.31645703125,-6.875398979949951,-0.28371289672851563,-1.6901567344665527
1790942726043488300,11.32648828125,-7.059902145385742,-0.37618893585205077,-1.7413327949523925
1790942726053518300,11.336518310546875,-7.014412313842773,-0.37334582138061523,-1.8924667747497557
1790942726063548400,11.34654833984375,-6.900837372589111,-0.3308487419128418,-1.944091748046875
1790942726073578200,11.356578125,-6.863876884460449,-0.3167828071594238,-1.9451392112731933
1790942726083608000,11.366608154296875,-6.908768165588379,-0.32935236587524414,-1.9771616584777831
1790942726093638100,11.37663818359375,-6.841880156707763,-0.4176385520935058,-1.8781015647888182
1790942726103668200,11.386668212890624,-6.611587884521484,-0.5767033248901366,-1.7325041763305664
1790942726113698300,11.3966982421875,-6.546196251678467,-0.75971011428833,-1.7028759307861328
1790942726123728400,11.406728271484376,-6.625055268859863,-1.0736498069763183,-1.8508675209045409
1790942726133758200,11.41675830078125,-6.7824740280151365,-1.5075988578796387,-1.9774609336853026
1790942726143788000,11.4267880859375,-6.969221757507324,-2.1155764419555663,-2.0060417160034176
1790942726153818000,11.436818115234376,-6.88243194732666,-2.7213094619750975,-1.8267758666992187
1790942726163848200,11.44684814453125,-6.60769730682373,-3.5755905418395995,-1.9129671264648436
1790942726173878300,11.456878173828125,-6.557568709564209,-4.373907157897949,-1.8849848945617675
1790942726183908400,11.466908447265626,-6.753145057678222,-5.048772750854492,-1.7871219017028808
1790942726193939200,11.476939208984374,-7.148038694000244,-5.728576384735107,-1.7419313453674314
1790942726203969300,11.48696923828125,-7.5351511749267575,-6.252607273101806,-1.7411831573486327
1790942726213999400,11.496999267578126,-7.733869912719726,-6.683563571929931,-1.672050584411621
1790942726224029200,11.507029296875,-7.866448829650879,-7.158214051055908,-1.399410870361328
1790942726234059000,11.51705908203125,-8.147617887115478,-7.63585728225708,-0.8973767097473144
1790942726244089000,11.527089111328126,-8.207024015808106,-7.961917620849609,-0.5747580360412597
1790942726254119200,11.537119140625,-8.270470359802246,-8.155997592926026,-0.510114591217041
1790942726264149200,11.547149169921875,-8.40888514328003,-8.221838138580322,-0.5416881256103515
1790942726274179300,11.557179443359376,-8.417414486694335,-8.163479473114013,-0.6974608711242676
1790942726284209200,11.567209228515624,-8.462904318237305,-8.200140686035155,-1.0504559783935545
1790942726294239200,11.5772392578125,-8.619874164581299,-8.399158699035643,-1.5617676704406738
1790942726304269300,11.587269287109375,-8.781482776641845,-8.710105639648438,-1.9170073417663573
1790942726314299100,11.597299072265624,-9.015216713714599,-9.125798902893067,-1.9975123725891113
1790942726324329200,11.6073291015625,-8.817395801544189,-9.697264911651612,-2.01756381149292
1790942726334360000,11.617360107421876,-8.441356503295898,-9.995642293548583,-2.0594623405456542
1790942726344390100,11.62739013671875,-8.270470359802246,-10.077194787597655,-2.1933879959106446
1790942726354420200,11.637420166015625,-8.17799432067871,-10.04262850112915,-2.31115279006958
1790942726364450300,11.6474501953125,-8.091354148101805,-9.965265859985351,-2.4890719009399414
1790942726374480100,11.657480224609374,-8.059630976104735,-9.75502502670288,-2.609380534362793
1790942726384510200,11.66751025390625,-8.12098239364624,-9.456348369598388,-2.6268881340026855
1790942726394540300,11.677540283203125,-8.124872971343994,-9.142857589721679,-2.4574983665466306
1790942726404570000,11.687570068359374,-7.949946612548827,-8.83565158920288,-2.1187188316345216
1790942726414600200,11.69760009765625,-7.737161940002441,-8.547150289154052,-1.6078560523986816
1790942726424630300,11.70763037109375,-7.727136220550537,-8.368482990264893,-0.9597755905151366
1790942726434660000,11.71766015625,-7.81422530593872,-8.433126435089111,-0.28924948806762696
1790942726444690200,11.727690185546875,-8.019827373504638,-8.67643717880249,0.2050035171508789
1790942726454720300,11.73772021484375,-8.034641496276855,-9.014169250488282,0.297479556274414
1790942726464751400,11.74775146484375,-7.810634003448486,-9.175478587341308,-0.14739303970336914
1790942726474781200,11.75778125,-7.621043159484863,-8.973467822265624,-0.8249521095275878
1790942726484811300,11.767811279296875,-7.382520819091797,-8.627804957580565,-1.1041758781433104
1790942726494840800,11.7778408203125,-7.0655883743286125,-8.349329376983642,-1.1960533668518065
1790942726504871000,11.787870849609375,-6.815095025634765,-8.06352155380249,-1.2808978881835937
1790942726514901000,11.79790087890625,-6.637924102783202,-7.815721681976318,-1.2497732666015624
1790942726524931000,11.80793115234375,-6.559663636016845,-7.708880432891846,-1.0932523330688475
1790942726534961000,11.8179609375,-6.562207475280761,-7.800159371185302,-0.9929951385498046
1790942726544991000,11.827990966796875,-6.589591156768798,-7.972092977905273,-0.9911994873046874
1790942726555020800,11.838020751953126,-6.591237170410156,-8.180987072753906,-0.9730933372497558
1790942726565051000,11.84805078125,-6.6252049064636225,-8.418611587524413,-1.0525509048461914
1790942726575081000,11.8580810546875,-6.79908380203247,-8.562712599945067,-1.3263877197265623
1790942726585110800,11.86811083984375,-7.0175547035217285,-8.52380682296753,-1.5457564468383789
1790942726595140900,11.878140869140625,-7.182156067657471,-8.502857558441162,-1.5716437522888183
1790942726605172000,11.888171875,-7.2994719490051265,-8.653243350219727,-1.5988777961730956
1790942726615202000,11.8982021484375,-7.486967866516113,-8.656535377502442,-1.4267945518493652
1790942726625232000,11.90823193359375,-7.611017440032959,-8.576479259490966,-1.0667664772033691
1790942726635262000,11.918261962890625,-7.617900769805908,-8.44644418182373,-0.7824550300598144
1790942726645291800,11.928291748046876,-7.798214082336425,-8.397512685394286,-0.5900210716247558
1790942726655321900,11.93832177734375,-8.11424870147705,-8.442553604125976,-0.5889736083984375
1790942726665352000,11.94835205078125,-8.485649234008788,-8.355314881134033,-0.6548141540527344
1790942726675382000,11.958382080078126,-8.837596878051757,-8.043021202087402,-0.5972036766052246
1790942726685411800,11.968411865234375,-9.05217720184326,-7.483675839233398,-0.6501753883361816
1790942726695442000,11.97844189453125,-9.06564458618164,-6.809558434295654,-0.8572738319396972
1790942726705472000,11.988471923828126,-8.957755873870848,-6.255749662780762,-1.1911153259277343
1790942726715502000,11.998502197265625,-8.719832083892822,-5.9665001747131345,-1.1885714866638184
1790942726725532000,12.008531982421875,-8.42744020614624,-5.661987651062011,-0.8406640579223632
1790942726735562800,12.018562744140626,-8.312668164062499,-5.550058723449706,-0.5021837982177734
1790942726745592800,12.0285927734375,-8.18412946243286,-5.568913061523437,-0.40716391983032224
1790942726755623000,12.038622802734375,-7.866149554443359,-5.551555099487304,-0.44966099929809566
1790942726765653000,12.048653076171876,-7.3736922004699705,-5.483320352172851,-0.17866729888916014
1790942726775682800,12.058682861328125,-7.508814956665039,-5.214571215820312,-0.2512415367126465
1790942726785713000,12.068712890625,-7.8630071647644035,-4.869656539154052,-0.6874351516723632
1790942726795743000,12.078742919921876,-8.15240629043579,-4.612728773498535,-1.0709563301086424
1790942726805773000,12.08877294921875,-8.212261331939697,-4.459799142456054,-1.324143155670166
1790942726815803000,12.098802978515625,-8.104522257232665,-4.2968437919616695,-1.467645617675781
1790942726825833000,12.1088330078125,-7.87812056274414,-4.084807307434081,-1.5138836372375488
1790942726835862800,12.11886279296875,-7.572410938262939,-3.890428060150146,-1.4631564895629883
1790942726845892900,12.128892822265625,-7.568819635772704,-3.8813001663208007,-1.5342343513488768
1790942726855923000,12.1389228515625,-7.751826425170898,-3.882796542358398,-1.795950520324707
1790942726865954000,12.1489541015625,-8.054992210388184,-3.835660697174072,-2.1740847450256346
1790942726875984000,12.15898388671875,-8.453477149200438,-3.746476685333252,-2.4940099418640136
1790942726886014000,12.169013916015626,-8.362198210906982,-3.451989881134033,-2.5980080764770506
1790942726896044000,12.1790439453125,-7.913135762023925,-2.919429649353027,-2.494159579467773
1790942726906073900,12.189073974609375,-7.436091081237793,-2.16405902557373,-2.351854218292236
1790942726916104000,12.19910400390625,-7.0661869247436515,-1.3685855239868163,-2.36861362991333
1790942726926133800,12.2091337890625,-7.127687979888916,-0.618003303527832,-2.5206454353332517
1790942726936163800,12.219163818359375,-7.301417237854004,-0.3173813575744629,-2.5972598884582516
1790942726946194000,12.22919384765625,-7.329998020172119,-0.4670189613342285,-2.544288176727295
1790942726956224000,12.23922412109375,-7.461679111480713,-0.8059481338500976,-2.711433380126953
1790942726966254000,12.249254150390625,-7.898022364044189,-1.1367968757629394,-3.283348301696777
1790942726976284000,12.259283935546875,-7.596951505279541,-1.1610381675720214,-3.7300165489196777
1790942726986313700,12.269313720703124,-6.968473569488525,-0.8728361427307129,-3.9535751289367673
1790942726996343800,12.27934375,-6.8119526359558105,-0.6904279037475586,-3.9079356597900388
1790942727006375000,12.289375,-6.7839704040527335,-0.8505401397705078,-3.6010289344787596
1790942727016405000,12.299405029296874,-6.489932512664795,-0.5834370170593262,-3.0268694488525387
1790942727026434800,12.309434814453125,-6.042665715026855,-0.7294833183288574,-2.5272294898986813
1790942727036465000,12.31946484375,-5.819705685424804,-0.8034042945861816,-2.2363339881896973
1790942727046495000,12.329494873046874,-5.837961473083496,-0.7528267845153808,-2.302922721862793
1790942727056525000,12.339525146484375,-5.945700547790527,-0.3860650177001953,-2.7042507751464844
1790942727066555100,12.34955517578125,-6.1845221633911125,-0.03247136001586914,-2.96237564163208
1790942727076584700,12.359584716796874,-6.268917771911621,0.02498947982788086,-2.9372365242004395
1790942727086614800,12.36961474609375,-6.319196006774902,0.04085106582641601,-2.8139351387023925
1790942727096644900,12.379644775390625,-6.359298884582519,0.05985504150390625,-2.590226921081543
1790942727106675000,12.389675048828124,-6.514772354888915,-0.003441664886474609,-2.5020903724670407
1790942727116705000,12.399705078125,-6.649146923065185,-0.05880757827758789,-2.562843239593506
1790942727126734800,12.40973486328125,-6.675632778930663,-0.032172084808349606,-2.612522924041748
1790942727136766000,12.419765869140624,-6.853402252197265,-0.03411737365722656,-2.455852352905273
1790942727146796000,12.429796142578125,-6.908019977569579,-0.16011223602294922,-2.1173720932006836
1790942727156826000,12.439826171875,-6.893954042816162,-0.3434183006286621,-1.796549070739746
1790942727166856000,12.44985595703125,-7.072770979309082,-0.531812043762207,-1.7045219444274902
1790942727176885800,12.4598857421875,-7.144896304321288,-0.7411550514221191,-1.7489643127441405
1790942727186915800,12.469915771484375,-7.051223164367675,-0.9789292037963867,-1.8037316757202146
1790942727196946000,12.47994580078125,-7.110180380249023,-1.223137773132324,-1.8959084396362305
1790942727206976000,12.48997607421875,-7.3097969436645505,-1.4618097511291503,-2.037166337585449
1790942727217006000,12.500006103515625,-7.5587939163208,-1.80029001083374,-2.0739771881103515
1790942727227036000,12.510035888671876,-7.632864530181885,-2.386719779968262,-1.8819921424865722
1790942727237066000,12.52006591796875,-7.481580912780761,-2.996343377685547,-1.5366285530090331
1790942727247095800,12.530095703125,-7.183802081298828,-3.8783074142456053,-1.438915197753906
1790942727257126000,12.5401259765625,-7.071723516082764,-4.823867432403564,-1.4519336692810059
1790942727267156700,12.55015673828125,-7.2046017082214355,-5.636249983215332,-1.388636962890625
1790942727277186800,12.560186767578125,-7.403918996429443,-6.338199982452392,-1.3358148887634276
1790942727287217000,12.570216796875,-7.569567823791504,-6.935254021453857,-1.3263877197265623
1790942727297247000,12.5802470703125,-7.74374599456787,-7.387159584808349,-1.2626421005249022
1790942727307277000,12.590277099609375,-7.959972332000732,-7.866149554443359,-1.2017395957946777
1790942727317307000,12.600306884765626,-7.94216545715332,-8.264784130859374,-1.1979986557006834
1790942727327337000,12.6103369140625,-7.7501804115295405,-8.412626083374024,-1.063624087524414
1790942727337366800,12.62036669921875,-7.517344300079345,-8.464849607086181,-0.922515827178955
1790942727347396900,12.63039697265625,-7.340472652435302,-8.348431551361083,-0.9510966094970703
1790942727357427000,12.640427001953125,-7.377433140563965,-8.10167914276123,-1.1308113716125487
1790942727367457000,12.65045703125,-7.551611311340332,-7.9849618118286125,-1.439663385772705
1790942727377486800,12.66048681640625,-7.689427544403076,-8.092401611328125,-1.862239978790283
1790942727387517000,12.670516845703125,-8.188618590545653,-8.38883370437622,-2.0418051033020017
1790942727397547000,12.680547119140625,-8.419359775543212,-8.941445375061035,-2.241571304321289
1790942727407578000,12.690578125,-8.391227906036377,-9.585485621643066,-2.3110031524658203
1790942727417608000,12.70060791015625,-8.583512226867676,-10.002824898529052,-2.2858640350341797
1790942727427637800,12.7106376953125,-8.752453081512451,-10.343699359893797,-2.335244444274902
