time,seconds_elapsed,z,y,x
1790942714804824000,0.087823974609375,0.19191928207874298,-0.23452188074588776,1.4912933111190796
1790942714814854100,0.097854248046875,0.32694685459136963,-0.451153427362442,1.520371675491333
1790942714824884200,0.10788427734375,0.3291119933128357,-0.8522496819496155,1.4056799411773682
1790942714834914000,0.1179140625,0.24887949228286743,-1.2205157279968262,1.137557864189148
1790942714844944100,0.127944091796875,0.12884044647216797,-1.2924424409866333,0.7550578117370605
1790942714854974000,0.137973876953125,0.18052783608436584,-0.9635840654373169,0.4113391935825348
1790942714865004000,0.148004150390625,0.37521716952323914,-0.6113336086273193,0.09218782931566238
1790942714875034000,0.1580341796875,0.5150677561759949,-0.6918961405754089,-0.23380309343338013
1790942714885064200,0.168064208984375,0.5903257131576538,-0.7668688893318176,-0.47444260120391846
1790942714895094300,0.17809423828125,0.6169396638870239,-0.7436221837997437,-0.5863881707191467
1790942714905124000,0.1881240234375,0.5794378519058228,-0.7495301365852356,-0.6170669794082642
1790942714915154000,0.19815380859375,0.4567625820636749,-0.819941520690918,-0.6020205020904541
1790942714925184000,0.20818408203125,0.2564167082309723,-0.9134759902954102,-0.582223117351532
1790942714935214000,0.218214111328125,0.02982291765511036,-1.1203359365463257,-0.6006914973258972
1790942714945244200,0.228244140625,-0.11710234731435776,-1.3099316358566284,-0.6557645797729492
1790942714955274000,0.23827392578125,-0.12925337255001068,-1.3638770580291748,-0.7216356992721558
1790942714965304000,0.248303955078125,-0.021159125491976738,-1.2832313776016235,-0.7669368982315063
1790942714975334100,0.258334228515625,0.17736400663852692,-1.1252009868621826,-0.7882249355316162
1790942714985364200,0.2683642578125,0.40663740038871765,-0.9484394788742065,-0.8180339932441711
1790942714995394000,0.27839404296875,0.60328608751297,-0.8524898290634155,-0.8943461775779724
1790942715005424000,0.288424072265625,0.8115293383598328,-0.8612958192825317,-1.0364409685134888
1790942715015454000,0.298453857421875,1.0909053087234497,-0.7927042841911316,-1.172964334487915
1790942715025484000,0.308484130859375,1.136934518814087,-0.27765876054763794,-1.1472606658935547
1790942715035514000,0.31851416015625,0.857523500919342,0.12073463201522827,-1.0969980955123901
1790942715045544200,0.328544189453125,0.6193956136703491,0.08314811438322067,-1.0748775005340576
1790942715055574300,0.33857421875,0.6221822500228882,-0.2025236040353775,-1.0036208629608154
1790942715065604000,0.34860400390625,0.7469188570976257,-0.4521811008453369,-0.8977354168891907
1790942715075634000,0.358634033203125,0.8260654211044312,-0.530458390712738,-0.8279619216918945
1790942715085664000,0.3686640625,0.8844714760780334,-0.4469139575958252,-0.8179053068161011
1790942715095694000,0.378694091796875,0.996504545211792,-0.3023013174533844,-0.8240796327590942
1790942715105724200,0.38872412109375,1.1036803722381592,-0.06477051228284836,-0.8609929084777832
1790942715115754200,0.398754150390625,1.135176181793213,0.15231893956661224,-0.976780116558075
1790942715125784000,0.4087841796875,1.0918943881988525,0.19255131483078003,-1.1472363471984863
1790942715135814100,0.418814208984375,1.0676064491271973,0.05357200652360916,-1.2632169723510742
1790942715145844000,0.428843994140625,1.1422052383422852,-0.1989515870809555,-1.2618787288665771
1790942715155874000,0.4388740234375,1.3348993062973022,-0.6117538809776306,-1.1430222988128662
1790942715165904100,0.448904052734375,1.6612880229949951,-1.2296802997589111,-0.9553645849227905
1790942715175934000,0.458933837890625,2.1640381813049316,-2.0873260498046875,-0.7410133481025696
1790942715185964000,0.468964111328125,2.7847609519958496,-3.1523797512054443,-0.5114656686782837
1790942715195994000,0.478994140625,3.2113797664642334,-4.2378106117248535,-0.24999897181987762
1790942715206024200,0.489024169921875,3.214681386947632,-4.903069496154785,-0.03207702562212944
1790942715216054300,0.49905419921875,3.0120434761047363,-5.0509934425354,0.03569752350449562
1790942715226084000,0.509083984375,2.9476542472839355,-4.972396373748779,-0.04841629043221474
1790942715236114000,0.519114013671875,3.199434518814087,-4.873372554779053,-0.1591830998659134
1790942715246144000,0.52914404296875,3.539196491241455,-4.590939044952393,-0.24091710150241852
1790942715256174000,0.539174072265625,3.8673110008239746,-4.673969745635986,-0.15384714305400848
1790942715266204200,0.5492041015625,4.0977301597595215,-5.241718769073486,0.008896776475012302
1790942715276234200,0.559234130859375,4.22104024887085,-6.113058567047119,0.1729862093925476
1790942715286264000,0.56926416015625,4.339850902557373,-7.03387975692749,0.31879374384880066
1790942715296294000,0.5792939453125,4.500419616699219,-7.677046775817871,0.45837822556495667
1790942715306324000,0.589323974609375,4.660901069641113,-7.803038597106934,0.5989553332328796
1790942715316354000,0.59935400390625,4.753364086151123,-7.574265480041504,0.7316114902496338
1790942715326384000,0.609384033203125,4.777031898498535,-6.9956865310668945,0.816033124923706
1790942715336414200,0.619414306640625,4.784668445587158,-6.399354457855225,0.8822475671768188
1790942715346444000,0.629444091796875,4.706894397735596,-5.988027095794678,0.9366961717605591
1790942715356474000,0.63947412109375,4.448953151702881,-5.420435428619385,0.870283842086792
1790942715366504200,0.649504150390625,4.020834445953369,-4.484586715698242,0.6691970825195312
1790942715376534000,0.659533935546875,3.608165740966797,-3.3691494464874268,0.33080774545669556
1790942715386564000,0.669564208984375,3.3053693771362305,-1.970510482788086,-0.14010493457317352
1790942715396594000,0.679593994140625,3.1189634799957275,-0.5669165253639221,-0.473274827003479
1790942715406624000,0.6896240234375,2.966337203979492,0.3113594055175781,-0.6880470514297485
1790942715416654000,0.699654052734375,2.87829327583313,0.7409048676490784,-0.6897037625312805
1790942715426684200,0.70968408203125,2.8287839889526367,0.8783549070358276,-0.4923006594181061
1790942715436714200,0.71971435546875,2.35809326171875,0.5854011178016663,-0.1234346553683281
1790942715446744300,0.729744384765625,1.6417689323425293,0.1866731345653534,0.2992668151855469
1790942715456774000,0.73977392578125,1.0829998254776,-0.05481133237481117,0.5555235743522644
1790942715466804000,0.749803955078125,0.8403480648994446,-0.10300682485103607,0.5151359438896179
1790942715476834000,0.759833984375,0.8630772233009338,-0.11191581934690475,0.34997639060020447
1790942715486864600,0.76986474609375,1.0540355443954468,-0.14711429178714752,0.321723997592926
1790942715496894500,0.77989453125,1.4398990869522095,-0.10763315856456757,0.46311384439468384
1790942715506924300,0.78992431640625,2.0977730751037598,0.6260117888450623,0.3892710506916046
1790942715516954400,0.799954345703125,1.9782586097717285,1.1542876958847046,0.2481898069381714
1790942715526984400,0.809984375,3.276144027709961,1.7809134721755981,-0.31437844038009644
1790942715537014500,0.8200146484375,2.857233762741089,2.846378803253174,-1.0289784669876099
1790942715547044600,0.830044677734375,1.1785203218460083,3.281374454498291,-0.17218390107154846
1790942715557074400,0.840074462890625,0.9900023937225342,2.6738717555999756,1.0515183210372925
1790942715567104500,0.8501044921875,1.1610008478164673,2.316908121109009,1.1734570264816284
1790942715577134300,0.86013427734375,1.6546911001205444,2.405423402786255,1.5831998586654663
1790942715587164400,0.870164306640625,1.855645775794983,2.2790403366088867,2.1463372707366943
1790942715597194500,0.880194580078125,2.3632333278656006,1.0338534116744995,2.570974826812744
1790942715607224600,0.890224609375,2.66098690032959,0.8168303370475769,2.7115938663482666
1790942715617254400,0.90025439453125,2.853851079940796,0.42378154397010803,2.4310898780822754
1790942715627284500,0.910284423828125,2.8099172115325928,-0.46692758798599243,2.5235843658447266
1790942715637314600,0.920314453125,2.696161985397339,-1.5959703922271729,2.2791659832000732
1790942715647344400,0.930344482421875,2.045943021774292,-3.0293164253234863,1.1114020347595215
1790942715657374500,0.94037451171875,1.6990413665771484,-2.9027421474456787,0.32940977811813354
1790942715667404300,0.950404296875,1.8210513591766357,-2.142212390899658,0.041669875383377075
1790942715677434400,0.960434326171875,1.886733055114746,-1.9173659086227417,-0.08369068801403046
1790942715687464400,0.97046435546875,1.8883270025253296,-1.611834168434143,-0.3007252514362335
1790942715697494500,0.98049462890625,1.9354621171951294,-1.946231484413147,-0.12161452323198318
1790942715707524600,0.990524658203125,1.950676441192627,-2.4204154014587402,0.24400418996810913
1790942715717554700,1.0005546875,1.9622924327850342,-2.7210440635681152,0.4780941307544708
1790942715727584300,1.010584228515625,1.846787452697754,-2.9762349128723145,0.6854406595230103
1790942715737614300,1.0206142578125,1.6482127904891968,-2.976435899734497,0.8169127702713013
1790942715747644400,1.03064453125,1.3890330791473389,-2.835946798324585,0.8875060081481934
1790942715757674500,1.040674560546875,1.1405737400054932,-2.9598681926727295,0.7724577188491821
1790942715767704600,1.05070458984375,1.0364915132522583,-3.2494826316833496,0.5700156688690186
1790942715777734400,1.060734375,0.9307752251625061,-3.6726198196411133,0.5674982070922852
1790942715787764500,1.070764404296875,0.7676457166671753,-4.283551216125488,0.6576075553894043
1790942715797794600,1.080794677734375,0.762192964553833,-4.378735542297363,0.7157876491546631
1790942715807824400,1.090824462890625,0.8710923194885254,-3.8728954792022705,0.7243390083312988
1790942715817854500,1.1008544921875,1.1036651134490967,-3.071932077407837,0.41028809547424316
1790942715827884500,1.110884521484375,1.376401662826538,-2.172358989715576,0.057905275374650955
1790942715837914400,1.120914306640625,1.4011509418487549,-2.0006425380706787,-0.1450861394405365
1790942715847944400,1.1309443359375,1.3939318656921387,-1.9383715391159058,-0.25944653153419495
1790942715857974500,1.140974609375,1.400274395942688,-2.1910343170166016,-0.16600172221660614
1790942715868004600,1.151004638671875,1.3188292980194092,-2.2500219345092773,-0.23493844270706177
1790942715878034400,1.161034423828125,1.2731517553329468,-2.2209503650665283,-0.29564765095710754
1790942715888064500,1.171064453125,1.275838017463684,-2.2774441242218018,-0.3387826085090637
1790942715898094300,1.18109423828125,1.4054813385009766,-2.23530912399292,-0.571180522441864
1790942715908124400,1.19112451171875,1.6991193294525146,-1.9656219482421875,-0.6970399022102356
1790942715918154500,1.201154541015625,2.1003286838531494,-1.7877651453018188,-0.8291379809379578
1790942715928184600,1.2111845703125,2.3693575859069824,-1.6301076412200928,-0.8815979361534119
1790942715938214700,1.221214599609375,2.6034164428710938,-1.2742875814437866,-1.163374900817871
1790942715948244500,1.231244384765625,2.8942952156066895,-0.5781220197677612,-1.4549790620803833
1790942715958274300,1.2412744140625,2.9880032539367676,-0.05801050737500191,-1.7642492055892944
1790942715968304400,1.251304443359375,2.742291212081909,-0.06836913526058197,-1.7334388494491577
1790942715978334500,1.26133447265625,2.4174251556396484,-0.34745800495147705,-1.3706409931182861
1790942715988364500,1.271364501953125,2.2092034816741943,-0.5871784687042236,-1.0212403535842896
1790942715998394400,1.281394287109375,2.131103515625,-0.8970149159431458,-0.833115816116333
1790942716008424400,1.291424560546875,1.911116361618042,-1.1043189764022827,-0.7107081413269043
1790942716018454500,1.30145458984375,1.6939399242401123,-1.1537449359893799,-0.7129989862442017
1790942716028484400,1.311484375,1.6317378282546997,-0.8104404807090759,-1.1465294361114502
1790942716038514400,1.321514404296875,1.4076694250106812,-0.4105173349380493,-1.556563377380371
1790942716048544500,1.33154443359375,0.5660998821258545,0.029060060158371925,-0.9265359044075012
1790942716058574300,1.34157421875,-0.12090018391609192,-0.15003818273544312,-0.5785942673683167
1790942716068604400,1.3516044921875,-0.12697458267211914,-0.135999858379364,-0.8024486303329468
1790942716078634500,1.361634521484375,0.22769854962825775,0.129452183842659,-1.2936110496520996
1790942716088664600,1.37166455078125,0.8037336468696594,0.644010603427887,-1.4008530378341675
1790942716098694700,1.381694580078125,1.1875698566436768,0.8169084191322327,-1.0539613962173462
1790942716108724500,1.391724365234375,0.9794845581054688,0.4504002034664154,-0.29464760422706604
1790942716118754300,1.40175439453125,0.6437633037567139,0.10490009188652039,0.3750198781490326
1790942716128784400,1.411784423828125,0.28244346380233765,0.26824215054512024,0.48708704113960266
1790942716138814500,1.421814453125,-0.03429184854030609,0.47034090757369995,0.4450070559978485
1790942716148844500,1.431844482421875,-0.26970091462135315,1.1243046522140503,0.20084792375564575
1790942716158874600,1.44187451171875,-0.44736573100090027,1.9217134714126587,-0.11662248522043228
1790942716168904400,1.451904541015625,-0.8318321704864502,1.7926695346832275,-0.07488196343183517
1790942716178934500,1.4619345703125,-1.2034848928451538,1.2579920291900635,0.054999981075525284
1790942716188964400,1.47196435546875,-1.5032447576522827,0.5108699798583984,0.05052134394645691
1790942716198994400,1.481994384765625,-1.7496806383132935,-0.018908798694610596,-0.0349135585129261
1790942716209024500,1.4920244140625,-0.8801845908164978,-1.4662749767303467,-0.7180423736572266
1790942716219054300,1.502054443359375,-0.12687404453754425,-1.5502583980560303,-1.121250867843628
1790942716229084400,1.51208447265625,0.444304496049881,-1.0310945510864258,-0.9604554176330566
1790942716239114500,1.522114501953125,0.9508619904518127,-0.609142541885376,-0.4296268820762634
1790942716249144600,1.53214453125,1.3792695999145508,-0.4596260190010071,0.09809764474630356
1790942716259174400,1.54217431640625,1.774320363998413,-0.5398304462432861,0.44587355852127075
1790942716269204500,1.55220458984375,2.144613265991211,-0.8727104067802429,0.6391066312789917
1790942716279234300,1.562234375,1.9343608617782593,-1.276648998260498,0.6698947548866272
1790942716289264400,1.572264404296875,1.55924391746521,-1.7122327089309692,0.6630887985229492
1790942716299294500,1.58229443359375,1.0816032886505127,-2.1019039154052734,0.6914252042770386
1790942716309324500,1.592324462890625,0.5190848708152771,-2.205204963684082,0.7836856245994568
1790942716319354600,1.602354736328125,0.10610727220773697,-1.9356204271316528,0.7495221495628357
1790942716329384400,1.612384521484375,-0.12761759757995605,-1.624177098274231,0.6059793829917908
1790942716339414300,1.622414306640625,-0.2131861448287964,-1.2330880165100098,0.37687253952026367
1790942716349444400,1.6324443359375,-0.1912374347448349,-0.786707878112793,0.04071076214313507
1790942716359474400,1.642474365234375,-0.14009658992290497,-0.39260587096214294,-0.2520288825035095
1790942716369504500,1.65250439453125,-0.14545035362243652,-0.09760008007287979,-0.32821258902549744
1790942716379534600,1.66253466796875,-0.2336413413286209,0.12604866921901703,-0.2709749937057495
1790942716389564400,1.672564453125,-0.383871853351593,0.24083329737186432,-0.25156426429748535
1790942716399594500,1.682594482421875,-0.47569313645362854,0.46163997054100037,-0.29197829961776733
1790942716409624600,1.69262451171875,-0.3158033490180969,0.5538796186447144,-0.5534881949424744
1790942716419654400,1.702654296875,-0.10287840664386749,0.5098174810409546,-0.6806185245513916
1790942716429684500,1.7126845703125,0.11019472032785416,0.2921812832355499,-0.5844323635101318
1790942716439714300,1.72271435546875,0.12206429988145828,0.4629822373390198,-0.3574334383010864
1790942716449744400,1.732744384765625,-0.09839297086000443,0.8982462882995605,-0.28219330310821533
1790942716459774500,1.7427744140625,-0.28258898854255676,1.1833198070526123,-0.38832393288612366
1790942716469804500,1.752804443359375,-0.3360753655433655,1.2083587646484375,-0.5486422181129456
1790942716479835000,1.7628349609375,-0.14243952929973602,0.7619619965553284,-0.4167361855506897
1790942716489864700,1.77286474609375,0.03594992309808731,0.43097954988479614,-0.23537571728229523
1790942716499894500,1.78289453125,0.08214030414819717,0.3493298888206482,-1.015112042427063
1790942716509924600,1.792924560546875,0.9800753593444824,-1.4720748662948608,-1.2455707788467407
1790942716519954700,1.80295458984375,1.0240082740783691,-2.0919384956359863,0.027926014736294746
1790942716529984800,1.81298486328125,0.741966724395752,-1.3057550191879272,0.3822289705276489
1790942716540014800,1.823014892578125,0.7512819170951843,-0.6638947129249573,0.16798453032970428
1790942716550044700,1.833044677734375,0.9480274319648743,-0.47191834449768066,0.20779238641262054
1790942716560074800,1.84307470703125,1.1232962608337402,-0.5136438608169556,0.2596859037876129
1790942716570104600,1.8531044921875,1.2100088596343994,-0.6142567992210388,0.2483333796262741
1790942716580134700,1.863134765625,1.1848849058151245,-0.7725168466567993,0.1365319937467575
1790942716590164700,1.873164794921875,1.039139747619629,-0.8062034845352173,0.11256380379199982
1790942716600194800,1.88319482421875,0.5697980523109436,-0.6091651320457458,0.18049737811088562
1790942716610224600,1.893224609375,0.002274956787005067,-0.18486551940441132,0.12556062638759613
1790942716620254700,1.903254638671875,-0.050460103899240494,-0.1031399518251419,0.34238046407699585
1790942716630284800,1.913284912109375,-0.10942302644252777,0.15564927458763123,0.6718814373016357
1790942716640315000,1.92331494140625,-0.12216758728027344,0.9810943603515625,0.612516462802887
1790942716650344700,1.9333447265625,0.013621407561004162,1.0758894681930542,0.010340818203985691
1790942716660374500,1.94337451171875,0.1363619565963745,0.22322715818881989,-0.1846836656332016
1790942716670404600,1.953404541015625,0.053642574697732925,-0.12126018851995468,-0.14512081444263458
1790942716680434700,1.9634345703125,-0.06364166736602783,-0.10639888793230057,-0.004720902070403099
1790942716690464800,1.97346484375,-0.10653641074895859,-0.12526606023311615,0.14147305488586426
1790942716700494800,1.983494873046875,-0.1202101856470108,-0.12570777535438538,0.23334135115146637
1790942716710524700,1.993524658203125,-0.13616943359375,-0.06182945892214775,0.20876836776733398
1790942716720554800,2.0035546875,-0.15430662035942078,-0.04201287776231766,0.05722038820385933
1790942716730584600,2.01358447265625,-0.12907983362674713,-0.06502125412225723,-0.1614251285791397
1790942716740614700,2.02361474609375,-0.07348655164241791,-0.13431128859519958,-0.2795810103416443
1790942716750644700,2.033644775390625,-0.00031087888055481017,-0.4298028349876404,0.052586302161216736
1790942716760674800,2.0436748046875,-0.17456306517124176,-0.26024770736694336,0.517457127571106
1790942716770704600,2.05370458984375,0.6243937611579895,0.5584902763366699,0.005518232472240925
1790942716780734700,2.063734619140625,0.33207184076309204,-0.09263935685157776,0.5332654714584351
1790942716790764800,2.073764892578125,-0.7253687381744385,-0.7272128462791443,1.3201112747192383
1790942716800794600,2.083794677734375,-1.008359432220459,-0.5765566825866699,1.3801037073135376
1790942716810824700,2.09382470703125,-0.7221009135246277,-0.9830783605575562,1.2227327823638916
1790942716820854800,2.103854736328125,-0.3584081828594208,-1.173028826713562,0.9277706146240234
1790942716830884600,2.113884521484375,0.48173657059669495,-1.0938000679016113,0.46866852045059204
1790942716840914700,2.123914794921875,1.4244061708450317,-1.4163248538970947,0.29873448610305786
1790942716850944800,2.13394482421875,2.573528528213501,-1.5021470785140991,0.9683005809783936
1790942716860975600,2.1439755859375,3.6144919395446777,-1.3563669919967651,1.6615839004516602
1790942716871005000,2.1540048828125,4.397252559661865,-1.2023030519485474,1.7297136783599854
1790942716881035800,2.164035888671875,4.495838642120361,-1.5566343069076538,1.4485079050064087
1790942716891065600,2.174065673828125,3.813464879989624,-1.8627393245697021,0.8600374460220337
1790942716901095700,2.184095703125,3.1519007682800293,-1.5418832302093506,0.2878318428993225
1790942716911125800,2.194125732421875,1.5422346591949463,-0.5914002656936646,-0.13086208701133728
1790942716921155600,2.204155517578125,0.8621960282325745,-0.11120527982711792,-0.1418895423412323
1790942716931185700,2.214185546875,0.5438330173492432,-0.29509496688842773,-0.2874198257923126
1790942716941215700,2.2242158203125,0.28774261474609375,-0.4892812669277191,-0.41408929228782654
1790942716951245800,2.234245849609375,0.12985152006149292,-0.5536056756973267,-0.4201842248439789
1790942716961276000,2.24427587890625,-0.01769896410405636,-0.5424598455429077,-0.4238264262676239
1790942716971305700,2.2543056640625,-0.1617932915687561,-0.4268801808357239,-0.44565075635910034
1790942716981335600,2.26433544921875,-0.2797061800956726,-0.27401208877563477,-0.556794285774231
1790942716991365600,2.27436572265625,-0.35193803906440735,-0.23926503956317902,-0.6657244563102722
1790942717001395700,2.284395751953125,-0.3993269205093384,-0.2930411696434021,-0.6664142608642578
1790942717011425800,2.29442578125,-0.41888704895973206,-0.31384655833244324,-0.6052294373512268
1790942717021456000,2.304455810546875,-0.429394006729126,-0.26295799016952515,-0.5798584818840027
1790942717031485700,2.314485595703125,-0.42142370343208313,-0.22790654003620148,-0.5862948298454285
1790942717041515800,2.324515869140625,-0.3682566285133362,-0.20316825807094574,-0.5585485100746155
1790942717051545600,2.334545654296875,-0.28547999262809753,-0.12545669078826904,-0.5286052227020264
1790942717061575700,2.34457568359375,-0.07149620354175568,-0.052929140627384186,-0.4570634365081787
1790942717071605800,2.354605712890625,0.32503730058670044,-0.354342520236969,0.18086455762386322
1790942717081635800,2.3646357421875,0.30732882022857666,-0.09240464121103287,0.15687650442123413
1790942717091665700,2.374665771484375,0.1296434998512268,0.32477661967277527,-0.18174122273921967
1790942717101695700,2.38469580078125,0.0533406138420105,0.3729189336299896,-0.5346049070358276
1790942717111725800,2.394725830078125,0.1235620453953743,0.06314269453287125,-0.7473600506782532
1790942717121755600,2.404755615234375,0.17175619304180145,-0.17508460581302643,-0.807946503162384
1790942717131785700,2.41478564453125,0.18431751430034637,-0.24536862969398499,-0.7952722311019897
1790942717141815600,2.424815673828125,0.19858747720718384,-0.25500819087028503,-0.7915250658988953
1790942717151845600,2.434845703125,0.1908339560031891,-0.3361102342605591,-0.823512852191925
1790942717161875700,2.444875732421875,0.19686616957187653,-0.4451392590999603,-0.8475666642189026
1790942717171905800,2.45490576171875,0.2146209329366684,-0.4648418724536896,-0.9017553329467773
1790942717181935900,2.464935791015625,0.20594973862171173,-0.458199143409729,-0.9959962368011475
1790942717191965700,2.474965576171875,0.2054613083600998,-0.4453938603401184,-1.103561282157898
1790942717201995500,2.48499560546875,0.18414030969142914,-0.4711169898509979,-1.22752845287323
1790942717212025600,2.495025634765625,0.1532423198223114,-0.5246912837028503,-1.3610851764678955
1790942717222055700,2.5050556640625,0.13501551747322083,-0.5714953541755676,-1.5007952451705933
1790942717232085800,2.515085693359375,0.09007015824317932,-0.6184918880462646,-1.638492226600647
1790942717242115800,2.52511572265625,0.06476738303899765,-0.6648627519607544,-1.783308506011963
1790942717252145700,2.535145751953125,0.04401576146483421,-0.7157562971115112,-1.9197568893432617
1790942717262175700,2.54517578125,0.010785684920847416,-0.7613189816474915,-2.043504476547241
1790942717272205800,2.555205810546875,-0.025240225717425346,-0.7799198627471924,-2.165820360183716
1790942717282235600,2.565235595703125,-0.06664451211690903,-0.7843236923217773,-2.301420211791992
1790942717292265700,2.575265625,-0.09580399841070175,-0.7884659767150879,-2.446709632873535
1790942717302295800,2.5852958984375,-0.1114102452993393,-0.8204842209815979,-2.603935956954956
1790942717312325600,2.59532568359375,-0.11044032126665115,-0.9266242384910583,-2.7482004165649414
1790942717322355700,2.605355712890625,-0.10706189274787903,-1.0557342767715454,-2.841953992843628
1790942717332386800,2.61538671875,-0.11247210204601288,-1.1061899662017822,-2.858917474746704
1790942717342416600,2.625416748046875,-0.09434761106967926,-1.1397712230682373,-2.788909435272217
1790942717352446700,2.63544677734375,-0.015120165422558784,-1.2600209712982178,-2.7007057666778564
1790942717362476800,2.645476806640625,0.09775598347187042,-1.495709776878357,-2.655386209487915
1790942717372506600,2.655506591796875,0.19613207876682281,-1.7631523609161377,-2.6883926391601562
1790942717382536700,2.66553662109375,0.2503109276294708,-1.9581443071365356,-2.789548873901367
1790942717392566800,2.67556689453125,0.3008207082748413,-2.0189623832702637,-2.902106761932373
1790942717402596600,2.6855966796875,0.42675551772117615,-1.9157941341400146,-2.9663445949554443
1790942717412626700,2.695626708984375,0.589680016040802,-1.8079209327697754,-2.9749953746795654
1790942717422656800,2.70565673828125,0.7601454257965088,-1.7061492204666138,-2.9607815742492676
1790942717432686800,2.715686767578125,0.9613363146781921,-1.6211878061294556,-2.9162678718566895
1790942717442716700,2.725716552734375,1.1211011409759521,-1.717671275138855,-2.8849222660064697
1790942717452746800,2.735746826171875,1.3330860137939453,-1.8295994997024536,-2.8902587890625
1790942717462776600,2.745776611328125,1.5606019496917725,-1.8918832540512085,-2.9430153369903564
1790942717472806700,2.755806640625,1.7249938249588013,-1.9622775316238403,-2.9721755981445312
1790942717482836200,2.765836181640625,1.8812469244003296,-2.024430751800537,-2.981060743331909
1790942717492866300,2.7758662109375,2.099684953689575,-2.042388439178467,-2.9964096546173096
1790942717502896400,2.785896484375,2.234264850616455,-2.073148250579834,-2.9846131801605225
1790942717512926500,2.795926513671875,2.375680446624756,-2.0948760509490967,-2.9569196701049805
1790942717522956300,2.805956298828125,2.451202154159546,-2.165762186050415,-2.939314126968384
1790942717532986400,2.815986328125,2.465702533721924,-2.134681224822998,-2.9508585929870605
1790942717543016400,2.826016357421875,2.4030208587646484,-2.1137938499450684,-2.9595162868499756
1790942717553046300,2.83604638671875,2.332015037536621,-2.0274226665496826,-2.936384439468384
1790942717563076400,2.846076416015625,2.3320443630218506,-1.9083999395370483,-2.8732972145080566
1790942717573106200,2.856106201171875,2.350338935852051,-1.8654921054840088,-2.782871961593628
1790942717583136300,2.86613623046875,2.435110092163086,-1.7826826572418213,-2.6808526515960693
1790942717593166300,2.876166259765625,2.4996390342712402,-1.6790257692337036,-2.5982351303100586
1790942717603196400,2.886196533203125,2.489586353302002,-1.4766297340393066,-2.546107053756714
1790942717613226500,2.8962265625,2.5310142040252686,-1.2140156030654907,-2.5511457920074463
1790942717623256300,2.90625634765625,2.563037395477295,-1.0112806558609009,-2.5381901264190674
1790942717633286100,2.9162861328125,2.5360426902770996,-0.949836015701294,-2.546957015991211
1790942717643317200,2.926317138671875,2.556007146835327,-0.8326411247253418,-2.552182912826538
1790942717653347300,2.936347412109375,2.4615628719329834,-0.7197582125663757,-2.5484237670898438
1790942717663377400,2.94637744140625,2.4217560291290283,-0.876406192779541,-2.4870333671569824
1790942717673407200,2.9564072265625,2.2695937156677246,-0.93617844581604,-2.4009358882904053
1790942717683437300,2.966437255859375,2.250633716583252,-0.8888422250747681,-2.291419744491577
1790942717693467400,2.97646728515625,2.090134859085083,-0.9201093316078186,-2.1519999504089355
1790942717703497500,2.98649755859375,1.8805959224700928,-0.9545773863792419,-1.8927931785583496
1790942717713527600,2.996527587890625,1.6502243280410767,-0.9836095571517944,-1.6122655868530273
1790942717723557000,3.00655712890625,1.425002098083496,-1.0305105447769165,-1.356071949005127
1790942717733587200,3.016587158203125,1.0869032144546509,-1.22405207157135,-1.1852866411209106
1790942717743617300,3.0266171875,0.8364526629447937,-1.3756208419799805,-1.0680773258209229
1790942717753647400,3.0366474609375,0.7150479555130005,-1.437454104423523,-0.9839558005332947
1790942717763677400,3.046677490234375,0.6112418174743652,-1.4921494722366333,-0.92604660987854
1790942717773707300,3.056707275390625,0.4064907729625702,-1.413097858428955,-0.8398488759994507
1790942717783737300,3.0667373046875,0.13560082018375397,-1.3340494632720947,-0.7507930994033813
1790942717793767400,3.076767333984375,0.03648408502340317,-1.0959287881851196,-0.6673464179039001
1790942717803797200,3.08679736328125,-0.16164304316043854,-0.8817269802093506,-0.5884725451469421
1790942717813827300,3.096827392578125,-0.2335265576839447,-0.6714426875114441,-0.524890124797821
1790942717823857400,3.106857421875,-0.2558281421661377,-0.45678138732910156,-0.4292618930339813
1790942717833887200,3.11688720703125,-0.39544275403022766,-0.3260766267776489,-0.31875455379486084
1790942717843917300,3.126917236328125,-0.5728757381439209,-0.2010447382926941,-0.206650510430336
1790942717853947400,3.136947509765625,-0.6991209983825684,-0.1408996433019638,-0.12128874659538269
1790942717863977500,3.1469775390625,-0.7741565704345703,-0.03997819125652313,-0.06185205280780792
1790942717874007300,3.15700732421875,-0.9150398969650269,0.07437155395746231,0.000367908738553524
1790942717884037400,3.167037353515625,-1.0646299123764038,0.15920273959636688,0.10217150300741196
1790942717894067200,3.177067138671875,-1.1552293300628662,0.2117554247379303,0.23723983764648438
1790942717904097300,3.18709716796875,-1.240148901939392,0.2314184308052063,0.3466852605342865
1790942717914127400,3.19712744140625,-1.3484174013137817,0.2559557259082794,0.4404812455177307
1790942717924157400,3.207157470703125,-1.4644269943237305,0.29076069593429565,0.5365796685218811
1790942717934187500,3.2171875,-1.5568684339523315,0.3089095950126648,0.613308310508728
1790942717944217300,3.22721728515625,-1.6346805095672607,0.32458630204200745,0.6790183186531067
1790942717954248400,3.23724853515625,-1.7019708156585693,0.34909936785697937,0.743857741355896
1790942717964278300,3.2472783203125,-1.7503445148468018,0.43650010228157043,0.8323932886123657
1790942717974308400,3.257308349609375,-1.7864042520523071,0.5413268804550171,0.914568305015564
1790942717984338200,3.267338134765625,-1.7952258586883545,0.585253894329071,0.9500866532325745
1790942717994368300,3.2773681640625,-1.8178869485855103,0.5930255055427551,1.010331392288208
1790942718004398300,3.2873984375,-1.8666290044784546,0.5380933284759521,1.0945614576339722
1790942718014428400,3.297428466796875,-1.9091229438781738,0.46187976002693176,1.1424376964569092
1790942718024458500,3.30745849609375,-1.9800543785095215,0.48450767993927,1.159501552581787
1790942718034488300,3.31748828125,-1.9895431995391846,0.4904329478740692,1.204573154449463
1790942718044518100,3.32751806640625,-1.991638422012329,0.5096745491027832,1.2520428895950317
1790942718054548200,3.33754833984375,-1.9648890495300293,0.4817076325416565,1.2993568181991577
1790942718064578300,3.347578369140625,-1.9302209615707397,0.4590674042701721,1.2955657243728638
1790942718074608400,3.3576083984375,-1.9151192903518677,0.4428042769432068,1.267783284187317
1790942718084638500,3.367638427734375,-1.9378496408462524,0.3504996597766876,1.2491058111190796
1790942718094668300,3.377668212890625,-2.001321315765381,0.1511330008506775,1.2214957475662231
1790942718104698400,3.387698486328125,-2.055049180984497,-0.02750890888273716,1.2076733112335205
1790942718114728400,3.397728515625,-2.1252496242523193,-0.12721580266952515,1.1844478845596313
1790942718124758300,3.40775830078125,-2.1839354038238525,-0.12236591428518295,1.1440151929855347
1790942718134788400,3.417788330078125,-2.206036329269409,-0.022146902978420258,1.0943284034729004
1790942718144818400,3.427818359375,-2.2362780570983887,0.1133287250995636,1.005968689918518
1790942718154848300,3.43784814453125,-2.3104641437530518,0.09414011240005493,0.9121820330619812
1790942718164878300,3.44787841796875,-2.4131739139556885,-0.09766989201307297,0.8110353946685791
1790942718174908400,3.457908447265625,-2.5158674716949463,-0.41811978816986084,0.6740661263465881
1790942718184938500,3.4679384765625,-2.58320951461792,-0.6824389696121216,0.46468856930732727
1790942718194968300,3.47796826171875,-2.624183416366577,-0.8756201863288879,0.2665075659751892
1790942718204999400,3.48799951171875,-2.693631649017334,-0.9372256994247437,0.11574260145425797
1790942718215029200,3.498029296875,-2.8436355590820312,-0.8407021164894104,0.05991555377840996
1790942718225059300,3.508059326171875,-3.0430567264556885,-0.6963641047477722,0.06263245642185211
1790942718235089400,3.51808935546875,-3.2335870265960693,-0.6299150586128235,0.15124434232711792
1790942718245119200,3.528119140625,-3.3581430912017822,-0.5826722383499146,0.2736774682998657
1790942718255149300,3.5381494140625,-3.4086737632751465,-0.5405628681182861,0.3921407461166382
1790942718265179400,3.548179443359375,-3.3288071155548096,-0.59486985206604,0.4781079590320587
1790942718275209500,3.55820947265625,-3.084092617034912,-0.6306517720222473,0.5544765591621399
1790942718285239300,3.5682392578125,-2.7731642723083496,-0.6772410273551941,0.622006893157959
1790942718295269400,3.578269287109375,-2.531355381011963,-0.7999645471572876,0.683418333530426
1790942718305299200,3.58829931640625,-2.435696840286255,-0.8673398494720459,0.7112441658973694
1790942718315329300,3.598329345703125,-2.494961977005005,-0.8378285765647888,0.7345185875892639
1790942718325359400,3.608359375,-2.6223793029785156,-0.6554507613182068,0.7854055762290955
1790942718335389400,3.618389404296875,-2.698428153991699,-0.47087162733078003,0.8290801048278809
1790942718345419500,3.62841943359375,-2.6512539386749268,-0.3585284948348999,0.8149312734603882
1790942718355449300,3.638449462890625,-2.4858829975128174,-0.3300206661224365,0.7495168447494507
1790942718365479200,3.648479248046875,-2.266838788986206,-0.40540605783462524,0.690710723400116
1790942718375509200,3.65850927734375,-2.036127805709839,-0.5482010841369629,0.652313232421875
1790942718385539300,3.668539306640625,-1.871354579925537,-0.6794931292533875,0.5995305180549622
1790942718395569400,3.6785693359375,-1.7963231801986694,-0.6469460725784302,0.5532852411270142
1790942718405599200,3.68859912109375,-1.7961260080337524,-0.5098141431808472,0.5411306023597717
1790942718415629300,3.69862939453125,-1.7300751209259033,-0.40585044026374817,0.6782048344612122
1790942718425659400,3.708659423828125,-1.6537532806396484,-0.33426761627197266,0.8422446846961975
1790942718435689500,3.718689453125,-1.5990333557128906,-0.270691841840744,0.9129553437232971
1790942718445719300,3.72871923828125,-1.5397193431854248,-0.22085343301296234,0.8883979916572571
1790942718455749400,3.738749267578125,-1.4521220922470093,-0.1297283172607422,0.8461546897888184
1790942718465780200,3.7487802734375,-1.3695794343948364,-0.04097297042608261,0.8180868029594421
1790942718475810300,3.758810302734375,-1.3429882526397705,0.028159230947494507,0.8168460726737976
1790942718485840600,3.768840576171875,-1.337982416152954,0.05948500335216522,0.8331879377365112
1790942718495870500,3.778870361328125,-1.354955792427063,0.09252764284610748,0.8379070162773132
1790942718505900500,3.788900634765625,-1.441455602645874,-0.05541342496871948,0.8952972888946533
1790942718515930600,3.7989306640625,-1.4741986989974976,-0.23421885073184967,0.9661264419555664
1790942718525960700,3.808960693359375,-1.415504813194275,-0.35455867648124695,0.9467443227767944
1790942718535990800,3.81899072265625,-1.2912379503250122,-0.5268374681472778,0.832617998123169
1790942718546020900,3.829020751953125,-1.1090004444122314,-0.7991170287132263,0.6453534364700317
1790942718556050700,3.83905078125,-0.8644563555717468,-1.042341709136963,0.4212460517883301
1790942718566080500,3.84908056640625,-0.6308882236480713,-1.0761053562164307,0.20874571800231934
1790942718576110600,3.859110595703125,-0.39441096782684326,-0.878217875957489,0.031724076718091965
1790942718586140700,3.869140625,-0.22535191476345062,-0.5443291664123535,-0.04482409730553627
1790942718596170800,3.879170654296875,-0.18189579248428345,-0.2597610652446747,0.03164564445614815
1790942718606200600,3.88920068359375,-0.1505778580904007,-0.20142903923988342,0.07660697400569916
1790942718616230700,3.899230712890625,-0.08067174255847931,-0.43333470821380615,-0.014447575435042381
1790942718626260700,3.9092607421875,0.0257153008133173,-0.8447718620300293,-0.20876948535442352
1790942718636290800,3.919290771484375,0.08088161796331406,-1.1789557933807373,-0.4569135010242462
1790942718646320600,3.929320556640625,0.01562606170773506,-1.2007746696472168,-0.6591967940330505
1790942718656350700,3.939350830078125,-0.21021825075149536,-0.9288143515586853,-0.6354168653488159
1790942718666380500,3.949380615234375,-0.46983659267425537,-0.37641414999961853,-0.4370257556438446
1790942718676410600,3.95941064453125,-0.647762656211853,0.342405766248703,-0.2124192714691162
1790942718686440700,3.969440673828125,-0.6779034733772278,0.9864909052848816,-0.03811420500278473
1790942718696470800,3.979470703125,-0.6164856553077698,1.4776856899261475,0.05554703623056412
1790942718706500900,3.9895009765625,-0.5670639872550964,1.8309943675994873,0.11198565363883972
1790942718716530700,3.99953076171875,-0.5170447826385498,2.006251811981201,0.16414153575897217
1790942718726561800,4.009561767578125,-0.4797292947769165,1.9810867309570312,0.2134043574333191
1790942718736591600,4.019591552734375,-0.44645628333091736,1.6842972040176392,0.2568269371986389
1790942718746621700,4.02962158203125,-0.4728124439716339,1.1533384323120117,0.30175766348838806
1790942718756651500,4.039651611328125,-0.5413286089897156,0.49035724997520447,0.35621505975723267
1790942718766681600,4.049681640625,-0.6042804718017578,-0.29433953762054443,0.4040558636188507
1790942718776711700,4.059711669921875,-0.6135498285293579,-0.9664380550384521,0.4239760637283325
1790942718786741800,4.06974169921875,-0.5990214347839355,-1.2461427450180054,0.36983105540275574
1790942718796771800,4.079771728515625,-0.5557344555854797,-1.1590051651000977,0.3041231632232666
1790942718806801700,4.0898017578125,-0.508749783039093,-0.7583720088005066,0.2823058068752289
1790942718816831500,4.09983154296875,-0.4839429259300232,-0.14526279270648956,0.26743072271347046
1790942718826861600,4.109861572265625,-0.45357730984687805,0.4638650715351105,0.20645584166049957
1790942718836891600,4.1198916015625,-0.4225642681121826,0.8997641205787659,0.13207533955574036
1790942718846921700,4.129921630859375,-0.42671945691108704,1.1084644794464111,0.06750276684761047
1790942718856951800,4.139951904296875,-0.44788917899131775,1.0558881759643555,0.005781080108135939
1790942718866981600,4.149981689453125,-0.4769641160964966,0.7388666272163391,-0.0412222221493721
1790942718877011700,4.16001171875,-0.488139271736145,0.3331247568130493,-0.07517166435718536
1790942718887041500,4.17004150390625,-0.47165411710739136,0.022190291434526443,-0.10216592252254486
1790942718897071600,4.180071533203125,-0.4694833755493164,-0.09253469109535217,-0.10408259928226471
1790942718907101700,4.190101806640625,-0.5019365549087524,-0.032121337950229645,-0.07225212454795837
1790942718917131800,4.2001318359375,-0.5606227517127991,0.1056666225194931,-0.029702534899115562
1790942718927161600,4.21016162109375,-0.6154209971427917,0.09229747205972672,-0.005551552399992943
1790942718937191700,4.220191650390625,-0.6291716694831848,-0.09453952312469482,-0.04898318275809288
1790942718947221800,4.2302216796875,-0.6055026054382324,-0.31936022639274597,-0.15250642597675323
1790942718957251800,4.240251953125,-0.5693978667259216,-0.46630412340164185,-0.23722770810127258
1790942718967282700,4.25028271484375,-0.5441935658454895,-0.4815095365047455,-0.24537333846092224
1790942718977312500,4.2603125,-0.5564275979995728,-0.36536720395088196,-0.1793368011713028
1790942718987342600,4.270342529296875,-0.5866079926490784,-0.16618791222572327,-0.08624786138534546
1790942718997372700,4.28037255859375,-0.6192998886108398,0.04196663573384285,-0.010154696181416512
1790942719007402800,4.29040283203125,-0.6258812546730042,0.21533283591270447,0.027033207938075066
1790942719017432600,4.3004326171875,-0.5873804688453674,0.3005998134613037,0.028485961258411407
1790942719027462700,4.310462646484375,-0.5104343295097351,0.325601726770401,0.028163772076368332
1790942719037492700,4.32049267578125,-0.4194099009037018,0.3238357603549957,0.05359482765197754
1790942719047522800,4.330522705078125,-0.3124045729637146,0.32493922114372253,0.08369702100753784
1790942719057552600,4.340552734375,-0.176712766289711,0.33320116996765137,0.08097101002931595
1790942719067582700,4.350582763671875,-0.02000296860933304,0.3710315525531769,0.03652378171682358
1790942719077612500,4.360612548828125,0.09429431706666946,0.4723224639892578,-0.008064992725849152
1790942719087642600,4.370642578125,0.10081648826599121,0.623263955116272,-0.017435593530535698
1790942719097672700,4.380672607421875,0.040135566145181656,0.7531670928001404,0.014315413311123848
1790942719107702800,4.390702880859375,-0.12253731489181519,0.7914219498634338,0.07453779876232147
1790942719117732900,4.40073291015625,-0.18649046123027802,0.7982963919639587,0.14896461367607117
1790942719127762400,4.410762451171875,-0.308230996131897,0.7727106809616089,0.23207220435142517
1790942719137792500,4.42079248046875,-0.27120161056518555,0.7639421820640564,0.3039535880088806
1790942719147822600,4.430822509765625,-0.28634941577911377,0.6986469030380249,0.3343907296657562
1790942719157853700,4.440853759765625,-0.2177906036376953,0.648362934589386,0.3271373510360718
1790942719167883500,4.450883544921875,-0.22387707233428955,0.6368442177772522,0.29458388686180115
1790942719177913600,4.46091357421875,-0.16397006809711456,0.6785271763801575,0.24210016429424286
1790942719187943700,4.470943603515625,-0.16898447275161743,0.7079353928565979,0.15347057580947876
1790942719197973800,4.480973876953125,-0.12420555204153061,0.6927229166030884,0.04849596694111824
1790942719208003800,4.49100390625,-0.18093155324459076,0.6215452551841736,-0.055144302546978
1790942719218033700,4.50103369140625,-0.22025366127490997,0.527003824710846,-0.1547561138868332
1790942719228063500,4.5110634765625,-0.29868951439857483,0.4161287844181061,-0.2519972026348114
1790942719238093600,4.521093505859375,-0.3329225778579712,0.35080891847610474,-0.26930347084999084
1790942719248123600,4.53112353515625,-0.35993754863739014,0.3280290961265564,-0.18236927688121796
1790942719258153700,4.54115380859375,-0.3345392346382141,0.2959425449371338,-0.012833782471716404
1790942719268183800,4.551183837890625,-0.271531879901886,0.2265717089176178,0.1820341795682907
1790942719278213600,4.561213623046875,-0.17632362246513367,0.130341574549675,0.31165531277656555
1790942719288243700,4.57124365234375,-0.06570398062467575,0.08250518888235092,0.3538142144680023
1790942719298273500,4.5812734375,0.0007208458264358342,0.16261334717273712,0.32642918825149536
1790942719308303600,4.5913037109375,0.027742577716708183,0.33222267031669617,0.25762006640434265
1790942719318333700,4.601333740234375,-0.015460819937288761,0.531614363193512,0.2060687094926834
1790942719328364500,4.611364501953125,-0.0364803746342659,0.7016571164131165,0.1974918246269226
1790942719338394600,4.62139453125,-0.10433372110128403,0.8561968803405762,0.2017723172903061
1790942719348424700,4.6314248046875,-0.14326460659503937,0.9786314964294434,0.19467845559120178
1790942719358454800,4.641454833984375,-0.26414626836776733,1.047475814819336,0.1653328239917755
1790942719368484600,4.651484619140625,-0.3054119646549225,1.0373454093933105,0.12438298016786575
1790942719378514700,4.6615146484375,-0.40940147638320923,0.972399115562439,0.08056280016899109
1790942719388544500,4.67154443359375,-0.3976646065711975,0.8385607004165649,0.07367727160453796
1790942719398574600,4.68157470703125,-0.4507054388523102,0.6513698101043701,0.08832146227359772
1790942719408604700,4.691604736328125,-0.3739946186542511,0.44182032346725464,0.09643232822418213
1790942719418634800,4.701634765625,-0.405984491109848,0.2202298790216446,0.0922010987997055
1790942719428664600,4.71166455078125,-0.2955944240093231,0.05772694945335388,0.049565281718969345
1790942719438694700,4.721694580078125,-0.32492300868034363,0.0005267767701297998,0.022718219086527824
1790942719448724700,4.731724853515625,-0.20236855745315552,0.061508312821388245,0.03692309930920601
1790942719458754800,4.7417548828125,-0.21977044641971588,0.2035733014345169,0.06789912283420563
1790942719468785700,4.75178564453125,-0.10633805394172668,0.3493119180202484,0.11485115438699722
1790942719478815500,4.7618154296875,-0.10187938809394836,0.48538029193878174,0.17535443603992462
1790942719488845300,4.77184521484375,0.005434750113636255,0.5406649708747864,0.21211117506027222
1790942719498875400,4.78187548828125,0.09224101901054382,0.5409328937530518,0.2051379680633545
1790942719508905500,4.791905517578125,0.17585480213165283,0.5060819983482361,0.184838205575943
1790942719518935600,4.801935546875,0.2305108606815338,0.42122888565063477,0.17833955585956573
1790942719528965400,4.81196533203125,0.239866241812706,0.3472677767276764,0.13189224898815155
1790942719538995500,4.821995361328125,0.24083083868026733,0.298060804605484,0.11459288001060486
1790942719549025500,4.832025634765625,0.23011507093906403,0.26989299058914185,0.12904779613018036
1790942719559055600,4.8420556640625,0.18338724970817566,0.24255377054214478,0.1452121138572693
1790942719569085400,4.85208544921875,0.10688154399394989,0.22544991970062256,0.1469935029745102
1790942719579115300,4.862115234375,0.013097000308334827,0.25747576355934143,0.12824831902980804
1790942719589145300,4.872145263671875,-0.06688559800386429,0.3162626028060913,0.1280282586812973
1790942719599175400,4.882175537109375,-0.11018327623605728,0.38578176498413086,0.14994367957115173
1790942719609205500,4.89220556640625,-0.11483635753393173,0.428500235080719,0.18157924711704254
1790942719619236400,4.902236328125,-0.1121247261762619,0.4100527763366699,0.20314419269561768
1790942719629266400,4.912266357421875,-0.0876694992184639,0.3092510402202606,0.20123054087162018
1790942719639296500,4.922296630859375,-0.044878896325826645,0.1603475958108902,0.13854292035102844
1790942719649326600,4.93232666015625,-0.01256653480231762,0.016943663358688354,0.037629127502441406
1790942719659356400,4.9423564453125,0.004484354518353939,-0.01973632164299488,-0.046931032091379166
1790942719669386500,4.952386474609375,0.021097607910633087,0.033459294587373734,-0.0633130744099617
1790942719679416300,4.962416259765625,0.027953648939728737,0.07032676041126251,-0.0005825781263411045
1790942719689446400,4.9724462890625,0.03155210241675377,0.08976680785417557,0.08876688033342361
1790942719699476500,4.9824765625,0.03816153481602669,0.0836428701877594,0.14805443584918976
1790942719709506600,4.992506591796875,0.04549417644739151,0.0747700184583664,0.18395738303661346
1790942719719536600,5.00253662109375,0.05746322125196457,0.06974570453166962,0.22002004086971283
1790942719729566500,5.01256640625,0.05270449444651604,0.08210151642560959,0.2505796253681183
1790942719739596300,5.02259619140625,0.03267991915345192,0.13191567361354828,0.26834213733673096
1790942719749626400,5.03262646484375,0.002059051999822259,0.20284684002399445,0.29161903262138367
1790942719759656400,5.042656494140625,-0.03453970327973366,0.24710644781589508,0.3385428786277771
1790942719769687300,5.052687255859375,-0.06365357339382172,0.22311651706695557,0.3953548073768616
1790942719779717400,5.06271728515625,-0.08083469420671463,0.11935069411993027,0.43135541677474976
1790942719789747500,5.07274755859375,-0.08595602959394455,-0.052844177931547165,0.42764243483543396
1790942719799777500,5.082777587890625,-0.07801688462495804,-0.2581174373626709,0.3893240988254547
1790942719809807600,5.0928076171875,-0.05172048881649971,-0.4078262746334076,0.33929383754730225
1790942719819837700,5.102837646484375,-0.016420019790530205,-0.45684653520584106,0.30000075697898865
1790942719829867300,5.1128671875,0.01604270376265049,-0.37295928597450256,0.2743813693523407
1790942719839897300,5.1228974609375,0.04107881709933281,-0.151337668299675,0.2626783847808838
1790942719849927400,5.132927490234375,0.05455826222896576,0.11585257202386856,0.25630009174346924
1790942719859957500,5.14295751953125,0.06968741863965988,0.3217655122280121,0.250346302986145
1790942719869987600,5.152987548828125,0.07590880990028381,0.43149271607398987,0.23652924597263336
1790942719880017400,5.163017333984375,0.08279787749052048,0.45945459604263306,0.21457122266292572
1790942719890047500,5.173047607421875,0.09589815884828568,0.39138171076774597,0.19930191338062286
1790942719900077300,5.183077392578125,0.10035096108913422,0.23359474539756775,0.19654899835586548
1790942719910107400,5.193107421875,0.10211071372032166,0.032454609870910645,0.20731967687606812
1790942719920138200,5.20313818359375,0.10017433017492294,-0.1417965590953827,0.20739690959453583
1790942719930168300,5.213168212890625,0.10163787752389908,-0.2668195366859436,0.18596726655960083
1790942719940198400,5.223198486328125,0.08799529820680618,-0.31405389308929443,0.15920117497444153
1790942719950228500,5.233228515625,0.06217003986239433,-0.3014126718044281,0.15558885037899017
1790942719960258600,5.243258544921875,0.021187985315918922,-0.2701474130153656,0.16147257387638092
1790942719970288600,5.25328857421875,-0.005527266301214695,-0.2065589278936386,0.14654774963855743
1790942719980318500,5.263318359375,-0.030281880870461464,-0.12527498602867126,0.11359326541423798
1790942719990348500,5.2733486328125,-0.062080610543489456,-0.05909623205661774,0.10365525633096695
1790942720000378400,5.28337841796875,-0.09853236377239227,-0.028756700456142426,0.11718624085187912
1790942720010408400,5.293408447265625,-0.12358913570642471,-0.0336952731013298,0.14595016837120056
1790942720020438500,5.3034384765625,-0.1341714709997177,-0.0648806244134903,0.1750049889087677
1790942720030468400,5.31346826171875,-0.13599653542041779,-0.0922161266207695,0.19341236352920532
1790942720040498400,5.32349853515625,-0.12503363192081451,-0.10387251526117325,0.20459577441215515
1790942720050528500,5.333528564453125,-0.10552451014518738,-0.11385118216276169,0.1976775825023651
1790942720060558600,5.34355859375,-0.07585663348436356,-0.1395765095949173,0.177669495344162
1790942720070588400,5.35358837890625,-0.030195772647857666,-0.17975322902202606,0.16251380741596222
1790942720080619500,5.36361962890625,0.01569661684334278,-0.18223129212856293,0.15972121059894562
1790942720090649300,5.3736494140625,0.05919701233506203,-0.12108542025089264,0.16583625972270966
1790942720100679400,5.383679443359375,0.10195033252239227,-0.030804531648755074,0.1589522510766983
1790942720110709500,5.39370947265625,0.14099612832069397,0.06749100983142853,0.14915606379508972
1790942720120739600,5.403739501953125,0.15516920387744904,0.15716417133808136,0.15585044026374817
1790942720130769400,5.413769287109375,0.14845378696918488,0.22247828543186188,0.1837921142578125
1790942720140799500,5.423799560546875,0.1334197074174881,0.256523072719574,0.21227887272834778
1790942720150829600,5.43382958984375,0.12086515128612518,0.2542564272880554,0.2018129825592041
1790942720160859400,5.443859375,0.12308942526578903,0.22877398133277893,0.16966035962104797
1790942720170889500,5.453889404296875,0.1339631825685501,0.1656627655029297,0.1623896062374115
1790942720180919300,5.463919189453125,0.1463833749294281,0.11686964333057404,0.10803743451833725
1790942720190949400,5.473949462890625,0.1652945876121521,0.05403317138552666,0.06086251884698868
1790942720200979500,5.4839794921875,0.1830216497182846,0.028040986508131027,0.019267404451966286
1790942720211009500,5.494009521484375,0.20442059636116028,0.017047077417373657,0.025012824684381485
1790942720221039600,5.50403955078125,0.21681495010852814,0.0007421390619128942,0.08178076148033142
1790942720231069400,5.5140693359375,0.2229786068201065,-0.013864848762750626,0.16188210248947144
1790942720241099300,5.524099365234375,0.23801854252815247,0.010999222286045551,0.23039138317108154
1790942720251130600,5.534130615234375,0.2528913915157318,0.11585290729999542,0.24677856266498566
1790942720261160400,5.544160400390625,0.26292645931243896,0.22336925566196442,0.21101470291614532
1790942720271190500,5.5541904296875,0.2842765152454376,0.2539380192756653,0.1588207185268402
1790942720281220400,5.564220458984375,0.31665363907814026,0.20829623937606812,0.03999073803424835
1790942720291250400,5.57425048828125,0.3487170934677124,0.043412040919065475,-0.10579527914524078
1790942720301280500,5.584280517578125,0.38988450169563293,-0.16197387874126434,-0.2669830918312073
1790942720311310600,5.594310546875,0.4434487819671631,-0.333564817905426,-0.41641607880592346
1790942720321340700,5.604340576171875,0.4967458248138428,-0.4526595175266266,-0.5558189749717712
1790942720331370200,5.614370361328125,0.5548474192619324,-0.4785543382167816,-0.698028564453125
1790942720341400300,5.624400390625,0.6196213364601135,-0.43419939279556274,-0.8032755851745605
1790942720351430400,5.634430419921875,0.671718418598175,-0.32910728454589844,-0.9079379439353943
1790942720361460500,5.64446044921875,0.6988120675086975,-0.21674586832523346,-1.0175977945327759
1790942720371490600,5.654490478515625,0.6884717345237732,-0.04198542609810829,-1.081431269645691
1790942720381520400,5.664520263671875,0.6455472111701965,0.20746619999408722,-0.9900140166282654
1790942720391550500,5.674550537109375,0.5771018266677856,0.4356030225753784,-0.7307552099227905
1790942720401580500,5.68458056640625,0.4851764142513275,0.4596646726131439,-0.45434173941612244
1790942720411610400,5.6946103515625,0.39516928791999817,0.2494078129529953,-0.2974753677845001
1790942720421640400,5.704640380859375,0.34377986192703247,-0.015429455786943436,-0.2525654435157776
1790942720431670500,5.71467041015625,0.33891016244888306,-0.23296792805194855,-0.24511662125587463
1790942720441701400,5.724701416015625,0.33595430850982666,-0.3375302851200104,-0.20616868138313293
1790942720451731500,5.7347314453125,0.30951806902885437,-0.30465126037597656,-0.09452228248119354
1790942720461761500,5.744761474609375,0.23284593224525452,-0.142427459359169,0.06205055117607117
1790942720471791600,5.75479150390625,0.13537849485874176,0.07732753455638885,0.21320970356464386
1790942720481821200,5.7648212890625,0.05957267805933952,0.2605367600917816,0.3005653917789459
1790942720491850800,5.774850830078125,0.013903585262596607,0.3076564371585846,0.3300745189189911
1790942720501880800,5.784880859375,0.003738566068932414,0.23693859577178955,0.34624576568603516
1790942720511911000,5.794910888671875,0.002371011534705758,0.07374853640794754,0.4027163088321686
1790942720521941000,5.80494091796875,-0.026025209575891495,-0.17763495445251465,0.5240877270698547
1790942720531971000,5.81497119140625,-0.12031984329223633,-0.39626067876815796,0.6868352293968201
1790942720542001000,5.8250009765625,-0.25373780727386475,-0.4870355725288391,0.8930168747901917
1790942720552031000,5.835031005859375,-0.37693729996681213,-0.464749813079834,1.1061210632324219
1790942720562061000,5.84506103515625,-0.4831002354621887,-0.37321165204048157,1.2828497886657715
1790942720572091000,5.8550908203125,-0.5821629166603088,-0.20365235209465027,1.400153398513794
1790942720582121000,5.865120849609375,-0.646406352519989,0.0768677145242691,1.475393533706665
1790942720592151000,5.875151123046875,-0.655616819858551,0.36794424057006836,1.563300609588623
1790942720602180900,5.885180908203125,-0.625276505947113,0.5471779108047485,1.708997130393982
1790942720612211000,5.8952109375,-0.6045384407043457,0.5335755348205566,1.9572018384933472
1790942720622242000,5.905241943359375,-0.6008973717689514,0.3016756772994995,2.242994785308838
1790942720632272100,5.915272216796875,-0.5254839062690735,0.006376231089234352,2.4631786346435547
1790942720642302000,5.925302001953125,-0.33898359537124634,-0.1500818133354187,2.5264980792999268
1790942720652332000,5.93533203125,-0.10601813346147537,-0.2790176570415497,2.424910545349121
1790942720662361900,5.94536181640625,0.08433050662279129,-0.5277478694915771,2.150892496109009
1790942720672392000,5.955391845703125,0.1915636509656906,-0.7128823399543762,1.823736310005188
1790942720682422000,5.965422119140625,0.21656060218811035,-0.6692488193511963,1.4900116920471191
1790942720692451800,5.975451904296875,0.4076383411884308,-0.5885878205299377,1.2089098691940308
1790942720702482000,5.98548193359375,0.6322901248931885,-0.17328593134880066,0.9997121095657349
1790942720712512000,5.995511962890625,0.6821395754814148,0.6171063780784607,0.8159692287445068
1790942720722542000,6.0055419921875,0.7030667066574097,1.597705364227295,0.6270736455917358
1790942720732572200,6.015572265625,0.7277657985687256,2.3471899032592773,0.4752671718597412
1790942720742602000,6.02560205078125,0.713013231754303,2.8086471557617188,0.3541300892829895
1790942720752631800,6.0356318359375,0.7022659182548523,2.83054518699646,0.27784958481788635
1790942720762662000,6.045661865234375,0.6835537552833557,2.399371862411499,0.2224225401878357
1790942720772692000,6.05569189453125,0.6861369609832764,1.7082853317260742,0.18249620497226715
1790942720782722000,6.06572216796875,0.7230821847915649,1.0550802946090698,0.16592147946357727
1790942720792752000,6.075752197265625,0.7282689213752747,0.5688360929489136,0.1615580916404724
1790942720802782000,6.085781982421875,0.623489260673523,0.17660149931907654,0.16291843354701996
1790942720812811800,6.095811767578125,0.4555722177028656,-0.1666429489850998,0.13679128885269165
1790942720822843100,6.105843017578125,0.3142755627632141,-0.3615517020225525,0.0430472232401371
1790942720832873000,6.115873046875,0.18966184556484222,-0.331838995218277,-0.08470331132411957
1790942720842902800,6.12590283203125,0.12650443613529205,-0.14063654839992523,-0.16191154718399048
1790942720852932900,6.135932861328125,0.08024220913648605,0.09047824144363403,-0.14694850146770477
1790942720862963000,6.145962890625,0.06389732658863068,0.35989853739738464,-0.12943315505981445
1790942720872993000,6.155992919921875,0.06976445019245148,0.5860720872879028,-0.18243445456027985
1790942720883023000,6.166023193359375,0.10194582492113113,0.6638163924217224,-0.29347869753837585
1790942720893053000,6.176052978515625,0.15108254551887512,0.5990980267524719,-0.44990962743759155
1790942720903082800,6.186082763671875,0.17899273335933685,0.4831721782684326,-0.6583693027496338
1790942720913112800,6.19611279296875,0.17660018801689148,0.4252469837665558,-0.8820652961730957
1790942720923143000,6.206142822265625,0.15362191200256348,0.4712435007095337,-1.086897611618042
1790942720933173000,6.216173095703125,0.10166676342487335,0.5681723356246948,-1.2809805870056152
1790942720943203000,6.226203125,0.05970226600766182,0.6735429763793945,-1.4521931409835815
1790942720953233000,6.23623291015625,0.05865420401096344,0.7220433950424194,-1.5715134143829346
1790942720963263000,6.246262939453125,0.09187234938144684,0.6912428736686707,-1.6607455015182495
1790942720973293000,6.25629296875,0.17674699425697327,0.6195982098579407,-1.7458820343017578
1790942720983323000,6.266322998046875,0.31009599566459656,0.5324912667274475,-1.846523642539978
1790942720993353000,6.27635302734375,0.4857505261898041,0.459261417388916,-1.9917255640029907
1790942721003383000,6.286383056640625,0.6749849319458008,0.40328070521354675,-2.1667098999023438
1790942721013414000,6.296413818359375,0.8697881102561951,0.28036126494407654,-2.314549446105957
1790942721023444000,6.30644384765625,0.9779627919197083,0.050081197172403336,-2.3906443119049072
1790942721033474000,6.31647412109375,0.977499783039093,-0.13117913901805878,-2.377561092376709
1790942721043503900,6.32650390625,0.9202194213867188,-0.15577024221420288,-2.3891077041625977
1790942721053534000,6.336533935546875,0.9107959866523743,-0.09031108021736145,-2.50774884223938
1790942721063564000,6.34656396484375,0.848136842250824,0.1764601767063141,-2.4331600666046143
1790942721073593900,6.35659375,0.688484251499176,0.4100421965122223,-2.2242724895477295
1790942721083624000,6.3666240234375,0.5763411521911621,0.34560462832450867,-2.025653123855591
1790942721093654000,6.376654052734375,0.5315037369728088,0.1921950876712799,-2.0188241004943848
1790942721103683800,6.386683837890625,0.5633618235588074,0.2857162654399872,-2.210341453552246
1790942721113714000,6.3967138671875,0.5584815144538879,0.49684587121009827,-2.42797589302063
1790942721123744000,6.406743896484375,0.5140988826751709,0.7855913639068604,-2.4721286296844482
1790942721133774000,6.416774169921875,0.42481330037117004,1.0724807977676392,-2.4001495838165283
1790942721143804200,6.42680419921875,0.2921348810195923,1.259128212928772,-2.335367202758789
1790942721153834000,6.436833984375,0.1341594010591507,1.3043575286865234,-2.287773370742798
1790942721163863800,6.44686376953125,0.047525178641080856,1.1466647386550903,-2.2719404697418213
1790942721173894000,6.456893798828125,0.06606782227754593,0.6307895183563232,-2.2502219676971436
1790942721183925000,6.466925048828125,0.13781657814979553,-0.15535379946231842,-2.1822240352630615
1790942721193955000,6.476955078125,0.07338715344667435,-0.9093011021614075,-2.120084524154663
1790942721203985000,6.48698486328125,-0.08016591519117355,-1.2745035886764526,-2.1264922618865967
1790942721214015000,6.497014892578125,-0.18552319705486298,-1.2929879426956177,-2.2319083213806152
1790942721224045000,6.507045166015625,-0.28730177879333496,-1.251819133758545,-2.348376989364624
1790942721234075100,6.5170751953125,-0.36355504393577576,-1.2806692123413086,-2.4088494777679443
1790942721244105000,6.52710498046875,-0.40557175874710083,-1.3985780477523804,-2.446709156036377
1790942721254134800,6.537134765625,-0.394217312335968,-1.4892528057098389,-2.5271108150482178
1790942721264164900,6.547164794921875,-0.31376826763153076,-1.4614794254302979,-2.658348560333252
1790942721274195000,6.55719482421875,-0.20999515056610107,-1.3644237518310547,-2.8310577869415283
1790942721284225000,6.56722509765625,-0.1135391816496849,-1.231463074684143,-3.0149614810943604
1790942721294255000,6.577255126953125,-0.050838109105825424,-1.1178869009017944,-3.17309832572937
1790942721304285000,6.587284912109375,-0.013554121367633343,-1.0057889223098755,-3.261204957962036
1790942721314316000,6.59731591796875,0.019999869167804718,-0.8469119071960449,-3.2704381942749023
1790942721324346000,6.60734619140625,0.03286932781338692,-0.7034657597541809,-3.266467571258545
1790942721334376000,6.6173759765625,0.08169624954462051,-0.4739297330379486,-3.268855333328247
1790942721344406000,6.627406005859375,0.15281756222248077,-0.27887555956840515,-3.279822587966919
1790942721354435800,6.637435791015625,0.26157665252685547,-0.0240059494972229,-3.2807037830352783
1790942721364466000,6.6474658203125,0.37207093834877014,0.38918057084083557,-3.2758710384368896
1790942721374496000,6.65749609375,0.44442808628082275,0.7484843134880066,-3.227867841720581
1790942721384526000,6.667526123046875,0.4378862977027893,0.7616368532180786,-3.134019374847412
1790942721394556200,6.67755615234375,0.38696491718292236,0.4086371660232544,-3.041985273361206
1790942721404586000,6.6875859375,0.3377843201160431,-0.11898324638605118,-2.9841232299804688
1790942721414615800,6.69761572265625,0.3684436082839966,-0.6753749251365662,-2.967271089553833
1790942721424646000,6.70764599609375,0.40283435583114624,-0.9170045852661133,-2.981367826461792
1790942721434677000,6.717677001953125,0.3841690421104431,-0.6779446005821228,-2.9505794048309326
1790942721444706800,6.727706787109375,0.2773512601852417,-0.22318296134471893,-2.8194215297698975
1790942721454737000,6.73773681640625,0.12270868569612503,0.3128814101219177,-2.6419506072998047
1790942721464767000,6.74776708984375,-0.023071423172950745,0.7101688385009766,-2.4333980083465576
1790942721474797000,6.757797119140625,-0.13538013398647308,0.737785279750824,-2.219794988632202
1790942721484827000,6.767826904296875,-0.13527120649814606,0.5713880658149719,-2.1137020587921143
1790942721494857000,6.77785693359375,-0.06128496304154396,0.3200967013835907,-2.130481481552124
1790942721504886800,6.78788671875,0.07231863588094711,0.00241089123301208,-2.218656063079834
1790942721514916900,6.797916748046875,0.22362974286079407,-0.35152730345726013,-2.259042978286743
1790942721524947000,6.807947021484375,0.3569398522377014,-0.6520623564720154,-2.2384464740753174
1790942721534977800,6.817977783203125,0.4814840853214264,-0.8725740909576416,-2.151374578475952
1790942721545007900,6.8280078125,0.6242681741714478,-0.959877610206604,-1.997118592262268
1790942721555038000,6.838037841796875,0.757125973701477,-0.8077744841575623,-1.7680816650390625
1790942721565068000,6.848068115234375,0.8496004939079285,-0.5204119086265564,-1.5208369493484497
1790942721575098000,6.85809814453125,0.9003950357437134,-0.1478559374809265,-1.280145525932312
1790942721585128000,6.8681279296875,0.9064350724220276,0.15043088793754578,-1.0656241178512573
1790942721595157800,6.87815771484375,0.8837193846702576,0.2959440350532532,-0.8867054581642151
1790942721605187800,6.888187744140625,0.8485257029533386,0.3569730222225189,-0.7295230627059937
1790942721615218000,6.898218017578125,0.8306920528411865,0.3678620457649231,-0.5896320939064026
1790942721625248000,6.908248046875,0.8246365785598755,0.2965977191925049,-0.4564751088619232
1790942721635278800,6.91827880859375,0.820418655872345,0.24207629263401031,-0.34400439262390137
1790942721645309000,6.928308837890625,0.7834979295730591,0.24668541550636292,-0.2519809901714325
1790942721655339000,6.938339111328125,0.7354246377944946,0.32416126132011414,-0.14152641594409943
1790942721665369000,6.948369140625,0.6903330683708191,0.4488195776939392,0.0020826864056289196
1790942721675399000,6.95839892578125,0.668254554271698,0.607982337474823,0.1420007348060608
1790942721685428700,6.9684287109375,0.6782518029212952,0.7675631642341614,0.26304540038108826
1790942721695458800,6.978458740234375,0.7150049209594727,0.9123794436454773,0.36660128831863403
1790942721705489000,6.988489013671875,0.783643901348114,1.0147846937179565,0.48405149579048157
1790942721715519000,6.99851904296875,0.8863382935523987,1.062790036201477,0.4653559923171997
1790942721725549000,7.008549072265625,0.9234797954559326,1.0550774335861206,0.14838258922100067
1790942721735580000,7.018579833984375,1.0455771684646606,1.1225415468215942,-0.39905503392219543
1790942721745610000,7.02860986328125,1.2483270168304443,1.1391301155090332,-0.830164909362793
1790942721755640000,7.03864013671875,1.285753607749939,0.7936455011367798,-0.7423762083053589
1790942721765670000,7.048669921875,1.1572729349136353,0.4984034597873688,-0.34898820519447327
1790942721775700000,7.058699951171875,0.8952934145927429,0.2703714370727539,-0.044415730983018875
1790942721785729800,7.068729736328125,0.7068029046058655,0.1019507497549057,0.07287201285362244
1790942721795759900,7.078759765625,0.6340489983558655,-0.06789270788431168,0.09712643176317215
1790942721805790000,7.0887900390625,0.6377172470092773,-0.11169558763504028,0.1664610356092453
1790942721815820000,7.098820068359375,0.7171275615692139,-0.009341072291135788,0.2561504542827606
1790942721825850000,7.10885009765625,0.8340208530426025,0.05883611738681793,0.29190075397491455
1790942721835881000,7.118880859375,0.9380431771278381,0.1160874217748642,0.2560223639011383
1790942721845911000,7.1289111328125,1.0032637119293213,0.1940232366323471,0.17529982328414917
1790942721855940900,7.13894091796875,0.9842182397842407,0.3145304322242737,0.14926204085350037
1790942721865971000,7.148970947265625,0.8867747783660889,0.3916926085948944,0.17767983675003052
1790942721876000800,7.159000732421875,0.7362590432167053,0.4011894166469574,0.2794944643974304
1790942721886030800,7.16903076171875,0.6037158966064453,0.3635714650154114,0.4011591076850891
1790942721896061000,7.17906103515625,0.583209216594696,0.29188522696495056,0.43111452460289
1790942721906091000,7.189091064453125,0.6338548064231873,0.1846674233675003,0.4072243869304657
1790942721916121000,7.19912109375,0.6564666628837585,0.08696229010820389,0.45063650608062744
1790942721926151000,7.20915087890625,0.6729492545127869,0.14005453884601593,0.47515222430229187
1790942721936180700,7.2191806640625,0.7166306376457214,0.15565761923789978,0.22184599936008453
1790942721946211800,7.2292119140625,0.637995719909668,0.09608297049999237,0.08340875804424286
1790942721956242000,7.239241943359375,0.4630540907382965,0.24705056846141815,0.280938982963562
1790942721966272000,7.24927197265625,0.34104081988334656,0.3211924433708191,0.40391606092453003
1790942721976301800,7.2593017578125,0.24398507177829742,0.34816595911979675,0.39773011207580566
1790942721986332000,7.269331787109375,0.11774645000696182,0.3489803373813629,0.5005878210067749
1790942721996362000,7.279362060546875,-0.004076519515365362,0.32696110010147095,0.7330530881881714
1790942722006392000,7.28939208984375,-0.07653340697288513,0.4076343774795532,1.056894063949585
1790942722016422100,7.299422119140625,-0.1371954083442688,0.5720641613006592,1.5750839710235596
1790942722026451700,7.30945166015625,-0.19711999595165253,0.6921698451042175,1.948338508605957
1790942722036481800,7.319481689453125,-0.1644081473350525,0.8419850468635559,1.690623164176941
1790942722046511900,7.329511962890625,-0.06198856607079506,0.8119233250617981,1.1299781799316406
1790942722056543000,7.33954296875,0.0872638151049614,0.530583381652832,0.6709144711494446
1790942722066572800,7.34957275390625,0.07577680051326752,0.3894462585449219,0.5479201078414917
1790942722076603000,7.359602783203125,-0.020074302330613136,0.6632391810417175,0.6551653742790222
1790942722086633000,7.369633056640625,-0.1925206482410431,0.9204477667808533,0.8682459592819214
1790942722096663000,7.3796630859375,-0.3566609025001526,0.956836998462677,1.232438564300537
1790942722106693000,7.389693115234375,-0.37681838870048523,0.6168679594993591,1.4177570343017578
1790942722116723000,7.399722900390625,-0.33767181634902954,0.40831246972084045,1.4046803712844849
1790942722126752800,7.409752685546875,-0.3306373357772827,0.2901517450809479,1.3589203357696533
1790942722136782800,7.419782958984375,-0.3394767940044403,0.2520444393157959,1.3199926614761353
1790942722146813000,7.42981298828125,-0.3460310995578766,0.33958786725997925,1.3328826427459717
1790942722156843000,7.439843017578125,-0.2751484811306,0.41259172558784485,1.3266191482543945
1790942722166873000,7.449873046875,-0.1682441383600235,0.2989908456802368,1.271593451499939
1790942722176903000,7.45990283203125,-0.12457890063524246,0.16518975794315338,1.3064255714416504
1790942722186932700,7.4699326171875,-0.16031932830810547,0.11705125123262405,1.4458870887756348
1790942722196964000,7.479964111328125,-0.22557973861694336,0.16339632868766785,1.6211912631988525
1790942722206994000,7.489993896484375,-0.2730790674686432,0.24440808594226837,1.74962317943573
1790942722217023700,7.500023681640625,-0.23568959534168243,0.3398679196834564,1.7917845249176025
1790942722227053800,7.5100537109375,-0.1688634306192398,0.40876200795173645,1.749002456665039
1790942722237084000,7.520083984375,-0.07962952554225922,0.45169076323509216,1.6592357158660889
1790942722247114000,7.530114013671875,-0.0010092835873365402,0.49387869238853455,1.5519918203353882
1790942722257144000,7.54014404296875,0.02696358598768711,0.5206332802772522,1.4633935689926147
1790942722267174000,7.550173828125,0.07446638494729996,0.5101814270019531,1.460174322128296
1790942722277204000,7.560203857421875,0.1104452833533287,0.5173689723014832,1.5108215808868408
1790942722287233800,7.57023388671875,0.12850338220596313,0.5963410139083862,1.5725208520889282
1790942722297263900,7.580263916015625,0.1258346289396286,0.644927442073822,1.6232458353042603
1790942722307294000,7.5902939453125,0.11877617985010147,0.6489853262901306,1.6712008714675903
1790942722317324000,7.600323974609375,0.11219105124473572,0.6159065365791321,1.7034485340118408
1790942722327353900,7.610353759765625,0.10291792452335358,0.586546003818512,1.7000447511672974
1790942722337384000,7.620384033203125,0.10550514608621597,0.580383837223053,1.673907995223999
1790942722347414000,7.6304140625,0.12757740914821625,0.6152136921882629,1.6373920440673828
1790942722357443800,7.64044384765625,0.16358856856822968,0.7068582773208618,1.6179112195968628
1790942722367475000,7.650474853515625,0.19721710681915283,0.8124065399169922,1.6308070421218872
1790942722377504800,7.6605048828125,0.22218048572540283,0.856830358505249,1.680767297744751
1790942722387534800,7.670534912109375,0.23235376179218292,0.8547539114952087,1.726171851158142
1790942722397565000,7.68056494140625,0.2419043928384781,0.8127971291542053,1.746817946434021
1790942722407595000,7.690594970703125,0.25688281655311584,0.7577362656593323,1.7562458515167236
1790942722417624800,7.700624755859375,0.26310065388679504,0.7219392657279968,1.7652394771575928
1790942722427655000,7.710655029296875,0.263775497674942,0.7043711543083191,1.7658649682998657
1790942722437685000,7.72068505859375,0.25314950942993164,0.6908504962921143,1.7529234886169434
1790942722447714800,7.73071484375,0.23725178837776184,0.6589524745941162,1.7185322046279907
1790942722457745000,7.740744873046875,0.24080389738082886,0.6380395293235779,1.6780309677124023
1790942722467775000,7.75077490234375,0.24505962431430817,0.636765718460083,1.6498740911483765
1790942722477804800,7.7608046875,0.24576129019260406,0.6420174241065979,1.6526745557785034
1790942722487835600,7.770835693359375,0.2419857233762741,0.6882365942001343,1.6654694080352783
1790942722497865500,7.780865478515625,0.24420133233070374,0.7361674308776855,1.6481807231903076
1790942722507895600,7.7908955078125,0.2519700229167938,0.7650233507156372,1.6067379713058472
1790942722517925400,7.80092529296875,0.2706516683101654,0.7589640617370605,1.5508781671524048
1790942722527955500,7.81095556640625,0.2916829288005829,0.7320956587791443,1.5067155361175537
1790942722537985500,7.820985595703125,0.32057902216911316,0.7262194156646729,1.4557361602783203
1790942722548015600,7.831015625,0.3476163446903229,0.7198653817176819,1.3918185234069824
1790942722558045700,7.841045654296875,0.3782176971435547,0.725039005279541,1.2832119464874268
1790942722568075800,7.85107568359375,0.4098224937915802,0.8027899861335754,1.1465132236480713
1790942722578106600,7.861106689453125,0.43154722452163696,0.8836451172828674,1.009135365486145
1790942722588136400,7.871136474609375,0.45628106594085693,0.9229997396469116,0.8743926882743835
1790942722598166500,7.88116650390625,0.4805643856525421,0.9526115655899048,0.738182008266449
1790942722608196600,7.891196533203125,0.49453213810920715,0.981128454208374,0.6058074235916138
1790942722618226400,7.901226318359375,0.499582439661026,0.9998109936714172,0.5024235844612122
1790942722628256500,7.911256591796875,0.48814523220062256,1.0000717639923096,0.42215028405189514
1790942722638286600,7.92128662109375,0.4876419007778168,0.9013409614562988,0.31953155994415283
1790942722648316700,7.931316650390625,0.48711299896240234,0.7305846810340881,0.17056632041931152
1790942722658346800,7.9413466796875,0.4927363395690918,0.6082770228385925,0.04456111788749695
1790942722668376300,7.951376220703125,0.4915320575237274,0.5113674998283386,-0.017781352624297142
1790942722678406400,7.961406494140625,0.5054125189781189,0.4133176803588867,-0.021419869735836983
1790942722688436500,7.9714365234375,0.5035712122917175,0.3221571445465088,-0.01912449114024639
1790942722698466600,7.981466552734375,0.5122810006141663,0.20156212151050568,-0.05986858904361725
1790942722708496600,7.99149658203125,0.5081344842910767,0.06209531053900719,-0.13742198050022125
1790942722718526700,8.001526611328124,0.5109522938728333,-0.056671757251024246,-0.2467423379421234
1790942722728556500,8.011556640625,0.5263773202896118,-0.11312278360128403,-0.4085882306098938
1790942722738586600,8.021586669921875,0.5381177663803101,-0.1635345071554184,-0.5776917934417725
1790942722748616400,8.031616455078124,0.5488255620002747,-0.20006002485752106,-0.7222455143928528
1790942722758646500,8.041646484375,0.5506387948989868,-0.13662934303283691,-0.8310700058937073
1790942722768676600,8.051676513671875,0.5260536074638367,0.07596386969089508,-0.874728262424469
1790942722778706400,8.06170654296875,0.4561846852302551,0.3754855692386627,-0.8499234914779663
1790942722788736500,8.071736572265625,0.3525291085243225,0.6722277998924255,-0.784040093421936
1790942722798766600,8.0817666015625,0.23878023028373718,0.8766213655471802,-0.7282413840293884
1790942722808796700,8.091796630859376,0.13169559836387634,1.0361541509628296,-0.6614775061607361
1790942722818826500,8.101826416015625,0.052130840718746185,1.1376985311508179,-0.5705252885818481
1790942722828856600,8.111856689453125,0.03478247672319412,1.1162172555923462,-0.5205276608467102
1790942722838886400,8.121886474609376,0.05400285869836807,0.9830212593078613,-0.5443174242973328
1790942722848917500,8.13191748046875,0.11191409081220627,0.7686165571212769,-0.5991889238357544
1790942722858947600,8.141947509765625,0.17116935551166534,0.45906543731689453,-0.6520957946777344
1790942722868977700,8.151977783203124,0.1863831877708435,0.08059003949165344,-0.70987868309021
1790942722879007500,8.162007568359375,0.15754728019237518,-0.20990410447120667,-0.7585708498954773
1790942722889037600,8.17203759765625,0.12584714591503143,-0.3921556770801544,-0.7809650897979736
1790942722899067600,8.182067626953126,0.0829235166311264,-0.5241827964782715,-0.7971672415733337
1790942722909097500,8.192097412109375,0.016080837696790695,-0.6105080842971802,-0.7760209441184998
1790942722919127600,8.20212744140625,-0.0485873706638813,-0.635413408279419,-0.7015408277511597
1790942722929157400,8.212157470703126,-0.06309441477060318,-0.6526328921318054,-0.6045557260513306
1790942722939187500,8.2221875,-0.006250912789255381,-0.7365593910217285,-0.5411191582679749
1790942722949217500,8.232217529296875,0.09839826822280884,-0.8753026127815247,-0.553435206413269
1790942722959247600,8.24224755859375,0.14693228900432587,-1.0242021083831787,-0.6148014068603516
1790942722969277700,8.252277587890624,0.19791796803474426,-1.1308451890945435,-0.7069840431213379
1790942722979307800,8.262307861328125,0.25842687487602234,-1.157954216003418,-0.7651616930961609
1790942722989337300,8.27233740234375,0.3003053665161133,-1.0569220781326294,-0.7600417733192444
1790942722999367400,8.282367431640624,0.3071712553501129,-0.8168768286705017,-0.7145177721977234
1790942723009397500,8.2923974609375,0.2944514751434326,-0.4305592179298401,-0.6514679789543152
1790942723019427600,8.302427490234376,0.30152398347854614,-0.11628420650959015,-0.5993122458457947
1790942723029457700,8.312457763671874,0.297312468290329,-0.04250958561897278,-0.6176848411560059
1790942723039487500,8.322487548828125,0.30014875531196594,-0.10951986908912659,-0.7433852553367615
1790942723049517600,8.332517578125,0.3497362732887268,-0.15588684380054474,-0.9533400535583496
1790942723059547600,8.342547607421874,0.42143455147743225,-0.22048449516296387,-1.1773580312728882
1790942723069577500,8.352577392578125,0.4983852803707123,-0.35815101861953735,-1.3775556087493896
1790942723079607600,8.362607666015625,0.5935103297233582,-0.5924001932144165,-1.4938212633132935
1790942723089637600,8.3726376953125,0.6733577847480774,-0.8073705434799194,-1.5752413272857666
1790942723099667500,8.38266748046875,0.7152741551399231,-0.8873428702354431,-1.6775333881378174
1790942723109697500,8.392697509765625,0.7227259278297424,-0.8433517217636108,-1.6984949111938477
1790942723119728600,8.402728759765624,0.6503281593322754,-0.6281375288963318,-1.6739568710327148
1790942723129758700,8.4127587890625,0.5647839903831482,-0.37039223313331604,-1.6500635147094727
1790942723139788500,8.42278857421875,0.48849526047706604,-0.17927700281143188,-1.624910593032837
1790942723149818600,8.432818603515624,0.4154420793056488,-0.10117901116609573,-1.5946784019470215
1790942723159848400,8.442848388671875,0.36397624015808105,-0.11293721944093704,-1.564671277999878
1790942723169878500,8.45287841796875,0.39605963230133057,-0.21707160770893097,-1.582693099975586
1790942723179908600,8.46290869140625,0.41596704721450806,-0.4490383565425873,-1.656235694885254
1790942723189938400,8.4729384765625,0.44891834259033203,-0.7357569336891174,-1.7495684623718262
1790942723199968500,8.482968505859375,0.4513357877731323,-1.0025649070739746,-1.8300608396530151
1790942723209998600,8.49299853515625,0.46815815567970276,-1.1593295335769653,-1.879386067390442
1790942723220028700,8.503028564453125,0.4696013033390045,-1.1660374402999878,-1.9107016324996948
1790942723230058500,8.51305859375,0.5169235467910767,-1.032875895500183,-1.9225659370422363
1790942723240088600,8.523088623046876,0.5430137515068054,-0.867439329624176,-1.9023983478546143
1790942723250118400,8.533118408203125,0.5393396615982056,-0.7436849474906921,-1.8555632829666138
1790942723260148500,8.5431484375,0.5174370408058167,-0.6740692257881165,-1.8129887580871582
1790942723270178600,8.553178466796876,0.5041292309761047,-0.6597845554351807,-1.798221230506897
1790942723280208600,8.563208740234375,0.6398260593414307,-0.5550358891487122,-1.799643635749817
1790942723290238700,8.57323876953125,0.6136631369590759,-0.3596898317337036,-1.7510536909103394
1790942723300268500,8.5832685546875,0.5066409707069397,-0.33962008357048035,-1.651534080505371
1790942723310298400,8.59329833984375,0.4764806628227234,-0.25860780477523804,-1.559620976448059
1790942723320328400,8.603328369140625,0.4575922191143036,-0.14008304476737976,-1.4873560667037964
1790942723330358500,8.613358642578126,0.4251568019390106,-0.07272717356681824,-1.426513433456421
1790942723340388600,8.623388671875,0.3625589609146118,0.01907925494015217,-1.3411755561828613
1790942723350419500,8.63341943359375,0.2980569303035736,0.13751880824565887,-1.2488038539886475
1790942723360449500,8.643449462890626,0.3008439242839813,0.19491054117679596,-1.1783089637756348
1790942723370479600,8.653479736328125,0.3447335958480835,0.25006645917892456,-1.1296080350875854
1790942723380509700,8.663509765625,0.36298543214797974,0.32191359996795654,-1.0881386995315552
1790942723390539500,8.67353955078125,0.3450581133365631,0.3561229705810547,-0.9980742931365967
1790942723400569300,8.6835693359375,0.3034510314464569,0.3172154426574707,-0.882654070854187
1790942723410599400,8.693599365234375,0.26833006739616394,0.31909963488578796,-0.7445337772369385
1790942723420629500,8.70362939453125,0.24983592331409454,0.31680163741111755,-0.6150950789451599
1790942723430659600,8.71365966796875,0.23635874688625336,0.22175925970077515,-0.5362021327018738
1790942723440689700,8.723689697265625,0.18988651037216187,0.11225759238004684,-0.46703267097473145
1790942723450719500,8.733719482421876,0.11343088001012802,0.04657178744673729,-0.38122856616973877
1790942723460749600,8.74374951171875,0.03989357501268387,0.080250583589077,-0.24767303466796875
1790942723470779600,8.753779541015625,0.010935956612229347,0.1311180293560028,-0.07985926419496536
1790942723480809500,8.7638095703125,0.02288465015590191,0.15258631110191345,0.020404033362865448
1790942723490839800,8.77383984375,0.04684910923242569,0.16246609389781952,0.10876958072185516
1790942723500869600,8.78386962890625,0.05224086716771126,0.18493284285068512,0.24888460338115692
1790942723510899700,8.793899658203125,0.06275476515293121,0.2272041290998459,0.4021277129650116
1790942723520929500,8.803929443359374,0.09163668006658554,0.2885754108428955,0.5140365958213806
1790942723530959600,8.813959716796875,0.11044418811798096,0.32143881916999817,0.5884668827056885
1790942723540989700,8.82398974609375,0.0858960747718811,0.36601734161376953,0.6801167726516724
1790942723551019800,8.834019775390624,0.04915883392095566,0.44476407766342163,0.7831699252128601
1790942723561050600,8.844050537109375,0.025045694783329964,0.5160256624221802,0.8730044364929199
1790942723571080700,8.854080810546876,0.012048138305544853,0.5645412802696228,0.968865156173706
1790942723581110800,8.86411083984375,-0.013819411396980286,0.5896411538124084,1.0779560804367065
1790942723591140900,8.874140869140625,-0.0602542906999588,0.5880094170570374,1.186864972114563
1790942723601170700,8.884170654296875,-0.12074979394674301,0.5759985446929932,1.2997204065322876
1790942723611200500,8.894200439453124,-0.192376047372818,0.5872477293014526,1.3998574018478394
1790942723621230600,8.904230712890625,-0.25282132625579834,0.6536863446235657,1.4759113788604736
1790942723631260700,8.9142607421875,-0.30887019634246826,0.7283182144165039,1.5494506359100342
1790942723641290800,8.924290771484374,-0.36223646998405457,0.7700930237770081,1.6178570985794067
1790942723651320600,8.934320556640625,-0.4034276008605957,0.7738680243492126,1.6702779531478882
1790942723661350700,8.9443505859375,-0.44955286383628845,0.7349134087562561,1.7364860773086548
1790942723671380700,8.954380615234374,-0.4992072582244873,0.7042157053947449,1.7985150814056396
1790942723681410800,8.964410888671875,-0.562216579914093,0.66605544090271,1.8553946018218994
1790942723691440600,8.974440673828125,-0.6085060238838196,0.654465913772583,1.9188824892044067
1790942723701470700,8.984470703125,-0.6768627166748047,0.6614386439323425,1.9549589157104492
1790942723711500500,8.99450048828125,-0.7195212244987488,0.6614269614219666,1.9731507301330566
1790942723721530600,9.004530517578125,-0.7063770890235901,0.5756888389587402,2.0100605487823486
1790942723731560700,9.014560791015626,-0.7403254508972168,0.5037574172019958,2.110560417175293
1790942723741591800,9.024591796875,-0.8464241027832031,0.43547523021698,2.2880377769470215
1790942723751621600,9.03462158203125,-0.9088597893714905,0.337665855884552,2.4490933418273926
1790942723761651700,9.044651611328124,-0.9230375289916992,0.21777983009815216,2.5436811447143555
1790942723771681800,9.054681884765625,-0.9486778974533081,0.14696557819843292,2.563960075378418
1790942723781711600,9.064711669921875,-0.9661888480186462,0.14956335723400116,2.543325901031494
1790942723791741700,9.07474169921875,-0.9972218871116638,0.12322283536195755,2.5087640285491943
1790942723801771500,9.084771484375,-1.0217103958129883,0.05053133890032768,2.4592907428741455
1790942723811801600,9.094801513671875,-1.007173776626587,0.003525214036926627,2.408306360244751
1790942723821831700,9.104831787109376,-0.9443718194961548,0.002120843855664134,2.3648746013641357
1790942723831861800,9.11486181640625,-0.8767243027687073,0.03243587166070938,2.372084379196167
1790942723841891800,9.124891845703125,-0.8308718800544739,-0.008021975867450237,2.4003753662109375
1790942723851921700,9.134921630859376,-0.7805753946304321,-0.03341281786561012,2.395578145980835
1790942723861951500,9.144951416015624,-0.7216008901596069,-0.0034246465656906366,2.3442013263702393
1790942723871981600,9.154981689453125,-0.6206963658332825,0.08448044210672379,2.2098031044006348
1790942723882011600,9.16501171875,-0.5035110116004944,0.2001689225435257,2.0189919471740723
1790942723892041700,9.175041748046874,-0.4084513187408447,0.2778003215789795,1.8216915130615234
1790942723902071800,9.18507177734375,-0.3356612026691437,0.2369089424610138,1.6660891771316528
1790942723912102700,9.1951025390625,-0.2674587070941925,0.10578582435846329,1.5653891563415527
1790942723922132700,9.2051328125,-0.20185774564743042,0.06965389102697372,1.4598286151885986
1790942723932162800,9.215162841796875,-0.1407427340745926,0.1815497875213623,1.3477990627288818
1790942723942192600,9.225192626953126,-0.09482141584157944,0.29407113790512085,1.263717770576477
1790942723952222500,9.235222412109374,-0.06954509019851685,0.39131778478622437,1.1658090353012085
1790942723962252500,9.24525244140625,-0.0351165235042572,0.5068910717964172,1.044496774673462
1790942723972282600,9.25528271484375,0.005858339834958315,0.5713678002357483,0.871889054775238
1790942723982312700,9.265312744140624,0.03590397164225578,0.5618801712989807,0.7330339550971985
1790942723992342800,9.2753427734375,0.04324337840080261,0.4809804856777191,0.6043217778205872
1790942724002372900,9.285372802734376,0.03044118359684944,0.38960450887680054,0.5308314561843872
1790942724012402700,9.295402587890624,0.00250622327439487,0.24110184609889984,0.5286707878112793
1790942724022432500,9.3054326171875,-0.004762424621731043,0.13260743021965027,0.5315310955047607
1790942724032462600,9.315462646484375,0.04543256759643555,0.03254660218954086,0.41766637563705444
1790942724042492700,9.32549267578125,0.11073579639196396,-0.15841341018676758,0.19023530185222626
1790942724052522800,9.335522705078125,0.17672280967235565,-0.3293449282646179,-0.004462005570530891
1790942724062552600,9.345552490234375,0.19526733458042145,-0.38730674982070923,-0.04732920601963997
1790942724072582700,9.355582763671874,0.18550579249858856,-0.37159833312034607,-0.008479014039039612
1790942724082612700,9.36561279296875,0.16245689988136292,-0.3332493007183075,0.00608624005690217
1790942724092643800,9.375643798828126,0.1512356698513031,-0.24772746860980988,-0.03709745034575462
1790942724102673700,9.385673583984374,0.13196252286434174,-0.13462819159030914,-0.14882370829582214
1790942724112703500,9.395703369140625,0.10219131410121918,-0.023963989689946175,-0.31171995401382446
1790942724122733600,9.405733642578125,0.09588859975337982,0.06911327689886093,-0.46691566705703735
1790942724132763600,9.415763671875,0.0950758084654808,0.09345217049121857,-0.6150992512702942
1790942724142793700,9.425793701171875,0.12976567447185516,0.06888244301080704,-0.7612987756729126
1790942724152823800,9.43582373046875,0.17845039069652557,0.0031609567813575268,-0.9172553420066833
1790942724162853600,9.445853515625,0.27326685190200806,-0.13200916349887848,-1.085375189781189
1790942724172883700,9.4558837890625,0.3617793917655945,-0.2631349563598633,-1.2240179777145386
1790942724182913800,9.465913818359375,0.42995789647102356,-0.3359014391899109,-1.3302675485610962
1790942724192943600,9.475943603515624,0.4582156538963318,-0.3201903700828552,-1.3686447143554688
1790942724202973700,9.4859736328125,0.4740343987941742,-0.27065330743789673,-1.3181785345077515
1790942724213003500,9.49600341796875,0.47831836342811584,-0.1848292201757431,-1.2123301029205322
1790942724223033600,9.50603369140625,0.45984551310539246,-0.10948459804058075,-1.054850697517395
1790942724233063700,9.516063720703125,0.42804789543151855,-0.11476351320743561,-0.8848268389701843
1790942724243093800,9.52609375,0.4015905261039734,-0.1056218147277832,-0.7704033851623535
1790942724253123800,9.536123779296876,0.41098085045814514,-0.0006700970698148012,-0.7549681663513184
1790942724263153700,9.546153564453125,0.4209442436695099,0.13327187299728394,-0.8431868553161621
1790942724273184800,9.556184814453125,0.4427931010723114,0.26983559131622314,-0.9899083375930786
1790942724283214600,9.566214599609374,0.45156532526016235,0.3175791800022125,-1.1529051065444946
1790942724293244700,9.57624462890625,0.4455164670944214,0.3004973828792572,-1.296332597732544
1790942724303274800,9.586274658203125,0.4236389398574829,0.250120609998703,-1.3765310049057007
1790942724313304600,9.5963046875,0.3979410231113434,0.15952521562576294,-1.3800407648086548
1790942724323334700,9.606334716796875,0.3772141635417938,0.09166495501995087,-1.350292444229126
1790942724333364700,9.61636474609375,0.3724510967731476,0.08560280501842499,-1.3328295946121216
1790942724343394800,9.626394775390626,0.37168827652931213,0.1312638521194458,-1.3577101230621338
1790942724353425000,9.6364248046875,0.35346508026123047,0.13362793624401093,-1.4076685905456543
1790942724363454500,9.646454345703125,0.3343973755836487,0.007134977728128433,-1.4681692123413086
1790942724373484500,9.656484619140626,0.3242552578449249,-0.18259021639823914,-1.544487476348877
1790942724383514600,9.6665146484375,0.3226124048233032,-0.3314744234085083,-1.6416088342666626
1790942724393544700,9.676544677734375,0.319261372089386,-0.41616109013557434,-1.7290492057800293
1790942724403574800,9.68657470703125,0.3207321763038635,-0.4243864119052887,-1.7847098112106323
1790942724413604900,9.69660498046875,0.31501489877700806,-0.38089486956596375,-1.8029590845108032
1790942724423634700,9.706634765625,0.3100317120552063,-0.31217777729034424,-1.797147512435913
1790942724433664500,9.71666455078125,0.28955838084220886,-0.267395943403244,-1.7727118730545044
1790942724443694600,9.726694580078124,0.28142526745796204,-0.2998270094394684,-1.72115957736969
1790942724453724700,9.736724609375,0.23959311842918396,-0.3686840832233429,-1.6605305671691895
1790942724463754800,9.746754638671876,0.15423846244812012,-0.48930543661117554,-1.5834027528762817
1790942724473785600,9.75678564453125,0.056415773928165436,-0.6417439579963684,-1.535293459892273
1790942724483815700,9.766815673828125,-0.006155539769679308,-0.6961641311645508,-1.5312772989273071
1790942724493845500,9.776845458984376,-0.07420650124549866,-0.7358923554420471,-1.531428337097168
1790942724503875600,9.78687548828125,-0.19227439165115356,-0.7919721007347107,-1.4986692667007446
1790942724513905400,9.796905517578125,-0.2979384958744049,-0.8424645662307739,-1.4210609197616577
1790942724523935200,9.806935302734376,-0.35579052567481995,-0.7982735633850098,-1.3753108978271484
1790942724533965300,9.81696533203125,-0.3562139570713043,-0.7631584405899048,-1.3980900049209595
1790942724543995400,9.826995361328125,-0.3160231113433838,-0.8036008477210999,-1.5024917125701904
1790942724554025500,9.837025390625,-0.27415555715560913,-0.8230685591697693,-1.636258602142334
1790942724564055600,9.8470556640625,-0.23171228170394897,-0.8069127202033997,-1.7381834983825684
1790942724574085400,9.85708544921875,-0.1330333799123764,-0.7624320983886719,-1.8105967044830322
1790942724584115500,9.867115478515625,-0.1319524049758911,-0.7730318903923035,-1.85160493850708
1790942724594145500,9.8771455078125,-0.12078603357076645,-0.8124629259109497,-1.8334035873413086
1790942724604175400,9.88717529296875,-0.08136126399040222,-0.8068907260894775,-1.7687084674835205
1790942724614205400,9.897205322265625,-0.052611108869314194,-0.7943877577781677,-1.7030847072601318
1790942724624235300,9.9072353515625,0.001904830802232027,-0.7643904089927673,-1.6363509893417358
1790942724634265300,9.917265380859375,0.04203760251402855,-0.6810385584831238,-1.579988956451416
1790942724644295400,9.92729541015625,0.08447444438934326,-0.5526551604270935,-1.5619964599609375
1790942724654325500,9.937325439453126,0.14215637743473053,-0.4578109681606293,-1.558772087097168
1790942724664355600,9.94735546875,0.19009415805339813,-0.38035833835601807,-1.53086256980896
1790942724674385400,9.957385498046875,0.2246963530778885,-0.33450427651405334,-1.4644502401351929
1790942724684416500,9.96741650390625,0.24197039008140564,-0.2838752865791321,-1.3521479368209839
1790942724694446300,9.9774462890625,0.23139019310474396,-0.18511568009853363,-1.2434861660003662
1790942724704476400,9.987476318359375,0.21065936982631683,-0.12186035513877869,-1.1345391273498535
1790942724714506500,9.997506591796874,0.16855452954769135,-0.11104046553373337,-1.0203720331192017
1790942724724536300,10.007536376953125,0.11024459451436996,-0.09816853702068329,-0.8969205617904663
1790942724734566400,10.01756640625,0.05839790031313896,-0.02757612057030201,-0.7747967839241028
1790942724744596500,10.027596435546876,0.04284048452973366,0.09577065706253052,-0.6153517961502075
1790942724754626600,10.03762646484375,0.061893537640571594,0.24922065436840057,-0.43505263328552246
1790942724764656400,10.047656494140625,0.08551745116710663,0.39210665225982666,-0.27962547540664673
1790942724774686500,10.0576865234375,0.1251111924648285,0.485138863325119,-0.13627150654792786
1790942724784716300,10.06771630859375,0.14478705823421478,0.5435864925384521,0.011593127623200417
1790942724794746400,10.077746337890625,0.13412988185882568,0.6198706030845642,0.21362638473510742
1790942724804776400,10.0877763671875,0.11468280851840973,0.7545673847198486,0.4691586196422577
1790942724814806500,10.097806640625,0.10852744430303574,0.8268349170684814,0.6808947920799255
1790942724824836600,10.107836669921875,0.12287918478250504,0.8138974905014038,0.8311962485313416
1790942724834866400,10.117866455078126,0.14155860245227814,0.7492260336875916,0.9373184442520142
1790942724844896300,10.127896240234374,0.13427753746509552,0.728475034236908,1.049340844154358
1790942724854926300,10.13792626953125,0.10428103804588318,0.7210224270820618,1.1624553203582764
1790942724864956400,10.147956298828126,0.0835123285651207,0.6986402869224548,1.2653864622116089
1790942724874986500,10.157986572265624,0.07228284329175949,0.6622625589370728,1.3655658960342407
1790942724885016300,10.168016357421875,0.07582814991474152,0.611057698726654,1.4568616151809692
1790942724895047400,10.17804736328125,0.0740523487329483,0.5585180521011353,1.5430998802185059
1790942724905077500,10.188077392578125,0.06212230399250984,0.5237029194831848,1.6368424892425537
1790942724915107600,10.198107666015625,0.036928802728652954,0.4975624084472656,1.730355143547058
1790942724925137400,10.208137451171876,0.007030541077256203,0.46205493807792664,1.8198057413101196
1790942724935167200,10.218167236328124,-0.035435691475868225,0.44505253434181213,1.9131606817245483
1790942724945197300,10.228197265625,-0.08419416099786758,0.42600369453430176,1.989248275756836
1790942724955227400,10.238227294921876,-0.14016875624656677,0.41281598806381226,2.042827606201172
1790942724965257500,10.248257568359374,-0.1870308518409729,0.4205579459667206,2.1025402545928955
1790942724975287600,10.25828759765625,-0.22370924055576324,0.43143296241760254,2.1663594245910645
1790942724985317400,10.2683173828125,-0.2707892060279846,0.44333600997924805,2.2291500568389893
1790942724995347500,10.278347412109374,-0.39615458250045776,0.45714688301086426,2.3062829971313477
1790942725005377500,10.28837744140625,-0.4941851794719696,0.4659888744354248,2.4159908294677734
1790942725015407400,10.298407470703125,-0.5581748485565186,0.5116298794746399,2.5312085151672363
1790942725025437400,10.3084375,-0.6007223129272461,0.5597023367881775,2.632185935974121
1790942725035467300,10.31846728515625,-0.6269240379333496,0.5747310519218445,2.693873643875122
1790942725045497300,10.328497314453125,-0.6406257748603821,0.546267569065094,2.7347538471221924
1790942725055527400,10.33852734375,-0.6657018065452576,0.5025083422660828,2.759537935256958
1790942725065557500,10.3485576171875,-0.7131516933441162,0.38654688000679016,2.734631061553955
1790942725075587600,10.358587646484375,-0.784223198890686,0.18794190883636475,2.681305408477783
1790942725085617400,10.368617431640626,-0.8888648152351379,0.005201384890824556,2.6164848804473877
1790942725095647200,10.378647216796875,-0.9256548285484314,-0.1395949423313141,2.527897596359253
1790942725105677300,10.38867724609375,-0.906822144985199,-0.2263464629650116,2.4064550399780273
1790942725115707400,10.398707275390626,-0.8603206872940063,-0.22900694608688354,2.2834954261779785
1790942725125738500,10.408738525390625,-0.8143694996833801,-0.19498927891254425,2.2107596397399902
1790942725135768300,10.418768310546875,-0.7587952017784119,-0.11164432018995285,2.1510913372039795
1790942725145798400,10.42879833984375,-0.7152522206306458,-0.07174798846244812,2.1018359661102295
1790942725155828500,10.438828369140625,-0.6553052663803101,-0.182017520070076,2.093606948852539
1790942725165858600,10.448858642578125,-0.5751928091049194,-0.3229883015155792,2.060887575149536
1790942725175888600,10.458888671875,-0.5126532912254333,-0.3804723620414734,1.9631856679916382
1790942725185918200,10.468918212890625,-0.4557955265045166,-0.2932296395301819,1.8161089420318604
1790942725195948300,10.4789482421875,-0.3904666006565094,-0.10138936340808868,1.6373858451843262
1790942725205978400,10.488978271484376,-0.2985851764678955,0.08689886331558228,1.4489054679870605
1790942725216008400,10.499008544921875,-0.18650683760643005,0.22159434854984283,1.27448570728302
1790942725226038500,10.50903857421875,-0.07041563093662262,0.3099859356880188,1.135172724723816
1790942725236068600,10.519068603515626,0.04444597661495209,0.3658832907676697,0.9983807802200317
1790942725246098400,10.529098388671875,0.14225348830223083,0.4107186794281006,0.826785147190094
1790942725256128300,10.539128173828125,0.19394171237945557,0.47031861543655396,0.652180016040802
1790942725266158300,10.549158447265626,0.18936176598072052,0.5297906398773193,0.5097701549530029
1790942725276188400,10.5591884765625,0.18081487715244293,0.5489464998245239,0.35215359926223755
1790942725286218500,10.569218505859375,0.1724690943956375,0.4779318869113922,0.21893760561943054
1790942725296248300,10.579248291015626,0.18445545434951782,0.28691452741622925,0.1138058602809906
1790942725306278400,10.5892783203125,0.21791717410087585,0.02717706933617592,-0.010645119473338127
1790942725316308500,10.59930859375,0.2747378647327423,-0.26315754652023315,-0.2517874240875244
1790942725326338600,10.609338623046876,0.31155428290367126,-0.38062596321105957,-0.4868448078632355
1790942725336369400,10.619369384765625,0.3313029408454895,-0.3756173551082611,-0.6560162901878357
1790942725346399200,10.629399169921875,0.34171798825263977,-0.2595464289188385,-0.7562071681022644
1790942725356429300,10.63942919921875,0.33915549516677856,-0.08299696445465088,-0.7908897995948792
1790942725366459400,10.64945947265625,0.3259822428226471,0.08860473334789276,-0.7838972210884094
1790942725376489500,10.659489501953125,0.29803183674812317,0.1981181800365448,-0.7709846496582031
1790942725386519600,10.66951953125,0.2624342739582062,0.2104613035917282,-0.7732271552085876
1790942725396549400,10.67954931640625,0.24654768407344818,0.1261858344078064,-0.8058695197105408
1790942725406579500,10.689579345703125,0.26502373814582825,-0.05629274249076843,-0.9088646769523621
1790942725416609500,10.699609619140626,0.30313971638679504,-0.227466881275177,-1.0606329441070557
1790942725426639400,10.709639404296874,0.34135058522224426,-0.32315126061439514,-1.2194260358810425
1790942725436669400,10.71966943359375,0.37033483386039734,-0.3660942018032074,-1.3439890146255493
1790942725446699300,10.72969921875,0.3938138484954834,-0.38220176100730896,-1.391226053237915
1790942725456729300,10.739729248046874,0.40735122561454773,-0.37212276458740234,-1.3515244722366333
1790942725466759400,10.749759521484375,0.40103432536125183,-0.3391757607460022,-1.2521320581436157
1790942725476789500,10.75978955078125,0.4009205996990204,-0.23764410614967346,-1.1320258378982544
1790942725486819300,10.7698193359375,0.40466418862342834,-0.03454979881644249,-1.0491325855255127
1790942725496849400,10.779849365234375,0.3997248411178589,0.19097253680229187,-1.0359421968460083
1790942725506879200,10.789879150390625,0.38634026050567627,0.35037410259246826,-1.1007567644119263
1790942725516909000,10.799908935546876,0.37058284878730774,0.3914019763469696,-1.2290462255477905
1790942725526939100,10.809939208984375,0.3587903678417206,0.3518253564834595,-1.396446943283081
1790942725536970200,10.81997021484375,0.36242637038230896,0.3022215664386749,-1.5401087999343872
1790942725547000000,10.83,0.35711541771888733,0.22149892151355743,-1.5889482498168945
1790942725557030100,10.840030029296875,0.3486148715019226,0.1437458097934723,-1.5657137632369995
1790942725567060200,10.850060302734375,0.346403568983078,0.13956093788146973,-1.5501222610473633
1790942725577090300,10.86009033203125,0.34151455760002136,0.16506975889205933,-1.583226203918457
1790942725587120400,10.870120361328125,0.34283608198165894,0.1699482798576355,-1.6609582901000977
1790942725597150200,10.880150146484375,0.35565680265426636,0.09970314055681229,-1.7632039785385132
1790942725607180000,10.890179931640626,0.34604841470718384,-0.08032747358083725,-1.8350006341934204
1790942725617210000,10.900210205078125,0.31440499424934387,-0.2700481414794922,-1.8930953741073608
1790942725627240200,10.910240234375,0.3041430115699768,-0.29707393050193787,-1.9356462955474854
1790942725637270300,10.920270263671876,0.30694466829299927,-0.24770931899547577,-1.9653785228729248
1790942725647300400,10.93030029296875,0.3461821675300598,-0.43602126836776733,-2.0568156242370605
1790942725657330200,10.940330078125,0.37770867347717285,-0.7048335671424866,-2.167611837387085
1790942725667360300,10.9503603515625,0.4009791910648346,-0.8519575595855713,-2.22843599319458
1790942725677390000,10.96039013671875,0.435695081949234,-0.897116482257843,-2.2338733673095703
1790942725687420200,10.970420166015625,0.48037201166152954,-0.9281088709831238,-2.2145321369171143
1790942725697450200,10.9804501953125,0.5273733735084534,-0.9918841123580933,-2.194451332092285
1790942725707480300,10.990480224609374,0.5561603307723999,-1.035200595855713,-2.2149815559387207
1790942725717510100,11.00051025390625,0.5902911424636841,-1.0235868692398071,-2.2490317821502686
1790942725727541200,11.010541259765626,0.6308892965316772,-0.9495342373847961,-2.269251585006714
1790942725737571300,11.0205712890625,0.7120435237884521,-0.8830335140228271,-2.264143466949463
1790942725747601200,11.03060107421875,0.6957089900970459,-0.964191734790802,-2.226534605026245
1790942725757631200,11.04063134765625,0.7143484354019165,-1.0528749227523804,-2.188187599182129
1790942725767661000,11.0506611328125,0.7644697427749634,-1.1388343572616577,-2.159640073776245
1790942725777691100,11.060691162109375,0.8064097762107849,-1.2065013647079468,-2.131593942642212
1790942725787721200,11.07072119140625,0.8287432193756104,-1.2178468704223633,-2.058706283569336
1790942725797751300,11.080751220703124,0.7770182490348816,-1.1427254676818848,-1.922264814376831
1790942725807781000,11.090781005859375,0.6960171461105347,-1.0600943565368652,-1.7326898574829102
1790942725817811200,11.100811279296876,0.611412763595581,-0.9456723928451538,-1.5257058143615723
1790942725827841300,11.11084130859375,0.5141687989234924,-0.7413545846939087,-1.3329650163650513
1790942725837871400,11.120871337890625,0.47289004921913147,-0.5547716617584229,-1.1866471767425537
1790942725847901200,11.130901123046876,0.44653069972991943,-0.3846586048603058,-1.1409358978271484
1790942725857931300,11.14093115234375,0.4626348316669464,-0.25120919942855835,-1.1597734689712524
1790942725867961000,11.150961181640625,0.46212413907051086,-0.2044575959444046,-1.142128348350525
1790942725877991200,11.1609912109375,0.3718520402908325,-0.15695026516914368,-1.0010337829589844
1790942725888022300,11.171022216796874,0.19054336845874786,-0.02036551758646965,-0.7810240983963013
1790942725898052000,11.181052001953125,0.009314469061791897,0.15343238413333893,-0.5485125780105591
1790942725908082200,11.191082275390626,-0.11000572890043259,0.29355719685554504,-0.3789205849170685
1790942725918112300,11.2011123046875,-0.15172016620635986,0.3237350881099701,-0.3019733428955078
1790942725928142300,11.211142333984375,-0.18916404247283936,0.2818710207939148,-0.22210876643657684
1790942725938172200,11.221172119140626,-0.30057790875434875,0.27417370676994324,-0.07692840695381165
1790942725948202200,11.2312021484375,-0.4305075407028198,0.36078858375549316,0.13259483873844147
1790942725958232000,11.241232177734375,-0.4833718240261078,0.4351871907711029,0.28998124599456787
1790942725968262100,11.25126220703125,-0.4724520444869995,0.4497777223587036,0.39220505952835083
1790942725978292200,11.261292236328124,-0.4345795214176178,0.41159385442733765,0.44343334436416626
1790942725988322300,11.271322265625,-0.40408411622047424,0.4102615416049957,0.5284026861190796
1790942725998352400,11.281352294921875,-0.38411787152290344,0.45203137397766113,0.6619855165481567
1790942726008382200,11.29138232421875,-0.3924168646335602,0.47928741574287415,0.7997469902038574
1790942726018412000,11.301412109375,-0.43288734555244446,0.5153180956840515,0.9621199369430542
1790942726028442000,11.311442138671875,-0.4909653961658478,0.531173825263977,1.1299620866775513
1790942726038472200,11.32147216796875,-0.5329567790031433,0.5519304871559143,1.2797353267669678
1790942726048503000,11.3315029296875,-0.5656468272209167,0.5865018963813782,1.436726450920105
1790942726058533000,11.341533203125,-0.5850242376327515,0.6120921969413757,1.591511845588684
1790942726068563200,11.351563232421874,-0.5948551297187805,0.6328893303871155,1.726115345954895
1790942726078593300,11.36159326171875,-0.584280252456665,0.6473281383514404,1.8423421382904053
1790942726088623400,11.371623291015625,-0.5691563487052917,0.635286808013916,1.941206455230713
1790942726098653400,11.3816533203125,-0.5612107515335083,0.6156774163246155,2.0347352027893066
1790942726108683000,11.39168310546875,-0.5553604364395142,0.5863465666770935,2.1220338344573975
1790942726118713000,11.401713134765625,-0.5372863411903381,0.5493651032447815,2.194237232208252
1790942726128743200,11.4117431640625,-0.5159251093864441,0.5108820796012878,2.2472493648529053
1790942726138773200,11.421773193359375,-0.5053161978721619,0.4521002769470215,2.28200626373291
1790942726148803300,11.43180322265625,-0.5938720107078552,0.3661213517189026,2.3125157356262207
1790942726158833200,11.441833251953126,-0.6422799825668335,0.29925552010536194,2.407954216003418
1790942726168863200,11.45186328125,-0.6875393390655518,0.3155706524848938,2.5265021324157715
1790942726178893300,11.461893310546875,-0.7244158387184143,0.3556150197982788,2.6197633743286133
1790942726188923100,11.471923095703126,-0.7477847337722778,0.3593938648700714,2.6680805683135986
1790942726198954000,11.4819541015625,-0.7504103183746338,0.35975366830825806,2.6683480739593506
1790942726208984000,11.491984130859375,-0.7516050934791565,0.3901185095310211,2.643662214279175
1790942726219014100,11.50201416015625,-0.7940835952758789,0.3933632969856262,2.6214959621429443
1790942726229044200,11.512044189453125,-0.8866450190544128,0.3355044722557068,2.6027474403381348
1790942726239074300,11.52207421875,-0.9714480638504028,0.2956441342830658,2.5870001316070557
1790942726249104400,11.5321044921875,-1.0188169479370117,0.28604966402053833,2.5556187629699707
1790942726259134200,11.54213427734375,-1.0437592267990112,0.25824838876724243,2.4963700771331787
1790942726269164300,11.552164306640625,-1.0455378293991089,0.25158509612083435,2.4376602172851562
1790942726279194000,11.562194091796876,-1.009696125984192,0.2217627614736557,2.3935437202453613
1790942726289224200,11.57222412109375,-0.931952178478241,0.14042973518371582,2.347296953201294
1790942726299254300,11.582254150390625,-0.8435072898864746,0.04292421415448189,2.2838356494903564
1790942726309284000,11.5922841796875,-0.7672971487045288,-0.0988154336810112,2.1746420860290527
1790942726319314200,11.602314208984374,-0.7001652717590332,-0.1986999660730362,2.060710906982422
1790942726329344300,11.61234423828125,-0.6371756196022034,-0.18211401998996735,1.9543246030807495
1790942726339375400,11.622375244140626,-0.5750526189804077,-0.044330596923828125,1.827735185623169
1790942726349405200,11.6324052734375,-0.5164759755134583,0.11143568158149719,1.6811195611953735
1790942726359435300,11.642435302734375,-0.44662174582481384,0.24505925178527832,1.536142349243164
1790942726369465000,11.652465087890626,-0.3648378849029541,0.349425733089447,1.3882935047149658
1790942726379495200,11.6624951171875,-0.2807682752609253,0.4244573712348938,1.2305935621261597
1790942726389525200,11.672525146484375,-0.1963675618171692,0.4442287087440491,1.0677368640899658
1790942726399555300,11.682555419921876,-0.11479654163122177,0.43239763379096985,0.9003829956054688
1790942726409585200,11.692585205078124,-0.04570232331752777,0.4116765260696411,0.7331520318984985
1790942726419615200,11.702615234375,0.010525531135499477,0.34965282678604126,0.5497617125511169
1790942726429645300,11.712645263671876,0.05738857388496399,0.22752350568771362,0.3515263795852661
1790942726439675400,11.72267529296875,0.09225893765687943,0.05426357686519623,0.11150313168764114
1790942726449705200,11.732705322265625,0.10952287912368774,-0.09655256569385529,-0.14455528557300568
1790942726459736000,11.742736083984376,0.12180645018815994,-0.1108366996049881,-0.3811100423336029
1790942726469766100,11.75276611328125,0.15068118274211884,-0.049883194267749786,-0.5813238024711609
1790942726479796200,11.762796142578125,0.17998287081718445,-0.057457756251096725,-0.7365663647651672
1790942726489826000,11.772825927734376,0.22479045391082764,-0.12621097266674042,-0.8544598817825317
1790942726499856000,11.78285595703125,0.2827613353729248,-0.22012682259082794,-0.9519882798194885
1790942726509886000,11.792885986328125,0.34288814663887024,-0.3162700831890106,-1.0267494916915894
1790942726519915800,11.802915771484376,0.37910208106040955,-0.38560548424720764,-1.0812913179397583
1790942726529945900,11.81294580078125,0.39397087693214417,-0.38992753624916077,-1.1333945989608765
1790942726539976000,11.822975830078125,0.40142586827278137,-0.3164330720901489,-1.1794997453689575
1790942726550006000,11.833006103515626,0.40875881910324097,-0.22081393003463745,-1.196536898612976
1790942726560035800,11.843035888671874,0.4074770212173462,-0.16537517309188843,-1.1788241863250732
1790942726570066000,11.85306591796875,0.39556562900543213,-0.12569434940814972,-1.1476531028747559
1790942726580096000,11.863095947265625,0.3703681230545044,-0.08704575896263123,-1.119800329208374
1790942726590126000,11.8731259765625,0.35534772276878357,-0.03733290359377861,-1.105790376663208
1790942726600157000,11.883156982421875,0.3642786145210266,0.06502702087163925,-1.1393417119979858
1790942726610186800,11.893186767578126,0.3676963746547699,0.19039195775985718,-1.2382744550704956
1790942726620216800,11.903216796875,0.3631136119365692,0.2976006865501404,-1.3817678689956665
1790942726630247000,11.913246826171875,0.3563426434993744,0.35086876153945923,-1.5362329483032227
1790942726640277000,11.923277099609376,0.35648536682128906,0.28504180908203125,-1.6844819784164429
1790942726650306800,11.933306884765624,0.3715151250362396,0.14878317713737488,-1.808724045753479
1790942726660337000,11.9433369140625,0.37551361322402954,0.0028273125644773245,-1.8807214498519897
1790942726670367000,11.953366943359375,0.3606526255607605,-0.07762172073125839,-1.8828413486480713
1790942726680397000,11.96339697265625,0.3444038927555084,-0.045624375343322754,-1.8399492502212524
1790942726690427000,11.973427001953125,0.3411012291908264,0.053565457463264465,-1.799357295036316
1790942726700457000,11.98345703125,0.36771368980407715,0.1551719605922699,-1.81392240524292
1790942726710486800,11.99348681640625,0.3883911371231079,0.16001227498054504,-1.8654597997665405
1790942726720516900,12.003516845703125,0.44087058305740356,0.03377098962664604,-1.9113386869430542
1790942726730547000,12.013546875,0.48428642749786377,-0.146788090467453,-1.9722816944122314
1790942726740578000,12.023578125,0.5265729427337646,-0.35067835450172424,-2.050143003463745
1790942726750608000,12.03360791015625,0.5639596581459045,-0.5555146932601929,-2.128044843673706
1790942726760638000,12.043637939453125,0.5100285410881042,-0.7821305394172668,-2.1445605754852295
1790942726770668000,12.05366796875,0.4374179244041443,-0.936920166015625,-2.1644344329833984
1790942726780697900,12.06369775390625,0.41256847977638245,-1.0083701610565186,-2.1964263916015625
1790942726790728000,12.07372802734375,0.4121468961238861,-1.0658596754074097,-2.2251815795898438
1790942726800757800,12.0837578125,0.41270801424980164,-1.0822410583496094,-2.2195374965667725
1790942726810787800,12.093787841796875,0.39712589979171753,-1.0515919923782349,-2.1730246543884277
1790942726820818000,12.10381787109375,0.36184966564178467,-0.9654844403266907,-2.080655574798584
1790942726830848000,12.113847900390626,0.32812556624412537,-0.8894292116165161,-1.9717872142791748
1790942726840878000,12.123878173828125,0.3067643344402313,-0.8034698367118835,-1.9236788749694824
1790942726850908000,12.133907958984375,0.29079538583755493,-0.7460545897483826,-1.911919116973877
1790942726860937700,12.143937744140626,0.3021391034126282,-0.7622279524803162,-1.9154510498046875
1790942726870968800,12.15396875,0.3319348990917206,-0.8151103854179382,-1.932848334312439
1790942726880999000,12.1639990234375,0.3482683300971985,-0.8372673392295837,-1.9180777072906494
1790942726891029000,12.174029052734374,0.34354639053344727,-0.7955955862998962,-1.8488250970840454
1790942726901058800,12.184058837890625,0.31989699602127075,-0.7636323571205139,-1.7368296384811401
1790942726911089000,12.1940888671875,0.3025687634944916,-0.7336426973342896,-1.6094857454299927
1790942726921119000,12.204118896484376,0.2934950888156891,-0.660548746585846,-1.4878778457641602
1790942726931149000,12.214149169921875,0.28294050693511963,-0.47785186767578125,-1.3822129964828491
1790942726941179100,12.22417919921875,0.2647940218448639,-0.2982197701931,-1.2945140600204468
1790942726951208700,12.234208740234376,0.24258388578891754,-0.13993369042873383,-1.2350616455078125
1790942726961238800,12.24423876953125,0.2326340526342392,0.029825782403349876,-1.2130053043365479
1790942726971268900,12.254268798828125,0.23236410319805145,0.15593720972537994,-1.1416606903076172
1790942726981299000,12.264298828125,0.2263791859149933,0.23243863880634308,-0.9892939925193787
1790942726991329000,12.2743291015625,0.20557977259159088,0.2660885751247406,-0.8307328820228577
1790942727001360000,12.28435986328125,0.1527588963508606,0.2205791473388672,-0.6722747683525085
1790942727011390000,12.294389892578126,0.0467122420668602,0.1597014218568802,-0.5038201808929443
1790942727021420000,12.304419921875,-0.07630103081464767,0.15792083740234375,-0.2933870553970337
1790942727031450000,12.3144501953125,-0.18873639404773712,0.19311277568340302,-0.09282241761684418
1790942727041480000,12.32447998046875,-0.2523345351219177,0.23816627264022827,0.07672054320573807
1790942727051509800,12.334509765625,-0.25626203417778015,0.28840354084968567,0.2285015732049942
1790942727061539800,12.344539794921875,-0.23429760336875916,0.3603736162185669,0.35939356684684753
1790942727071570000,12.35456982421875,-0.2170063704252243,0.39866816997528076,0.49833017587661743
1790942727081600000,12.36460009765625,-0.21012422442436218,0.431893527507782,0.6550958156585693
1790942727091630000,12.374630126953125,-0.21584616601467133,0.4716692268848419,0.8169629573822021
1790942727101660000,12.384659912109376,-0.22636725008487701,0.5154017806053162,0.9821112155914307
1790942727111689700,12.394689697265624,-0.2340540885925293,0.5530591607093811,1.1552671194076538
1790942727121719800,12.4047197265625,-0.24084168672561646,0.5987544655799866,1.3439366817474365
1790942727131750000,12.41475,-0.25463712215423584,0.6410055160522461,1.5161182880401611
1790942727141780700,12.42478076171875,-0.2872888147830963,0.6566739678382874,1.6873962879180908
1790942727151810800,12.434810791015625,-0.3284328877925873,0.6525018215179443,1.850121021270752
1790942727161841000,12.4448408203125,-0.3598858714103699,0.649919331073761,1.9856466054916382
1790942727171871000,12.45487109375,-0.3827279806137085,0.632178783416748,2.1005496978759766
1790942727181901000,12.464901123046875,-0.3960808217525482,0.5772004723548889,2.1964292526245117
1790942727191931100,12.47493115234375,-0.39667633175849915,0.47655221819877625,2.2632927894592285
1790942727201960700,12.484960693359374,-0.37896499037742615,0.3712446987628937,2.309216260910034
1790942727211990800,12.49499072265625,-0.3555009365081787,0.2738218903541565,2.3446450233459473
1790942727222020900,12.505020751953126,-0.35749831795692444,0.20999763906002045,2.3918612003326416
1790942727232051000,12.515051025390624,-0.45733562111854553,0.19039016962051392,2.4480135440826416
1790942727242081000,12.5250810546875,-0.5373401641845703,0.18218229711055756,2.548246383666992
1790942727252110800,12.53511083984375,-0.589295506477356,0.18582704663276672,2.650528907775879
1790942727262141000,12.545140869140624,-0.6261677742004395,0.1548219919204712,2.7101259231567383
1790942727272172000,12.555172119140625,-0.6554645895957947,0.0947883352637291,2.7194104194641113
1790942727282202000,12.5652021484375,-0.6636229157447815,0.03573833033442497,2.6871118545532227
1790942727292232000,12.57523193359375,-0.6655564904212952,0.021574053913354874,2.6235313415527344
