time,seconds_elapsed,z,y,x
1790266564865566500,0.06756640625,0,0,0
1790266564875566300,0.07756640625,0.27928638458251953,-0.07328605651855469,0.32943224906921387
1790266564885566500,0.08756640625,0.41908836364746094,-0.3383035659790039,0.7893636226654053
1790266564895566300,0.09756640625,0.27863597869873047,-0.5046873092651367,0.9837353229522705
1790266564905566500,0.10756640625,-0.1345968246459961,-0.4925379753112793,0.9115173816680908
1790266564915566300,0.11756640625,-0.19301128387451172,-0.5612938404083252,-0.31659770011901855
1790266564925566500,0.12756640625,-0.6845149993896484,-0.16372203826904297,-0.4075918197631836
1790266564935566300,0.13756640625,-1.0899782180786133,0.1416940689086914,0.10389328002929688
1790266564945566500,0.14756640625,-1.2303872108459473,0.34740161895751953,0.30582284927368164
1790266564955566300,0.15756640625,-0.7549395561218262,0.4889194965362549,0.1406717300415039
1790266564965566500,0.16756640625,-0.03604459762573242,-0.03864097595214844,0.3663487434387207
1790266564975566300,0.17756640625,0.7190117835998535,-0.7577507495880127,0.6778120994567871
1790266564985566500,0.18756640625,0.896726131439209,-1.1858952045440674,1.0334596633911133
1790266564995566300,0.19756640625,0.8683600425720215,-1.32212233543396,0.9961442947387695
1790266565005566500,0.20756640625,0.8708691596984863,-1.173958420753479,0.9542384147644043
1790266565015566300,0.21756640625,0.20076513290405273,-0.8438951969146729,0.779818058013916
1790266565025566500,0.22756640625,0.8209419250488281,-0.5525627136230469,-0.18627262115478516
1790266565035566300,0.23756640625,1.5957841873168945,-0.23073434829711914,-1.6277637481689453
1790266565045566500,0.24756640625,2.3647775650024414,-0.3794287443161011,-2.166433811187744
1790266565055566300,0.25756640625,2.312371253967285,-0.3919416666030884,-2.358555316925049
1790266565065566500,0.26756640625,0.8831319808959961,-0.12382721900939941,-1.7078542709350586
1790266565075566300,0.27756640625,-0.7934207916259766,0.19667744636535645,-0.7396016120910645
1790266565085566500,0.28756640625,-2.2304630279541016,0.3831322193145752,-0.15871524810791016
1790266565095566300,0.29756640625,-2.9592628479003906,0.47287607192993164,-0.2899928092956543
1790266565105566500,0.30756640625,-2.9380483627319336,0.5831015110015869,-0.8826713562011719
1790266565115566300,0.31756640625,-2.217616081237793,0.43263864517211914,-2.419257640838623
1790266565125566500,0.32756640625,-1.128361701965332,0.2215125560760498,-3.6656932830810547
1790266565135566300,0.33756640625,-0.038360595703125,-0.050104379653930664,-3.241072654724121
1790266565145566500,0.34756640625,0.7424368858337402,-0.32567572593688965,-2.219794750213623
1790266565155566300,0.35756640625,1.352778434753418,-0.38733625411987305,-1.7096338272094727
1790266565165566500,0.36756640625,1.6305975914001465,-0.19567346572875977,-1.4355978965759277
1790266565175566300,0.37756640625,1.8857574462890625,0.08721446990966797,-1.322648048400879
1790266565185566500,0.38756640625,1.6003661155700684,0.6377823352813721,-0.7990589141845703
1790266565195566300,0.39756640625,0.07409811019897461,0.9908888339996338,0.7508587837219238
1790266565205566500,0.40756640625,-1.2621150016784668,0.42235779762268066,3.5245938301086426
1790266565215566300,0.41756640625,-2.543029308319092,0.1810462474822998,5.4240403175354
1790266565225566500,0.42756640625,-2.8105268478393555,-0.027301788330078125,5.717348575592041
1790266565235566300,0.43756640625,-2.8586020469665527,-0.7784042358398438,5.874399662017822
1790266565245566500,0.44756640625,-2.8248138427734375,-0.6592583656311035,4.830734729766846
1790266565255566300,0.45756640625,-2.3422012329101562,-0.3665602207183838,2.6817047595977783
1790266565265566500,0.46756640625,-1.6620397567749023,-0.8130049705505371,0.44960522651672363
1790266565275566300,0.47756640625,-1.6405954360961914,-1.520284652709961,-0.548119306564331
1790266565285566500,0.48756640625,-0.08890628814697266,-1.0161738395690918,-1.9665231704711914
1790266565295566300,0.49756640625,0.7818660736083984,-0.28523755073547363,-3.0552446842193604
1790266565305566500,0.50756640625,1.9667396545410156,-0.02640557289123535,-3.500253438949585
1790266565315566300,0.51756640625,1.262704849243164,-0.499927282333374,-4.000631332397461
1790266565325566500,0.52756640625,0.07149124145507812,-1.7037889957427979,-2.4264349937438965
1790266565335566300,0.53756640625,-0.43452930450439453,-2.477846622467041,-0.6118564605712891
1790266565345566500,0.54756640625,0.61651611328125,-1.872802734375,-0.8499889373779297
1790266565355566300,0.55756640625,1.8554887771606445,-1.777986764907837,-0.20136594772338867
1790266565365566500,0.56756640625,2.9270334243774414,-2.095568895339966,0.9487553834915161
1790266565375566300,0.57756640625,3.011216163635254,-2.1451544761657715,2.3212928771972656
1790266565385566500,0.58756640625,2.66770076751709,-1.7194912433624268,3.351797342300415
1790266565395566300,0.59756640625,2.2945079803466797,-1.0761089324951172,3.3628461360931396
1790266565405566500,0.60756640625,2.852869987487793,-1.1417276859283447,3.0886001586914062
1790266565415566300,0.61756640625,2.9143381118774414,-2.437267303466797,1.6151478290557861
1790266565425566500,0.62756640625,2.5100936889648438,-3.0215368270874023,-0.27000129222869873
1790266565435566300,0.63756640625,1.2012720108032227,-3.877978801727295,-1.7328211069107056
1790266565445566500,0.64756640625,-0.589508056640625,-4.023878574371338,-3.139904260635376
1790266565455566300,0.65756640625,-3.116410255432129,-4.034780979156494,-3.477842092514038
1790266565465566500,0.66756640625,-5.45955228805542,-3.975194215774536,-4.366238117218018
1790266565475566300,0.67756640625,-6.342181205749512,-3.7632689476013184,-4.991138935089111
1790266565485566500,0.68756640625,-7.181825637817383,-4.104329586029053,-4.941142559051514
1790266565495566300,0.69756640625,-7.142071723937988,-4.4524149894714355,-4.361866474151611
1790266565505566500,0.70756640625,-6.419604301452637,-4.727764129638672,-4.211476802825928
1790266565515566300,0.71756640625,-5.967088222503662,-5.132099151611328,-4.036452293395996
1790266565525566500,0.72756640625,-5.824380397796631,-5.410544395446777,-3.815983772277832
1790266565535566300,0.73756640625,-5.984867095947266,-5.937342166900635,-3.421579360961914
1790266565545566500,0.74756640625,-6.272596836090088,-6.054563522338867,-3.2884018421173096
1790266565555566300,0.75756640625,-6.970401763916016,-6.556166648864746,-2.855182647705078
1790266565565566500,0.76756640625,-7.168367385864258,-7.225137710571289,-2.452866315841675
1790266565575566300,0.77756640625,-6.527498245239258,-7.167184829711914,-3.7826030254364014
1790266565585566500,0.78756640625,-6.063896179199219,-7.5699052810668945,-4.828494071960449
1790266565595566300,0.79756640625,-5.417577266693115,-9.201424598693848,-4.284780502319336
1790266565605566500,0.80756640625,-4.773777008056641,-10.417217254638672,-3.1548259258270264
1790266565615566300,0.81756640625,-4.022366523742676,-10.628730773925781,-1.8988943099975586
1790266565625566500,0.82756640625,-2.693554162979126,-10.351451873779297,0.21052980422973633
1790266565635566300,0.83756640625,-1.2822773456573486,-9.96706485748291,2.9693737030029297
1790266565645566500,0.84756640625,-0.3573265075683594,-9.459492683410645,5.332188129425049
1790266565655566300,0.85756640625,0.038568735122680664,-8.820844650268555,7.103442668914795
1790266565665566500,0.86756640625,0.3177143931388855,-8.063698768615723,8.056888580322266
1790266565675566300,0.87756640625,1.0657507181167603,-7.591729640960693,9.268640518188477
1790266565685566500,0.88756640625,1.7994701862335205,-6.765882968902588,10.518160820007324
1790266565695566300,0.89756640625,1.595851182937622,-5.732328414916992,11.045377731323242
1790266565705566500,0.90756640625,0.6779190301895142,-5.183489799499512,12.499552726745605
1790266565715566300,0.91756640625,-0.13575172424316406,-4.193876266479492,14.573246002197266
1790266565725566500,0.92756640625,-1.228557825088501,-2.612450122833252,16.099050521850586
1790266565735566300,0.93756640625,-2.5164237022399902,-0.9942183494567871,18.367977142333984
1790266565745566500,0.94756640625,-4.010286808013916,0.6278519630432129,20.512001037597656
1790266565755566300,0.95756640625,-5.95249080657959,2.007256507873535,21.198955535888672
1790266565765566500,0.96756640625,-9.714866638183594,3.048870086669922,20.491840362548828
1790266565775566300,0.97756640625,-17.665719985961914,4.2866621017456055,18.904237747192383
1790266565785566500,0.98756640625,-19.27312660217285,5.009037971496582,15.441951751708984
1790266565795566300,0.99756640625,-14.263151168823242,5.035931587219238,12.672830581665039
1790266565805566500,1.00756640625,-8.121472358703613,5.1593122482299805,10.73721981048584
1790266565815566300,1.01756640625,-7.840216636657715,5.774116039276123,10.337808609008789
1790266565825566500,1.02756640625,-9.889304161071777,5.819605827331543,9.516351699829102
1790266565835566300,1.03756640625,-7.279438018798828,4.752660751342773,8.551366806030273
1790266565845566500,1.04756640625,-3.2888011932373047,3.9919464588165283,6.881839752197266
1790266565855566300,1.05756640625,4.365608215332031,4.516756057739258,4.019858360290527
1790266565865566500,1.06756640625,4.773099899291992,2.85117244720459,2.930640697479248
1790266565875566300,1.07756640625,3.0728087425231934,1.2461647987365723,1.7565999031066895
1790266565885566500,1.08756640625,2.341853141784668,0.5313973426818848,1.4820904731750488
1790266565895566300,1.09756640625,1.281636357307434,0.9317803382873535,1.3478431701660156
1790266565905566500,1.10756640625,-3.492234230041504,1.9044995307922363,-0.5902137756347656
1790266565915566300,1.11756640625,-9.309932708740234,3.156245708465576,-1.645979881286621
1790266565925566500,1.12756640625,-10.043436050415039,3.1320090293884277,-1.2867364883422852
1790266565935566300,1.13756640625,-3.970458984375,2.6786389350891113,-1.2009539604187012
1790266565945566500,1.14756640625,1.1322894096374512,4.24408483505249,-0.6136474609375
1790266565955566300,1.15756640625,1.62424635887146,6.280716896057129,3.3374452590942383
1790266565965566500,1.16756640625,0.2627086639404297,7.329378128051758,7.200199127197266
1790266565975566300,1.17756640625,-0.3372921943664551,5.6006059646606445,7.9706220626831055
1790266565985566500,1.18756640625,0.04677295684814453,2.4081168174743652,2.0555686950683594
1790266565995566300,1.19756640625,2.9264237880706787,2.435312509536743,-8.217744827270508
1790266566005566500,1.20756640625,3.054286003112793,2.6729848384857178,-15.069839477539062
1790266566015566300,1.21756640625,-0.015345573425292969,2.011098623275757,-13.156452178955078
1790266566025566500,1.22756640625,-3.421389579772949,2.753783941268921,-7.584568977355957
1790266566035566300,1.23756640625,-4.411996364593506,3.117781639099121,-3.0280189514160156
1790266566045566500,1.24756640625,-2.6153616905212402,1.68978750705719,-2.520318031311035
1790266566055566300,1.25756640625,-1.2148041725158691,-0.05825519561767578,-3.525486946105957
1790266566065566500,1.26756640625,-0.9512519836425781,-0.08641880750656128,-4.602323532104492
1790266566075566300,1.27756640625,1.0008349418640137,-1.2532812356948853,-6.255171298980713
1790266566085566500,1.28756640625,1.2053632736206055,-3.6947388648986816,-4.691753387451172
1790266566095566300,1.29756640625,0.48416757583618164,-4.060956001281738,-0.9870877265930176
1790266566105566500,1.30756640625,-0.17140960693359375,-3.252197027206421,0.9145464897155762
1790266566115566300,1.31756640625,-0.05043220520019531,-2.51639723777771,0.5184144973754883
1790266566125566500,1.32756640625,0.3275432586669922,-1.2247493267059326,-2.706819534301758
1790266566135566300,1.33756640625,0.21776437759399414,-1.597330093383789,-6.055170059204102
1790266566145566500,1.34756640625,1.1363930702209473,-3.0601248741149902,-4.995304107666016
1790266566155566300,1.35756640625,0.03723287582397461,-3.4297800064086914,-3.851816177368164
1790266566165566500,1.36756640625,-1.5659685134887695,-2.3527708053588867,-1.9095754623413086
1790266566175566300,1.37756640625,-1.1708240509033203,-0.378664493560791,-2.5959458351135254
1790266566185566500,1.38756640625,-1.4993438720703125,-1.6836519241333008,1.6587848663330078
1790266566195566300,1.39756640625,-1.928558349609375,-3.0765321254730225,4.321537971496582
1790266566205566500,1.40756640625,-0.9315586090087891,-2.2570576667785645,6.21311092376709
1790266566215566300,1.41756640625,-0.6122617721557617,-1.8749525547027588,8.971097946166992
1790266566225566500,1.42756640625,-0.8112821578979492,-1.6935373544692993,10.64273452758789
1790266566235566300,1.43756640625,-0.7840394973754883,-1.6034995317459106,8.421977996826172
1790266566245566500,1.44756640625,0.4257998466491699,-0.8241574764251709,5.087464332580566
1790266566255566300,1.45756640625,1.7308316230773926,-0.5438075661659241,2.130228042602539
1790266566265566500,1.46756640625,1.6660442352294922,-1.1933809518814087,-0.23610401153564453
1790266566275566300,1.47756640625,1.4958491325378418,-1.9972968101501465,-1.6131086349487305
1790266566285566500,1.48756640625,1.713632583618164,-2.4255733489990234,-1.5692071914672852
1790266566295566300,1.49756640625,1.6014633178710938,-2.462338447570801,0.4261207580566406
1790266566305566500,1.50756640625,-0.5055170059204102,-1.2337594032287598,2.556156635284424
1790266566315566300,1.51756640625,-2.469407081604004,-0.308748722076416,2.98368501663208
1790266566325566500,1.52756640625,-2.1651077270507812,-0.6446585655212402,2.3524374961853027
1790266566335566300,1.53756640625,0.26181602478027344,-1.2614247798919678,0.8756985664367676
1790266566345566500,1.54756640625,2.295055389404297,-1.579576015472412,-0.9317874908447266
1790266566355566300,1.55756640625,2.926717758178711,-1.6917420625686646,-2.228262424468994
1790266566365566500,1.56756640625,2.438314437866211,-1.645277500152588,-1.808722972869873
1790266566375566300,1.57756640625,1.0560827255249023,-1.5716915130615234,-0.9236369132995605
1790266566385566500,1.58756640625,0.01512908935546875,-1.783174753189087,-0.9781923294067383
1790266566395566300,1.59756640625,0.7284765243530273,-1.5332204103469849,-1.3649587631225586
1790266566405566500,1.60756640625,1.8319592475891113,-1.1695482730865479,-2.122025728225708
1790266566415566300,1.61756640625,2.345874786376953,-0.4841395616531372,-3.280229091644287
1790266566425566500,1.62756640625,1.9106292724609375,-0.3172023296356201,-4.173598766326904
1790266566435566300,1.63756640625,1.1616477966308594,-0.6348888874053955,-3.2086150646209717
1790266566445566500,1.64756640625,-0.5761489868164062,-0.7490318417549133,-3.111623764038086
1790266566455566300,1.65756640625,-1.6305608749389648,-0.5885707139968872,-3.5570812225341797
1790266566465566500,1.66756640625,-0.8027849197387695,-0.34025323390960693,-3.392704486846924
1790266566475566300,1.67756640625,0.2740745544433594,-0.3412783145904541,-2.113004207611084
1790266566485566500,1.68756640625,0.17434024810791016,-0.6612793207168579,-1.545780897140503
1790266566495566300,1.69756640625,-0.08080768585205078,-0.9104256629943848,-1.857743263244629
1790266566505566500,1.70756640625,1.6026887893676758,-0.8294717073440552,-2.7609167098999023
1790266566515566300,1.71756640625,2.764443874359131,-0.5023399591445923,-3.5164663791656494
1790266566525566500,1.72756640625,2.0447845458984375,-0.0029296875,-2.8152971267700195
1790266566535566300,1.73756640625,-0.9897136688232422,0.10071063041687012,0.4965658187866211
1790266566545566500,1.74756640625,-1.7915029525756836,0.200120210647583,2.4884586334228516
1790266566555566300,1.75756640625,0.7186746597290039,-0.1394948959350586,1.315955638885498
1790266566565566500,1.76756640625,1.992537498474121,-1.1729556322097778,0.05685567855834961
1790266566575566300,1.77756640625,0.7627983093261719,-1.4912084341049194,0.22762823104858398
1790266566585566500,1.78756640625,0.0925912857055664,-1.4546722173690796,-0.5502347946166992
1790266566595566300,1.79756640625,0.6137475967407227,-1.3414974212646484,-1.4404172897338867
1790266566605566500,1.80756640625,0.9784431457519531,-1.737724781036377,-1.3646910190582275
1790266566615566300,1.81756640625,1.0667152404785156,-1.6910505294799805,-1.587900161743164
1790266566625566500,1.82756640625,0.6237936019897461,-1.383522391319275,-2.02374005317688
1790266566635566300,1.83756640625,0.41913318634033203,-1.229520559310913,-2.2876791954040527
1790266566645566500,1.84756640625,-0.03947925567626953,-1.0431129932403564,-2.421456813812256
1790266566655566300,1.85756640625,-0.10628604888916016,-0.5566189885139465,-2.811046838760376
1790266566665566500,1.86756640625,-0.27214717864990234,-0.2640816569328308,-2.4181652069091797
1790266566675566300,1.87756640625,-0.1984844207763672,-0.3808712959289551,-1.8597345352172852
1790266566685566500,1.88756640625,0.30222320556640625,-0.579774022102356,-1.6687595844268799
1790266566695566300,1.89756640625,0.701909065246582,-0.7324395775794983,-1.565732717514038
1790266566705566500,1.90756640625,1.313460350036621,-0.9456849098205566,-1.880049228668213
1790266566715566300,1.91756640625,1.8291778564453125,-1.074519395828247,-2.254077911376953
1790266566725566500,1.92756640625,1.1801462173461914,-1.0694522857666016,-1.6229591369628906
1790266566735566300,1.93756640625,-0.5089998245239258,-0.4596750736236572,0.3181624412536621
1790266566745566500,1.94756640625,-1.3386154174804688,0.44437336921691895,1.6926660537719727
1790266566755566300,1.95756640625,-1.6908273696899414,0.6781876087188721,2.9061107635498047
1790266566765566500,1.96756640625,-0.9755840301513672,0.811129093170166,2.4458751678466797
1790266566775566300,1.97756640625,-1.1409950256347656,1.1398274898529053,3.595954418182373
1790266566785566500,1.98756640625,-0.872706413269043,1.4115126132965088,3.888012409210205
1790266566795566300,1.99756640625,-1.0086126327514648,1.4866544008255005,2.622560977935791
1790266566805566500,2.00756640625,-1.691213607788086,1.5945768356323242,1.9709563255310059
1790266566815566300,2.01756640625,-1.6488018035888672,1.7127760648727417,0.9145159721374512
1790266566825566500,2.02756640625,-1.5265302658081055,1.548971176147461,0.46043825149536133
1790266566835566300,2.03756640625,-0.8767657279968262,1.0954911708831787,0.5179619789123535
1790266566845566500,2.04756640625,-0.0890054702758789,0.5941915512084961,0.6594533920288086
1790266566855566300,2.05756640625,1.102653980255127,0.2557699680328369,0.6563601493835449
1790266566865566500,2.06756640625,2.5509743690490723,0.1838843822479248,0.41649913787841797
1790266566875566300,2.07756640625,3.513124942779541,1.0754334926605225,0.6294567584991455
1790266566885566500,2.08756640625,3.971069812774658,2.2849743366241455,1.317908525466919
1790266566895566300,2.09756640625,4.174675941467285,2.5679073333740234,1.712007761001587
1790266566905566500,2.10756640625,3.869847297668457,1.6409821510314941,1.174778699874878
1790266566915566300,2.11756640625,3.0232200622558594,0.5840935707092285,0.21248579025268555
1790266566925566500,2.12756640625,0.2838020324707031,-0.1690688133239746,-0.3332960605621338
1790266566935566300,2.13756640625,-5.368974685668945,-1.2701935768127441,-2.839708089828491
1790266566945566500,2.14756640625,-8.480188369750977,-1.593867301940918,-3.7044904232025146
1790266566955566300,2.15756640625,-4.930193901062012,-1.8107857704162598,-2.7553467750549316
1790266566965566500,2.16756640625,-0.23885631561279297,-1.793534278869629,-1.3799853324890137
1790266566975566300,2.17756640625,2.450510025024414,-2.4515490531921387,-1.2154979705810547
1790266566985566500,2.18756640625,4.1845808029174805,-2.8888187408447266,-1.6472458839416504
1790266566995566300,2.19756640625,2.72274112701416,-3.1820435523986816,-2.2120401859283447
1790266567005566500,2.20756640625,-2.8689589500427246,-3.61093807220459,-1.9169065952301025
1790266567015566300,2.21756640625,-6.101916313171387,-3.772643566131592,-0.5845527648925781
1790266567025566500,2.22756640625,-4.0458831787109375,-2.867814540863037,1.5501537322998047
1790266567035566300,2.23756640625,-1.094653606414795,-1.2902302742004395,3.0743284225463867
1790266567045566500,2.24756640625,0.24576091766357422,-0.037822723388671875,3.721163272857666
1790266567055566300,2.25756640625,0.22158336639404297,0.8297557830810547,3.713433265686035
1790266567065566500,2.26756640625,0.19808578491210938,1.835968255996704,3.448042869567871
1790266567075566300,2.27756640625,-0.2629070281982422,2.8464884757995605,3.0528316497802734
1790266567085566500,2.28756640625,-0.2777061462402344,3.700296401977539,2.4028749465942383
1790266567095566300,2.29756640625,-1.143104076385498,3.4454023838043213,1.5719060897827148
1790266567105566500,2.30756640625,-2.3176474571228027,2.9960665702819824,1.3442096710205078
1790266567115566300,2.31756640625,-1.8529348373413086,1.9993433952331543,1.1272282600402832
1790266567125566500,2.32756640625,-0.9596285820007324,0.7064666748046875,-0.20201969146728516
1790266567135566300,2.33756640625,-0.1871628761291504,0.33611297607421875,-1.695673942565918
1790266567145566500,2.34756640625,0.17236852645874023,-0.25753259658813477,-2.3915810585021973
1790266567155566300,2.35756640625,0.2699851989746094,-0.8092498779296875,-2.575256586074829
1790266567165566500,2.36756640625,0.559445858001709,-1.3487200736999512,-1.8756842613220215
1790266567175566300,2.37756640625,0.8296937942504883,-1.7061161994934082,-1.8471124172210693
1790266567185566500,2.38756640625,-1.0074763298034668,-1.9601411819458008,-1.2963833808898926
1790266567195566300,2.39756640625,-0.8621854782104492,-1.8659944534301758,-0.7164316177368164
1790266567205566500,2.40756640625,0.5512657165527344,-1.4552521705627441,-0.945009708404541
1790266567215566300,2.41756640625,1.9100089073181152,-0.5229058265686035,-1.4529941082000732
1790266567225566500,2.42756640625,1.9707872867584229,-0.3179593086242676,-0.6240706443786621
1790266567235566300,2.43756640625,0.6104521751403809,-1.123936653137207,1.0082292556762695
1790266567245566500,2.44756640625,-1.6878538131713867,-1.2671022415161133,0.8750672340393066
1790266567255566300,2.45756640625,-3.3802475929260254,1.2103819847106934,-0.7636823654174805
1790266567265566500,2.46756640625,-2.981431007385254,4.537768363952637,-2.4966695308685303
1790266567275566300,2.47756640625,0.2216496467590332,5.310784816741943,-2.2166690826416016
1790266567285566500,2.48756640625,1.7203664779663086,5.634451866149902,-1.803192138671875
1790266567295566300,2.49756640625,1.1147279739379883,6.065596103668213,-1.2334647178649902
1790266567305566500,2.50756640625,1.0980300903320312,5.106345176696777,-0.09877967834472656
1790266567315566300,2.51756640625,1.7383532524108887,4.274138927459717,0.3083820343017578
1790266567325566500,2.52756640625,2.102681875228882,3.3252391815185547,0.8908805847167969
1790266567335566300,2.53756640625,2.4412622451782227,2.7157273292541504,1.2073893547058105
1790266567345566500,2.54756640625,2.3013389110565186,3.760509490966797,-0.6957206726074219
1790266567355566300,2.55756640625,2.155122756958008,4.766966819763184,-2.9620308876037598
1790266567365566500,2.56756640625,2.537644147872925,5.502152919769287,-3.6625118255615234
1790266567375566300,2.57756640625,3.5002822875976562,5.720365524291992,-3.5421500205993652
1790266567385566500,2.58756640625,4.354762554168701,5.516846656799316,-3.2955434322357178
1790266567395566300,2.59756640625,5.200071811676025,3.665440559387207,-2.796318531036377
1790266567405566500,2.60756640625,5.045554161071777,-0.468477725982666,-1.684415340423584
1790266567415566300,2.61756640625,2.1761350631713867,-4.278677463531494,-0.365358829498291
1790266567425566500,2.62756640625,-0.9899187088012695,-6.631255149841309,-0.16976642608642578
1790266567435566300,2.63756640625,-2.2558138370513916,-5.85003662109375,-3.568275213241577
1790266567445566500,2.64756640625,-0.0545344352722168,-7.046442031860352,-4.126245975494385
1790266567455566300,2.65756640625,0.34926939010620117,-8.61018180847168,-2.6673717498779297
1790266567465566500,2.66756640625,0.8022644519805908,-9.316633224487305,-0.4521024227142334
1790266567475566300,2.67756640625,1.3862049579620361,-9.81035041809082,2.0620388984680176
1790266567485566500,2.68756640625,1.2612175941467285,-10.019987106323242,3.812067747116089
1790266567495566300,2.69756640625,0.23199093341827393,-9.501891136169434,4.039277076721191
1790266567505566500,2.70756640625,-1.7913033962249756,-8.090749740600586,3.9295389652252197
1790266567515566300,2.71756640625,-2.9416165351867676,-6.212643623352051,3.5532920360565186
1790266567525566500,2.72756640625,-2.5280961990356445,-4.872287750244141,2.07108211517334
1790266567535566300,2.73756640625,-1.6590911149978638,-4.695649147033691,-0.05348515510559082
1790266567545566500,2.74756640625,0.08657050132751465,-2.916449546813965,-0.9642033576965332
1790266567555566300,2.75756640625,-1.5955936908721924,-1.7397642135620117,-2.5344042778015137
1790266567565566500,2.76756640625,-2.549069881439209,-1.4822492599487305,-1.7888660430908203
1790266567575566300,2.77756640625,-1.1170411109924316,0.049628257751464844,-1.1044636964797974
1790266567585566500,2.78756640625,1.5651915073394775,1.844059944152832,-0.6791281700134277
1790266567595566300,2.79756640625,2.4643077850341797,2.935969352722168,0.04870486259460449
1790266567605566500,2.80756640625,0.6799600124359131,2.5134143829345703,0.7684237957000732
1790266567615566300,2.81756640625,-0.8631420135498047,0.9388198852539062,0.37350916862487793
1790266567625566500,2.82756640625,-0.5633127689361572,0.0035619735717773438,-0.8775498867034912
1790266567635566300,2.83756640625,0.36855459213256836,0.03865528106689453,-1.41668701171875
1790266567645566500,2.84756640625,0.51967453956604,0.13829612731933594,-1.22174072265625
1790266567655566300,2.85756640625,0.44777560234069824,-0.16945266723632812,-0.9170104265213013
1790266567665566500,2.86756640625,0.5075006484985352,-0.33457469940185547,-0.7902758121490479
1790266567675566300,2.87756640625,-0.9447581768035889,-0.7762432098388672,-0.9294866323471069
1790266567685566500,2.88756640625,-0.4459707736968994,-0.2741975784301758,-1.2612202167510986
1790266567695566300,2.89756640625,-0.48459792137145996,-0.5980024337768555,-1.6381099224090576
1790266567705566500,2.90756640625,-0.15697646141052246,-0.7118110656738281,-1.7400791645050049
1790266567715566300,2.91756640625,-0.16822528839111328,-0.6907539367675781,-1.2501585483551025
1790266567725566500,2.92756640625,0.9323474168777466,-0.15688705444335938,-0.25212955474853516
1790266567735566300,2.93756640625,2.2251675128936768,0.16739368438720703,0.320953369140625
1790266567745566500,2.94756640625,2.3150997161865234,0.3962669372558594,-0.07607030868530273
1790266567755566300,2.95756640625,2.0947914123535156,5.490265846252441,-1.275681495666504
1790266567765566500,2.96756640625,3.074270248413086,11.071524620056152,-0.38649868965148926
1790266567775566300,2.97756640625,4.873955726623535,4.090600967407227,5.677853584289551
1790266567785566500,2.98756640625,3.2236781120300293,2.261115550994873,4.5779314041137695
1790266567795566300,2.99756640625,0.7426655292510986,1.971287727355957,2.0483286380767822
1790266567805566500,3.00756640625,-3.969346761703491,-1.5976591110229492,0.9990355968475342
1790266567815566300,3.01756640625,-2.2302188873291016,-2.63238525390625,-0.17602872848510742
1790266567825566500,3.02756640625,-1.1540786027908325,-3.906393051147461,-1.439614176750183
1790266567835566300,3.03756640625,-3.357496500015259,-4.586359977722168,-2.894325017929077
1790266567845566500,3.04756640625,-2.9937314987182617,-4.694658279418945,-2.4082887172698975
1790266567855566300,3.05756640625,-1.343776822090149,-4.06960391998291,-1.4787355661392212
1790266567865566500,3.06756640625,1.4525727033615112,-3.46189022064209,-0.8911547660827637
1790266567875566300,3.07756640625,-3.9803550243377686,-5.313418388366699,-1.0127160549163818
1790266567885566500,3.08756640625,-3.4450302124023438,-3.536139488220215,-0.5297389030456543
1790266567895566300,3.09756640625,-1.5694842338562012,-3.1416797637939453,-0.5258138179779053
1790266567905566500,3.10756640625,0.04512777924537659,-1.6648740768432617,-0.28653740882873535
1790266567915566300,3.11756640625,2.3807826042175293,1.395700454711914,0.396378755569458
1790266567925566500,3.12756640625,3.6304092407226562,2.7006607055664062,0.7831201553344727
1790266567935566300,3.13756640625,2.8822293281555176,2.5434436798095703,0.49951624870300293
1790266567945566500,3.14756640625,1.6129601001739502,3.2934823036193848,0.36248302459716797
1790266567955566300,3.15756640625,1.323380947113037,2.60880184173584,0.2695503234863281
1790266567965566500,3.16756640625,1.5013267993927002,2.2926759719848633,0.09990096092224121
1790266567975566300,3.17756640625,1.7275183200836182,1.5173473358154297,-0.21924614906311035
1790266567985566500,3.18756640625,1.6672403812408447,1.1534318923950195,-0.2994720935821533
1790266567995566300,3.19756640625,1.368740439414978,1.0957374572753906,-0.4971342086791992
1790266568005566500,3.20756640625,0.6816913485527039,1.2937870025634766,-0.6112170219421387
1790266568015566300,3.21756640625,-0.03210419416427612,1.9374275207519531,-1.035521149635315
1790266568025566500,3.22756640625,-0.6938714385032654,1.4808826446533203,-1.1975414752960205
1790266568035566300,3.23756640625,-1.2679080963134766,1.3696718215942383,-1.4470324516296387
1790266568045566500,3.24756640625,-1.2962838411331177,1.4264335632324219,-1.7507579326629639
1790266568055566300,3.25756640625,0.18889129161834717,1.8593597412109375,-1.488699197769165
1790266568065566500,3.26756640625,1.80070161819458,1.5835833549499512,-1.6797354221343994
1790266568075566300,3.27756640625,2.823455572128296,0.19426822662353516,-2.012355327606201
1790266568085566500,3.28756640625,2.480023145675659,-0.6944265365600586,-1.0204557180404663
1790266568095566300,3.29756640625,-0.03989046812057495,-1.6198863983154297,-0.18680334091186523
1790266568105566500,3.30756640625,-1.5989990234375,-1.9632854461669922,1.4279487133026123
1790266568115566300,3.31756640625,-2.554656744003296,-0.9493389129638672,2.488992214202881
1790266568125566500,3.32756640625,-1.4985218048095703,-0.06704521179199219,2.260596513748169
1790266568135566300,3.33756640625,2.3883984088897705,1.1093721389770508,2.856393814086914
1790266568145566500,3.34756640625,2.3753271102905273,0.5253839492797852,2.324427366256714
1790266568155566300,3.35756640625,2.024601697921753,-0.3853139877319336,0.401796817779541
1790266568165566500,3.36756640625,1.2364336252212524,-1.1875724792480469,0.4808175563812256
1790266568175566300,3.37756640625,0.4610757827758789,-4.491263389587402,-0.973996639251709
1790266568185566500,3.38756640625,1.0540732145309448,-5.77668571472168,-0.7744176387786865
1790266568195566300,3.39756640625,-0.6636614203453064,-6.237829208374023,-0.5199499130249023
1790266568205566500,3.40756640625,-2.5249412059783936,-4.491707801818848,-2.408769130706787
1790266568215566300,3.41756640625,-4.288855075836182,0.0813894271850586,-2.4952239990234375
1790266568225566500,3.42756640625,-5.541902542114258,2.0216751098632812,-2.8876521587371826
1790266568235566300,3.43756640625,-3.0719263553619385,2.381131172180176,-2.020345449447632
1790266568245566500,3.44756640625,-0.7154638767242432,2.500417709350586,-0.3861203193664551
1790266568255566300,3.45756640625,1.3644123077392578,2.082986354827881,0.5708625316619873
1790266568265566500,3.46756640625,2.891368865966797,1.506357192993164,0.8790674209594727
1790266568275566300,3.47756640625,3.173795700073242,0.6245260238647461,0.9208848476409912
1790266568285566500,3.48756640625,2.520399332046509,0.05037498474121094,0.7286942005157471
1790266568295566300,3.49756640625,1.6285083293914795,-0.4936704635620117,-0.2866804599761963
1790266568305566500,3.50756640625,0.7837123274803162,-0.6927223205566406,-1.7186148166656494
1790266568315566300,3.51756640625,1.0118041038513184,-0.5854167938232422,-2.505307197570801
1790266568325566500,3.52756640625,1.7976340055465698,-0.38228511810302734,-2.8083317279815674
1790266568335566300,3.53756640625,2.2419514656066895,-0.33010292053222656,-2.769680976867676
1790266568345566500,3.54756640625,1.5093762874603271,-0.6486339569091797,-2.323324680328369
1790266568355566300,3.55756640625,0.1198951005935669,-0.781402587890625,-1.7919440269470215
1790266568365566500,3.56756640625,-1.6005010604858398,0.32973289489746094,-0.8240029811859131
1790266568375566300,3.57756640625,-1.9597256183624268,2.1357216835021973,0.9431400299072266
1790266568385566500,3.58756640625,-0.5497119426727295,2.265162944793701,2.4393997192382812
1790266568395566300,3.59756640625,1.5741558074951172,0.6737146377563477,2.792323350906372
1790266568405566500,3.60756640625,2.6760787963867188,0.013148307800292969,1.637169599533081
1790266568415566300,3.61756640625,2.053502082824707,-0.10372066497802734,-0.3047752380371094
1790266568425566500,3.62756640625,1.3002454042434692,-0.9307823181152344,-1.6637964248657227
1790266568435566300,3.63756640625,0.7691571116447449,-2.179180145263672,-2.9029295444488525
1790266568445566500,3.64756640625,-0.8963428735733032,-2.4913558959960938,-2.955428123474121
1790266568455566300,3.65756640625,-2.389531373977661,-1.4775924682617188,-2.2818455696105957
1790266568465566500,3.66756640625,-1.7285213470458984,0.2912111282348633,-0.8962619304656982
1790266568475566300,3.67756640625,-0.8706047534942627,1.2815799713134766,-0.00560450553894043
1790266568485566500,3.68756640625,0.8813508749008179,-0.5027236938476562,-0.765202522277832
1790266568495566300,3.69756640625,-0.8743202090263367,-3.451663017272949,-3.2515838146209717
1790266568505566500,3.70756640625,-1.502286434173584,-2.6352577209472656,-2.947035551071167
1790266568515566300,3.71756640625,-1.6346402168273926,-0.38693809509277344,-0.7584211826324463
1790266568525566500,3.72756640625,-2.274207830429077,0.42279052734375,-0.05173778533935547
1790266568535566300,3.73756640625,-1.6499024629592896,0.08820629119873047,-0.2958488464355469
1790266568545566500,3.74756640625,-0.862062394618988,0.17769432067871094,0.1848433017730713
1790266568555566300,3.75756640625,-0.6352372765541077,0.623316764831543,1.7484779357910156
1790266568565566500,3.76756640625,-0.5967070460319519,0.8685503005981445,3.5210866928100586
1790266568575566300,3.77756640625,-1.5244967937469482,0.8187198638916016,3.899371862411499
1790266568585566500,3.78756640625,-2.424001693725586,0.08393287658691406,3.251283884048462
1790266568595566300,3.79756640625,-2.59932279586792,-1.082228660583496,2.1177752017974854
1790266568605566500,3.80756640625,-1.7905560731887817,-1.3037195205688477,1.5010967254638672
1790266568615566300,3.81756640625,-1.3661987781524658,-1.1586017608642578,1.4026458263397217
1790266568625566500,3.82756640625,-1.324177861213684,-0.7400951385498047,1.1309936046600342
1790266568635566300,3.83756640625,-1.1575393676757812,-0.09170341491699219,1.1033046245574951
1790266568645566500,3.84756640625,-0.8489327430725098,0.3538627624511719,1.116199016571045
1790266568655566300,3.85756640625,-0.544723391532898,0.7171611785888672,1.0384528636932373
1790266568665566500,3.86756640625,-0.4008150100708008,0.41076087951660156,0.9491276741027832
1790266568675566300,3.87756640625,-0.4650074243545532,0.1468372344970703,0.8189308643341064
1790266568685566500,3.88756640625,-0.9538723230361938,0.009932518005371094,1.2571132183074951
1790266568695566300,3.89756640625,-1.572751522064209,0.09947967529296875,1.9560301303863525
1790266568705566500,3.90756640625,-1.0825210809707642,0.8564682006835938,2.4188365936279297
1790266568715566300,3.91756640625,-1.1867504119873047,0.7594671249389648,2.7405896186828613
1790266568725566500,3.92756640625,-1.4049971103668213,-0.5337505340576172,2.6033201217651367
1790266568735566300,3.93756640625,-1.0440483093261719,-1.7486963272094727,2.2676219940185547
1790266568745566500,3.94756640625,-0.6019878387451172,-3.044431209564209,-0.055945396423339844
1790266568755566300,3.95756640625,-5.993260383605957,-3.3624744415283203,-1.991274356842041
1790266568765566500,3.96756640625,-4.463872909545898,-2.367279052734375,-3.4898781776428223
1790266568775566300,3.97756640625,1.5242269039154053,-2.8975014686584473,-4.534819602966309
1790266568785566500,3.98756640625,7.701317310333252,-2.063493251800537,-4.473106861114502
1790266568795566300,3.99756640625,11.15484619140625,-0.8259992599487305,-5.124068737030029
1790266568805566500,4.00756640625,11.978073120117188,0.8315095901489258,-6.7560319900512695
1790266568815566300,4.01756640625,8.241134643554688,2.093017578125,-6.332808494567871
1790266568825566500,4.02756640625,4.227221488952637,1.9272432327270508,-5.018301963806152
1790266568835566300,4.03756640625,2.156360626220703,0.9096827507019043,-3.8535313606262207
1790266568845566500,4.04756640625,1.452132225036621,-0.6762285232543945,-3.0446696281433105
1790266568855566300,4.05756640625,-0.6678051948547363,-1.8907413482666016,-1.203505277633667
1790266568865566500,4.06756640625,-1.027566909790039,-3.1948494911193848,-0.04290485382080078
1790266568875566300,4.07756640625,-0.8340034484863281,-4.279921054840088,1.198652744293213
1790266568885566500,4.08756640625,-1.2864303588867188,-4.8139238357543945,2.3217368125915527
1790266568895566300,4.09756640625,-2.117257595062256,-4.679318904876709,3.1687474250793457
1790266568905566500,4.10756640625,-3.4768242835998535,-3.5693044662475586,3.658590793609619
1790266568915566300,4.11756640625,-4.511138439178467,-2.118654251098633,3.874680995941162
1790266568925566500,4.12756640625,-4.3448638916015625,-0.8669161796569824,4.856235980987549
1790266568935566300,4.13756640625,-3.238901138305664,0.025383949279785156,5.369806289672852
1790266568945566500,4.14756640625,-1.7010135650634766,0.7756123542785645,4.623486518859863
1790266568955566300,4.15756640625,-0.6165366172790527,1.3922648429870605,3.0236072540283203
1790266568965566500,4.16756640625,-0.3813962936401367,1.7241644859313965,1.3227977752685547
1790266568975566300,4.17756640625,-0.34648990631103516,1.604362964630127,-0.17174196243286133
1790266568985566500,4.18756640625,0.16485929489135742,1.204291820526123,-1.357391595840454
1790266568995566300,4.19756640625,1.033559799194336,0.786567211151123,-2.3880224227905273
1790266569005566500,4.20756640625,1.9618182182312012,0.5780072212219238,-2.8478965759277344
1790266569015566300,4.21756640625,2.472489356994629,0.5645747184753418,-2.837862014770508
1790266569025566500,4.22756640625,2.3285398483276367,0.5562834739685059,-2.6672306060791016
1790266569035566300,4.23756640625,1.4794583320617676,0.5107522010803223,-2.4234778881073
1790266569045566500,4.24756640625,0.6006474494934082,0.40852880477905273,-1.9162311553955078
1790266569055566300,4.25756640625,0.11107110977172852,0.2933015823364258,-1.2521047592163086
1790266569065566500,4.26756640625,-0.15630435943603516,0.19337940216064453,-0.3959178924560547
1790266569075566300,4.27756640625,-0.27070045471191406,0.12834548950195312,0.5271649360656738
1790266569085566500,4.28756640625,-0.4371366500854492,0.06197023391723633,1.35845947265625
1790266569095566300,4.29756640625,-0.5703768730163574,0.1069021224975586,2.1481122970581055
1790266569105566500,4.30756640625,-0.6092424392700195,0.31751012802124023,2.7798190116882324
1790266569115566300,4.31756640625,-1.30680513381958,0.6229386329650879,3.444810390472412
1790266569125566500,4.32756640625,-2.1137824058532715,0.7087993621826172,4.036716461181641
1790266569135566300,4.33756640625,-2.4420905113220215,0.45517826080322266,4.294376850128174
1790266569145566500,4.34756640625,-2.017789363861084,-0.07917499542236328,3.912226676940918
1790266569155566300,4.35756640625,-1.113691806793213,-0.6992568969726562,3.176337242126465
1790266569165566500,4.36756640625,-0.43126440048217773,-1.0719475746154785,2.1377391815185547
1790266569175566300,4.37756640625,-0.06855392456054688,-0.973663330078125,0.96563720703125
1790266569185566500,4.38756640625,0.8967437744140625,-0.9896211624145508,0.2622957229614258
1790266569195566300,4.39756640625,1.436788558959961,0.041327476501464844,-0.4933805465698242
1790266569205566500,4.40756640625,1.383711338043213,1.7036747932434082,-0.8641185760498047
1790266569215566300,4.41756640625,0.34419679641723633,1.5699710845947266,-0.3143186569213867
1790266569225566500,4.42756640625,-0.0018839836120605469,1.4274373054504395,-0.0722804069519043
1790266569235566300,4.43756640625,-0.7846269607543945,1.3781161308288574,-0.06753063201904297
1790266569245566500,4.44756640625,-1.3720450401306152,1.1646113395690918,0.03729867935180664
1790266569255566300,4.45756640625,-1.2237434387207031,0.7240855693817139,-0.07581758499145508
1790266569265566500,4.46756640625,-0.33287906646728516,0.3540530204772949,-0.44115495681762695
1790266569275566300,4.47756640625,0.41642189025878906,0.4023303985595703,-0.8775520324707031
1790266569285566500,4.48756640625,0.3223109245300293,0.6563036441802979,-1.2946243286132812
1790266569295566300,4.49756640625,-0.3271646499633789,0.7145712375640869,-1.4544692039489746
1790266569305566500,4.50756640625,-0.7165470123291016,0.5373885631561279,-1.2104499340057373
1790266569315566300,4.51756640625,-0.2797985076904297,0.22738218307495117,-0.7882742881774902
1790266569325566500,4.52756640625,0.39595508575439453,-0.01878666877746582,-0.22582387924194336
1790266569335566300,4.53756640625,0.49553966522216797,-0.17551875114440918,0.19869470596313477
1790266569345566500,4.54756640625,0.07273483276367188,-0.4111781120300293,0.4944641590118408
1790266569355566300,4.55756640625,-0.35135364532470703,-0.8053488731384277,0.8130953311920166
1790266569365566500,4.56756640625,-0.35866260528564453,-1.1316978931427002,1.2512996196746826
1790266569375566300,4.57756640625,-0.15145301818847656,-1.385101318359375,1.7773430347442627
1790266569385566500,4.58756640625,0.16243362426757812,-1.4362053871154785,2.1101434230804443
1790266569395566300,4.59756640625,0.38310718536376953,-1.2709357738494873,2.344143867492676
1790266569405566500,4.60756640625,0.6411285400390625,-1.0645294189453125,2.298022747039795
1790266569415566300,4.61756640625,1.0157537460327148,-0.7627596855163574,1.9802577495574951
1790266569425566500,4.62756640625,1.2822790145874023,-0.40655517578125,1.6944825649261475
1790266569435566300,4.63756640625,1.5730180740356445,-0.14654159545898438,1.4722716808319092
1790266569445566500,4.64756640625,1.4330477714538574,-0.03081345558166504,1.071563959121704
1790266569455566300,4.65756640625,1.0154228210449219,0.0403439998626709,0.512873649597168
1790266569465566500,4.66756640625,0.8088588714599609,0.08260917663574219,0.13378381729125977
1790266569475566300,4.67756640625,1.4144983291625977,-0.09506034851074219,-0.2514253854751587
1790266569485566500,4.68756640625,1.861926555633545,-0.3766435384750366,-0.6724804043769836
1790266569495566300,4.69756640625,2.167616367340088,-0.6203923225402832,-0.7800887823104858
1790266569505566500,4.70756640625,1.6234674453735352,-0.7326580286026001,-1.0515186786651611
1790266569515566300,4.71756640625,0.6630010604858398,-0.7877376079559326,-1.528026819229126
1790266569525566500,4.72756640625,0.5480642318725586,-0.9133626222610474,-1.7934080362319946
1790266569535566300,4.73756640625,1.4381341934204102,-0.8361808061599731,-1.2477327585220337
1790266569545566500,4.74756640625,1.6065340042114258,-0.9398410320281982,-0.5976524353027344
1790266569555566300,4.75756640625,1.1398420333862305,-1.3710620403289795,0.016690731048583984
1790266569565566500,4.76756640625,1.9609918594360352,-2.021716594696045,0.5177743434906006
1790266569575566300,4.77756640625,2.8215489387512207,-2.3518619537353516,0.5404584407806396
1790266569585566500,4.78756640625,2.671834945678711,-2.1318507194519043,-0.15902400016784668
1790266569595566300,4.79756640625,2.702960968017578,-1.2163074016571045,-1.3403805494308472
1790266569605566500,4.80756640625,3.4202651977539062,0.2566555142402649,-2.2070493698120117
1790266569615566300,4.81756640625,3.229844093322754,1.6486164331436157,-2.955366611480713
1790266569625566500,4.82756640625,1.9210724830627441,2.7470688819885254,-3.4804391860961914
1790266569635566300,4.83756640625,1.685478687286377,3.296393632888794,-2.4997289180755615
1790266569645566500,4.84756640625,1.8257126808166504,3.1068594455718994,-0.9393770694732666
1790266569655566300,4.85756640625,0.8503627777099609,2.355592966079712,-0.3466150760650635
1790266569665566500,4.86756640625,0.8841352462768555,1.8082302808761597,-0.08288240432739258
1790266569675566300,4.87756640625,1.9951415061950684,1.1491543054580688,0.13063013553619385
1790266569685566500,4.88756640625,1.6546049118041992,0.18859560787677765,-0.09676051139831543
1790266569695566300,4.89756640625,-0.011513710021972656,-0.6567031145095825,-1.1448838710784912
1790266569705566500,4.90756640625,0.04430103302001953,-0.654981791973114,-1.2920112609863281
1790266569715566300,4.91756640625,0.811121940612793,-0.3657529950141907,-0.6318961381912231
1790266569725566500,4.92756640625,1.0369415283203125,-0.45816439390182495,0.2804661989212036
1790266569735566300,4.93756640625,1.305983543395996,-0.667834460735321,0.49229753017425537
1790266569745566500,4.94756640625,1.7650651931762695,-0.6819025278091431,0.10702228546142578
1790266569755566300,4.95756640625,3.0939950942993164,-0.5042040348052979,-0.3508756160736084
1790266569765566500,4.96756640625,3.361860752105713,-0.12386107444763184,-1.1827912330627441
1790266569775566300,4.97756640625,2.427248954772949,0.4060438275337219,-2.151620626449585
1790266569785566500,4.98756640625,1.7922639846801758,1.0610277652740479,-2.2272655963897705
1790266569795566300,4.99756640625,2.6105289459228516,1.625154972076416,-1.5790343284606934
1790266569805566500,5.00756640625,3.373138904571533,1.9488930702209473,-1.2784212827682495
1790266569815566300,5.01756640625,2.619169235229492,1.9371696710586548,-1.679091215133667
1790266569825566500,5.02756640625,1.372018814086914,1.8149405717849731,-1.9438368082046509
1790266569835566300,5.03756640625,1.1136293411254883,1.9026553630828857,-1.4857168197631836
1790266569845566500,5.04756640625,1.7431116104125977,1.9899300336837769,-1.222599744796753
1790266569855566300,5.05756640625,1.8975801467895508,1.8427823781967163,-1.2080268859863281
1790266569865566500,5.06756640625,1.3795461654663086,1.6670551300048828,-1.0626838207244873
1790266569875566300,5.07756640625,1.5554461479187012,1.5804755687713623,-0.4328005313873291
1790266569885566500,5.08756640625,2.024415969848633,1.296450138092041,0.17688846588134766
1790266569895566300,5.09756640625,1.9085330963134766,0.9229708909988403,0.24638104438781738
1790266569905566500,5.10756640625,1.163407325744629,0.5522060394287109,0.009442806243896484
1790266569915566300,5.11756640625,0.6074447631835938,0.27469873428344727,-0.16083431243896484
1790266569925566500,5.12756640625,0.9899959564208984,0.023184537887573242,-0.12765860557556152
1790266569935566300,5.13756640625,1.518106460571289,-0.19751262664794922,-0.1688370704650879
1790266569945566500,5.14756640625,1.178633689880371,-0.40645718574523926,-0.4123673439025879
1790266569955566300,5.15756640625,0.01533365249633789,-0.6894245147705078,-0.6178641319274902
1790266569965566500,5.16756640625,-0.14268064498901367,-0.9581069946289062,-0.6732645034790039
1790266569975566300,5.17756640625,-0.0051784515380859375,-1.0260531902313232,-0.7338294982910156
1790266569985566500,5.18756640625,-0.3111567497253418,-0.9782612323760986,-0.9394774436950684
1790266569995566300,5.19756640625,-0.0596928596496582,-0.9292020797729492,-1.0768113136291504
1790266570005566500,5.20756640625,0.4989891052246094,-0.8503255844116211,-1.3224756717681885
1790266570015566300,5.21756640625,-0.0083465576171875,-0.9056539535522461,-1.6554932594299316
1790266570025566500,5.22756640625,-1.058546543121338,-1.0070610046386719,-1.7698307037353516
1790266570035566300,5.23756640625,-2.184028148651123,-1.0312023162841797,-1.6024503707885742
1790266570045566500,5.24756640625,-2.5162863731384277,-0.9686751365661621,-1.5902700424194336
1790266570055566300,5.25756640625,-1.6683483123779297,-0.8122801780700684,-1.6440114974975586
1790266570065566500,5.26756640625,-0.878392219543457,-0.5958566665649414,-1.7697052955627441
1790266570075566300,5.27756640625,-1.0955734252929688,-0.5038952827453613,-1.6479160785675049
1790266570085566500,5.28756640625,-1.8392829895019531,-0.5155458450317383,-1.0279850959777832
1790266570095566300,5.29756640625,-2.2344465255737305,-0.6377429962158203,-0.3418865203857422
1790266570105566500,5.30756640625,-2.372614860534668,-0.9121246337890625,0.04945945739746094
1790266570115566300,5.31756640625,-2.3588433265686035,-1.250232219696045,0.1426396369934082
1790266570125566500,5.32756640625,-2.2991957664489746,-1.546839714050293,-0.1566624641418457
1790266570135566300,5.33756640625,-2.1184139251708984,-1.790029525756836,-0.3229045867919922
1790266570145566500,5.34756640625,-1.7408714294433594,-1.792248249053955,-0.012904167175292969
1790266570155566300,5.35756640625,-1.2911691665649414,-1.723005771636963,0.9101748466491699
1790266570165566500,5.36756640625,-1.5219788551330566,-1.7217841148376465,1.9687647819519043
1790266570175566300,5.37756640625,-2.477640151977539,-1.8773956298828125,3.0965800285339355
1790266570185566500,5.38756640625,-3.277897357940674,-1.9841156005859375,4.008508205413818
1790266570195566300,5.39756640625,-3.860036849975586,-1.9441380500793457,3.9763474464416504
1790266570205566500,5.40756640625,-3.34671688079834,-1.7171707153320312,2.764954090118408
1790266570215566300,5.41756640625,-1.2702937126159668,-1.0931110382080078,0.9081745147705078
1790266570225566500,5.42756640625,0.6453108787536621,-0.29914188385009766,-0.09235143661499023
1790266570235566300,5.43756640625,1.0821166038513184,0.38616943359375,-0.40759801864624023
1790266570245566500,5.44756640625,0.6426453590393066,0.8652377128601074,-0.2163105010986328
1790266570255566300,5.45756640625,0.09424352645874023,1.2009854316711426,0.28936290740966797
1790266570265566500,5.46756640625,-0.37709903717041016,1.4306044578552246,0.6324434280395508
1790266570275566300,5.47756640625,-0.9275708198547363,1.4739255905151367,0.9425277709960938
1790266570285566500,5.48756640625,-1.1770501136779785,1.4501996040344238,1.311697006225586
1790266570295566300,5.49756640625,-1.4519572257995605,1.2289371490478516,1.7276692390441895
1790266570305566500,5.50756640625,-2.259212017059326,0.5615682601928711,2.0940628051757812
1790266570315566300,5.51756640625,-2.174457550048828,-0.49869298934936523,2.373288631439209
1790266570325566500,5.52756640625,-1.208132266998291,-1.5874748229980469,2.2825655937194824
1790266570335566300,5.53756640625,-1.1028356552124023,-2.4150643348693848,1.7196245193481445
1790266570345566500,5.54756640625,-1.8777756690979004,-2.9621925354003906,1.10899019241333
1790266570355566300,5.55756640625,-2.12359619140625,-3.219520092010498,0.9165048599243164
1790266570365566500,5.56756640625,-1.4188127517700195,-3.1636605262756348,0.8419322967529297
1790266570375566300,5.57756640625,-0.7957606315612793,-2.9119443893432617,0.3273005485534668
1790266570385566500,5.58756640625,-0.35770225524902344,-2.5299301147460938,-0.42445898056030273
1790266570395566300,5.59756640625,0.18265247344970703,-1.9540934562683105,-1.0720999240875244
1790266570405566500,5.60756640625,0.5369844436645508,-1.1788578033447266,-1.6279802322387695
1790266570415566300,5.61756640625,0.33194875717163086,-0.45915651321411133,-1.8781404495239258
1790266570425566500,5.62756640625,0.023631572723388672,-0.14624977111816406,-1.7433500289916992
1790266570435566300,5.63756640625,-0.1771254539489746,-0.26550865173339844,-1.499253749847412
1790266570445566500,5.64756640625,-0.18438291549682617,-0.5468511581420898,-1.0371854305267334
1790266570455566300,5.65756640625,0.019862651824951172,-0.8013596534729004,-0.33037710189819336
1790266570465566500,5.66756640625,-0.0464625358581543,-1.0058374404907227,0.03803300857543945
1790266570475566300,5.67756640625,-0.38810110092163086,-1.2801547050476074,-0.03893852233886719
1790266570485566500,5.68756640625,-0.6494846343994141,-1.6052398681640625,-0.10917520523071289
1790266570495566300,5.69756640625,-0.5595712661743164,-1.5730252265930176,-0.10715723037719727
1790266570505566500,5.70756640625,-0.3243255615234375,-1.0308094024658203,-0.0008983612060546875
1790266570515566300,5.71756640625,-0.3407430648803711,-0.37661123275756836,0.2909097671508789
1790266570525566500,5.72756640625,-0.8760867118835449,0.02591705322265625,0.6870336532592773
1790266570535566300,5.73756640625,-1.389620304107666,0.16627120971679688,0.9878082275390625
1790266570545566500,5.74756640625,-1.2172245979309082,0.15554332733154297,1.168459415435791
1790266570555566300,5.75756640625,-0.6525778770446777,0.16734647750854492,1.5588855743408203
1790266570565566500,5.76756640625,0.23889446258544922,0.2431788444519043,2.2547364234924316
1790266570575566300,5.77756640625,0.7956323623657227,0.3171420097351074,2.831028938293457
1790266570585566500,5.78756640625,0.37749814987182617,0.33803272247314453,2.9181389808654785
1790266570595566300,5.79756640625,-0.322176456451416,0.2635526657104492,2.625213146209717
1790266570605566500,5.80756640625,-0.5834789276123047,0.06969785690307617,2.4660568237304688
1790266570615566300,5.81756640625,-0.8362808227539062,-0.1317758560180664,2.3873291015625
1790266570625566500,5.82756640625,-1.1305480003356934,-0.33057308197021484,2.3678388595581055
1790266570635566300,5.83756640625,-1.0479302406311035,-0.5137872695922852,2.2315807342529297
1790266570645566500,5.84756640625,-0.9393906593322754,-0.5252914428710938,1.7968549728393555
1790266570655566300,5.85756640625,-1.1255183219909668,-0.4829983711242676,1.2971835136413574
1790266570665566500,5.86756640625,-1.25117826461792,-0.37886571884155273,0.8747997283935547
1790266570675566300,5.87756640625,-0.7752389907836914,-0.3835482597351074,0.7815570831298828
1790266570685566500,5.88756640625,-0.07238626480102539,-0.48262643814086914,1.0074715614318848
1790266570695566300,5.89756640625,-0.14163875579833984,-0.5372838973999023,1.1694750785827637
1790266570705566500,5.90756640625,-1.0144071578979492,-0.5186982154846191,1.1873974800109863
1790266570715566300,5.91756640625,-1.831087589263916,-0.4526858329772949,1.2638545036315918
1790266570725566500,5.92756640625,-2.0414609909057617,-0.46085453033447266,1.5201330184936523
1790266570735566300,5.93756640625,-1.5831513404846191,-0.47272634506225586,1.6839709281921387
1790266570745566500,5.94756640625,-0.5241608619689941,-0.3675990104675293,1.5126166343688965
1790266570755566300,5.95756640625,0.42338132858276367,-0.18509244918823242,1.0769062042236328
1790266570765566500,5.96756640625,0.5682439804077148,0.10225582122802734,0.5876426696777344
1790266570775566300,5.97756640625,0.30150508880615234,0.4596290588378906,0.20161914825439453
1790266570785566500,5.98756640625,-0.007555961608886719,0.7848975658416748,-0.17631244659423828
1790266570795566300,5.99756640625,-0.2344493865966797,1.032853603363037,-0.3907794952392578
1790266570805566500,6.00756640625,-0.33376073837280273,1.0970566272735596,-0.3118925094604492
1790266570815566300,6.01756640625,-0.23726892471313477,0.9282903671264648,0.06128835678100586
1790266570825566500,6.02756640625,0.11518096923828125,0.515861988067627,0.42047786712646484
1790266570835566300,6.03756640625,0.41765689849853516,0.0038290023803710938,0.6079373359680176
1790266570845566500,6.04756640625,0.44899415969848633,-0.3084573745727539,0.648200511932373
1790266570855566300,6.05756640625,0.3193645477294922,-0.5578904151916504,0.415224552154541
1790266570865566500,6.06756640625,0.21318721771240234,-0.8253118991851807,0.40834569931030273
1790266570875566300,6.07756640625,0.2930631637573242,-0.9608790874481201,0.5225410461425781
1790266570885566500,6.08756640625,0.38167285919189453,-0.9126636981964111,0.5996005535125732
1790266570895566300,6.09756640625,1.0411767959594727,-0.8637313842773438,0.5828444957733154
1790266570905566500,6.10756640625,1.8980650901794434,-0.8439188003540039,0.5822818279266357
1790266570915566300,6.11756640625,2.3827686309814453,-0.7910857200622559,0.47272539138793945
1790266570925566500,6.12756640625,2.0296592712402344,-0.7031359672546387,0.2773735523223877
1790266570935566300,6.13756640625,1.2404775619506836,-0.7155442237854004,0.01637721061706543
1790266570945566500,6.14756640625,0.8649368286132812,-0.9519915580749512,-0.046352386474609375
1790266570955566300,6.15756640625,0.9283638000488281,-1.2819594144821167,0.2077624797821045
1790266570965566500,6.16756640625,1.44647216796875,-1.469672679901123,0.27947163581848145
1790266570975566300,6.17756640625,2.1210432052612305,-1.3194774389266968,0.35182976722717285
1790266570985566500,6.18756640625,2.1608619689941406,-0.9324085712432861,0.6139814853668213
1790266570995566300,6.19756640625,1.710139274597168,-0.4665060043334961,0.8514816761016846
1790266571005566500,6.20756640625,1.2101249694824219,-0.09366357326507568,0.9952960014343262
1790266571015566300,6.21756640625,1.1505136489868164,-0.04333937168121338,1.354703664779663
1790266571025566500,6.22756640625,1.3735322952270508,-0.1583576202392578,1.700005054473877
1790266571035566300,6.23756640625,1.4275541305541992,-0.15648645162582397,1.6737970113754272
1790266571045566500,6.24756640625,1.3429527282714844,-0.042932331562042236,1.5297857522964478
1790266571055566300,6.25756640625,1.5223217010498047,-0.11598289012908936,1.4323914051055908
1790266571065566500,6.26756640625,1.570953369140625,-0.26821938157081604,1.2082011699676514
1790266571075566300,6.27756640625,2.3558292388916016,-0.25472936034202576,0.7603615522384644
1790266571085566500,6.28756640625,2.870608329772949,-0.2916029989719391,-0.23129487037658691
1790266571095566300,6.29756640625,2.7679028511047363,-0.4696149230003357,-1.4526557922363281
1790266571105566500,6.30756640625,3.1931419372558594,-0.4268803894519806,-2.28031063079834
1790266571115566300,6.31756640625,3.3644018173217773,-0.25136202573776245,-2.593761444091797
1790266571125566500,6.32756640625,1.8461532592773438,-0.14487747848033905,-3.0303242206573486
1790266571135566300,6.33756640625,1.3425464630126953,0.02203156054019928,-3.2310400009155273
1790266571145566500,6.34756640625,3.4558935165405273,-0.05758962035179138,-2.566267967224121
1790266571155566300,6.35756640625,4.128903865814209,-0.34118103981018066,-2.0440475940704346
1790266571165566500,6.36756640625,2.9943747520446777,-0.4810689687728882,-1.5605967044830322
1790266571175566300,6.37756640625,2.114603042602539,0.07830774784088135,-0.6755228042602539
1790266571185566500,6.38756640625,3.0294361114501953,0.9352604746818542,-0.06139564514160156
1790266571195566300,6.39756640625,3.5227489471435547,1.447258472442627,-0.7151880264282227
1790266571205566500,6.40756640625,2.2934560775756836,1.2980537414550781,-1.028721809387207
1790266571215566300,6.41756640625,2.325352668762207,0.8180451393127441,-0.946575403213501
1790266571225566500,6.42756640625,2.8632192611694336,0.4164881706237793,-1.562410593032837
1790266571235566300,6.43756640625,1.9521374702453613,0.16038161516189575,-2.490867853164673
1790266571245566500,6.44756640625,1.545651912689209,-0.0325770378112793,-2.3885631561279297
1790266571255566300,6.45756640625,2.0233607292175293,-0.030682623386383057,-1.6956498622894287
1790266571265566500,6.46756640625,2.0966711044311523,0.04016590118408203,-1.6180988550186157
1790266571275566300,6.47756640625,1.4836273193359375,0.20654767751693726,-1.607795000076294
1790266571285566500,6.48756640625,1.545517921447754,0.4543967843055725,-1.130480408668518
1790266571295566300,6.49756640625,1.8280134201049805,0.6098265051841736,-1.0010225772857666
1790266571305566500,6.50756640625,1.7088489532470703,0.5813065767288208,-0.9350931644439697
1790266571315566300,6.51756640625,1.2883367538452148,0.5738285779953003,-0.8256609439849854
1790266571325566500,6.52756640625,1.336766242980957,0.5796075463294983,-0.49095797538757324
1790266571335566300,6.53756640625,2.1611318588256836,0.6826668977737427,-0.3897526264190674
1790266571345566500,6.54756640625,2.0765600204467773,0.7752361297607422,-0.7076222896575928
1790266571355566300,6.55756640625,1.3800387382507324,0.9017559289932251,-0.6915972232818604
1790266571365566500,6.56756640625,1.4094228744506836,1.0759117603302002,-0.5455398559570312
1790266571375566300,6.57756640625,1.835968017578125,1.1693665981292725,-0.5213892459869385
1790266571385566500,6.58756640625,1.8024191856384277,1.1888829469680786,-0.8564765453338623
1790266571395566300,6.59756640625,1.499734878540039,1.1220245361328125,-1.2648017406463623
1790266571405566500,6.60756640625,1.4563121795654297,0.9764046669006348,-1.670701026916504
1790266571415566300,6.61756640625,1.2426528930664062,0.9362175464630127,-1.804917812347412
1790266571425566500,6.62756640625,0.809971809387207,0.883608341217041,-1.7183778285980225
1790266571435566300,6.63756640625,0.29543399810791016,0.7133362293243408,-1.3133721351623535
1790266571445566500,6.64756640625,0.1889643669128418,0.44059252738952637,-0.9054596424102783
1790266571455566300,6.65756640625,0.12329244613647461,0.2039508819580078,-0.7047336101531982
1790266571465566500,6.66756640625,-0.28273439407348633,-0.055600643157958984,-0.816441535949707
1790266571475566300,6.67756640625,-0.3454422950744629,-0.26881909370422363,-0.8956995010375977
1790266571485566500,6.68756640625,-0.23065471649169922,-0.3675847053527832,-0.8798983097076416
1790266571495566300,6.69756640625,-0.672004222869873,-0.4057888984680176,-1.0022287368774414
1790266571505566500,6.70756640625,-1.641958236694336,-0.5332369804382324,-0.9519705772399902
1790266571515566300,6.71756640625,-2.000762462615967,-0.5563445091247559,-0.6241765022277832
1790266571525566500,6.72756640625,-1.4571599960327148,-0.434725284576416,-0.29688262939453125
1790266571535566300,6.73756640625,-1.0363893508911133,-0.353118896484375,-0.07032632827758789
1790266571545566500,6.74756640625,-1.5862970352172852,-0.4808492660522461,0.1972970962524414
1790266571555566300,6.75756640625,-1.9645681381225586,-0.7883052825927734,0.3671751022338867
1790266571565566500,6.76756640625,-1.0997986793518066,-1.074563980102539,0.3706674575805664
1790266571575566300,6.77756640625,-0.9244141578674316,-1.3137130737304688,0.25699377059936523
1790266571585566500,6.78756640625,-1.4988737106323242,-1.5899500846862793,0.2742781639099121
1790266571595566300,6.79756640625,-1.8205690383911133,-1.76542329788208,0.43134498596191406
1790266571605566500,6.80756640625,-1.8776841163635254,-1.840956211090088,0.9393353462219238
1790266571615566300,6.81756640625,-1.6927671432495117,-1.8052287101745605,1.3724937438964844
1790266571625566500,6.82756640625,-1.7704792022705078,-1.7931365966796875,1.9916691780090332
1790266571635566300,6.83756640625,-1.9395875930786133,-1.8666753768920898,2.4849801063537598
1790266571645566500,6.84756640625,-2.1017212867736816,-1.9507789611816406,2.8522863388061523
1790266571655566300,6.85756640625,-1.8639535903930664,-1.9712786674499512,3.191502571105957
1790266571665566500,6.86756640625,-1.2940402030944824,-1.8088183403015137,3.0094852447509766
1790266571675566300,6.87756640625,-0.9526381492614746,-1.6365857124328613,2.6148462295532227
1790266571685566500,6.88756640625,-0.9211134910583496,-1.4469475746154785,2.267794609069824
1790266571695566300,6.89756640625,-1.07859468460083,-1.1014227867126465,1.8849987983703613
1790266571705566500,6.90756640625,-1.6774563789367676,-0.7106180191040039,1.4975056648254395
1790266571715566300,6.91756640625,-2.3006606101989746,-0.43264198303222656,1.3474011421203613
1790266571725566500,6.92756640625,-2.1807003021240234,-0.16089916229248047,1.0293059349060059
1790266571735566300,6.93756640625,-1.7050318717956543,0.04851675033569336,0.7744708061218262
1790266571745566500,6.94756640625,-1.3084197044372559,0.04689741134643555,0.5137395858764648
1790266571755566300,6.95756640625,-1.0743374824523926,-0.14257526397705078,0.19472837448120117
1790266571765566500,6.96756640625,-0.7143220901489258,-0.4434785842895508,0.1112208366394043
1790266571775566300,6.97756640625,-0.2891569137573242,-0.7728943824768066,0.3949251174926758
1790266571785566500,6.98756640625,-0.3143143653869629,-1.038358211517334,0.6868529319763184
1790266571795566300,6.99756640625,-0.658292293548584,-1.2952818870544434,0.9638285636901855
1790266571805566500,7.00756640625,-0.8797235488891602,-1.6084332466125488,1.2817115783691406
1790266571815566300,7.01756640625,-0.9716277122497559,-1.9764652252197266,1.4366259574890137
1790266571825566500,7.02756640625,-0.9665651321411133,-2.243124008178711,1.398512840270996
1790266571835566300,7.03756640625,-0.9446001052856445,-2.358452320098877,1.285616397857666
1790266571845566500,7.04756640625,-1.0351810455322266,-2.2444849014282227,1.1034955978393555
1790266571855566300,7.05756640625,-0.932551383972168,-1.859724521636963,0.8757333755493164
1790266571865566500,7.06756640625,-0.49001646041870117,-1.2147421836853027,0.5491743087768555
1790266571875566300,7.07756640625,-0.16937637329101562,-0.47835540771484375,0.14272308349609375
1790266571885566500,7.08756640625,-0.018089771270751953,0.08357381820678711,-0.21481752395629883
1790266571895566300,7.09756640625,0.38606977462768555,0.38983821868896484,-0.5370383262634277
1790266571905566500,7.10756640625,0.46248292922973633,0.3650493621826172,-0.6425879001617432
1790266571915566300,7.11756640625,0.009101390838623047,0.09737300872802734,-0.5388278961181641
1790266571925566500,7.12756640625,-0.7360563278198242,-0.2088451385498047,-0.53482985496521
1790266571935566300,7.13756640625,-1.598649024963379,-0.5886144638061523,-0.6081905364990234
1790266571945566500,7.14756640625,-2.3787169456481934,-1.1099109649658203,-0.4413175582885742
1790266571955566300,7.15756640625,-2.5135531425476074,-1.6994214057922363,0.1351027488708496
1790266571965566500,7.16756640625,-1.7313666343688965,-2.167339324951172,0.8764858245849609
1790266571975566300,7.17756640625,-0.716130256652832,-2.4203310012817383,1.4506893157958984
1790266571985566500,7.18756640625,-0.3337373733520508,-2.430335521697998,1.5721869468688965
1790266571995566300,7.19756640625,-0.4974346160888672,-2.2229604721069336,1.2831673622131348
1790266572005566500,7.20756640625,-0.7224736213684082,-1.8308286666870117,0.8916549682617188
1790266572015566300,7.21756640625,-1.0657329559326172,-1.323774814605713,0.7020025253295898
1790266572025566500,7.22756640625,-0.8974957466125488,-0.7934303283691406,0.9082174301147461
1790266572035566300,7.23756640625,-0.773287296295166,-0.42870378494262695,1.227701187133789
1790266572045566500,7.24756640625,-0.6998200416564941,-0.14607858657836914,1.5870146751403809
1790266572055566300,7.25756640625,-0.9208478927612305,0.07795858383178711,1.9222655296325684
1790266572065566500,7.26756640625,-1.0522189140319824,0.2250652313232422,2.1596732139587402
1790266572075566300,7.27756640625,-0.8747329711914062,0.24922847747802734,2.313014030456543
1790266572085566500,7.28756640625,-0.5637130737304688,0.1506357192993164,2.1579060554504395
1790266572095566300,7.29756640625,-0.263063907623291,0.11731481552124023,1.903998851776123
1790266572105566500,7.30756640625,-0.20592880249023438,0.2649688720703125,1.5854172706604004
1790266572115566300,7.31756640625,-0.45609569549560547,0.27190113067626953,1.5675463676452637
1790266572125566500,7.32756640625,-0.6919326782226562,0.06020975112915039,1.895319938659668
1790266572135566300,7.33756640625,-0.6056761741638184,-0.09630537033081055,2.127650260925293
1790266572145566500,7.34756640625,-0.24463272094726562,-0.2666492462158203,2.2667617797851562
1790266572155566300,7.35756640625,0.06187725067138672,-0.5171828269958496,2.2265548706054688
1790266572165566500,7.36756640625,0.42626094818115234,-0.6483974456787109,1.9982061386108398
1790266572175566300,7.37756640625,0.7800002098083496,-0.654390811920166,1.6291322708129883
1790266572185566500,7.38756640625,0.9341416358947754,-0.6829886436462402,1.33317232131958
1790266572195566300,7.39756640625,0.6537728309631348,-0.6249613761901855,1.1094326972961426
1790266572205566500,7.40756640625,0.42904186248779297,-0.6111092567443848,0.8658254146575928
1790266572215566300,7.41756640625,0.5368251800537109,-0.5786468982696533,0.6530663967132568
1790266572225566500,7.42756640625,0.4700593948364258,-0.5557148456573486,0.5995612144470215
1790266572235566300,7.43756640625,-0.1624593734741211,-0.45655345916748047,0.8629558086395264
1790266572245566500,7.44756640625,-0.8217029571533203,-0.3969449996948242,1.1217715740203857
1790266572255566300,7.45756640625,-0.436309814453125,-0.31697845458984375,1.3091681003570557
1790266572265566500,7.46756640625,0.6264581680297852,-0.4540135860443115,1.558760643005371
1790266572275566300,7.47756640625,1.0647306442260742,-0.7380526065826416,1.6827220916748047
1790266572285566500,7.48756640625,1.245549201965332,-1.0337603092193604,1.420490026473999
1790266572295566300,7.49756640625,1.5385541915893555,-1.39723801612854,1.1912896633148193
1790266572305566500,7.50756640625,1.2047719955444336,-1.7399179935455322,1.0016465187072754
1790266572315566300,7.51756640625,0.9583587646484375,-1.8274288177490234,0.6384201049804688
1790266572325566500,7.52756640625,1.4470453262329102,-1.8973093032836914,0.14799022674560547
1790266572335566300,7.53756640625,1.7754535675048828,-1.8970807790756226,-0.23920989036560059
1790266572345566500,7.54756640625,2.4196548461914062,-1.6622068881988525,-0.32866907119750977
1790266572355566300,7.55756640625,3.0349364280700684,-1.5155627727508545,-0.29700613021850586
1790266572365566500,7.56756640625,2.818683624267578,-1.352371335029602,-0.4238402843475342
1790266572375566300,7.57756640625,1.6448755264282227,-1.15175199508667,-0.6898627281188965
1790266572385566500,7.58756640625,1.6100873947143555,-0.9869756698608398,-1.0835782289505005
1790266572395566300,7.59756640625,1.8149137496948242,-0.7336980700492859,-1.2085354328155518
1790266572405566500,7.60756640625,1.9545111656188965,-0.08004194498062134,-0.7746846675872803
1790266572415566300,7.61756640625,2.3719143867492676,0.5294286012649536,-0.6709836721420288
1790266572425566500,7.62756640625,3.597548007965088,0.6825827360153198,-1.114912748336792
1790266572435566300,7.63756640625,3.607484817504883,0.3675372302532196,-2.0616464614868164
1790266572445566500,7.64756640625,3.3456506729125977,-0.09753653407096863,-2.861055374145508
1790266572455566300,7.65756640625,3.0279321670532227,-0.1442495882511139,-2.468085527420044
1790266572465566500,7.66756640625,2.1827735900878906,-0.12690390646457672,-0.8533449172973633
1790266572475566300,7.67756640625,3.032771110534668,-0.39582645893096924,0.49616050720214844
1790266572485566500,7.68756640625,3.6356725692749023,-0.6503828763961792,0.3189520835876465
1790266572495566300,7.69756640625,3.5937957763671875,-0.3607097864151001,-0.5238524675369263
1790266572505566500,7.70756640625,3.3411827087402344,0.41110581159591675,-1.1792113780975342
1790266572515566300,7.71756640625,3.7121658325195312,1.222690224647522,-1.5536516904830933
1790266572525566500,7.72756640625,3.96437931060791,1.7608511447906494,-1.5559614896774292
1790266572535566300,7.73756640625,4.260996341705322,1.9214328527450562,-1.3226158618927002
1790266572545566500,7.74756640625,3.5477027893066406,1.9088420867919922,-1.90108323097229
1790266572555566300,7.75756640625,2.449909210205078,1.5885491371154785,-2.3212358951568604
1790266572565566500,7.76756640625,2.539691925048828,1.0894674062728882,-2.0582478046417236
1790266572575566300,7.77756640625,2.8835554122924805,0.6907725930213928,-1.4600285291671753
1790266572585566500,7.78756640625,2.9115467071533203,0.38950634002685547,-0.9541174173355103
1790266572595566300,7.79756640625,2.945204734802246,0.22255152463912964,-0.8592269420623779
1790266572605566500,7.80756640625,3.086772918701172,0.18028587102890015,-0.9671728610992432
1790266572615566300,7.81756640625,3.194582939147949,0.3646756410598755,-1.0984249114990234
1790266572625566500,7.82756640625,2.6729555130004883,0.6215342283248901,-1.119804859161377
1790266572635566300,7.83756640625,2.446502208709717,0.6720370054244995,-0.9318215847015381
1790266572645566500,7.84756640625,2.380181312561035,0.5522493720054626,-0.7978541851043701
1790266572655566300,7.85756640625,2.2555389404296875,0.4738727807998657,-0.9861972332000732
1790266572665566500,7.86756640625,2.165163516998291,0.4546505808830261,-1.068857192993164
1790266572675566300,7.87756640625,2.4876890182495117,0.5559152364730835,-1.0327253341674805
1790266572685566500,7.88756640625,2.3184452056884766,0.6202037334442139,-1.1842803955078125
1790266572695566300,7.89756640625,1.0737991333007812,0.6235992908477783,-1.561492919921875
1790266572705566500,7.90756640625,0.7736444473266602,0.6661942005157471,-1.3763859272003174
1790266572715566300,7.91756640625,1.2062435150146484,0.7266156673431396,-1.1938815116882324
1790266572725566500,7.92756640625,1.4013147354125977,0.7288167476654053,-1.246164321899414
1790266572735566300,7.93756640625,1.3114814758300781,0.543541431427002,-1.1769838333129883
1790266572745566500,7.94756640625,1.0755853652954102,0.18454647064208984,-1.093149185180664
1790266572755566300,7.95756640625,0.6998677253723145,-0.2644519805908203,-1.2054660320281982
1790266572765566500,7.96756640625,0.5203280448913574,-0.7834477424621582,-1.2060325145721436
1790266572775566300,7.97756640625,0.8355269432067871,-1.2077977657318115,-0.9563422203063965
1790266572785566500,7.98756640625,0.5421648025512695,-1.6083037853240967,-0.876887321472168
1790266572795566300,7.99756640625,0.1392536163330078,-1.9875929355621338,-0.7638769149780273
1790266572805566500,8.00756640625,0.9900598526000977,-2.1413393020629883,-0.604736328125
1790266572815566300,8.01756640625,1.186518669128418,-2.129868507385254,-0.6084184646606445
1790266572825566500,8.02756640625,0.30586671829223633,-1.9533233642578125,-0.5873351097106934
1790266572835566300,8.03756640625,-0.6216654777526855,-1.5391254425048828,-0.4964413642883301
1790266572845566500,8.04756640625,-0.755549430847168,-1.004406452178955,-0.46821069717407227
1790266572855566300,8.05756640625,-0.9870576858520508,-0.5787477493286133,-0.6722159385681152
1790266572865566500,8.06756640625,-1.4338603019714355,-0.44826602935791016,-0.8136000633239746
1790266572875566300,8.07756640625,-2.030989170074463,-0.4698491096496582,-0.6416878700256348
1790266572885566500,8.08756640625,-2.195333480834961,-0.6618399620056152,-0.27954673767089844
1790266572895566300,8.09756640625,-1.9549074172973633,-1.2055668830871582,-0.03689098358154297
1790266572905566500,8.10756640625,-1.5963516235351562,-1.8963913917541504,0.02942371368408203
1790266572915566300,8.11756640625,-1.166457176208496,-2.4740047454833984,0.09439706802368164
1790266572925566500,8.12756640625,-0.8413786888122559,-2.8827223777770996,0.12278985977172852
1790266572935566300,8.13756640625,-0.9248371124267578,-3.1512484550476074,-0.1410236358642578
1790266572945566500,8.14756640625,-2.0073556900024414,-3.469359874725342,-0.20104551315307617
1790266572955566300,8.15756640625,-3.001671314239502,-3.459845542907715,-0.2969675064086914
1790266572965566500,8.16756640625,-3.5638675689697266,-3.170423984527588,-0.2513399124145508
1790266572975566300,8.17756640625,-3.9818458557128906,-2.8002185821533203,0.3385906219482422
1790266572985566500,8.18756640625,-4.061302661895752,-2.3076024055480957,1.3841891288757324
1790266572995566300,8.19756640625,-3.579179286956787,-1.9896588325500488,2.7320594787597656
1790266573005566500,8.20756640625,-3.0060830116271973,-1.8091883659362793,4.062743186950684
1790266573015566300,8.21756640625,-2.7484312057495117,-1.6835107803344727,5.062119960784912
1790266573025566500,8.22756640625,-2.703857421875,-1.2648463249206543,5.432956218719482
1790266573035566300,8.23756640625,-3.0075135231018066,-0.7488350868225098,5.606564521789551
1790266573045566500,8.24756640625,-3.6323394775390625,-0.24392986297607422,5.783954620361328
1790266573055566300,8.25756640625,-4.183506488800049,0.29500484466552734,5.622890472412109
1790266573065566500,8.26756640625,-3.9568839073181152,0.7639660835266113,4.905097007751465
1790266573075566300,8.27756640625,-2.9141592979431152,1.0865740776062012,4.008518218994141
1790266573085566500,8.28756640625,-1.7800307273864746,1.2187747955322266,3.110987663269043
1790266573095566300,8.29756640625,-1.0006747245788574,1.2271919250488281,2.064236640930176
1790266573105566500,8.30756640625,-0.7216944694519043,0.9673137664794922,1.0334725379943848
1790266573115566300,8.31756640625,-0.05064821243286133,0.617337703704834,0.20760631561279297
1790266573125566500,8.32756640625,0.7473793029785156,0.3517441749572754,-0.5546226501464844
1790266573135566300,8.33756640625,1.1342682838439941,0.08245134353637695,-1.1355435848236084
1790266573145566500,8.34756640625,1.0917441844940186,-0.41730308532714844,-1.4775629043579102
1790266573155566300,8.35756640625,0.7278461456298828,-1.1409883499145508,-1.4291810989379883
1790266573165566500,8.36756640625,0.2312159538269043,-1.9739274978637695,-1.163649082183838
1790266573175566300,8.37756640625,0.017344951629638672,-2.831721782684326,-0.8289945125579834
1790266573185566500,8.38756640625,0.09032773971557617,-3.516294479370117,-0.6921346187591553
1790266573195566300,8.39756640625,-0.17254257202148438,-3.887755870819092,-0.7788376808166504
1790266573205566500,8.40756640625,-0.6909656524658203,-3.8575119972229004,-1.107161521911621
1790266573215566300,8.41756640625,-1.2463984489440918,-3.545748233795166,-1.4959073066711426
1790266573225566500,8.42756640625,-1.763563632965088,-2.9908642768859863,-1.567516803741455
1790266573235566300,8.43756640625,-2.1878104209899902,-2.34238862991333,-0.9485428333282471
1790266573245566500,8.44756640625,-2.569007396697998,-1.8584585189819336,0.3894495964050293
1790266573255566300,8.45756640625,-2.6782565116882324,-1.5295300483703613,2.0182371139526367
1790266573265566500,8.46756640625,-2.3575172424316406,-1.391836166381836,3.4613304138183594
1790266573275566300,8.47756640625,-1.6026320457458496,-1.3296632766723633,4.1008195877075195
1790266573285566500,8.48756640625,0.09197378158569336,-0.9053101539611816,3.6436781883239746
1790266573295566300,8.49756640625,-2.203054428100586,-1.328104019165039,3.2512288093566895
1790266573305566500,8.50756640625,-1.1190967559814453,-1.2514381408691406,2.2931299209594727
1790266573315566300,8.51756640625,0.6184744834899902,-0.885035514831543,1.238271713256836
1790266573325566500,8.52756640625,0.33028745651245117,-0.9547109603881836,0.7333974838256836
1790266573335566300,8.53756640625,0.9788269996643066,-0.9085025787353516,0.351625919342041
1790266573345566500,8.54756640625,0.8286733627319336,-0.8399672508239746,0.05676603317260742
1790266573355566300,8.55756640625,0.4920053482055664,-0.7842550277709961,-0.08383035659790039
1790266573365566500,8.56756640625,0.3540682792663574,-0.587618350982666,-0.13367843627929688
1790266573375566300,8.57756640625,0.111480712890625,-0.3045787811279297,-0.0948481559753418
1790266573385566500,8.58756640625,-0.31981420516967773,-0.017803668975830078,0.09911012649536133
1790266573395566300,8.59756640625,-0.7557835578918457,0.24268770217895508,0.47159767150878906
1790266573405566500,8.60756640625,-1.1216444969177246,0.46201372146606445,0.5909228324890137
1790266573415566300,8.61756640625,-1.1073064804077148,0.59967041015625,0.5357589721679688
1790266573425566500,8.62756640625,-0.17116928100585938,0.5036988258361816,0.24600887298583984
1790266573435566300,8.63756640625,1.3285112380981445,0.46655941009521484,-0.1550755500793457
1790266573445566500,8.64756640625,2.4099574089050293,0.6474390029907227,-0.5403499603271484
1790266573455566300,8.65756640625,2.485229969024658,1.0390186309814453,-0.7772181034088135
1790266573465566500,8.66756640625,1.3484787940979004,1.3918607234954834,-0.7617878913879395
1790266573475566300,8.67756640625,-0.6446919441223145,1.3528192043304443,-0.4338374137878418
1790266573485566500,8.68756640625,-2.008993625640869,0.7681565284729004,0.152008056640625
1790266573495566300,8.69756640625,-1.2626256942749023,-0.33048391342163086,0.7589478492736816
1790266573505566500,8.70756640625,0.45584774017333984,-1.4386932849884033,1.0659270286560059
1790266573515566300,8.71756640625,1.1795125007629395,-1.8564300537109375,0.8973569869995117
1790266573525566500,8.72756640625,-0.08208656311035156,-1.5297436714172363,0.9838590621948242
1790266573535566300,8.73756640625,-2.0577964782714844,-1.313021183013916,1.4219582080841064
1790266573545566500,8.74756640625,-2.777255058288574,-1.6442503929138184,1.9273438453674316
1790266573555566300,8.75756640625,-1.8346824645996094,-2.2289891242980957,2.4608795642852783
1790266573565566500,8.76756640625,-0.5664377212524414,-2.4952516555786133,2.765557050704956
1790266573575566300,8.77756640625,-0.20506668090820312,-2.080369710922241,2.759202718734741
1790266573585566500,8.78756640625,-0.4919614791870117,-1.5564653873443604,2.54750394821167
1790266573595566300,8.79756640625,-0.16909503936767578,-1.394789457321167,2.5011537075042725
1790266573605566500,8.80756640625,0.1579151153564453,-1.5343517065048218,2.7899537086486816
1790266573615566300,8.81756640625,0.11678791046142578,-1.7946547269821167,2.8616766929626465
1790266573625566500,8.82756640625,1.3129396438598633,-1.9521715641021729,2.598989248275757
1790266573635566300,8.83756640625,3.232924461364746,-1.8708078861236572,2.2087228298187256
1790266573645566500,8.84756640625,3.654576301574707,-1.5833473205566406,1.8134355545043945
1790266573655566300,8.85756640625,3.3485360145568848,-1.3312034606933594,1.1169519424438477
1790266573665566500,8.86756640625,4.165304183959961,-1.2210297584533691,0.33694028854370117
1790266573675566300,8.87756640625,5.395623207092285,-1.036672592163086,-0.3970825672149658
1790266573685566500,8.88756640625,6.060567855834961,-0.5536943674087524,-1.1182432174682617
1790266573695566300,8.89756640625,6.45331335067749,0.07309401035308838,-1.524031400680542
1790266573705566500,8.90756640625,6.531571388244629,0.44146931171417236,-1.961976408958435
1790266573715566300,8.91756640625,6.389967441558838,0.5136682987213135,-2.558136463165283
1790266573725566500,8.92756640625,6.053747177124023,0.3633728623390198,-3.101886749267578
1790266573735566300,8.93756640625,5.486042499542236,0.37446337938308716,-3.3618454933166504
1790266573745566500,8.94756640625,5.635456085205078,0.7573288679122925,-3.62400221824646
1790266573755566300,8.95756640625,5.5783610343933105,1.3389642238616943,-4.075821876525879
1790266573765566500,8.96756640625,5.08317756652832,1.7346060276031494,-4.505942344665527
1790266573775566300,8.97756640625,3.712266445159912,1.8794491291046143,-4.368819236755371
1790266573785566500,8.98756640625,2.6376476287841797,1.7418469190597534,-3.5670347213745117
1790266573795566300,8.99756640625,2.0962915420532227,1.4158469438552856,-2.4857072830200195
1790266573805566500,9.00756640625,2.100605010986328,1.189725637435913,-1.5586745738983154
1790266573815566300,9.01756640625,1.8259711265563965,1.21293306350708,-1.246484398841858
1790266573825566500,9.02756640625,1.7124977111816406,1.360327124595642,-1.5073466300964355
1790266573835566300,9.03756640625,1.2566452026367188,1.3939969539642334,-0.7342827320098877
1790266573845566500,9.04756640625,0.8246374130249023,1.3156466484069824,-0.07772278785705566
1790266573855566300,9.05756640625,1.4971799850463867,1.075718879699707,0.031101703643798828
1790266573865566500,9.06756640625,2.4342031478881836,0.9095202684402466,-0.20850563049316406
1790266573875566300,9.07756640625,2.235197067260742,0.9041562080383301,-0.5381662845611572
1790266573885566500,9.08756640625,1.8297114372253418,0.8725274801254272,-0.6879293918609619
1790266573895566300,9.09756640625,2.542677879333496,0.8453274965286255,-0.7030494213104248
1790266573905566500,9.10756640625,2.4679007530212402,0.8890363574028015,-0.9048411846160889
1790266573915566300,9.11756640625,2.3698740005493164,0.9229856133460999,-0.791154146194458
1790266573925566500,9.12756640625,2.633164405822754,0.9683812856674194,-0.4680938720703125
1790266573935566300,9.13756640625,3.660257339477539,0.9600980281829834,-0.5987849235534668
1790266573945566500,9.14756640625,3.776669502258301,0.9602526426315308,-0.9820621013641357
1790266573955566300,9.15756640625,3.258334159851074,0.8997433185577393,-1.2705175876617432
1790266573965566500,9.16756640625,3.007606029510498,0.7992497682571411,-1.530789852142334
1790266573975566300,9.17756640625,2.703679084777832,0.702837347984314,-1.7735052108764648
1790266573985566500,9.18756640625,2.233116626739502,0.4927558898925781,-1.8715591430664062
1790266573995566300,9.19756640625,2.357590675354004,0.10088324546813965,-1.7095084190368652
1790266574005566500,9.20756640625,2.450188636779785,-0.3112046718597412,-1.7298693656921387
1790266574015566300,9.21756640625,1.6934618949890137,-0.42777037620544434,-2.0314903259277344
1790266574025566500,9.22756640625,1.2256593704223633,-0.5814869403839111,-2.1174705028533936
1790266574035566300,9.23756640625,0.5413002967834473,-0.6143581867218018,-1.861161231994629
1790266574045566500,9.24756640625,-0.09764719009399414,-0.6612162590026855,-1.7329974174499512
1790266574055566300,9.25756640625,0.1801767349243164,-0.7887864112854004,-1.5747575759887695
1790266574065566500,9.26756640625,0.1508030891418457,-0.9088597297668457,-1.2015149593353271
1790266574075566300,9.27756640625,-1.0401325225830078,-1.1472578048706055,-0.7149519920349121
1790266574085566500,9.28756640625,-1.6984877586364746,-1.434701919555664,0.08736038208007812
1790266574095566300,9.29756640625,-1.3622660636901855,-1.7664737701416016,0.6761045455932617
1790266574105566500,9.30756640625,-1.5428948402404785,-2.1693553924560547,0.8112049102783203
1790266574115566300,9.31756640625,-1.807347297668457,-2.7492880821228027,0.8472452163696289
1790266574125566500,9.32756640625,-1.453493595123291,-3.4293317794799805,0.830841064453125
1790266574135566300,9.33756640625,-0.6905145645141602,-4.184884548187256,0.5656061172485352
1790266574145566500,9.34756640625,-0.7210478782653809,-4.9828200340271,0.49227094650268555
1790266574155566300,9.35756640625,-1.6795382499694824,-5.632119178771973,1.1489982604980469
1790266574165566500,9.36756640625,-2.1810922622680664,-5.698479175567627,1.8510847091674805
1790266574175566300,9.37756640625,-2.1927318572998047,-5.2500901222229,2.425046920776367
1790266574185566500,9.38756640625,-2.319552421569824,-4.532388687133789,2.755876064300537
1790266574195566300,9.39756640625,-2.4214282035827637,-3.688357353210449,3.0134129524230957
1790266574205566500,9.40756640625,-2.3021063804626465,-2.825042724609375,2.921532154083252
1790266574215566300,9.41756640625,-2.3112568855285645,-1.927330493927002,2.499732494354248
1790266574225566500,9.42756640625,-2.849308967590332,-1.1878423690795898,2.303760528564453
1790266574235566300,9.43756640625,-3.4613990783691406,-0.5727043151855469,2.3107852935791016
1790266574245566500,9.44756640625,-3.1639041900634766,-0.05273628234863281,2.5024099349975586
1790266574255566300,9.45756640625,-3.3216285705566406,0.4371919631958008,2.5863704681396484
1790266574265566500,9.46756640625,-3.990025520324707,0.8514499664306641,2.48734188079834
1790266574275566300,9.47756640625,-4.19228982925415,0.9891242980957031,2.3512535095214844
1790266574285566500,9.48756640625,-3.7803635597229004,0.7565975189208984,1.9679293632507324
1790266574295566300,9.49756640625,-2.8999853134155273,0.3228321075439453,1.4913196563720703
1790266574305566500,9.50756640625,-2.16316556930542,-0.010602951049804688,1.2948307991027832
1790266574315566300,9.51756640625,-1.7710866928100586,-0.1440868377685547,1.1892848014831543
1790266574325566500,9.52756640625,-1.5746684074401855,-0.08181571960449219,0.9917073249816895
1790266574335566300,9.53756640625,-1.0943207740783691,0.021813392639160156,0.8278598785400391
1790266574345566500,9.54756640625,-0.5916876792907715,0.0011386871337890625,0.9682397842407227
1790266574355566300,9.55756640625,-0.3336672782897949,-0.1674365997314453,1.2916827201843262
1790266574365566500,9.56756640625,-0.16868352890014648,-0.5713057518005371,1.5696945190429688
1790266574375566300,9.57756640625,-0.0841360092163086,-1.1334452629089355,1.5220627784729004
1790266574385566500,9.58756640625,-0.10011529922485352,-1.774400234222412,1.3432626724243164
1790266574395566300,9.59756640625,-0.2199392318725586,-2.437623977661133,1.0546092987060547
1790266574405566500,9.60756640625,-0.30229949951171875,-3.100080966949463,0.6527585983276367
1790266574415566300,9.61756640625,-0.07797479629516602,-3.4654617309570312,0.04820060729980469
1790266574425566500,9.62756640625,0.5359511375427246,-3.38326358795166,-0.4249119758605957
1790266574435566300,9.63756640625,0.9279360771179199,-2.9048242568969727,-0.6763081550598145
1790266574445566500,9.64756640625,0.7678189277648926,-2.312849998474121,-0.7478189468383789
1790266574455566300,9.65756640625,-0.00220489501953125,-1.7776851654052734,-0.8879656791687012
1790266574465566500,9.66756640625,-1.1267056465148926,-1.4556469917297363,-0.8570189476013184
1790266574475566300,9.67756640625,-1.9349594116210938,-1.275801658630371,-0.5660662651062012
1790266574485566500,9.68756640625,-2.293160915374756,-1.2100677490234375,0.038912296295166016
1790266574495566300,9.69756640625,-2.4238438606262207,-1.1101164817810059,0.8160018920898438
1790266574505566500,9.70756640625,-2.2406396865844727,-0.8853263854980469,1.6023173332214355
1790266574515566300,9.71756640625,-1.8843379020690918,-0.5442337989807129,1.9695401191711426
1790266574525566500,9.72756640625,-1.5330181121826172,-0.2111968994140625,2.0812625885009766
1790266574535566300,9.73756640625,-1.2035493850708008,0.00506591796875,1.975386619567871
1790266574545566500,9.74756640625,-0.8304648399353027,0.1302776336669922,1.5317111015319824
1790266574555566300,9.75756640625,-0.6280360221862793,0.1240382194519043,0.8077602386474609
1790266574565566500,9.76756640625,-0.739295482635498,0.043897151947021484,0.12867212295532227
1790266574575566300,9.77756640625,-1.1656670570373535,-0.06667089462280273,-0.3063359260559082
1790266574585566500,9.78756640625,-1.4714298248291016,-0.2877168655395508,-0.516817569732666
1790266574595566300,9.79756640625,-1.600356101989746,-0.5015225410461426,-0.42870283126831055
1790266574605566500,9.80756640625,-1.7515592575073242,-0.7093572616577148,-0.14891672134399414
1790266574615566300,9.81756640625,-1.6680331230163574,-0.8962240219116211,-0.06680583953857422
1790266574625566500,9.82756640625,-1.163255214691162,-0.8873839378356934,-0.10684871673583984
1790266574635566300,9.83756640625,-0.45593929290771484,-0.6430220603942871,0.1563563346862793
1790266574645566500,9.84756640625,0.3355445861816406,-0.30294084548950195,0.5587067604064941
1790266574655566300,9.85756640625,0.6388826370239258,-0.19156455993652344,0.8546991348266602
1790266574665566500,9.86756640625,0.5749187469482422,-0.1504654884338379,1.232187271118164
1790266574675566300,9.87756640625,0.6885437965393066,-0.22701072692871094,1.5938186645507812
1790266574685566500,9.88756640625,0.45678186416625977,-0.3502631187438965,1.9604649543762207
1790266574695566300,9.89756640625,-0.6594939231872559,-0.9941654205322266,2.7267608642578125
1790266574705566500,9.90756640625,-1.221426010131836,-1.8252663612365723,3.232654571533203
1790266574715566300,9.91756640625,-0.8740882873535156,-2.5591177940368652,3.321568012237549
1790266574725566500,9.92756640625,-0.23453521728515625,-2.9837584495544434,3.1101326942443848
1790266574735566300,9.93756640625,-0.10295295715332031,-3.1116292476654053,2.8883209228515625
1790266574745566500,9.94756640625,-0.3793601989746094,-2.9449057579040527,2.7765984535217285
1790266574755566300,9.95756640625,-0.4414825439453125,-2.621555805206299,2.650702953338623
1790266574765566500,9.96756640625,0.2355661392211914,-2.1948883533477783,2.364943265914917
1790266574775566300,9.97756640625,0.3278989791870117,-1.6358613967895508,2.069775104522705
1790266574785566500,9.98756640625,0.22978878021240234,-1.004863977432251,1.5943727493286133
1790266574795566300,9.99756640625,0.7562723159790039,-0.6206948757171631,1.0520734786987305
1790266574805566500,10.00756640625,1.9567193984985352,-0.47170567512512207,0.8045299053192139
1790266574815566300,10.01756640625,2.7545528411865234,-0.4825937747955322,0.4937095642089844
1790266574825566500,10.02756640625,2.8633108139038086,-0.5255352258682251,-0.015455961227416992
1790266574835566300,10.03756640625,3.7894015312194824,-0.6582034826278687,-0.5277516841888428
1790266574845566500,10.04756640625,4.516727447509766,-0.8481844663619995,-0.9135184288024902
1790266574855566300,10.05756640625,4.121842384338379,-0.8453001976013184,-1.6092398166656494
1790266574865566500,10.06756640625,4.109585762023926,-0.7230499982833862,-2.332585573196411
1790266574875566300,10.07756640625,4.615374565124512,-0.5457286834716797,-2.823617696762085
1790266574885566500,10.08756640625,4.440180778503418,-0.18518024682998657,-3.0884897708892822
1790266574895566300,10.09756640625,3.6510982513427734,0.29289188981056213,-3.3070993423461914
1790266574905566500,10.10756640625,3.4150028228759766,0.6742058992385864,-2.855729579925537
1790266574915566300,10.11756640625,3.4622116088867188,0.7878708839416504,-2.3445277214050293
1790266574925566500,10.12756640625,3.41683292388916,0.41743573546409607,-1.7536375522613525
1790266574935566300,10.13756640625,3.4405345916748047,-0.04250660538673401,-1.4174351692199707
1790266574945566500,10.14756640625,3.139340400695801,-0.4749607443809509,-1.5329811573028564
1790266574955566300,10.15756640625,3.0234365463256836,-0.5938297510147095,-1.604604721069336
1790266574965566500,10.16756640625,2.9076414108276367,-0.35162582993507385,-1.9659148454666138
1790266574975566300,10.17756640625,2.7391018867492676,0.1573823094367981,-2.322810173034668
1790266574985566500,10.18756640625,2.8168492317199707,0.7989278435707092,-2.2382802963256836
1790266574995566300,10.19756640625,3.0402708053588867,1.269643783569336,-2.0426783561706543
1790266575005566500,10.20756640625,3.298828125,1.4636874198913574,-2.1909070014953613
1790266575015566300,10.21756640625,2.6998672485351562,1.5421549081802368,-2.1283016204833984
1790266575025566500,10.22756640625,3.2256460189819336,1.7243047952651978,-1.958319902420044
1790266575035566300,10.23756640625,4.227602958679199,1.6855791807174683,-2.2825307846069336
1790266575045566500,10.24756640625,3.986724376678467,1.4618656635284424,-2.666332483291626
1790266575055566300,10.25756640625,3.975649833679199,1.0895037651062012,-2.3734219074249268
1790266575065566500,10.26756640625,3.581594467163086,0.5758302211761475,-2.238797664642334
1790266575075566300,10.27756640625,3.4747838973999023,0.30314040184020996,-1.9302270412445068
1790266575085566500,10.28756640625,3.422006607055664,0.537381112575531,-1.7822335958480835
1790266575095566300,10.29756640625,3.037997245788574,0.8451290130615234,-1.791205644607544
1790266575105566500,10.30756640625,2.789041042327881,1.1316581964492798,-1.670081377029419
1790266575115566300,10.31756640625,3.0023021697998047,1.2205822467803955,-1.6140010356903076
1790266575125566500,10.32756640625,2.9650745391845703,1.1603981256484985,-1.4584882259368896
1790266575135566300,10.33756640625,2.4095230102539062,1.0362671613693237,-1.6414246559143066
1790266575145566500,10.34756640625,1.5894231796264648,0.8293830156326294,-1.9110021591186523
1790266575155566300,10.35756640625,1.3180294036865234,0.6418633460998535,-1.7614498138427734
1790266575165566500,10.36756640625,0.6321620941162109,0.5182594060897827,-1.7336647510528564
1790266575175566300,10.37756640625,0.31615781784057617,0.3190271854400635,-1.3705124855041504
1790266575185566500,10.38756640625,1.3336234092712402,-0.00524139404296875,-0.8603026866912842
1790266575195566300,10.39756640625,1.5977826118469238,-0.2829110622406006,-0.8668467998504639
1790266575205566500,10.40756640625,1.1813535690307617,-0.5899102687835693,-0.7311387062072754
1790266575215566300,10.41756640625,0.6998348236083984,-0.9953920841217041,-0.49574899673461914
1790266575225566500,10.42756640625,0.22007465362548828,-1.3586833477020264,-0.04837226867675781
1790266575235566300,10.43756640625,-0.07083272933959961,-1.6539928913116455,0.06278610229492188
1790266575245566500,10.44756640625,0.3041253089904785,-1.8674399852752686,-0.05192375183105469
1790266575255566300,10.45756640625,0.5906562805175781,-2.0032143592834473,-0.27578163146972656
1790266575265566500,10.46756640625,0.03754854202270508,-2.108525276184082,-0.43987178802490234
1790266575275566300,10.47756640625,-0.9615693092346191,-2.1151623725891113,-0.40924549102783203
1790266575285566500,10.48756640625,-1.2141408920288086,-1.958512306213379,-0.16861486434936523
1790266575295566300,10.49756640625,-1.112579345703125,-1.6309690475463867,0.0351262092590332
1790266575305566500,10.50756640625,-1.1370501518249512,-1.2673535346984863,0.0299072265625
1790266575315566300,10.51756640625,-0.9969820976257324,-0.9223952293395996,0.10330533981323242
1790266575325566500,10.52756640625,-0.9981317520141602,-0.7473125457763672,0.33356571197509766
1790266575335566300,10.53756640625,-1.0841617584228516,-0.8403506278991699,0.6635675430297852
1790266575345566500,10.54756640625,-1.4857120513916016,-1.0958995819091797,1.0224251747131348
1790266575355566300,10.55756640625,-1.940347671508789,-1.477865219116211,1.2826313972473145
1790266575365566500,10.56756640625,-1.8306350708007812,-1.8999757766723633,1.6551618576049805
1790266575375566300,10.57756640625,-1.1796746253967285,-2.1212315559387207,2.0462098121643066
1790266575385566500,10.58756640625,-1.1527509689331055,-2.218512535095215,2.2856154441833496
1790266575395566300,10.59756640625,-1.7850532531738281,-2.251978874206543,2.372368335723877
1790266575405566500,10.60756640625,-2.209156036376953,-2.2425055503845215,2.3946614265441895
1790266575415566300,10.61756640625,-2.3038249015808105,-2.141688823699951,2.23195219039917
1790266575425566500,10.62756640625,-2.5032029151916504,-1.943260669708252,2.006598472595215
1790266575435566300,10.63756640625,-2.746830940246582,-1.7469887733459473,2.0879621505737305
1790266575445566500,10.64756640625,-2.693136215209961,-1.5762100219726562,2.3891305923461914
1790266575455566300,10.65756640625,-2.5089449882507324,-1.4314861297607422,2.8365392684936523
1790266575465566500,10.66756640625,-2.015544891357422,-1.3806390762329102,3.267991065979004
1790266575475566300,10.67756640625,-1.7606148719787598,-1.4209470748901367,3.4076576232910156
1790266575485566500,10.68756640625,-1.9400725364685059,-1.462240219116211,3.1904296875
1790266575495566300,10.69756640625,-2.0672683715820312,-1.4201679229736328,2.5338125228881836
1790266575505566500,10.70756640625,-2.0302414894104004,-1.343116283416748,1.836925983428955
1790266575515566300,10.71756640625,-1.9493451118469238,-1.1725754737854004,1.2477760314941406
1790266575525566500,10.72756640625,-1.9321990013122559,-0.961768627166748,0.8992886543273926
1790266575535566300,10.73756640625,-1.9146323204040527,-0.7790756225585938,0.565129280090332
1790266575545566500,10.74756640625,-1.8429107666015625,-0.8277420997619629,0.2633962631225586
1790266575555566300,10.75756640625,-1.791429042816162,-0.932279109954834,-0.0836644172668457
1790266575565566500,10.76756640625,-1.7945356369018555,-1.0918269157409668,-0.4313192367553711
1790266575575566300,10.77756640625,-1.7692713737487793,-1.1906437873840332,-0.8061051368713379
1790266575585566500,10.78756640625,-1.7921600341796875,-1.2614812850952148,-1.0903010368347168
1790266575595566300,10.79756640625,-1.7417125701904297,-1.3508481979370117,-1.314542293548584
1790266575605566500,10.80756640625,-1.589402675628662,-1.5280790328979492,-1.3141217231750488
1790266575615566300,10.81756640625,-1.2482342720031738,-1.6459178924560547,-1.1873068809509277
1790266575625566500,10.82756640625,-0.7109889984130859,-1.609846591949463,-0.9790587425231934
1790266575635566300,10.83756640625,-0.23756170272827148,-1.4973483085632324,-0.6501808166503906
1790266575645566500,10.84756640625,0.031039714813232422,-1.1675662994384766,-0.3947157859802246
1790266575655566300,10.85756640625,-0.28575944900512695,-0.6942887306213379,-0.1983809471130371
1790266575665566500,10.86756640625,-1.093667984008789,-0.37996673583984375,-0.0059967041015625
1790266575675566300,10.87756640625,-1.978775978088379,-0.3962545394897461,0.23639154434204102
1790266575685566500,10.88756640625,-2.4933509826660156,-0.5893712043762207,0.6843724250793457
1790266575695566300,10.89756640625,-2.1900572776794434,-0.9312820434570312,1.4991602897644043
1790266575705566500,10.90756640625,-1.276686191558838,-1.2555208206176758,2.4041695594787598
1790266575715566300,10.91756640625,-0.24863910675048828,-1.3597064018249512,3.0004329681396484
1790266575725566500,10.92756640625,0.22028827667236328,-1.28810453414917,2.8564858436584473
1790266575735566300,10.93756640625,0.0692143440246582,-1.129302978515625,2.154837131500244
1790266575745566500,10.94756640625,-0.31371212005615234,-1.0569448471069336,1.5885982513427734
1790266575755566300,10.95756640625,-0.7980589866638184,-1.2570090293884277,1.567375659942627
1790266575765566500,10.96756640625,-0.9537076950073242,-1.387209415435791,1.6810340881347656
1790266575775566300,10.97756640625,-0.8914227485656738,-1.310206413269043,1.7794537544250488
1790266575785566500,10.98756640625,-0.887761116027832,-1.2488436698913574,2.0011820793151855
1790266575795566300,10.99756640625,-1.0613317489624023,-1.366593837738037,2.1440820693969727
1790266575805566500,11.00756640625,-1.3070645332336426,-1.5545902252197266,2.0910258293151855
1790266575815566300,11.01756640625,-1.023127555847168,-1.7850899696350098,1.8575611114501953
1790266575825566500,11.02756640625,-0.38640308380126953,-1.880122184753418,1.5964365005493164
1790266575835566300,11.03756640625,-0.23804521560668945,-1.7221150398254395,1.4472217559814453
1790266575845566500,11.04756640625,-0.7986588478088379,-1.5411162376403809,1.3743667602539062
1790266575855566300,11.05756640625,-1.0905251502990723,-1.368903636932373,1.2154412269592285
1790266575865566500,11.06756640625,-0.40820741653442383,-1.2844719886779785,0.9310240745544434
1790266575875566300,11.07756640625,0.9183096885681152,-1.1795334815979004,0.7264552116394043
1790266575885566500,11.08756640625,1.5147194862365723,-1.0529570579528809,0.6688051223754883
1790266575895566300,11.09756640625,1.1137943267822266,-1.025428295135498,0.6699857711791992
1790266575905566500,11.10756640625,0.6546039581298828,-1.1522409915924072,0.5077581405639648
1790266575915566300,11.11756640625,0.6151022911071777,-1.3546831607818604,0.4461226463317871
1790266575925566500,11.12756640625,0.6236848831176758,-1.5869359970092773,0.5327653884887695
1790266575935566300,11.13756640625,0.7473783493041992,-1.829505205154419,0.5164294242858887
1790266575945566500,11.14756640625,1.3148713111877441,-1.955986738204956,0.4099545478820801
1790266575955566300,11.15756640625,1.7280397415161133,-1.8750147819519043,0.32992982864379883
1790266575965566500,11.16756640625,1.6582059860229492,-1.6521332263946533,0.32801294326782227
1790266575975566300,11.17756640625,1.6906356811523438,-1.4533774852752686,0.4405848979949951
1790266575985566500,11.18756640625,1.882164478302002,-1.2944104671478271,0.5839931964874268
1790266575995566300,11.19756640625,2.119098663330078,-1.3217633962631226,0.29401373863220215
1790266576005566500,11.20756640625,2.4859280586242676,-1.6556178331375122,-0.24775099754333496
1790266576015566300,11.21756640625,3.396139621734619,-1.5023318529129028,-0.3461730480194092
1790266576025566500,11.22756640625,3.9417409896850586,-0.7502952814102173,-1.0391254425048828
1790266576035566300,11.23756640625,4.056078910827637,-0.0791577696800232,-1.1754086017608643
1790266576045566500,11.24756640625,3.7733469009399414,0.5081422924995422,-1.351257085800171
1790266576055566300,11.25756640625,3.098259925842285,0.91177898645401,-1.7185230255126953
1790266576065566500,11.26756640625,3.400629997253418,1.04639732837677,-2.0180768966674805
1790266576075566300,11.27756640625,3.9985742568969727,1.1445257663726807,-1.9910682439804077
1790266576085566500,11.28756640625,3.8583078384399414,1.1383386850357056,-1.9559499025344849
1790266576095566300,11.29756640625,3.346426010131836,1.1423683166503906,-2.0021145343780518
1790266576105566500,11.30756640625,3.6260986328125,1.0346040725708008,-2.063927412033081
1790266576115566300,11.31756640625,4.663956642150879,0.7980942726135254,-2.3650481700897217
1790266576125566500,11.32756640625,5.259604454040527,0.6721789836883545,-2.568061590194702
1790266576135566300,11.33756640625,4.49330472946167,0.7550019025802612,-2.6802210807800293
1790266576145566500,11.34756640625,3.912631034851074,0.8031485080718994,-2.094212055206299
1790266576155566300,11.35756640625,4.132737159729004,0.7259936332702637,-1.5135637521743774
1790266576165566500,11.36756640625,3.8678693771362305,0.8498182892799377,-1.9055718183517456
1790266576175566300,11.37756640625,3.9489784240722656,1.1873557567596436,-1.961479663848877
1790266576185566500,11.38756640625,3.751498222351074,1.434725046157837,-1.9694478511810303
1790266576195566300,11.39756640625,3.166677474975586,1.4381580352783203,-2.239321708679199
1790266576205566500,11.40756640625,2.827444076538086,1.255370020866394,-2.5783393383026123
1790266576215566300,11.41756640625,2.4931774139404297,1.0089893341064453,-2.778867721557617
1790266576225566500,11.42756640625,2.6291141510009766,0.7489373683929443,-2.6083991527557373
1790266576235566300,11.43756640625,2.9071121215820312,0.6084685325622559,-2.6794726848602295
1790266576245566500,11.44756640625,3.077341079711914,0.4985766112804413,-2.7220799922943115
1790266576255566300,11.45756640625,3.1819114685058594,0.3688916563987732,-2.5293829441070557
1790266576265566500,11.46756640625,2.5692758560180664,0.2914968729019165,-2.392794132232666
1790266576275566300,11.47756640625,2.040454864501953,0.23292362689971924,-1.8924627304077148
1790266576285566500,11.48756640625,2.204191207885742,0.09817111492156982,-1.4867911338806152
1790266576295566300,11.49756640625,2.780421257019043,-0.0697404146194458,-1.529956579208374
1790266576305566500,11.50756640625,2.6705589294433594,-0.21853303909301758,-1.7474336624145508
1790266576315566300,11.51756640625,1.9426164627075195,-0.367534875869751,-1.7567424774169922
1790266576325566500,11.52756640625,1.6089296340942383,-0.5569148063659668,-1.6859350204467773
1790266576335566300,11.53756640625,1.0738286972045898,-0.5416398048400879,-1.6169843673706055
1790266576345566500,11.54756640625,0.6733675003051758,-0.3249075412750244,-1.3729662895202637
1790266576355566300,11.55756640625,0.47850990295410156,-0.1642138957977295,-0.9987525939941406
1790266576365566500,11.56756640625,0.37288522720336914,-0.1682758331298828,-0.6375508308410645
1790266576375566300,11.57756640625,0.1590428352355957,-0.28344035148620605,-0.28170061111450195
1790266576385566500,11.58756640625,-0.20583772659301758,-0.43815183639526367,0.019632339477539062
1790266576395566300,11.59756640625,-0.3317446708679199,-0.8762936592102051,0.21503973007202148
1790266576405566500,11.60756640625,-0.17250490188598633,-1.4440019130706787,0.4012913703918457
1790266576415566300,11.61756640625,-0.015604972839355469,-1.84663724899292,0.42978715896606445
1790266576425566500,11.62756640625,-0.4439969062805176,-1.8988533020019531,0.16354084014892578
1790266576435566300,11.63756640625,-0.5433831214904785,-1.968203067779541,-0.057646751403808594
1790266576445566500,11.64756640625,-0.3143758773803711,-1.8397397994995117,-0.11102294921875
1790266576455566300,11.65756640625,-0.36845874786376953,-1.6170907020568848,-0.019994258880615234
1790266576465566500,11.66756640625,-1.3110685348510742,-1.2987542152404785,0.24761724472045898
1790266576475566300,11.67756640625,-2.885720729827881,-1.0067553520202637,0.5803594589233398
1790266576485566500,11.68756640625,-3.346761703491211,-0.7417616844177246,0.6570730209350586
1790266576495566300,11.69756640625,-2.6023974418640137,-0.6698727607727051,0.23590517044067383
1790266576505566500,11.70756640625,-1.5036163330078125,-1.1314630508422852,-0.30364131927490234
1790266576515566300,11.71756640625,-1.276895523071289,-1.8439021110534668,-0.49678707122802734
1790266576525566500,11.72756640625,-1.598358154296875,-2.5278215408325195,-0.05466413497924805
1790266576535566300,11.73756640625,-1.6492738723754883,-2.9649600982666016,0.7867598533630371
1790266576545566500,11.74756640625,-1.7138266563415527,-3.1317477226257324,1.32220458984375
1790266576555566300,11.75756640625,-2.089679718017578,-3.0897164344787598,1.586184024810791
1790266576565566500,11.76756640625,-2.5222887992858887,-2.985222816467285,1.8256053924560547
1790266576575566300,11.77756640625,-2.594024181365967,-2.820321559906006,1.7794475555419922
1790266576585566500,11.78756640625,-2.5572309494018555,-2.4485859870910645,1.5567684173583984
1790266576595566300,11.79756640625,-2.8262453079223633,-2.381816864013672,1.7150845527648926
1790266576605566500,11.80756640625,-3.3051958084106445,-2.193535327911377,1.9820666313171387
1790266576615566300,11.81756640625,-3.681033134460449,-1.8824238777160645,1.96885347366333
1790266576625566500,11.82756640625,-3.427886486053467,-1.5504202842712402,1.8048529624938965
1790266576635566300,11.83756640625,-2.7727560997009277,-1.5370635986328125,1.8604140281677246
1790266576645566500,11.84756640625,-2.408176898956299,-1.4931106567382812,1.9784727096557617
1790266576655566300,11.85756640625,-2.0502543449401855,-1.307912826538086,1.7402701377868652
1790266576665566500,11.86756640625,-1.8130168914794922,-0.9547562599182129,1.3832039833068848
1790266576675566300,11.87756640625,-2.063577175140381,-0.5541567802429199,1.2017617225646973
1790266576685566500,11.88756640625,-2.2242431640625,-0.3237895965576172,1.1658334732055664
1790266576695566300,11.89756640625,-1.9638447761535645,-0.2059788703918457,1.2648210525512695
1790266576705566500,11.90756640625,-1.519477367401123,-0.059140682220458984,1.4404401779174805
1790266576715566300,11.91756640625,-1.4361095428466797,0.2023148536682129,1.3850178718566895
1790266576725566500,11.92756640625,-1.5968737602233887,0.46198081970214844,1.0752053260803223
1790266576735566300,11.93756640625,-1.7856817245483398,0.5144882202148438,0.8271059989929199
1790266576745566500,11.94756640625,-1.9766159057617188,0.2931842803955078,0.9553971290588379
1790266576755566300,11.95756640625,-1.8593759536743164,-0.21625614166259766,1.347510814666748
1790266576765566500,11.96756640625,-1.4825453758239746,-0.7954196929931641,1.631972312927246
1790266576775566300,11.97756640625,-1.079218864440918,-1.2903776168823242,1.7508935928344727
1790266576785566500,11.98756640625,-0.6911578178405762,-1.6689109802246094,1.7167987823486328
1790266576795566300,11.99756640625,-0.2009143829345703,-1.9054675102233887,1.4637632369995117
1790266576805566500,12.00756640625,0.051692962646484375,-1.9807157516479492,1.1979589462280273
1790266576815566300,12.01756640625,-0.3553905487060547,-1.9499950408935547,1.2645416259765625
1790266576825566500,12.02756640625,-1.1340084075927734,-1.9207696914672852,1.673506259918213
1790266576835566300,12.03756640625,-1.8069539070129395,-1.879295825958252,2.302067756652832
1790266576845566500,12.04756640625,-1.8515076637268066,-1.8651294708251953,3.1122326850891113
1790266576855566300,12.05756640625,-1.1053786277770996,-1.8804149627685547,3.8265223503112793
1790266576865566500,12.06756640625,-0.28287649154663086,-1.7662649154663086,4.077130317687988
1790266576875566300,12.07756640625,0.10408687591552734,-1.4661064147949219,3.4996018409729004
1790266576885566500,12.08756640625,0.0687556266784668,-1.0438933372497559,2.3403635025024414
1790266576895566300,12.09756640625,0.08844757080078125,-0.6468071937561035,1.430098056793213
1790266576905566500,12.10756640625,0.6132321357727051,-0.3718752861022949,1.1057705879211426
1790266576915566300,12.11756640625,1.5877156257629395,-0.0016789436340332031,0.8483052253723145
1790266576925566500,12.12756640625,2.032979965209961,0.41673851013183594,0.7308578491210938
1790266576935566300,12.13756640625,1.2939820289611816,0.8659944534301758,0.6278929710388184
1790266576945566500,12.14756640625,-0.15747785568237305,0.9849390983581543,0.7322497367858887
1790266576955566300,12.15756640625,-1.8162379264831543,0.5328454971313477,1.452176570892334
1790266576965566500,12.16756640625,-2.481520175933838,-0.4165916442871094,2.5088534355163574
1790266576975566300,12.17756640625,-0.9848875999450684,-1.9539918899536133,3.0725722312927246
1790266576985566500,12.18756640625,0.5172247886657715,-2.6895523071289062,2.5138602256774902
1790266576995566300,12.19756640625,0.8968348503112793,-2.722856044769287,1.8219685554504395
1790266577005566500,12.20756640625,0.06470012664794922,-2.4013853073120117,1.4703197479248047
1790266577015566300,12.21756640625,-0.6437206268310547,-2.0940005779266357,1.5816316604614258
1790266577025566500,12.22756640625,-0.7072768211364746,-2.2369494438171387,1.7720789909362793
1790266577035566300,12.23756640625,-0.10857009887695312,-2.612337589263916,1.6328210830688477
1790266577045566500,12.24756640625,0.7978057861328125,-2.6700265407562256,1.2017483711242676
1790266577055566300,12.25756640625,0.7820520401000977,-2.30731463432312,0.8305106163024902
1790266577065566500,12.26756640625,-0.0005846023559570312,-1.8010964393615723,0.5876874923706055
1790266577075566300,12.27756640625,-0.6669855117797852,-1.392091989517212,0.46928882598876953
1790266577085566500,12.28756640625,-0.4202699661254883,-1.2693791389465332,0.44997358322143555
1790266577095566300,12.29756640625,0.9745950698852539,-1.4054367542266846,0.5376334190368652
1790266577105566500,12.30756640625,2.062821865081787,-1.593146800994873,0.6688213348388672
1790266577115566300,12.31756640625,2.5261778831481934,-1.6921895742416382,0.5693228244781494
1790266577125566500,12.32756640625,3.0117669105529785,-1.6927626132965088,0.3071777820587158
1790266577135566300,12.33756640625,3.406484603881836,-1.605756163597107,0.011449813842773438
1790266577145566500,12.34756640625,3.9401865005493164,-1.4532408714294434,-0.4495871067047119
1790266577155566300,12.35756640625,4.733277320861816,-1.2280176877975464,-0.7510795593261719
1790266577165566500,12.36756640625,5.457957744598389,-0.9928621053695679,-1.0092997550964355
1790266577175566300,12.37756640625,5.769939422607422,-0.6654171347618103,-1.217283010482788
1790266577185566500,12.38756640625,5.545482158660889,-0.3375169038772583,-1.5484962463378906
1790266577195566300,12.39756640625,4.769142150878906,-0.02134120464324951,-2.1777617931365967
1790266577205566500,12.40756640625,3.654407501220703,0.39422011375427246,-2.7952795028686523
1790266577215566300,12.41756640625,2.8564939498901367,1.0045568943023682,-3.224141836166382
1790266577225566500,12.42756640625,3.011166572570801,1.5772812366485596,-3.1784567832946777
1790266577235566300,12.43756640625,3.152984619140625,2.14713978767395,-2.4631142616271973
1790266577245566500,12.44756640625,2.801395893096924,2.3181636333465576,-1.5801966190338135
1790266577255566300,12.45756640625,2.4168262481689453,1.7867157459259033,-0.997230052947998
1790266577265566500,12.46756640625,2.431260108947754,0.9370967149734497,-0.4598512649536133
1790266577275566300,12.47756640625,2.789923667907715,0.08065437525510788,-0.06710076332092285
1790266577285566500,12.48756640625,2.743260383605957,-0.46559470891952515,-0.19797301292419434
1790266577295566300,12.49756640625,2.011727809906006,-0.6692054867744446,-0.8214898109436035
1790266577305566500,12.50756640625,1.6769609451293945,-0.7231457829475403,-1.4717433452606201
1790266577315566300,12.51756640625,1.9778766632080078,-0.7152498960494995,-1.7020018100738525
1790266577325566500,12.52756640625,2.76033878326416,-0.4033595621585846,-1.8223545551300049
1790266577335566300,12.53756640625,3.6885948181152344,0.14186972379684448,-1.9386937618255615
1790266577345566500,12.54756640625,3.993906021118164,0.7143749594688416,-2.201533317565918
1790266577355566300,12.55756640625,4.164800643920898,1.1912981271743774,-2.507871150970459
1790266577365566500,12.56756640625,4.730766296386719,1.495531439781189,-2.502504825592041
1790266577375566300,12.57756640625,5.420045375823975,1.503605842590332,-2.464503765106201
1790266577385566500,12.58756640625,5.309734344482422,1.2437580823898315,-2.644806385040283
1790266577395566300,12.59756640625,3.5030136108398438,0.8198955655097961,-2.829683542251587
1790266577405566500,12.60756640625,2.3599205017089844,0.30250418186187744,-2.468611478805542
1790266577415566300,12.61756640625,3.6342453956604004,-0.15807056427001953,-1.9028584957122803
1790266577425566500,12.62756640625,5.031454086303711,-0.4399045705795288,-1.7461698055267334
1790266577435566300,12.63756640625,5.335323333740234,-0.5653334856033325,-1.517103672027588
1790266577445566500,12.64756640625,4.935418128967285,-0.5379105806350708,-1.251410961151123
1790266577455566300,12.65756640625,3.8872928619384766,-0.44740331172943115,-0.9937417507171631
1790266577465566500,12.66756640625,1.648880958557129,-0.5330861806869507,-0.6250591278076172
1790266577475566300,12.67756640625,0.19581985473632812,-0.7752904891967773,-0.06525611877441406
1790266577485566500,12.68756640625,0.15578079223632812,-0.8594057559967041,0.25450706481933594
1790266577495566300,12.69756640625,0.7191839218139648,-0.725477933883667,0.26938962936401367
1790266577505566500,12.70756640625,1.5180845260620117,-0.45188403129577637,0.15455865859985352
1790266577515566300,12.71756640625,1.9053606986999512,-0.26142382621765137,0.24950838088989258
1790266577525566500,12.72756640625,1.7464065551757812,-0.24222755432128906,0.5739660263061523
1790266577535566300,12.73756640625,1.3593592643737793,-0.40463924407958984,0.8581099510192871
1790266577545566500,12.74756640625,0.06765270233154297,-0.7134225368499756,0.7566885948181152
1790266577555566300,12.75756640625,-0.9960002899169922,-1.145202398300171,0.2857246398925781
1790266577565566500,12.76756640625,-1.3879079818725586,-1.6737239360809326,-0.21971702575683594
1790266577575566300,12.77756640625,-1.6332154273986816,-2.1905598640441895,-0.522179126739502
1790266577585566500,12.78756640625,-1.0882296562194824,-2.567416191101074,-0.12897539138793945
1790266577595566300,12.79756640625,-0.5380239486694336,-2.6258368492126465,0.19146156311035156
1790266577605566500,12.80756640625,-0.05639791488647461,-2.6856436729431152,0.19814348220825195
1790266577615566300,12.81756640625,0.07195758819580078,-2.509016513824463,-0.07126045227050781
1790266577625566500,12.82756640625,0.3586769104003906,-2.3729968070983887,-0.45099878311157227
1790266577635566300,12.83756640625,0.5261092185974121,-1.9799532890319824,-0.7888355255126953
1790266577645566500,12.84756640625,-0.5343332290649414,-1.822756290435791,-0.8445382118225098
1790266577655566300,12.85756640625,-2.148087978363037,-1.5538115501403809,-0.7072725296020508
1790266577665566500,12.86756640625,-3.362386703491211,-1.0313444137573242,-0.3189277648925781
1790266577675566300,12.87756640625,-3.766920566558838,-0.5600638389587402,0.5949139595031738
1790266577685566500,12.88756640625,-3.7436294555664062,-0.5848441123962402,1.7634172439575195
1790266577695566300,12.89756640625,-3.9852285385131836,-1.0876641273498535,2.815605640411377
1790266577705566500,12.90756640625,-4.076578140258789,-1.9142489433288574,3.338315010070801
1790266577715566300,12.91756640625,-3.5724592208862305,-2.913238048553467,3.4397988319396973
1790266577725566500,12.92756640625,-3.0191102027893066,-3.8032965660095215,3.475588321685791
1790266577735566300,12.93756640625,-2.829509735107422,-4.352156162261963,3.183725357055664
1790266577745566500,12.94756640625,-2.856480598449707,-4.4419636726379395,2.4990572929382324
1790266577755566300,12.95756640625,-3.158195972442627,-4.111240863800049,2.0328431129455566
1790266577765566500,12.96756640625,-3.1226391792297363,-3.4664230346679688,1.650874137878418
1790266577775566300,12.97756640625,-2.5555052757263184,-2.6732234954833984,1.3039817810058594
1790266577785566500,12.98756640625,-1.7808599472045898,-1.8288660049438477,0.9888424873352051
1790266577795566300,12.99756640625,-1.1228594779968262,-1.062044620513916,0.5933246612548828
1790266577805566500,13.00756640625,-0.690913200378418,-0.35859060287475586,0.0191192626953125
1790266577815566300,13.01756640625,-0.662050724029541,0.2932014465332031,-0.6504793167114258
1790266577825566500,13.02756640625,-1.0210590362548828,0.7407793998718262,-1.0426125526428223
