time,seconds_elapsed,z,y,x
1790266564870211800,0.0722119140625,-0.5189296007156372,1.5662572383880615,-0.45249807834625244
1790266564887462400,0.08946240234375,-0.6832522749900818,2.308458089828491,-0.494647741317749
1790266564904715000,0.106715087890625,-1.016784429550171,3.14595365524292,-0.5380191802978516
1790266564921967900,0.1239677734375,-1.3008365631103516,3.4941465854644775,-0.7017309069633484
1790266564939220500,0.141220458984375,-1.3008365631103516,3.6205954551696777,-1.0572541952133179
1790266564956473000,0.15847314453125,-1.3057234287261963,3.5112507343292236,-1.3871212005615234
1790266564973725700,0.1757255859375,-1.408348798751831,2.547916889190674,-1.430492639541626
1790266564990978600,0.192978515625,-1.3949097394943237,0.5393936038017273,-1.1238384246826172
1790266565008231200,0.210231201171875,-1.1866048574447632,-1.5528182983398438,-0.49831295013427734
1790266565025483800,0.22748388671875,-1.2134828567504883,-2.389092206954956,-0.037720900028944016
1790266565042736600,0.244736572265625,-1.1731657981872559,-2.473391532897949,0.6458367705345154
1790266565059989200,0.2619892578125,-0.9911280870437622,-2.7055201530456543,1.2231040000915527
1790266565077241900,0.279241943359375,-0.898276686668396,-2.148411512374878,1.3849831819534302
1790266565094494500,0.296494384765625,-0.878118097782135,-0.5320632457733154,1.1039854288101196
1790266565111747300,0.313747314453125,-0.6502655744552612,1.1954623460769653,0.5823068618774414
1790266565129000000,0.331,-0.10842850059270859,2.749502420425415,0.052687086164951324
1790266565146252500,0.34825244140625,0.2788597643375397,2.3255622386932373,-0.031001387163996696
1790266565163505400,0.36550537109375,0.4889972507953644,1.4862339496612549,0.3092502951622009
1790266565180758000,0.382758056640625,0.6178897023200989,0.35063639283180237,0.7802270650863647
1790266565198010600,0.4000107421875,0.48105600476264954,0.15149445831775665,1.111926555633545
1790266565215263200,0.41726318359375,-0.3912588953971863,-0.7568614482879639,0.5914698243141174
1790266565232516000,0.43451611328125,-1.4388920068740845,-2.7537784576416016,-0.3065013885498047
1790266565249768700,0.451768798828125,-2.039371967315674,-4.725649833679199,-0.8086322546005249
1790266565267021300,0.469021240234375,-1.9953898191452026,-5.637670993804932,-0.6650790572166443
1790266565284274000,0.48627392578125,-1.5573997497558594,-6.133693218231201,-0.34865108132362366
1790266565301526800,0.50352685546875,-1.0338886976242065,-3.584554433822632,-0.3254382014274597
1790266565318779400,0.520779296875,-0.4822777509689331,-0.988990068435669,0.05513054504990578
1790266565336032000,0.538031982421875,0.08949168771505356,-0.4221075773239136,0.3685041666030884
1790266565353284900,0.555284912109375,0.6801979541778564,-0.8637627959251404,0.5920807123184204
1790266565370537500,0.572537353515625,0.9776890873908997,-1.4300343990325928,1.03129243850708
1790266565387790000,0.5897900390625,0.7290670871734619,-2.3005168437957764,1.631772518157959
1790266565405042700,0.607042724609375,0.2049451321363449,-3.325547933578491,2.3232715129852295
1790266565422295300,0.62429541015625,-0.04550942778587341,-3.7824747562408447,2.788139581680298
1790266565439548200,0.641548095703125,0.3656025826931,-3.8209590911865234,2.909090757369995
1790266565456800800,0.65880078125,0.8451313972473145,-3.6022696495056152,2.6580252647399902
1790266565474053400,0.676053466796875,1.470046043395996,-3.0555455684661865,2.1925463676452637
1790266565491306200,0.69330615234375,2.215912103652954,-3.2149813175201416,1.62199866771698
1790266565508558800,0.710558837890625,2.9013023376464844,-3.6034913063049316,1.3403900861740112
1790266565525811500,0.7278115234375,3.5188865661621094,-4.159989356994629,1.3226749897003174
1790266565543064000,0.74506396484375,3.992917537689209,-4.76657772064209,1.2102758884429932
1790266565560317000,0.76231689453125,4.426631450653076,-5.294975757598877,0.8773545622825623
1790266565577569500,0.779569580078125,5.049102783203125,-6.16912317276001,0.35323256254196167
1790266565594822100,0.796822265625,6.071079730987549,-6.482497215270996,-0.006566796451807022
1790266565612074800,0.81407470703125,6.747917652130127,-6.680417060852051,-0.268627792596817
1790266565629327600,0.83132763671875,7.168803691864014,-7.638253211975098,-0.19471314549446106
1790266565646580200,0.848580322265625,7.105273723602295,-8.447037696838379,0.44119709730148315
1790266565663832800,0.865832763671875,6.891470909118652,-8.503849029541016,1.2322670221328735
1790266565681085400,0.88308544921875,6.675835609436035,-7.927192211151123,2.0129520893096924
1790266565698338300,0.90033837890625,6.252506256103516,-6.848404884338379,2.8883213996887207
1790266565715591000,0.9175908203125,5.567727088928223,-5.675544738769531,3.593870162963867
1790266565732843500,0.934843505859375,4.631882190704346,-4.318202972412109,3.9304566383361816
1790266565750096100,0.95209619140625,3.2953100204467773,-2.9822418689727783,3.730093002319336
1790266565767349000,0.969348876953125,1.8182389736175537,-1.3836086988449097,2.7288856506347656
1790266565784601600,0.9866015625,0.9178243279457092,0.536339282989502,0.27137666940689087
1790266565801854200,1.003854248046875,0.7046325206756592,-0.13988803327083588,-1.3028218746185303
1790266565819107000,1.021107177734375,0.40836310386657715,-0.33047783374786377,-1.788459300994873
1790266565836359700,1.038359619140625,-0.11148282140493393,0.4862483739852905,-2.129321813583374
1790266565853612300,1.0556123046875,-0.5665770769119263,0.059864748269319534,-1.1543817520141602
1790266565870865000,1.072864990234375,-0.8463531732559204,-1.061682939529419,0.9292780160903931
1790266565888117800,1.09011767578125,-1.2018764019012451,-1.9926408529281616,2.8260130882263184
1790266565905370400,1.107370361328125,-1.923918604850769,-2.90893816947937,3.4826927185058594
1790266565922623000,1.124623046875,-2.8854198455810547,-4.065916061401367,0.9445496797561646
1790266565939875600,1.14187548828125,-3.264155864715576,-3.520413637161255,-0.5349648594856262
1790266565957128400,1.15912841796875,-3.4883432388305664,-1.7067562341690063,-0.20082180202007294
1790266565974381000,1.176381103515625,-4.691135883331299,-0.2669478952884674,-0.2228129357099533
1790266565991633700,1.193633544921875,-4.9666361808776855,-0.9321796298027039,-0.5068650245666504
1790266566008886500,1.210886474609375,-3.1786348819732666,-2.2033891677856445,-0.16905683279037476
1790266566026139100,1.22813916015625,-2.2989895343780518,-2.49843692779541,-0.6424770355224609
1790266566043391700,1.245391845703125,-2.5408921241760254,-1.6322306394577026,-1.5105159282684326
1790266566060644400,1.262644287109375,-2.360687017440796,-1.3188570737838745,-1.7463096380233765
1790266566077897200,1.279897216796875,-1.472489595413208,-1.833205223083496,-1.6033673286437988
1790266566095149800,1.29714990234375,-1.14017915725708,-2.221715211868286,-1.3492475748062134
1790266566112402400,1.31440234375,-1.5952733755111694,-2.8295257091522217,-1.4445425271987915
1790266566129655000,1.331655029296875,-1.4089596271514893,-3.2198681831359863,-1.3376411199569702
1790266566146908000,1.348907958984375,-0.231212317943573,-3.0689847469329834,-1.0474803447723389
1790266566164160500,1.366160400390625,0.6191114783287048,-2.532034397125244,-1.0401500463485718
1790266566181413000,1.3834130859375,1.3820815086364746,-2.050673007965088,-1.1946988105773926
1790266566198665700,1.400665771484375,1.542128086090088,-1.5625921487808228,-1.3248130083084106
1790266566215918600,1.417918701171875,1.2134828567504883,-0.9944878816604614,-1.236237645149231
1790266566233171200,1.435171142578125,0.499381959438324,-0.675616443157196,-1.2722786664962769
1790266566250423800,1.452423828125,0.4309650957584381,-1.0519092082977295,-1.3156499862670898
1790266566267676700,1.4696767578125,0.7987056970596313,-1.444695234298706,-1.233794093132019
1790266566284929300,1.48692919921875,1.1377356052398682,-1.4685189723968506,-1.2356266975402832
1790266566302182000,1.504181884765625,0.9495893120765686,-1.2260055541992188,-1.1097885370254517
1790266566319434800,1.521434814453125,0.5390881896018982,-0.2516762912273407,-0.9906699657440186
1790266566336687400,1.538687255859375,0.035735588520765305,0.10873392969369888,-0.6357575058937073
1790266566353940000,1.55593994140625,-0.3631591200828552,-0.3481929302215576,-0.1879936307668686
1790266566371451400,1.573451416015625,-0.591622531414032,-0.6927206516265869,0.042913250625133514
1790266566388790500,1.59079052734375,-0.8097012639045715,-0.38240134716033936,0.05146535858511925
1790266566406388200,1.60838818359375,-0.8994984030723572,-0.1331685185432434,0.2188423126935959
1790266566423986000,1.62598583984375,-0.5910117030143738,-0.23029601573944092,0.5267181396484375
1790266566441583600,1.64358349609375,-0.36682429909706116,-0.4728093445301056,0.6659952998161316
1790266566459181300,1.661181396484375,-0.007024944759905338,-0.28527384996414185,-0.016340631991624832
1790266566476779000,1.678779052734375,0.2519817352294922,-0.2254091054201126,-0.54962557554245
1790266566494376700,1.696376708984375,0.4566214084625244,-0.043371398001909256,-0.7701478004455566
1790266566511974100,1.71397412109375,0.7455604672431946,-0.23518294095993042,-0.33948808908462524
1790266566529571600,1.731571533203125,1.0112866163253784,-0.14477495849132538,0.20723587274551392
1790266566547169300,1.749169189453125,1.0882556438446045,1.0372483730316162,0.35506516695022583
1790266566564766700,1.7667666015625,1.3142756223678589,0.9902117848396301,1.0080796480178833
1790266566582364200,1.7843642578125,1.0748165845870972,0.4153880476951599,1.2872447967529297
1790266566599789300,1.801789306640625,0.962417483329773,0.6163625717163086,1.3263401985168457
1790266566617042200,1.819042236328125,0.9123265743255615,0.646905779838562,1.2957968711853027
1790266566634295300,1.83629541015625,0.9385937452316284,0.6298015713691711,1.2359321117401123
1790266566651548200,1.853548095703125,1.1004729270935059,0.3707949221134186,1.3019055128097534
1790266566668801000,1.870801025390625,1.2507456541061401,0.2516762912273407,1.428965449333191
1790266566686054000,1.888053955078125,1.387579321861267,0.07086031138896942,1.3862049579620361
1790266566703306500,1.905306396484375,1.6985095739364624,-0.16615521907806396,1.430798053741455
1790266566720559000,1.92255908203125,2.017380952835083,-0.35735589265823364,1.6537636518478394
1790266566737811500,1.9398115234375,2.3148720264434814,-0.1185077652335167,1.7673845291137695
1790266566755064000,1.95706396484375,2.37534761428833,-0.000610864779446274,1.8596251010894775
1790266566772316700,1.974316650390625,1.8286237716674805,-0.2528980076313019,1.8504620790481567
1790266566789569000,1.991569091796875,1.1505638360977173,-0.3066541254520416,1.8015929460525513
1790266566806822000,2.00882177734375,0.7596103549003601,-0.1588248461484909,1.6464333534240723
1790266566824074500,2.026074462890625,0.602007269859314,0.0824667438864708,1.245095133781433
1790266566841327000,2.0433271484375,0.5445859432220459,0.0720820426940918,0.7044798135757446
1790266566858580000,2.060580078125,0.4920515716075897,-0.14599667489528656,0.31413722038269043
1790266566875832600,2.07783251953125,0.5134318470954895,-0.7183769941329956,0.29886558651924133
1790266566893085400,2.09508544921875,0.5152644515037537,-2.0384557247161865,0.4283689260482788
1790266566910338000,2.112338134765625,0.28985533118247986,-2.6163339614868164,0.6830995678901672
1790266566927590700,2.129590576171875,-0.5018253922462463,-0.5296197533607483,1.0221295356750488
1790266566944843500,2.146843505859375,-0.3851502537727356,2.175900459289551,0.16752967238426208
1790266566962096000,2.16409619140625,-0.06261363625526428,2.618166446685791,-0.3657552897930145
1790266566979348700,2.1813486328125,0.4150826036930084,2.480721950531006,0.08750637620687485
1790266566996601600,2.1986015625,1.2696824073791504,1.3170244693756104,0.9640973210334778
1790266567013854200,2.215854248046875,2.087630271911621,1.4453060626983643,0.6513345837593079
1790266567031107000,2.233107177734375,2.104123830795288,1.2693769931793213,0.2084576040506363
1790266567048359700,2.250359619140625,1.685070514678955,0.9334014058113098,0.30253079533576965
1790266567065612300,2.2676123046875,0.9868520498275757,1.3891065120697021,0.4399753510951996
1790266567082865200,2.284865234375,0.30146175622940063,1.6077960729599,0.605519711971283
1790266567100117800,2.30211767578125,-0.13164135813713074,1.2534945011138916,0.8229875564575195
1790266567117370600,2.31937060546875,-0.5714640021324158,0.8179479241371155,0.6861538887023926
1790266567134623200,2.336623291015625,-0.6789761781692505,0.18142683804035187,0.49373146891593933
1790266567151875800,2.353875732421875,-0.39797839522361755,0.3347539007663727,0.698371171951294
1790266567169128700,2.371128662109375,-0.05711585655808449,0.44409868121147156,1.106428861618042
1790266567186381300,2.38838134765625,0.36254823207855225,0.4783071279525757,1.3825397491455078
1790266567203634200,2.40563427734375,0.5995637774467468,1.2577705383300781,1.1815651655197144
1790266567220886800,2.42288671875,1.1242966651916504,1.7696752548217773,1.3000729084014893
1790266567238139400,2.440139404296875,0.8713986277580261,1.40559983253479,1.2005020380020142
1790266567255392300,2.457392333984375,0.6154462695121765,0.6065887212753296,0.4027126133441925
1790266567272644900,2.474644775390625,1.2745693922042847,-0.18875721096992493,-0.5997164845466614
1790266567289897700,2.491897705078125,1.6239839792251587,0.4068359434604645,-0.1715002804994583
1790266567307150300,2.509150390625,1.634368658065796,1.1527018547058105,-0.025503603741526604
1790266567324403000,2.52640283203125,1.5305217504501343,2.266308307647705,0.2390008419752121
1790266567341655800,2.54365576171875,1.165224552154541,2.7763805389404297,0.5071704983711243
1790266567358908400,2.560908447265625,1.311832070350647,3.1893250942230225,0.9836450219154358
1790266567376161000,2.5781611328125,1.5793908834457397,2.844186305999756,1.782656192779541
1790266567393414000,2.595413818359375,1.6129884719848633,1.4459168910980225,2.986670732498169
1790266567410666500,2.61266650390625,1.2385283708572388,-0.0054977829568088055,3.4936883449554443
1790266567427919400,2.62991943359375,0.9489784240722656,-0.6750055551528931,1.9891284704208374
1790266567445172000,2.647171875,1.7033964395523071,-0.19303326308727264,0.984255850315094
1790266567462424600,2.664424560546875,2.5964808464050293,0.34697118401527405,1.4711151123046875
1790266567479677400,2.681677490234375,2.919628143310547,-0.7147117853164673,1.6824743747711182
1790266567496930000,2.698929931640625,2.638019561767578,-1.3732240200042725,1.4515674114227295
1790266567514183000,2.716182861328125,1.8933753967285156,-1.1490366458892822,0.7661771774291992
1790266567531435500,2.733435546875,1.044884204864502,-0.35063639283180237,0.10583232343196869
1790266567548688100,2.750688232421875,0.3442223072052002,-0.2968802750110626,-0.02916879393160343
1790266567565941000,2.76794091796875,-0.016187917441129684,-0.30604326725006104,-0.846505880355835
1790266567583193600,2.785193603515625,-0.06383536756038666,-0.6493492722511292,-1.2209659814834595
1790266567600446500,2.802446533203125,0.06017018109560013,0.1288924664258957,-0.06154462695121765
1790266567617699000,2.819698974609375,-0.22266021370887756,0.27977606654167175,0.13454297184944153
1790266567634951700,2.83695166015625,-0.41935867071151733,-0.14233149588108063,-0.004734201822429895
1790266567652204500,2.85420458984375,-0.7400626540184021,-0.4459312856197357,-0.07803797721862793
1790266567669457200,2.87145703125,-1.083979606628418,0.0769689604640007,-0.24480405449867249
1790266567686710000,2.8887099609375,-1.1316269636154175,0.8148936033248901,-0.3150535225868225
1790266567703962600,2.905962646484375,-0.693636953830719,0.4557051360607147,-0.2130390852689743
1790266567721215200,2.92321533203125,-0.21349723637104034,0.06597339361906052,-0.2692386507987976
1790266567738468000,2.940468017578125,-0.20616686344146729,-0.021380268037319183,-0.027947064489126205
1790266567755720700,2.957720703125,0.4517345130443573,-0.13500112295150757,0.34406960010528564
1790266567772973600,2.9749736328125,1.0968077182769775,-1.1233803033828735,1.16079580783844
1790266567790226200,2.99222607421875,0.029016077518463135,-2.478278398513794,1.7661627531051636
1790266567807478800,3.009478759765625,-0.40897396206855774,-1.3054180145263672,1.1571305990219116
1790266567824731600,3.026731689453125,-0.630107045173645,0.23762640357017517,1.262810230255127
1790266567841984300,3.043984375,-0.3912588953971863,0.9492838382720947,1.1583523750305176
1790266567859236900,3.06123681640625,-0.08399390429258347,1.4043781757354736,1.5224277973175049
1790266567876489700,3.07848974609375,0.03329212963581085,2.439182996749878,2.0471606254577637
1790266567893742300,3.095742431640625,0.041844237595796585,2.6383249759674072,1.856570839881897
1790266567910995200,3.1129951171875,0.1328630894422531,2.171013355255127,1.4411827325820923
1790266567928247800,3.130247802734375,0.12736530601978302,1.1380411386489868,1.1638500690460205
1790266567945500400,3.14750048828125,0.1695149689912796,0.20830489695072174,0.6763800382614136
1790266567962753300,3.164753173828125,0.1701258420944214,-0.11117739230394363,0.2744309902191162
1790266567980006000,3.182005859375,0.20127993822097778,-0.2107483446598053,0.1925751268863678
1790266567997258800,3.1992587890625,0.19639302790164948,-0.3500255048274994,0.2707658112049103
1790266568014511400,3.216511474609375,0.14630211889743805,-0.4214966893196106,0.24694208800792694
1790266568031764000,3.233763916015625,0.10965022444725037,-0.685390293598175,0.06490438431501389
1790266568049016800,3.251016845703125,0.051618073135614395,-0.6585122346878052,-0.1519526094198227
1790266568066269400,3.26826953125,-0.04245510324835777,-1.128878116607666,0.009926552884280682
1790266568083522300,3.285522216796875,0.00946840364485979,-1.7763947248458862,0.46685341000556946
1790266568100775000,3.30277490234375,-0.051618073135614395,-1.8228205442428589,0.3935496211051941
1790266568118027500,3.320027587890625,-0.3796524703502655,-1.1239912509918213,-0.12018764764070511
1790266568135280400,3.3372802734375,-0.6924152374267578,-0.9492838382720947,-0.6449204683303833
1790266568152533000,3.354532958984375,-0.7993165850639343,-1.4672971963882446,-1.1995856761932373
1790266568169785900,3.371785888671875,-0.3387245237827301,-1.3176352977752686,-1.8678717613220215
1790266568187038500,3.38903857421875,0.272751122713089,-2.154520034790039,-2.020587921142578
1790266568204291000,3.406291015625,-0.2202167510986328,-2.436128854751587,-2.01692271232605
1790266568221544000,3.4235439453125,-0.8414662480354309,0.34086254239082336,-1.7890702486038208
1790266568238796500,3.440796630859375,-0.9660826325416565,3.059210777282715,-1.538004755973816
1790266568256049200,3.458049072265625,-0.9019418358802795,2.9468116760253906,-1.5874848365783691
1790266568273302000,3.475302001953125,-0.6368265151977539,2.0195188522338867,-1.2130247354507446
1790266568290554600,3.4925546875,-0.4584540128707886,1.616348147392273,-0.5722275972366333
1790266568307807000,3.509806884765625,-0.2055560052394867,0.7776308655738831,-0.2136499583721161
1790266568325059600,3.5270595703125,0.04428769648075104,-0.04581485688686371,-0.0010690133785828948
1790266568342312200,3.544312255859375,0.1285870373249054,-0.01893680728971958,0.17852523922920227
1790266568359564500,3.561564453125,0.1737910360097885,0.053756099194288254,0.1718057245016098
1790266568376817200,3.578817138671875,0.3949240744113922,0.21441353857517242,0.07040216773748398
1790266568394069800,3.59606982421875,0.2006690800189972,0.2626718580722809,0.34956738352775574
1790266568411322400,3.613322265625,-0.08093958348035812,-0.32070401310920715,0.7680097222328186
1790266568428575200,3.6305751953125,0.17256930470466614,-0.7250964641571045,0.9005674123764038
1790266568445827800,3.647827880859375,0.6136136651039124,-0.8741474747657776,0.9170607328414917
1790266568463080700,3.665080810546875,0.6472112536430359,-0.8851430416107178,0.7673988938331604
1790266568480333300,3.682333251953125,0.23365578055381775,-1.4703515768051147,1.0893245935440063
1790266568497586000,3.6995859375,0.18906265497207642,-1.7238603830337524,1.353829026222229
1790266568514838800,3.7168388671875,0.032681263983249664,-1.1368193626403809,1.327561855316162
1790266568532091400,3.73409130859375,-0.3197877109050751,-0.7617483735084534,0.9616538882255554
1790266568549344000,3.751343994140625,-0.23182319104671478,-0.6224712133407593,0.4790706932544708
1790266568566596900,3.768596923828125,-0.42852163314819336,-0.5412262082099915,0.04413498193025589
1790266568583849500,3.785849365234375,-0.684473991394043,-0.35796675086021423,-0.3254382014274597
1790266568601102300,3.803102294921875,-0.527481734752655,-0.14294235408306122,-0.616209864616394
1790266568618355000,3.82035498046875,-0.27947062253952026,-0.020769402384757996,-0.6351466774940491
1790266568635607600,3.837607666015625,-0.11514800786972046,0.13194678723812103,-0.7255546450614929
1790266568652860400,3.8548603515625,-0.11209368705749512,0.24006985127925873,-0.8953750729560852
1790266568670113000,3.872113037109375,-0.17195843160152435,0.33597561717033386,-1.1629338264465332
1790266568687366000,3.889365966796875,-0.3637699782848358,0.3133736252784729,-1.6082541942596436
1790266568704618500,3.906618408203125,-0.8744529485702515,-0.09651663154363632,-2.494619131088257
1790266568721871000,3.92387109375,-1.482263445854187,-0.8833104968070984,-3.7340636253356934
1790266568739124000,3.9411240234375,-1.9385793209075928,-2.0408992767333984,-5.311927318572998
1790266568756376600,3.95837646484375,-1.6893465518951416,0.35674503445625305,-5.018712520599365
1790266568773629400,3.97562939453125,-1.6875139474868774,3.0439391136169434,-3.484830856323242
1790266568790882000,3.992882080078125,-1.4114030599594116,0.9553925395011902,-1.5630502700805664
1790266568808134700,4.010134765625,-0.40836310386657715,-2.372598886489868,0.19868376851081848
1790266568825387500,4.027387451171875,0.36682429909706116,-3.8686065673828125,1.0496183633804321
1790266568842640100,4.04464013671875,0.4108065664768219,-3.5362961292266846,1.152854561805725
1790266568859893000,4.06189306640625,0.10903936624526978,-2.0836596488952637,0.47174033522605896
1790266568877145600,4.0791455078125,-0.11575887352228165,-0.25045454502105713,-0.5258018374443054
1790266568894398200,4.096398193359375,-0.3497200906276703,0.8600975871086121,-1.2649482488632202
1790266568911651000,4.113651123046875,-0.4627300798892975,1.6658282279968262,-1.5013529062271118
1790266568928903700,4.130903564453125,-0.5134318470954895,1.7550145387649536,-1.335808515548706
1790266568946156300,4.14815625,-0.6875283122062683,0.7599157691001892,-0.9161444306373596
1790266568963409200,4.1654091796875,-0.6881392002105713,-0.4508182108402252,-0.5795579552650452
1790266568980661800,4.182661865234375,-0.5439751148223877,-1.061682939529419,-0.5276344418525696
1790266568997914600,4.19991455078125,-0.37293294072151184,-1.32985258102417,-0.6131555438041687
1790266569015167200,4.217167236328125,-0.26480987668037415,-1.3023637533187866,-0.6974548697471619
1790266569032419800,4.234419921875,-0.28557929396629333,-0.7800742983818054,-0.8135191798210144
1790266569049672700,4.251672607421875,-0.39858928322792053,-0.20158538222312927,-1.0450369119644165
1790266569066925300,4.26892529296875,-0.5635227560997009,0.034208428114652634,-1.2118029594421387
1790266569084178200,4.28617822265625,-0.7162389755249023,0.06475166976451874,-1.1977530717849731
1790266569101430800,4.3034306640625,-0.7730493545532227,-0.1130099818110466,-1.060308575630188
1790266569118683400,4.320683349609375,-0.7260127663612366,-0.3488037884235382,-0.9772309064865112
1790266569135936300,4.337936279296875,-0.703410804271698,-0.5980366468429565,-1.0877974033355713
1790266569153188900,4.35518896484375,-0.7150171995162964,-0.7568614482879639,-1.0621411800384521
1790266569170441700,4.372441650390625,-0.6484329700469971,-0.8778126835823059,-0.8306233882904053
1790266569187694300,4.3896943359375,-0.5024362802505493,-1.2553271055221558,-0.8122974634170532
1790266569204947000,4.406947021484375,-0.3173442482948303,-1.351232886314392,-0.6791289448738098
1790266569222199800,4.42419970703125,-0.2886336147785187,-1.3665045499801636,-0.651029109954834
1790266569239452400,4.441452392578125,-0.3943132162094116,-1.4825688600540161,-0.8208495378494263
1790266569256705300,4.458705322265625,-0.4633409380912781,-1.4049890041351318,-0.9375247359275818
1790266569273958000,4.4759580078125,-0.42302384972572327,-1.3237439393997192,-0.7939714789390564
1790266569291210500,4.49321044921875,-0.33567020297050476,-1.3304635286331177,-0.6357575058937073
1790266569308463400,4.51046337890625,-0.2922987937927246,-1.3848304748535156,-0.7212786078453064
1790266569325716000,4.527716064453125,-0.24892739951610565,-1.4202606678009033,-0.7872520089149475
1790266569342968600,4.544968505859375,-0.17562362551689148,-1.3817760944366455,-0.8196278214454651
1790266569360221400,4.562221435546875,-0.09621120244264603,-1.2956441640853882,-0.9540180563926697
1790266569377474000,4.57947412109375,-0.12492185086011887,-1.2143992185592651,-1.0328196287155151
1790266569394726700,4.5967265625,-0.2568686306476593,-1.25715970993042,-1.0749692916870117
1790266569411979300,4.613979248046875,-0.3802633285522461,-1.4440842866897583,-1.1653772592544556
1790266569429231900,4.63123193359375,-0.4266890585422516,-1.5192207098007202,-1.198364019393921
1790266569446484200,4.648484130859375,-0.44990190863609314,-1.5296053886413574,-1.1275036334991455
1790266569463736800,4.66573681640625,-0.39675667881965637,-1.386052131652832,-1.1030690670013428
1790266569480989200,4.6829892578125,-0.3277289569377899,-1.4257583618164062,-1.1519381999969482
1790266569498241800,4.70024169921875,-0.2715294063091278,-1.2003493309020996,-1.2105813026428223
1790266569515494700,4.71749462890625,-0.22693626582622528,-0.5241219997406006,-1.2954914569854736
1790266569532747300,4.734747314453125,-0.22815799713134766,-0.30054548382759094,-1.271667718887329
1790266569550000000,4.752000244140625,-0.2971857190132141,-0.25473061203956604,-1.1305580139160156
1790266569567252700,4.769252685546875,-0.36132651567459106,-0.13072505593299866,-1.0377064943313599
1790266569584505300,4.78650537109375,-0.3692677617073059,-0.01282816007733345,-0.9552397727966309
1790266569601758200,4.80375830078125,-0.25931209325790405,0.13622283935546875,-0.9521854519844055
1790266569619010800,4.8210107421875,-0.09498947113752365,0.4520399272441864,-0.8397863507270813
1790266569636263400,4.838263427734375,-0.012522728182375431,0.6591231226921082,-0.5642863512039185
1790266569653516300,4.855516357421875,0.010690134018659592,0.6395754218101501,-0.09147699922323227
1790266569670769000,4.872768798828125,0.00946840364485979,0.45937031507492065,0.2890917658805847
1790266569688021800,4.890021728515625,0.005192350596189499,0.25900667905807495,0.541378915309906
1790266569705274400,4.9072744140625,0.08521563559770584,0.695164144039154,0.5658134818077087
1790266569722527000,4.92452685546875,0.1285870373249054,0.6444623470306396,0.7026472091674805
1790266569739779800,4.94177978515625,0.06444623321294785,0.7929024696350098,0.8248201608657837
1790266569757032400,4.959032470703125,-0.0009162971982732415,0.6695078015327454,0.9469931125640869
1790266569774285300,4.976285400390625,0.022907428443431854,0.6988292932510376,1.0007492303848267
1790266569791538000,4.993537841796875,0.06566796451807022,1.064737319946289,1.0471749305725098
1790266569808790500,5.01079052734375,0.11942406743764877,1.1056652069091797,1.2579232454299927
1790266569826043400,5.02804345703125,0.20127993822097778,1.3390156030654907,1.290910005569458
1790266569843296000,5.0452958984375,0.23426663875579834,1.638950228691101,1.3672680854797363
1790266569860548900,5.062548828125,0.28924447298049927,1.525940179824829,1.450345754623413
1790266569877801500,5.079801513671875,0.2776380479335785,1.4355322122573853,1.5334233045578003
1790266569895054000,5.09705419921875,0.22204934060573578,1.3255765438079834,1.6855286359786987
1790266569912307000,5.114306884765625,0.21960589289665222,1.286481261253357,1.7649410963058472
1790266569929559600,5.1315595703125,0.21349723637104034,1.1777472496032715,1.8504620790481567
1790266569946812400,5.1488125,0.210442915558815,1.0390809774398804,1.9066617488861084
1790266569964065000,5.16606494140625,0.2000582218170166,1.1856884956359863,1.844353437423706
1790266569981317600,5.183317626953125,0.2006690800189972,1.36772620677948,1.855349063873291
1790266569998570500,5.200570556640625,0.23487751185894012,1.3640609979629517,1.845575213432312
1790266570015823000,5.217822998046875,0.29413139820098877,1.4159845113754272,1.8883357048034668
1790266570033075700,5.23507568359375,0.37232208251953125,1.5693116188049316,1.7258456945419312
1790266570050328600,5.25232861328125,0.4926624298095703,1.6878193616867065,1.5352559089660645
1790266570067581200,5.269581298828125,0.7302888631820679,1.5937461853027344,1.5700751543045044
1790266570084834000,5.286833984375,0.9923498630523682,1.2974767684936523,1.5285364389419556
1790266570102086400,5.30408642578125,1.1035271883010864,0.9749401807785034,1.4143047332763672
1790266570119339000,5.321339111328125,1.155450701713562,0.8619301915168762,1.3617702722549438
1790266570136591400,5.33859130859375,1.2873975038528442,0.8558215498924255,1.2701406478881836
1790266570153844000,5.355843994140625,1.4004075527191162,0.5882627964019775,1.1186461448669434
1790266570171096600,5.3730966796875,1.3038908243179321,0.2370155304670334,0.92072594165802
1790266570188349000,5.390348876953125,1.010064959526062,0.20830489695072174,0.6495019793510437
1790266570205601800,5.407601806640625,0.7718276381492615,0.43982264399528503,0.3672824501991272
1790266570222854400,5.4248544921875,0.7834340929985046,0.2834412455558777,0.4137081801891327
1790266570240107300,5.442107177734375,0.8665117025375366,-0.09285144507884979,0.5902481079101562
1790266570257360000,5.45935986328125,0.8713986277580261,-0.23823726177215576,0.5945241451263428
1790266570274612500,5.476612548828125,0.7565560340881348,-0.25534147024154663,0.49312058091163635
1790266570291865300,5.493865234375,0.572685718536377,-0.10751219838857651,0.42042768001556396
1790266570309118000,5.511117919921875,0.36743515729904175,0.12950333952903748,0.31291547417640686
1790266570326370600,5.52837060546875,0.210442915558815,0.23396120965480804,0.2756527364253998
1790266570343623400,5.54562353515625,0.18173226714134216,0.13011419773101807,0.17302745580673218
1790266570360876000,5.5628759765625,0.09926552325487137,-0.03787361457943916,-0.06154462695121765
1790266570378129000,5.58012890625,-0.032681263983249664,-0.037262752652168274,-0.2338084876537323
1790266570395381500,5.597381591796875,-0.08949168771505356,-0.17348559200763702,-0.3773617148399353
1790266570412634000,5.614634033203125,-0.1029307171702385,-0.1386663019657135,-0.4842630624771118
1790266570429887000,5.631886962890625,-0.0925460159778595,-0.11056652665138245,-0.7041743993759155
1790266570447139600,5.6491396484375,-0.07788526266813278,-0.12217295914888382,-0.8978185057640076
1790266570464392400,5.666392333984375,-0.06444623321294785,0.06597339361906052,-0.948520302772522
1790266570481645000,5.68364501953125,-0.013133592903614044,0.5693259835243225,-0.9246965646743774
1790266570498897700,5.700897705078125,0.012522728182375431,0.794124186038971,-0.8306233882904053
1790266570516150500,5.718150634765625,-0.005192350596189499,0.7733548283576965,-0.7176133990287781
1790266570533403100,5.735403076171875,-0.05100720748305321,0.6090322136878967,-0.8196278214454651
1790266570550656000,5.752656005859375,-0.09926552325487137,0.22968515753746033,-1.021213173866272
1790266570567908600,5.76990869140625,-0.20861032605171204,-0.1692095398902893,-1.0279327630996704
1790266570585161200,5.7871611328125,-0.3582721948623657,-0.29565855860710144,-0.9210313558578491
1790266570602414000,5.8044140625,-0.48655378818511963,-0.3072649836540222,-0.9876156449317932
1790266570619666700,5.821666748046875,-0.6062833070755005,-0.17531819641590118,-1.1018472909927368
1790266570636919600,5.83891943359375,-0.6801979541778564,-0.01954767294228077,-1.177594542503357
1790266570654172200,5.856172119140625,-0.630107045173645,-0.11972949653863907,-1.188590168952942
1790266570671424800,5.8734248046875,-0.5207622051239014,-0.4043924808502197,-1.2038617134094238
1790266570688677400,5.890677490234375,-0.5158752799034119,-0.7354812026023865,-1.1384992599487305
1790266570705930000,5.907929931640625,-0.5665770769119263,-0.8833104968070984,-1.172096848487854
1790266570723182300,5.925182373046875,-0.5873464941978455,-0.8930842876434326,-1.3962842226028442
1790266570740435000,5.94243505859375,-0.6056724190711975,-0.8588758707046509,-1.4970768690109253
1790266570757687600,5.9596875,-0.5329795479774475,-0.924238383769989,-1.3150391578674316
1790266570774940000,5.97693994140625,-0.42302384972572327,-1.0610721111297607,-1.1727076768875122
1790266570792192500,5.994192626953125,-0.36193737387657166,-1.3011419773101807,-1.225242018699646
1790266570809445400,6.0114453125,-0.3087921440601349,-1.499062180519104,-1.381623387336731
1790266570826698000,6.028697998046875,-0.2666424810886383,-1.5589269399642944,-1.528230905532837
1790266570843950800,6.045950927734375,-0.2660316228866577,-1.3432916402816772,-1.5819870233535767
1790266570861203500,6.063203369140625,-0.25992295145988464,-1.4001020193099976,-1.5428917407989502
1790266570878456000,6.0804560546875,-0.2776380479335785,-1.5125012397766113,-1.5404483079910278
1790266570895709000,6.097708984375,-0.30573782324790955,-1.7354668378829956,-1.624747633934021
1790266570912961500,6.11496142578125,-0.3094030022621155,-1.8393138647079468,-1.6565126180648804
1790266570930214400,6.13221435546875,-0.2605338394641876,-1.6022982597351074,-1.6840014457702637
1790266570947467000,6.149467041015625,-0.1737910360097885,-1.1074978113174438,-1.781129002571106
1790266570964719600,6.1667197265625,-0.20311254262924194,-0.9450078010559082,-1.8122830390930176
1790266570981972500,6.183972412109375,-0.2721402645111084,-0.9645555019378662,-1.6754493713378906
1790266570999225000,6.20122509765625,-0.3039052188396454,-0.7116574645042419,-1.5722131729125977
1790266571016477700,6.218477783203125,-0.37110036611557007,-0.3347539007663727,-1.4989094734191895
1790266571033730600,6.23573046875,-0.518318772315979,-0.2571740746498108,-1.2576178312301636
1790266571050983200,6.252983154296875,-0.5781835317611694,-0.25900667905807495,-0.9870047569274902
1790266571068236000,6.270236083984375,-0.6166679859161377,-0.12522727251052856,-0.669965922832489
1790266571085488600,6.287488525390625,-0.5873464941978455,-0.16676609218120575,-0.4353938698768616
1790266571102741200,6.3047412109375,-0.47372564673423767,0.1533270627260208,-0.37491825222969055
1790266571119994000,6.321994140625,-0.43829548358917236,0.3341430425643921,-0.3040579557418823
1790266571137246700,6.339246826171875,-0.3246746361255646,0.6640099883079529,-0.22769984602928162
1790266571154499600,6.35649951171875,-0.23976442217826843,0.5351175665855408,0.07773254066705704
1790266571171752200,6.373752197265625,-0.2672533392906189,0.6933315396308899,0.09178243577480316
1790266571189004800,6.3910048828125,-0.35582873225212097,0.627968966960907,0.30863943696022034
1790266571206257400,6.40825732421875,-0.19089524447917938,0.5870410799980164,0.5346593856811523
1790266571223510000,6.425510009765625,-0.12980876863002777,0.5925388336181641,0.7380773425102234
1790266571240762400,6.442762451171875,0.01435532234609127,0.6133082509040833,0.8071050643920898
1790266571258015000,6.460014892578125,0.10354158282279968,0.759304940700531,0.9427170753479004
1790266571275267300,6.477267333984375,0.2110537886619568,0.9309579133987427,1.0936006307601929
1790266571292520000,6.49452001953125,0.2813032269477844,1.0134246349334717,1.2145519256591797
1790266571309772500,6.5117724609375,0.3533852696418762,1.0598503351211548,1.363602876663208
1790266571327025400,6.529025390625,0.40775224566459656,1.1221586465835571,1.4796671867370605
1790266571344278000,6.546278076171875,0.4877755343914032,1.073289394378662,1.6458224058151245
1790266571361531000,6.56353076171875,0.5287034511566162,1.1111630201339722,1.6965242624282837
1790266571378783500,6.580783447265625,0.5054906010627747,1.173471212387085,1.826027512550354
1790266571396036000,6.5980361328125,0.48960810899734497,1.1875211000442505,1.9005529880523682
1790266571413289000,6.6152890625,0.4627300798892975,1.237612009048462,1.9255985021591187
1790266571430541600,6.63254150390625,0.45478883385658264,1.2901464700698853,1.890168309211731
1790266571447794400,6.64979443359375,0.4248564541339874,1.370169758796692,1.874896764755249
1790266571465047000,6.667047119140625,0.4633409380912781,1.3738348484039307,1.8974987268447876
1790266571482299600,6.684299560546875,0.5623010396957397,1.2712095975875854,1.9072725772857666
1790266571499552500,6.701552490234375,0.6484329700469971,1.2760965824127197,1.835801362991333
1790266571516805000,6.71880517578125,0.7137954831123352,1.314581036567688,1.6684244871139526
1790266571534058000,6.73605810546875,0.7748819589614868,1.2260055541992188,1.650098443031311
1790266571551310600,6.753310546875,0.8231402635574341,1.0189224481582642,1.5914554595947266
1790266571568563200,6.770563232421875,0.8744529485702515,0.8057306408882141,1.6299399137496948
1790266571585816000,6.787816162109375,0.9636391997337341,0.7031053900718689,1.6537636518478394
1790266571603068700,6.805068603515625,1.0375537872314453,0.6310232877731323,1.5468623638153076
1790266571620321500,6.822321533203125,1.0870338678359985,0.5259546041488647,1.4607304334640503
1790266571637574100,6.83957421875,1.083979606628418,0.37812530994415283,1.3428335189819336
1790266571654826800,6.85682666015625,1.0314451456069946,0.21258094906806946,1.2133301496505737
1790266571672079600,6.87407958984375,0.971580445766449,-0.10751219838857651,1.1015418767929077
1790266571689332200,6.891332275390625,0.8732311725616455,-0.5076286196708679,0.9805907011032104
1790266571706584600,6.90858447265625,0.6973021626472473,-0.759304940700531,0.8119919896125793
1790266571723837200,6.925837158203125,0.4889972507953644,-0.6163625717163086,0.6165152788162231
1790266571741089800,6.94308984375,0.374765545129776,-0.328645259141922,0.5645917654037476
1790266571758342100,6.960342041015625,0.33689191937446594,-0.09957095980644226,0.5523744821548462
1790266571775594800,6.9775947265625,0.2660316228866577,-0.001221729558892548,0.5102248191833496
1790266571792847400,6.994847412109375,0.11636973917484283,0.04886918142437935,0.3520108163356781
1790266571810100000,7.012099853515625,-0.03634645417332649,0.07391463965177536,0.06123919412493706
1790266571827352800,7.029352783203125,-0.1389717310667038,-0.028099779039621353,-0.23014330863952637
1790266571844605400,7.04660546875,-0.27030766010284424,0.09040798991918564,-0.45616328716278076
1790266571861858000,7.063858154296875,-0.4150826036930084,0.3090975880622864,-0.6229293346405029
1790266571879111000,7.08111083984375,-0.49144071340560913,0.4557051360607147,-0.6754637360572815
1790266571896363500,7.098363525390625,-0.4608974754810333,0.37812530994415283,-0.6650790572166443
1790266571913616100,7.1156162109375,-0.33750277757644653,0.23457208275794983,-0.6021599769592285
1790266571930869000,7.132868896484375,-0.20738859474658966,0.0873536616563797,-0.6785180568695068
1790266571948121600,7.15012158203125,-0.09071341902017593,-0.01893680728971958,-0.9497420191764832
1790266571965374500,7.16737451171875,-0.09621120244264603,-0.023823726922273636,-1.1501057147979736
1790266571982627000,7.184626953125,-0.1798996776342392,-0.08918625861406326,-1.1220059394836426
1790266571999879700,7.201879638671875,-0.20922118425369263,-0.31459537148475647,-1.162322998046875
1790266572017132500,7.219132568359375,-0.2415970265865326,-0.4196641147136688,-1.3486367464065552
1790266572034385200,7.23638525390625,-0.4016436040401459,-0.3390299379825592,-1.4689770936965942
1790266572051638000,7.253637939453125,-0.5885682106018066,-0.2522871494293213,-1.4659227132797241
1790266572068890600,7.270890625,-0.6979129910469055,-0.3237583339214325,-1.4915790557861328
1790266572086143200,7.288143310546875,-0.6777544617652893,-0.4453204274177551,-1.5581632852554321
1790266572103396000,7.30539599609375,-0.5396990180015564,-0.5986474752426147,-1.5905392169952393
1790266572120648700,7.322648681640625,-0.40775224566459656,-0.8405499458312988,-1.6070325374603271
1790266572137901600,7.339901611328125,-0.39370235800743103,-1.1215476989746094,-1.6143629550933838
1790266572155154200,7.357154296875,-0.4315759539604187,-1.2541054487228394,-1.5178462266921997
1790266572172406800,7.37440673828125,-0.49510589241981506,-1.4184280633926392,-1.42927086353302
1790266572189659600,7.39165966796875,-0.5494728684425354,-1.5650355815887451,-1.3834559917449951
1790266572206912000,7.408912109375,-0.592233419418335,-1.7061452865600586,-1.5007420778274536
1790266572224164600,7.42616455078125,-0.6166679859161377,-1.904065489768982,-1.6858340501785278
1790266572241417200,7.443417236328125,-0.6582068204879761,-1.8057162761688232,-1.8813108205795288
1790266572258669600,7.460669677734375,-0.6563742160797119,-1.2418880462646484,-1.8171700239181519
1790266572275922200,7.477922119140625,-0.6239983439445496,-1.331685185432434,-1.550832986831665
1790266572293174500,7.495174560546875,-0.5635227560997009,-1.7342450618743896,-1.5716023445129395
1790266572310427400,7.512427490234375,-0.5537489056587219,-1.5063925981521606,-1.7890702486038208
1790266572327680000,7.529679931640625,-0.527481734752655,-1.2272273302078247,-1.9411755800247192
1790266572344932900,7.546932861328125,-0.4871646761894226,-1.046411395072937,-1.8727587461471558
1790266572362185500,7.564185546875,-0.5006036758422852,-0.9022472500801086,-1.668118953704834
1790266572379438000,7.58143798828125,-0.5036579966545105,-0.3555232882499695,-1.6406301259994507
1790266572396691000,7.59869091796875,-0.44440412521362305,0.0818558782339096,-1.5428917407989502
1790266572413943600,7.615943603515625,-0.3594939112663269,0.46486809849739075,-1.1763728857040405
1790266572431196400,7.633196533203125,-0.1383608728647232,0.35796675086021423,-0.7701478004455566
1790266572448449000,7.650448974609375,-0.04978547990322113,0.25045454502105713,-0.7115047574043274
1790266572465701600,7.66770166015625,-0.13958260416984558,0.3481929302215576,-0.6107120513916016
1790266572482954500,7.68495458984375,-0.24281874299049377,0.36163195967674255,-0.31383177638053894
1790266572500207000,7.70220703125,-0.19761475920677185,0.11178825795650482,-0.10430516302585602
1790266572517460000,7.7194599609375,-0.16096286475658417,0.3035998046398163,0.09300415962934494
1790266572534712600,7.736712646484375,-0.18112140893936157,0.40255987644195557,0.34956738352775574
1790266572551965200,7.753965087890625,-0.14019346237182617,0.7128791809082031,0.5487092733383179
1790266572569218000,7.771218017578125,-0.10354158282279968,0.8808670043945312,0.7466294765472412
1790266572586470700,7.788470703125,-0.05894844979047775,0.9260709881782532,0.9640973210334778
1790266572603723300,7.80572314453125,-0.012522728182375431,1.0036507844924927,1.131474256515503
1790266572620975600,7.8229755859375,0.04978547990322113,1.0152572393417358,1.297629475593567
1790266572638228200,7.840228271484375,0.09987638890743256,1.1441497802734375,1.4143047332763672
1790266572655480600,7.85748046875,0.1444695144891739,1.2944225072860718,1.5755729675292969
1790266572672733200,7.874733154296875,0.2049451321363449,1.3732240200042725,1.733786940574646
1790266572689985800,7.89198583984375,0.2886336147785187,1.4593559503555298,1.8254166841506958
1790266572707238400,7.90923828125,0.3588830530643463,1.7880011796951294,1.8193080425262451
1790266572724491300,7.9264912109375,0.4572322964668274,1.8906265497207642,1.8865031003952026
1790266572741743900,7.943743896484375,0.5403099060058594,1.750738501548767,1.9439244270324707
1790266572758996500,7.96099658203125,0.5977311730384827,1.6328415870666504,2.031888961791992
1790266572776249300,7.978249267578125,0.7058542370796204,1.6053526401519775,2.1003057956695557
1790266572793502000,7.995501953125,0.8616247773170471,1.5839723348617554,2.0856449604034424
1790266572810754800,8.0127548828125,1.028390884399414,1.398269534111023,2.137568473815918
1790266572828007400,8.03000732421875,1.1255183219909668,1.2339468002319336,2.1803290843963623
1790266572845260000,8.047260009765624,1.0845904350280762,1.3365721702575684,2.1186318397521973
1790266572862513000,8.064512939453126,1.0583232641220093,1.426369309425354,2.017228126525879
1790266572879765500,8.081765625,1.1829396486282349,1.3683371543884277,1.909716010093689
1790266572897018000,8.09901806640625,1.4492766857147217,1.0671807527542114,1.8767293691635132
1790266572914271000,8.11627099609375,1.7143919467926025,0.5632173418998718,1.9610286951065063
1790266572931523600,8.133523681640625,1.7565417289733887,0.014049889519810677,1.8388557434082031
1790266572948776400,8.1507763671875,1.63620126247406,-0.2467893660068512,1.612224817276001
1790266572966029000,8.168029052734376,1.5347977876663208,-0.09651663154363632,1.3238966464996338
1790266572983281700,8.18528173828125,1.4437788724899292,0.10567960888147354,1.0978766679763794
1790266573000534300,8.2025341796875,1.24769127368927,0.16065743565559387,0.9500474333763123
1790266573017787000,8.219786865234376,0.8903354406356812,0.21930044889450073,0.7698423266410828
1790266573035039200,8.237039306640625,0.5073232054710388,0.1905898153781891,0.5102248191833496
1790266573052291800,8.254291748046874,0.15118902921676636,0.24923282861709595,0.15531237423419952
1790266573069544400,8.27154443359375,-0.1744018942117691,0.11117739230394363,-0.2680169343948364
1790266573086796800,8.288796875,-0.4364628791809082,-0.15027274191379547,-0.4647153913974762
1790266573104049700,8.306049560546874,-0.5940660238265991,-0.42882707715034485,-0.4482220411300659
1790266573121302300,8.32330224609375,-0.5519163012504578,-0.5882627964019775,-0.32421648502349854
1790266573138555000,8.340554931640625,-0.33505934476852417,-0.6023126840591431,-0.187382772564888
1790266573155807700,8.357807861328125,-0.10048725455999374,-0.5601630210876465,-0.13790272176265717
1790266573173060400,8.375060302734376,-0.01802051067352295,-0.347582072019577,-0.24724751710891724
1790266573190313000,8.39231298828125,-0.1078176349401474,0.01954767294228077,-0.3663661479949951
1790266573207565800,8.40956591796875,-0.27947062253952026,0.2938259541988373,-0.5343539714813232
1790266573224818400,8.426818359375,-0.35094180703163147,0.44348782300949097,-0.7194460034370422
1790266573242071300,8.4440712890625,-0.323452889919281,0.4886918365955353,-0.9234748482704163
1790266573259324000,8.461323974609375,-0.43463030457496643,0.472198486328125,-1.1507165431976318
1790266573276576500,8.478576416015626,-0.6716458201408386,0.34636032581329346,-1.2576178312301636
1790266573293829400,8.495829345703125,-0.7809906005859375,-0.0665842592716217,-1.343749761581421
1790266573311082000,8.51308203125,-0.7357866168022156,-0.3909534513950348,-1.4170535802841187
1790266573328334800,8.5303349609375,-0.6172788739204407,-0.8087849617004395,-1.4249948263168335
1790266573345587500,8.54758740234375,-0.5616901516914368,-0.7892373204231262,-1.4756965637207031
1790266573362840000,8.564840087890625,-0.5592467188835144,-0.842382550239563,-1.6070325374603271
1790266573380093000,8.582093017578124,-0.5500837564468384,-0.8991929292678833,-1.7304271459579468
1790266573397345500,8.599345458984375,-0.5812378525733948,-0.9315688014030457,-1.8483240604400635
1790266573414598000,8.616597900390625,-0.5958985686302185,-0.9468404054641724,-1.954614520072937
1790266573431850500,8.6338505859375,-0.5232056975364685,-0.9419534802436829,-1.8709261417388916
1790266573449102800,8.651102783203125,-0.35582873225212097,-1.1459823846817017,-1.5679371356964111
1790266573466355500,8.66835546875,-0.1646280586719513,-1.5992439985275269,-1.5209006071090698
1790266573483607800,8.68560791015625,-0.10048725455999374,-1.7611231803894043,-1.9540036916732788
1790266573500860700,8.702860595703125,-0.23854269087314606,-1.4471386671066284,-2.1580326557159424
1790266573518113300,8.72011328125,-0.4169152081012726,-1.4043781757354736,-1.873369574546814
1790266573535366100,8.7373662109375,-0.476779967546463,-1.5864158868789673,-1.921017050743103
1790266573552618800,8.75461865234375,-0.47983428835868835,-1.2192860841751099,-2.050520420074463
1790266573569871400,8.771871337890625,-0.48044514656066895,-0.8460476994514465,-1.8556544780731201
1790266573587124200,8.789124267578124,-0.4535670876502991,-0.9993748068809509,-1.7261511087417603
1790266573604376800,8.806376953125,-0.48472121357917786,-1.1814124584197998,-1.6852232217788696
1790266573621629700,8.823629638671875,-0.5543597936630249,-0.9999856352806091,-1.66934072971344
1790266573638882300,8.84088232421875,-0.6026180982589722,-1.2382229566574097,-1.3858994245529175
1790266573656135000,8.858135009765626,-0.6038398146629333,-1.4355322122573853,-1.261283040046692
1790266573673387800,8.8753876953125,-0.5812378525733948,-1.258992314338684,-1.1647664308547974
1790266573690640400,8.892640380859374,-0.5476402640342712,-1.0806198120117188,-1.0163263082504272
1790266573707893000,8.90989306640625,-0.5561923980712891,-0.8674280047416687,-0.8941532969474792
1790266573725145300,8.927145263671875,-0.5018253922462463,-0.45448338985443115,-0.7677043080329895
1790266573742398000,8.94439794921875,-0.39858928322792053,0.185092031955719,-0.6589703559875488
1790266573759650300,8.961650390625,-0.323452889919281,0.5894845128059387,-0.44089165329933167
1790266573776903000,8.97890283203125,-0.22693626582622528,0.9010255336761475,-0.15073087811470032
1790266573794155500,8.996155517578124,-0.14996729791164398,1.1282672882080078,0.09605848789215088
1790266573811408100,9.013408203125,-0.07544180005788803,1.0867284536361694,0.5841394662857056
1790266573828661000,9.030660888671875,0.12003492563962936,0.9126319885253906,0.8816305994987488
1790266573845913600,9.04791357421875,0.11148282140493393,0.9498947262763977,0.9414953589439392
1790266573863166200,9.065166259765626,0.14996729791164398,1.0219768285751343,1.2310452461242676
1790266573880419000,9.082419189453125,0.27091851830482483,1.0488548278808594,1.4717259407043457
1790266573897671700,9.099671630859374,0.27947062253952026,1.1184934377670288,1.6299399137496948
1790266573914924500,9.116924560546876,0.26419901847839355,1.1808016300201416,1.8168646097183228
1790266573932177200,9.13417724609375,0.29474225640296936,1.1887428760528564,2.0270020961761475
1790266573949429800,9.1514296875,0.39370235800743103,1.0598503351211548,2.1815507411956787
1790266573966682600,9.1686826171875,0.4315759539604187,1.3151918649673462,2.246302604675293
1790266573983935200,9.185935302734375,0.44318240880966187,1.6120721101760864,2.246913433074951
1790266574001188000,9.20318798828125,0.4266890585422516,1.6768238544464111,2.289062976837158
1790266574018440700,9.220440673828126,0.5213730931282043,1.6169590950012207,2.3733623027801514
1790266574035693300,9.237693359375,0.6569850444793701,1.4837905168533325,2.397186040878296
1790266574052946200,9.2549462890625,0.7278453707695007,1.563202977180481,2.3739731311798096
1790266574070198800,9.27219873046875,0.8090903759002686,1.5662572383880615,2.3171627521514893
1790266574087451400,9.289451416015625,0.8518509268760681,1.4960078001022339,2.1925463676452637
1790266574104704000,9.3067041015625,0.9330959320068359,1.4789036512374878,2.1778857707977295
1790266574121956600,9.32395654296875,1.13712477684021,1.3891065120697021,2.036775827407837
1790266574139209000,9.341208984375,1.4077378511428833,0.905912458896637,1.854127287864685
1790266574156461600,9.358461669921875,1.5916081666946411,0.3646862804889679,1.7502802610397339
1790266574173714000,9.3757138671875,1.5873321294784546,0.07574722915887833,1.623220443725586
1790266574190966500,9.392966552734375,1.4731004238128662,-0.15210533142089844,1.4136937856674194
1790266574208219400,9.410219482421875,1.2709041833877563,-0.3243691921234131,1.3098467588424683
1790266574225472000,9.427471923828126,1.0931425094604492,-0.401949018239975,1.2402082681655884
1790266574242724600,9.444724609375,0.8335250020027161,-0.25350889563560486,1.0514509677886963
1790266574259977500,9.4619775390625,0.5476402640342712,0.03298669680953026,0.8199332356452942
1790266574277230000,9.47922998046875,0.32528549432754517,0.39278605580329895,0.5236638188362122
1790266574294483000,9.49648291015625,0.20433427393436432,0.4410443603992462,0.28848087787628174
1790266574311735600,9.513735595703125,0.10903936624526978,0.1288924664258957,0.05329795181751251
1790266574328988200,9.53098828125,-0.044898562133312225,-0.05925388261675835,-0.2130390852689743
1790266574346241000,9.548240966796875,-0.23793183267116547,-0.26878049969673157,-0.4079049527645111
1790266574363493600,9.56549365234375,-0.42974337935447693,-0.6133082509040833,-0.5319104790687561
1790266574380746200,9.582746337890624,-0.536644697189331,-0.7794634699821472,-0.5820014476776123
1790266574397998800,9.599998779296875,-0.528092622756958,-0.5491674542427063,-0.5820014476776123
1790266574415251500,9.61725146484375,-0.4156934916973114,-0.08491020649671555,-0.5606211423873901
1790266574432503800,9.63450390625,-0.24831652641296387,0.258395791053772,-0.4744892120361328
1790266574449756400,9.65175634765625,-0.15546508133411407,0.389120876789093,-0.4494437575340271
1790266574467009000,9.669009033203125,-0.14019346237182617,0.4007273018360138,-0.6198750138282776
1790266574484261400,9.686261474609376,-0.17318016290664673,0.2608392536640167,-0.8904881477355957
1790266574501514200,9.70351416015625,-0.23365578055381775,-0.023212861269712448,-1.1323906183242798
1790266574518766800,9.720766845703125,-0.3032943606376648,-0.31031930446624756,-1.2851067781448364
1790266574536019500,9.73801953125,-0.38698282837867737,-0.5198459029197693,-1.404225468635559
1790266574553272300,9.755272216796875,-0.46883872151374817,-0.5296197533607483,-1.5221222639083862
1790266574570525000,9.77252490234375,-0.49632763862609863,-0.554665207862854,-1.7151556015014648
1790266574587777500,9.789777587890624,-0.5213730931282043,-0.7134900689125061,-2.0468552112579346
1790266574605030400,9.807030517578125,-0.6093376278877258,-0.7012727856636047,-2.361450433731079
1790266574622283000,9.824282958984375,-0.6893609166145325,-0.500298261642456,-2.439641237258911
1790266574639535900,9.841535888671874,-0.6655371785163879,-0.4831940531730652,-2.2282819747924805
1790266574656788500,9.85878857421875,-0.5653553605079651,-0.7367029190063477,-1.9228496551513672
1790266574674041000,9.876041015625,-0.46517354249954224,-0.9370665550231934,-1.7389793395996094
1790266574691294000,9.8932939453125,-0.4780016839504242,-1.1392627954483032,-1.708436131477356
1790266574708546300,9.91054638671875,-0.6765327453613281,-1.1044435501098633,-1.8868086338043213
1790266574725799000,9.927798828125,-0.8830050230026245,-1.153923511505127,-1.9649993181228638
1790266574743051300,9.94505126953125,-0.916602611541748,-1.1527018547058105,-1.9595015048980713
1790266574760303900,9.962303955078125,-0.8194751143455505,-1.0800089836120605,-1.8886412382125854
1790266574777556500,9.979556396484375,-0.713184654712677,-1.3628393411636353,-1.698662281036377
1790266574794809000,9.99680908203125,-0.6270527243614197,-1.6798781156539917,-1.7145447731018066
1790266574812061700,10.014061767578125,-0.6062833070755005,-1.8979568481445312,-1.7261511087417603
1790266574829314300,10.031314208984375,-0.601396381855011,-1.9920300245285034,-1.7939571142196655
1790266574846567200,10.048567138671874,-0.5390881896018982,-1.796553373336792,-1.7163772583007812
1790266574863819800,10.06581982421875,-0.41386088728904724,-1.2681553363800049,-1.670562505722046
1790266574881072400,10.083072265625,-0.3124573230743408,-0.5674933791160583,-1.5001311302185059
1790266574898325200,10.1003251953125,-0.29901832342147827,0.14477495849132538,-1.3486367464065552
1790266574915577900,10.117577880859375,-0.36743515729904175,0.5027416944503784,-1.0487021207809448
1790266574932830700,10.134830810546875,-0.36804601550102234,0.5955931544303894,-0.7218894362449646
1790266574950083300,10.152083251953124,-0.3228420317173004,0.7287616729736328,-0.48914995789527893
1790266574967336000,10.1693359375,-0.2922987937927246,0.8875865340232849,-0.24785839021205902
1790266574984588800,10.1865888671875,-0.22327107191085815,0.7513636946678162,0.0025961752980947495
1790266575001841400,10.20384130859375,-0.05283980444073677,0.7415898442268372,0.3837758004665375
1790266575019094300,10.22109423828125,0.12247838824987411,0.8436042666435242,0.6323977708816528
1790266575036347000,10.238346923828125,0.18295399844646454,0.7513636946678162,0.9042325615882874
1790266575053599500,10.255599609375,0.31490078568458557,0.8210022449493408,1.1711804866790771
1790266575070852400,10.272852294921876,0.4303542375564575,0.9101884961128235,1.356272578239441
1790266575088105000,10.29010498046875,0.4725039005279541,0.9755510687828064,1.503490924835205
1790266575105357600,10.307357666015625,0.4926624298095703,1.0586286783218384,1.641546368598938
1790266575122610000,10.32460986328125,0.5580250024795532,1.166751742362976,1.7985386848449707
1790266575139862500,10.341862548828125,0.639270007610321,1.2986985445022583,1.8437426090240479
1790266575157115000,10.359114990234374,0.6673697829246521,1.544877052307129,1.8327471017837524
1790266575174367500,10.376367431640626,0.6832522749900818,1.6255111694335938,1.8657337427139282
1790266575191620000,10.3936201171875,0.702799916267395,1.4178171157836914,2.050825834274292
1790266575208872700,10.410872802734374,0.7706059217453003,1.1343759298324585,2.086866855621338
1790266575226125600,10.42812548828125,0.776714563369751,1.035415768623352,2.092975378036499
1790266575243378200,10.445378173828125,0.8078686594963074,1.1459823846817017,2.0862560272216797
1790266575260630800,10.462630859375,0.9275981783866882,1.0965023040771484,2.058767080307007
1790266575277883600,10.479883544921876,1.0418298244476318,1.0512982606887817,2.001345634460449
1790266575295136300,10.49713623046875,1.130405306816101,1.1184934377670288,1.9970697164535522
1790266575312389000,10.51438916015625,1.2537999153137207,1.0458004474639893,1.9329289197921753
1790266575329641700,10.531641845703126,1.3203842639923096,0.7422007322311401,1.8535164594650269
1790266575346894300,10.548894287109375,1.3002257347106934,0.535728394985199,1.7832670211791992
1790266575364147200,10.566147216796875,1.2733476161956787,0.33231043815612793,1.7307326793670654
1790266575381399800,10.58339990234375,1.2244784832000732,0.02932151034474373,1.7258456945419312
1790266575398652400,10.60065234375,1.1310161352157593,-0.24556763470172882,1.5896228551864624
1790266575415905000,10.617905029296875,0.952032744884491,-0.22785256803035736,1.401476502418518
1790266575433157400,10.635157470703126,0.7535017132759094,-0.010384701192378998,1.1846195459365845
1790266575450410000,10.652409912109375,0.5396990180015564,0.11728604137897491,0.9286671876907349
1790266575467662300,10.669662353515625,0.33322674036026,0.05253437161445618,0.7124210596084595
1790266575484915000,10.6869150390625,0.12614357471466064,-0.020769402384757996,0.5340485572814941
1790266575502167600,10.70416748046875,-0.041844237595796585,-0.05742128938436508,0.3605629503726959
1790266575519420400,10.72142041015625,-0.18723005056381226,-0.08002328872680664,0.22495095431804657
1790266575536673000,10.738673095703126,-0.30512696504592896,0.017715077847242355,0.08017600327730179
1790266575553925600,10.755925537109375,-0.37659814953804016,0.1740964651107788,-0.1055268943309784
1790266575571178500,10.773178466796875,-0.39736753702163696,0.3433060050010681,-0.3174969553947449
1790266575588431000,10.79043115234375,-0.3796524703502655,0.4153880476951599,-0.5251910090446472
1790266575605684000,10.80768408203125,-0.34116798639297485,0.25534147024154663,-0.7487674951553345
1790266575622936600,10.8249365234375,-0.26480987668037415,0.01954767294228077,-0.9088140726089478
1790266575640189200,10.842189208984376,-0.1585194170475006,-0.18387030065059662,-0.93813556432724
1790266575657442000,10.859442138671875,-0.08521563559770584,-0.337808221578598,-0.9185879230499268
1790266575674694700,10.876694580078125,-0.08338304609060287,-0.3848448097705841,-1.0798561573028564
1790266575691947300,10.893947265625,-0.1701258420944214,-0.23273947834968567,-1.3657408952713013
1790266575709200000,10.911199951171875,-0.3894262909889221,0.0818558782339096,-1.4659227132797241
1790266575726452200,10.9284521484375,-0.6142245531082153,0.1441640853881836,-1.4347686767578125
1790266575743704800,10.945704833984376,-0.6600393652915955,-0.21441353857517242,-1.541059136390686
1790266575760957400,10.96295751953125,-0.6924152374267578,-0.6731730103492737,-1.7078251838684082
1790266575778209800,10.980209716796875,-0.7748819589614868,-0.8790343999862671,-1.7902919054031372
1790266575795462400,10.99746240234375,-0.8445205688476562,-0.8478803038597107,-1.828776478767395
1790266575812715300,11.01471533203125,-0.8323032855987549,-0.8588758707046509,-1.8642065525054932
1790266575829968000,11.0319677734375,-0.7632755637168884,-1.0555742979049683,-1.8336633443832397
1790266575847220500,11.049220458984376,-0.6997455954551697,-1.137430191040039,-1.9155192375183105
1790266575864473300,11.066473388671875,-0.694247841835022,-1.1343759298324585,-2.0798418521881104
1790266575881726000,11.083725830078125,-0.693026065826416,-1.3469568490982056,-1.9998185634613037
1790266575898978800,11.100978759765624,-0.7144063711166382,-1.5705333948135376,-1.9167410135269165
1790266575916231400,11.1182314453125,-0.722347617149353,-1.711643099784851,-2.005927324295044
1790266575933484000,11.135484130859375,-0.7021890878677368,-1.5387684106826782,-2.1030547618865967
1790266575950737000,11.15273681640625,-0.6362156867980957,-1.2803726196289062,-2.0719006061553955
1790266575967989500,11.169989501953125,-0.5842921733856201,-1.2620465755462646,-2.0639593601226807
1790266575985242400,11.187242431640625,-0.5794052481651306,-1.2247838973999023,-2.084728717803955
1790266576002494700,11.20449462890625,-0.5708531141281128,-1.1936297416687012,-2.1134393215179443
1790266576019747300,11.221747314453125,-0.5342012643814087,-1.063515543937683,-1.966831922531128
1790266576036999700,11.238999755859375,-0.4150826036930084,-0.9547816514968872,-1.680947184562683
1790266576054252300,11.256252197265624,-0.2922987937927246,-0.4410443603992462,-1.4433207511901855
1790266576071504600,11.273504638671875,-0.20127993822097778,-0.04581485688686371,-1.1739293336868286
1790266576088757200,11.29075732421875,-0.23487751185894012,0.1588248461484909,-0.8092431426048279
1790266576106010000,11.308010009765624,-0.26419901847839355,0.4166097939014435,-0.5630646347999573
1790266576123262700,11.3252626953125,-0.23243404924869537,0.42821621894836426,-0.23564109206199646
1790266576140515300,11.342515380859375,-0.14569124579429626,0.38240134716033936,0.055741410702466965
1790266576157768200,11.359768310546874,-0.14752385020256042,0.34147340059280396,0.30253079533576965
1790266576175020800,11.377020751953125,-0.051618073135614395,0.45448338985443115,0.5792525410652161
1790266576192273700,11.394273681640625,0.019853105768561363,0.6462949514389038,0.8345940113067627
1790266576209526300,11.4115263671875,0.0870482325553894,0.8014546036720276,1.0264055728912354
1790266576226779000,11.42877880859375,0.1438586562871933,0.9193515181541443,1.246316909790039
1790266576244031700,11.44603173828125,0.24892739951610565,0.9450078010559082,1.503490924835205
1790266576261284400,11.463284423828124,0.3533852696418762,1.0555742979049683,1.687972068786621
1790266576278537200,11.480537109375,0.4266890585422516,1.3817760944366455,1.7472259998321533
1790266576295789800,11.497789794921875,0.467006117105484,1.545487880706787,1.835801362991333
1790266576313042200,11.515042236328124,0.5403099060058594,1.5937461853027344,1.9555308818817139
1790266576330294800,11.532294677734376,0.6258309483528137,1.6633847951889038,2.034332513809204
1790266576347547100,11.549547119140625,0.7333431839942932,1.7531819343566895,2.0551018714904785
1790266576364799700,11.5667998046875,0.8231402635574341,1.746462345123291,2.0459389686584473
1790266576382052400,11.58405224609375,0.906828761100769,1.7006475925445557,1.9940153360366821
1790266576399305000,11.601304931640625,0.9789108037948608,1.51616632938385,1.9213224649429321
1790266576416557600,11.6185576171875,1.008843183517456,1.390328288078308,1.9323179721832275
1790266576433810200,11.63581005859375,1.0344995260238647,1.232114315032959,1.9219332933425903
1790266576451063000,11.65306298828125,1.0980294942855835,1.0146464109420776,1.9414809942245483
1790266576468315600,11.670315673828124,1.1951569318771362,0.8216131329536438,1.86512291431427
1790266576485568500,11.687568603515626,1.2519673109054565,0.7232639193534851,1.641546368598938
1790266576502820900,11.70482080078125,1.3710860013961792,0.7373138070106506,1.623220443725586
1790266576520073500,11.722073486328124,1.49081552028656,0.5992583632469177,1.5731295347213745
1790266576537325800,11.739325927734376,1.4566071033477783,0.29565855860710144,1.450345754623413
1790266576554578400,11.756578369140625,1.3234385251998901,0.09346231073141098,1.4033091068267822
1790266576571831000,11.7738310546875,1.2336413860321045,0.04520399495959282,1.2231040000915527
1790266576589083400,11.79108349609375,1.2067633867263794,-0.10629047453403473,0.9561560750007629
1790266576606336300,11.808336181640625,1.0754274129867554,-0.2822195291519165,0.7020363211631775
1790266576623588900,11.8255888671875,0.8805615901947021,-0.2730565667152405,0.3733910918235779
1790266576640841500,11.842841552734376,0.7473930716514587,-0.16187916696071625,0.11133010685443878
1790266576658094300,11.86009423828125,0.5836812853813171,-0.2211330533027649,-0.02367101050913334
1790266576675347000,11.877346923828124,0.43279770016670227,-0.32559093832969666,-0.06887500733137131
1790266576692599800,11.894599853515626,0.3087921440601349,-0.3836230933666229,-0.2185368686914444
1790266576709852400,11.911852294921875,0.19394956529140472,-0.3555232882499695,-0.41706791520118713
1790266576727105000,11.92910498046875,0.09376774728298187,-0.11423171311616898,-0.6534726023674011
1790266576744358000,11.94635791015625,-0.010079269297420979,0.1496618688106537,-0.893542468547821
1790266576761610500,11.963610595703125,-0.18356487154960632,0.19914191961288452,-1.0541999340057373
1790266576778863400,11.98086328125,-0.35094180703163147,0.2516762912273407,-1.0651954412460327
1790266576796115700,11.99811572265625,-0.39858928322792053,0.26511532068252563,-0.9925025701522827
1790266576813368300,12.015368408203125,-0.3326158821582794,0.18203771114349365,-0.9344704151153564
1790266576830621000,12.032620849609375,-0.35277441143989563,0.13683371245861053,-1.0645846128463745
1790266576847873300,12.049873291015626,-0.5360338687896729,0.17776164412498474,-1.2582287788391113
1790266576865126000,12.0671259765625,-0.8384119272232056,0.11056652665138245,-1.2838850021362305
1790266576882378200,12.084378173828124,-1.0320560932159424,-0.22479823231697083,-1.2649482488632202
1790266576899631000,12.101631103515626,-1.0125083923339844,-0.49480047821998596,-1.3712387084960938
1790266576916883700,12.1188837890625,-0.9495893120765686,-0.6884446144104004,-1.3694061040878296
1790266576934136300,12.13613623046875,-0.89705491065979,-0.9755510687828064,-1.3162609338760376
1790266576951389200,12.15338916015625,-0.8665117025375366,-1.176525592803955,-1.6082541942596436
1790266576968641800,12.170641845703125,-1.0485494136810303,-0.9688315391540527,-2.013868570327759
1790266576985894700,12.187894775390625,-1.2519673109054565,-0.739757239818573,-1.8849760293960571
1790266577003147300,12.205147216796876,-1.194546103477478,-1.0952805280685425,-1.6058107614517212
1790266577020399900,12.22239990234375,-1.0937533378601074,-1.5051708221435547,-1.641851782798767
1790266577037652700,12.23965283203125,-1.1334595680236816,-1.57297682762146,-1.8580979108810425
1790266577054905300,12.2569052734375,-1.1487312316894531,-1.5131120681762695,-2.0126466751098633
1790266577072158000,12.274157958984375,-1.0564906597137451,-1.1893537044525146,-2.0163118839263916
1790266577089410800,12.291410888671875,-0.971580445766449,-1.1325433254241943,-1.9216278791427612
1790266577106663200,12.3086630859375,-0.906828761100769,-1.3115266561508179,-1.7707443237304688
1790266577123915800,12.325915771484375,-0.8310815095901489,-1.342680811882019,-1.74203360080719
1790266577141168400,12.34316845703125,-0.8060360550880432,-1.3866630792617798,-1.772576928138733
1790266577158420700,12.360420654296876,-0.7987056970596313,-1.4440842866897583,-1.7053817510604858
1790266577175673300,12.37767333984375,-0.7370083332061768,-1.4947861433029175,-1.5612176656723022
1790266577192926000,12.394926025390625,-0.5958985686302185,-1.1246020793914795,-1.4659227132797241
1790266577210178600,12.412178466796876,-0.4401280879974365,-0.30054548382759094,-1.3596322536468506
1790266577227431200,12.42943115234375,-0.4169152081012726,0.2052505612373352,-1.004719853401184
1790266577244684000,12.44668408203125,-0.4780016839504242,0.2926042377948761,-0.5367974042892456
1790266577261936600,12.4639365234375,-0.4376846253871918,0.39889469742774963,-0.27779075503349304
1790266577279189500,12.481189453125,-0.39248061180114746,0.4428769648075104,-0.03527744114398956
1790266577296441900,12.49844189453125,-0.33200499415397644,0.4874700903892517,0.1766926348209381
1790266577313694500,12.515694580078126,-0.24892739951610565,0.42943793535232544,0.3416261374950409
1790266577330947000,12.532947021484375,-0.13041962683200836,0.41355544328689575,0.6372846961021423
1790266577348199400,12.550199462890625,0.05222893878817558,0.4379900395870209,0.9329432249069214
1790266577365452000,12.5674521484375,0.2367101013660431,0.48991355299949646,1.1699587106704712
1790266577382704400,12.584704345703125,0.38270679116249084,0.4819723069667816,1.4259110689163208
1790266577399957200,12.601957275390625,0.47922343015670776,0.7006618976593018,1.5010474920272827
1790266577417209900,12.6192099609375,0.43890634179115295,1.1172716617584229,1.6281073093414307
1790266577434462500,12.63646240234375,0.4468475878238678,1.2034035921096802,1.9317071437835693
1790266577451715300,12.65371533203125,0.4712821841239929,1.2779290676116943,1.993404507637024
1790266577468968000,12.670968017578126,0.4120282828807831,1.6939280033111572,1.788153886795044
1790266577486220800,12.688220703125,0.2782489061355591,2.0781619548797607,1.8095341920852661
1790266577503473400,12.705473388671875,0.3601047992706299,1.9401065111160278,2.085034132003784
1790266577520726000,12.72272607421875,0.4920515716075897,1.5778636932373047,2.227365732192993
1790266577537979000,12.739978759765625,0.5170970559120178,1.451414704322815,2.207818031311035
1790266577555231500,12.7572314453125,0.5897899270057678,1.5833615064620972,2.1076362133026123
1790266577572484000,12.774484130859374,0.8060360550880432,1.6041308641433716,2.1003057956695557
1790266577589737000,12.791737060546875,1.02655827999115,1.3347395658493042,2.137568473815918
1790266577606989300,12.8089892578125,1.1426225900650024,1.1129956245422363,2.179718255996704
1790266577624242000,12.826241943359374,1.2483022212982178,0.8552106618881226,2.0349433422088623
1790266577641494300,12.843494384765625,1.331379771232605,0.794124186038971,1.9524765014648438
1790266577658747000,12.860746826171875,1.3374884128570557,0.8808670043945312,1.8449643850326538
1790266577675999500,12.87799951171875,1.2983931303024292,0.8374956250190735,1.7576106786727905
1790266577693252000,12.895252197265625,1.2159262895584106,0.5674933791160583,1.6849178075790405
1790266577710504700,12.912504638671875,1.1627811193466187,0.23273947834968567,1.5065453052520752
1790266577727757300,12.92975732421875,1.06443190574646,-0.12644900381565094,1.2701406478881836
1790266577745010200,12.94701025390625,0.8836159110069275,-0.43371400237083435,1.0221295356750488
1790266577762262800,12.9642626953125,0.7583886384963989,-0.4465421438217163,0.8199332356452942
1790266577779515600,12.981515625,0.6130027770996094,-0.4575377106666565,0.5694786906242371
1790266577796768000,12.99876806640625,0.48472121357917786,-0.4013381600379944,0.3868301212787628
1790266577814020600,13.0160205078125,0.4303542375564575,-0.24251331388950348,0.3013090491294861
1790266577831273000,13.03327294921875,0.41447174549102783,0.014049889519810677,0.15347976982593536
1790266577848525600,13.050525634765625,0.30451610684394836,0.3029889166355133,-0.11896591633558273
1790266577865778200,13.067778076171875,0.10415244847536087,0.4276053309440613,-0.3400989770889282
1790266577883030500,13.085030517578126,-0.06200277432799339,0.3488037884235382,-0.4555523991584778
1790266577900283400,13.102283447265625,-0.12247838824987411,0.2779434621334076,-0.5984947681427002
1790266577917536000,13.119535888671875,-0.189673513174057,0.2987128794193268,-0.7958040833473206
1790266577934788600,13.13678857421875,-0.21838416159152985,0.32070401310920715,-0.9472985863685608
1790266577952041500,13.15404150390625,-0.18173226714134216,0.36835145950317383,-1.0352630615234375
1790266577969294000,13.171294189453125,-0.1230892539024353,0.4214966893196106,-1.1287254095077515
1790266577986547000,13.188546875,-0.06322450190782547,0.2761108875274658,-1.1892009973526
1790266578003799600,13.205799560546875,-0.02718348242342472,-0.10995566099882126,-1.1378883123397827
1790266578021052200,13.22305224609375,-0.07299833744764328,-0.574212908744812,-1.6070325374603271
1790266578038305000,13.240304931640624,-0.4315759539604187,0.10323614627122879,-2.4011566638946533
1790266578055557600,13.2575576171875,-0.766940712928772,0.9834923148155212,-1.354134440422058
1790266578072810500,13.274810546875,-0.6258309483528137,0.17715078592300415,-0.5984947681427002
1790266578090063000,13.29206298828125,-0.42363473773002625,-0.8619301915168762,-1.131779670715332
1790266578107315500,13.3093154296875,-0.8268054723739624,-1.3487894535064697,-1.8776456117630005
1790266578124568000,13.326568115234375,-1.3075560331344604,-0.9046907424926758,-2.1897974014282227
1790266578141820700,13.343820556640624,-1.1053597927093506,-0.6914989352226257,-1.8562653064727783
1790266578159073000,13.361072998046875,-0.7418952584266663,-1.341459035873413,-1.567326307296753
1790266578176325600,13.37832568359375,-0.7412844300270081,-1.6328415870666504,-1.9045236110687256
1790266578193578200,13.395578125,-0.999069333076477,-1.0494656562805176,-2.2728750705718994
1790266578210830800,13.412830810546875,-1.0619884729385376,-1.1710277795791626,-1.9876012802124023
1790266578228083500,13.43008349609375,-1.0149518251419067,-2.3011276721954346,-1.5367830991744995
1790266578245336300,13.44733642578125,-0.9886846542358398,-2.7794346809387207,-1.9173518419265747
1790266578262589000,13.4645888671875,-0.8542944192886353,-2.1172573566436768,-2.3700027465820312
1790266578279841800,13.481841796875,-0.48594292998313904,-0.5332849621772766,-2.825096845626831
1790266578297094400,13.499094482421874,-0.34788748621940613,0.1380554437637329,-2.6870415210723877
1790266578314346800,13.5163466796875,-0.8255837559700012,-0.44837474822998047,-1.898414969444275
1790266578331599400,13.533599365234375,-0.898276686668396,-0.1997527778148651,-1.5905392169952393
1790266578348851700,13.550851806640624,-1.027169108390808,-0.6811142563819885,-1.2221877574920654
1790266578366104300,13.568104248046875,-0.8848376274108887,-0.4563159942626953,-1.243567943572998
1790266578383356700,13.585356689453125,-0.7730493545532227,-0.22235478460788727,-1.218522548675537
1790266578400609500,13.602609619140624,-0.5830704569816589,-0.08552107214927673,-0.8348994255065918
1790266578417862100,13.619862060546875,-0.3124573230743408,0.021991131827235222,-0.3761399984359741
1790266578435114800,13.63711474609375,-0.2306014597415924,0.1337793916463852,-0.09330959618091583
1790266578452367600,13.65436767578125,-0.26908594369888306,0.18264856934547424,0.1455385386943817
1790266578469620200,13.6716201171875,-0.30085089802742004,0.08979712426662445,0.3813323378562927
1790266578486873000,13.688873046875,-0.2617555558681488,0.16554436087608337,0.45646870136260986
1790266578504125700,13.706125732421874,-0.14691297709941864,0.5125155448913574,0.5627591609954834
1790266578521378300,13.72337841796875,0.02718348242342472,0.8362739086151123,0.7735075354576111
1790266578538631200,13.740631103515625,0.29046618938446045,1.2437206506729126,1.0093013048171997
1790266578555883800,13.7578837890625,0.5134318470954895,1.6621630191802979,1.149800181388855
1790266578573136600,13.77513671875,0.7180715203285217,1.9535455703735352,1.364824652671814
1790266578590389200,13.79238916015625,0.9208786487579346,1.858250617980957,1.6097813844680786
1790266578607641600,13.8096416015625,1.0650427341461182,1.4379756450653076,1.7594432830810547
1790266578624894200,13.826894287109376,1.0247256755828857,1.4367539882659912,1.8058689832687378
1790266578642146600,13.844146484375,1.0204496383666992,1.8277074098587036,1.9329289197921753
1790266578659399200,13.861399169921874,1.13712477684021,1.525329351425171,2.003789186477661
1790266578676651800,13.87865185546875,1.1328487396240234,0.8600975871086121,2.165668249130249
1790266578693904400,13.895904296875,1.038164734840393,0.6340776681900024,2.2004876136779785
1790266578711157000,13.913156982421874,0.9954041838645935,0.6811142563819885,2.14612078666687
1790266578728409600,13.93040966796875,1.007010579109192,0.35185810923576355,2.110079765319824
1790266578745662500,13.947662353515625,0.9746347665786743,0.20647229254245758,2.1607813835144043
1790266578762915000,13.9649150390625,1.0754274129867554,0.3451386094093323,2.1620032787323
1790266578780168000,13.98216796875,1.239139199256897,0.4013381600379944,2.0599887371063232
1790266578797420300,13.999420166015625,1.2134828567504883,0.44898560643196106,1.9500330686569214
1790266578814673000,14.0166728515625,1.1884374618530273,0.7776308655738831,1.874896764755249
1790266578831925200,14.03392529296875,1.3796380758285522,0.8998038172721863,1.7362303733825684
1790266578849177900,14.051177734375,1.580001711845398,0.481361448764801,1.62505304813385
1790266578866430500,14.068430419921874,1.3619229793548584,-0.059864748269319534,1.5242602825164795
1790266578883682800,14.085682861328126,1.0943642854690552,-0.04886918142437935,1.2218822240829468
1790266578900935700,14.102935791015625,0.970969557762146,0.24312418699264526,0.9738711714744568
1790266578918188300,14.120188232421874,0.916602611541748,0.1795942485332489,0.7741183638572693
1790266578935441000,14.13744091796875,0.805425226688385,-0.05192350596189499,0.448527455329895
1790266578952693800,14.15469384765625,0.5885682106018066,-0.15577052533626556,0.2390008419752121
1790266578969946400,14.1719462890625,0.2935205399990082,-0.04153880476951599,0.07528908550739288
1790266578987199200,14.18919921875,0.189673513174057,-0.14172062277793884,-0.057268574833869934
1790266579004451600,14.20645166015625,0.13652828335762024,-0.5235111117362976,-0.21975859999656677
1790266579021704200,14.2237041015625,-0.006414080038666725,-0.49968740344047546,-0.26129740476608276
1790266579038956500,14.24095654296875,-0.09132428467273712,-0.2260199636220932,-0.13729186356067657
1790266579056209200,14.258209228515625,-0.12614357471466064,0.03909534588456154,-0.1311832070350647
1790266579073461500,14.27546142578125,-0.22388194501399994,0.16004657745361328,-0.5099193453788757
1790266579090714000,14.292714111328126,-0.5042688846588135,0.30604326725006104,-0.8306233882904053
1790266579107967000,14.309967041015625,-0.6594285368919373,0.2730565667152405,-0.7652608752250671
1790266579125219600,14.327219482421874,-0.5696313977241516,0.02932151034474373,-0.6937896609306335
1790266579142472200,14.34447216796875,-0.4816668927669525,-0.049480047076940536,-1.0022764205932617
1790266579159725000,14.36172509765625,-0.582459568977356,-0.029932374134659767,-1.3675734996795654
1790266579176977700,14.378977783203124,-0.7467821836471558,0.21135921776294708,-1.2270746231079102
1790266579194230500,14.39623046875,-0.7437278628349304,0.20402882993221283,-1.0584759712219238
1790266579211483100,14.413483154296875,-0.7541125416755676,-0.2675587832927704,-1.2295180559158325
1790266579228735700,14.43073583984375,-0.9007201194763184,-0.5119046568870544,-1.282663345336914
1790266579245988600,14.447988525390626,-1.0424407720565796,-0.5216785073280334,-1.2899936437606812
1790266579263241200,14.4652412109375,-1.072983980178833,-0.6731730103492737,-1.4805835485458374
1790266579280494000,14.482494140625,-1.0418298244476318,-0.9676098227500916,-1.6644538640975952
1790266579297746400,14.499746337890626,-1.053436279296875,-0.9401208758354187,-1.6803362369537354
1790266579314999000,14.5169990234375,-1.0662645101547241,-0.9279035925865173,-1.8489350080490112
1790266579332251400,14.53425146484375,-1.02655827999115,-0.8784235715866089,-1.6931644678115845
1790266579349504000,14.55150390625,-0.898276686668396,-1.1520910263061523,-1.4017819166183472
1790266579366756600,14.568756591796875,-0.8665117025375366,-1.6401718854904175,-1.4311034679412842
1790266579384009000,14.586009033203124,-0.9129374027252197,-2.056781768798828,-1.7017165422439575
1790266579401261800,14.60326171875,-0.869566023349762,-2.0641121864318848,-1.9784382581710815
1790266579418514400,14.620514404296875,-0.795040488243103,-1.4715732336044312,-2.1867432594299316
1790266579435767000,14.63776708984375,-0.78648841381073,-0.833219587802887,-2.2343907356262207
1790266579453020000,14.65502001953125,-0.8274163603782654,-0.6120865345001221,-2.123824119567871
1790266579470272500,14.6722724609375,-0.8762855529785156,-0.7312051653862,-2.0517420768737793
1790266579487525000,14.689525146484375,-0.8805615901947021,-0.3695732057094574,-1.9595015048980713
1790266579504777700,14.70677783203125,-0.8530726432800293,-0.053145237267017365,-1.6723949909210205
1790266579522030300,14.7240302734375,-0.7925970554351807,-0.185092031955719,-1.2319614887237549
1790266579539282700,14.74128271484375,-0.6630937457084656,-0.16798780858516693,-0.9295834898948669
1790266579556535300,14.758535400390626,-0.4834994673728943,0.13500112295150757,-0.69012451171875
1790266579573787600,14.77578759765625,-0.31062474846839905,0.32131487131118774,-0.42012226581573486
1790266579591040300,14.793040283203124,-0.1945604383945465,0.33536475896835327,-0.22708898782730103
1790266579608293000,14.810293212890626,-0.14508038759231567,0.38240134716033936,-0.017562363296747208
1790266579625545700,14.827545654296875,-0.08643736690282822,0.2767217457294464,0.15958842635154724
1790266579642798300,14.84479833984375,0.05222893878817558,-0.040317077189683914,0.4912880063056946
1790266579660051200,14.86205126953125,0.18417572975158691,0.08979712426662445,0.6916516423225403
1790266579677303800,14.8793037109375,0.24465134739875793,0.24801109731197357,0.9347758293151855
1790266579694556400,14.896556396484375,0.37354379892349243,0.43860089778900146,1.2457059621810913
1790266579711809000,14.91380908203125,0.5006036758422852,0.7379246354103088,1.4320197105407715
1790266579729061400,14.931061279296875,0.5164861679077148,0.9957095980644226,1.458287000656128
1790266579746314000,14.94831396484375,0.47983428835868835,1.1881320476531982,1.58412504196167
1790266579763566300,14.96556640625,0.600785493850708,1.3005311489105225,1.769827961921692
1790266579780819000,14.98281884765625,0.702799916267395,1.3585633039474487,1.82724928855896
1790266579798071600,15.000071533203124,0.6911935210227966,1.4214823246002197,1.806479811668396
1790266579815324400,15.017324462890626,0.6655371785163879,1.422093152999878,1.8657337427139282
1790266579832577000,15.034576904296875,0.7522799968719482,1.4086542129516602,1.9262093305587769
1790266579849829600,15.05182958984375,0.8616247773170471,1.4025455713272095,1.874896764755249
1790266579867082500,15.06908251953125,0.9404263496398926,1.1899645328521729,1.9787437915802002
1790266579884335000,15.086335205078125,1.0247256755828857,0.8723149299621582,2.1131339073181152
1790266579901587700,15.103587646484375,1.117577075958252,0.6524035930633545,2.1192426681518555
1790266579918840300,15.12084033203125,1.1688897609710693,0.6493492722511292,1.947589635848999
1790266579936092700,15.1380927734375,1.1896591186523438,0.7159335017204285,1.8412991762161255
1790266579953345300,15.15534521484375,1.2104285955429077,0.7458658814430237,1.7374521493911743
1790266579970597600,15.17259765625,1.2721259593963623,0.6798924803733826,1.6678135395050049
1790266579987850200,15.189850341796875,1.3900227546691895,0.536339282989502,1.669646143913269
1790266580005102800,15.207102783203124,1.461493968963623,0.3017672002315521,1.615279197692871
1790266580022355700,15.224355712890626,1.4401136636734009,0.0873536616563797,1.5083779096603394
1790266580039608300,15.2416083984375,1.3295471668243408,-0.1185077652335167,1.4057525396347046
1790266580056861000,15.25886083984375,1.1249074935913086,-0.23335035145282745,1.2939642667770386
1790266580074113800,15.27611376953125,0.8610138893127441,-0.20891575515270233,1.1357502937316895
1790266580091366400,15.293366455078125,0.600785493850708,-0.07269290834665298,0.8468112945556641
1790266580108619000,15.310618896484375,0.3601047992706299,-0.003665188793092966,0.5725330114364624
1790266580125871400,15.327871337890626,0.20127993822097778,-0.05864302068948746,0.35506516695022583
1790266580143124000,15.3451240234375,0.0717766135931015,-0.12400554865598679,0.17913609743118286
1790266580160376300,15.362376220703124,-0.03390299528837204,-0.08918625861406326,0.01908952370285988
1790266580177629000,15.37962890625,-0.09376774728298187,-0.08124501258134842,-0.15073087811470032
1790266580194881500,15.396881591796875,-0.1701258420944214,0.020158538594841957,-0.2887863218784332
1790266580212134100,15.414134033203124,-0.2525925934314728,0.2620609998703003,-0.3730856776237488
1790266580229387000,15.431386962890626,-0.24953825771808624,0.42821621894836426,-0.44638943672180176
1790266580246639600,15.4486396484375,-0.18845178186893463,0.42088583111763,-0.5374082922935486
1790266580263892200,15.465892333984375,-0.12431098520755768,0.36835145950317383,-0.6864593029022217
1790266580281145000,15.48314501953125,-0.11209368705749512,0.38240134716033936,-0.8623883724212646
1790266580298397700,15.500397705078125,-0.15302163362503052,0.33231043815612793,-1.0083850622177124
1790266580315650000,15.517650146484375,-0.23182319104671478,0.22479823231697083,-1.0963495969772339
1790266580332902700,15.534902587890626,-0.3503309488296509,0.143553227186203,-1.123227596282959
1790266580350155000,15.552155029296875,-0.4987711012363434,0.08368847519159317,-1.1097885370254517
1790266580367407600,15.56940771484375,-0.6588176488876343,-0.0030543238390237093,-1.2124139070510864
1790266580384660200,15.58666015625,-0.785877525806427,-0.1178968995809555,-1.3920080661773682
1790266580401912800,15.603912841796875,-0.8359684348106384,-0.2822195291519165,-1.4628684520721436
1790266580419165400,15.62116552734375,-0.8677334189414978,-0.6157516837120056,-1.46409010887146
1790266580436418300,15.638418212890626,-0.916602611541748,-0.8973603844642639,-1.5288418531417847
1790266580453671000,15.6556708984375,-0.9508110284805298,-1.0146464109420776,-1.6406301259994507
1790266580470923800,15.672923828125,-0.9508110284805298,-1.1465932130813599,-1.7780746221542358
1790266580488176400,15.69017626953125,-0.990517258644104,-1.2846486568450928,-2.0749549865722656
1790266580505429000,15.707428955078125,-1.0497710704803467,-1.3616175651550293,-2.282649040222168
1790266580522681900,15.724681884765625,-1.1047489643096924,-1.2168426513671875,-2.1861324310302734
1790266580539934500,15.7419345703125,-1.0601558685302734,-1.0806198120117188,-2.1445934772491455
1790266580557187000,15.75918701171875,-1.0320560932159424,-1.2644901275634766,-2.126267671585083
1790266580574440000,15.77643994140625,-1.0015127658843994,-1.5143338441848755,-2.0767874717712402
1790266580591779000,15.793779052734376,-0.9135482907295227,-1.3109158277511597,-2.056018114089966
1790266580609376800,15.811376708984374,-0.7742711305618286,-0.9767727851867676,-2.1134393215179443
1790266580626974500,15.828974365234375,-0.711962878704071,-0.8307760953903198,-1.9387321472167969
1790266580644572200,15.846572265625,-0.703410804271698,-1.0231984853744507,-1.6021455526351929
1790266580662169900,15.864169921875,-0.7235693335533142,-0.9486730098724365,-1.4298816919326782
1790266580679767600,15.881767578125,-0.684473991394043,-0.6017017960548401,-1.2869393825531006
1790266580697365000,15.899364990234375,-0.5659661889076233,-0.5723803043365479,-1.0089958906173706
1790266580714962700,15.916962646484375,-0.43279770016670227,-0.41905322670936584,-0.8281798958778381
1790266580732560100,15.93456005859375,-0.31184646487236023,0.06047561392188072,-0.7102830410003662
1790266580750157600,15.952157470703124,-0.25381430983543396,0.2565632164478302,-0.4653262495994568
1790266580767755000,15.969755126953125,-0.18356487154960632,0.45509424805641174,-0.145843967795372
1790266580785352700,15.987352783203125,-0.08399390429258347,0.7641918659210205,0.08017600327730179
1790266580802736400,16.004736328125,0.035735588520765305,0.8436042666435242,0.3782780170440674
1790266580820049000,16.022048828125,0.1487455666065216,0.8747583627700806,0.706923246383667
1790266580837361400,16.039361328125,0.22449280321598053,0.9993748068809509,0.9769254922866821
1790266580854674000,16.056673828125,0.3808741867542267,1.158199667930603,1.19866943359375
1790266580871986400,16.073986328125,0.509155809879303,1.082452416419983,1.4912736415863037
1790266580889299000,16.091298828125,0.732121467590332,1.072678565979004,1.7850996255874634
1790266580906551600,16.108551513671873,0.8768963813781738,1.1050543785095215,1.928041934967041
1790266580923804200,16.12580419921875,0.9630283117294312,1.202792763710022,1.9982913732528687
1790266580941057000,16.14305712890625,0.9636391997337341,1.296255111694336,1.9720242023468018
1790266580958309600,16.1603095703125,0.9728021621704102,1.202792763710022,2.011730432510376
1790266580975562500,16.1775625,1.0131192207336426,1.239444613456726,1.9897392988204956
1790266580992815000,16.194815185546876,1.0387755632400513,1.3762784004211426,2.0080652236938477
1790266581010067500,16.2120673828125,1.0974185466766357,1.0384701490402222,2.159559726715088
1790266581027320000,16.229320068359375,1.0601558685302734,0.4221075773239136,2.3287692070007324
1790266581044572700,16.24657275390625,1.0063997507095337,0.10629047453403473,2.123518705368042
1790266581061825000,16.263824951171873,0.952032744884491,0.4569268524646759,2.1638357639312744
1790266581079077600,16.28107763671875,1.2092068195343018,0.6933315396308899,2.184605121612549
1790266581096330200,16.298330322265624,1.5121957063674927,0.48563748598098755,2.0111196041107178
1790266581113582800,16.315582763671873,1.5763366222381592,0.3194822669029236,1.8510730266571045
1790266581130835500,16.33283544921875,1.5323543548583984,0.48502662777900696,1.6739221811294556
1790266581148088300,16.35008837890625,1.6502511501312256,0.42821621894836426,1.4075851440429688
1790266581165341000,16.3673408203125,1.5861103534698486,0.05925388261675835,1.338557481765747
1790266581182593800,16.38459375,1.2861758470535278,-0.2620609998703003,1.3379465341567993
1790266581199846100,16.40184619140625,1.0888664722442627,-0.27488914132118225,1.1192569732666016
1790266581217098800,16.4190986328125,0.9563088417053223,-0.036651886999607086,0.8724676370620728
1790266581234351400,16.436351318359375,0.7058542370796204,0.13133592903614044,0.6030762791633606
1790266581251603700,16.453603759765624,0.5897899270057678,0.08979712426662445,0.4179842174053192
1790266581268856300,16.470856201171873,0.47372564673423767,-0.2608392536640167,0.212733656167984
1790266581286108700,16.488108642578126,0.11942406743764877,-0.2614501118659973,-0.03527744114398956
1790266581303361500,16.505361572265624,-0.0974329337477684,0.11362084746360779,-0.2991710305213928
1790266581320614100,16.5226142578125,-0.2049451321363449,-0.09957095980644226,-0.39629852771759033
1790266581337866800,16.53986669921875,-0.3814850449562073,-0.2712239623069763,-0.4189005196094513
1790266581355119600,16.55711962890625,-0.457843154668808,0.1026252806186676,-0.38957902789115906
1790266581372372200,16.574372314453125,-0.3698786199092865,0.5913171172142029,-0.310166597366333
1790266581389624800,16.591624755859375,-0.28557929396629333,0.8167262077331543,-0.2331976294517517
1790266581406877400,16.60887744140625,-0.34727662801742554,0.6401863098144531,-0.31261005997657776
1790266581424130000,16.626130126953125,-0.467006117105484,0.23945899307727814,-0.5245801210403442
1790266581441382400,16.64338232421875,-0.5354229807853699,-0.33597561717033386,-0.8306233882904053
1790266581458635000,16.660635009765624,-0.6191114783287048,-0.6395754218101501,-1.106123447418213
1790266581475887400,16.677887451171873,-0.7229584455490112,-0.6322450637817383,-1.2985458374023438
1790266581493140000,16.695139892578126,-0.8487966060638428,-0.4868592321872711,-1.3877320289611816
1790266581510392800,16.712392822265624,-0.8292489647865295,-0.33169957995414734,-1.39445161819458
1790266581527645400,16.7296455078125,-0.6545416116714478,-0.28527384996414185,-1.4060579538345337
1790266581544898300,16.746898193359375,-0.5702422857284546,-0.389120876789093,-1.5795435905456543
1790266581562151000,16.76415087890625,-0.7290670871734619,-0.49418962001800537,-1.743255376815796
1790266581579403500,16.781403564453125,-0.9025527238845825,-0.46425724029541016,-1.6717841625213623
1790266581596656000,16.79865625,-0.9031635522842407,-0.526565432548523,-1.5557198524475098
1790266581613908700,16.81590869140625,-0.9019418358802795,-0.8588758707046509,-1.6125303506851196
1790266581631161000,16.8331611328125,-1.015562653541565,-1.3304635286331177,-1.8562653064727783
1790266581648413700,16.85041357421875,-1.0852012634277344,-1.3084723949432373,-2.0462443828582764
1790266581665666300,16.867666259765624,-0.9758564829826355,-1.268766164779663,-2.0334160327911377
1790266581682918700,16.884918701171873,-0.8738420605659485,-1.4941751956939697,-1.937510371208191
1790266581700171300,16.902171142578126,-0.8481857180595398,-1.5381574630737305,-2.209956169128418
1790266581717424000,16.919424072265624,-0.7993165850639343,-1.191797137260437,-2.394437313079834
1790266581734676700,16.9366767578125,-0.722347617149353,-1.1337649822235107,-2.2808163166046143
1790266581751929600,16.9539296875,-0.6136136651039124,-1.5131120681762695,-2.0584616661071777
1790266581769182200,16.97118212890625,-0.5122101306915283,-1.5741984844207764,-2.062126874923706
1790266581786434800,16.988434814453125,-0.3582721948623657,-1.2101231813430786,-2.065181016921997
1790266581803687400,17.0056875,-0.2831358313560486,-0.9547816514968872,-1.9051345586776733
1790266581820939800,17.022939697265624,-0.3436114490032196,-0.6200277805328369,-1.7444771528244019
1790266581838192400,17.0401923828125,-0.4419606626033783,-0.1740964651107788,-1.4518728256225586
1790266581855445000,17.057445068359375,-0.5122101306915283,0.01649334840476513,-1.106123447418213
1790266581872697300,17.074697265625,-0.3808741867542267,0.2938259541988373,-0.7744238376617432
1790266581889950000,17.091949951171873,-0.21288637816905975,0.39828383922576904,-0.3400989770889282
1790266581907202600,17.10920263671875,-0.04673115536570549,0.3451386094093323,-0.10797034949064255
1790266581924455400,17.126455322265624,0.03940077871084213,0.3280344009399414,0.08139773458242416
1790266581941708000,17.1437080078125,0.06811141967773438,0.2730565667152405,0.4839576184749603
1790266581958961000,17.1609609375,0.0717766135931015,0.360410213470459,0.8327614068984985
1790266581976213500,17.178213623046876,0.23304490745067596,0.7446441650390625,0.9787580966949463
1790266581993466000,17.195466064453125,0.23854269087314606,0.9187406301498413,1.1772891283035278
1790266582010718700,17.21271875,0.24220788478851318,0.9651663303375244,1.5865685939788818
1790266582027971000,17.22997119140625,0.30512696504592896,1.0250310897827148,1.818697214126587
1790266582045223700,17.2472236328125,0.3081812858581543,1.163697361946106,1.8211406469345093
1790266582062476000,17.26447607421875,0.2984074354171753,1.3976585865020752,1.9781328439712524
1790266582079728600,17.281728759765624,0.5384773015975952,1.4868448972702026,2.38313627243042
1790266582096981200,17.298981201171873,0.7620537877082825,1.441640853881836,2.545626163482666
1790266582114233900,17.31623388671875,0.7644972801208496,1.4837905168533325,2.5181374549865723
1790266582131486700,17.33348681640625,0.732121467590332,1.4190388917922974,2.587775945663452
1790266582148739300,17.3507392578125,0.7565560340881348,1.2217295169830322,2.6079344749450684
1790266582165992200,17.3679921875,0.7480039000511169,0.9053016304969788,2.5975496768951416
1790266582183244800,17.385244873046876,0.7736602425575256,0.6957749724388123,2.5279111862182617
1790266582200497400,17.402497314453125,0.8946114778518677,0.8045089244842529,2.3764166831970215
1790266582217749800,17.419749755859375,1.0571014881134033,1.2345577478408813,2.174220561981201
1790266582235002400,17.43700244140625,1.1646137237548828,1.40559983253479,1.939037561416626
1790266582252254700,17.454254638671873,1.2336413860321045,1.0928370952606201,1.9146028757095337
1790266582269507300,17.47150732421875,1.3332123756408691,0.544891357421875,1.8327471017837524
1790266582286760000,17.488760009765624,1.4395028352737427,0.05742128938436508,1.6934698820114136
1790266582304012500,17.506012451171873,1.4853177070617676,-0.021991131827235222,1.567631721496582
1790266582321265200,17.52326513671875,1.4737112522125244,0.2205221801996231,1.4692825078964233
1790266582338518000,17.54051806640625,1.3539817333221436,0.14538581669330597,1.3012946844100952
1790266582355770600,17.5577705078125,1.1676679849624634,-0.3225366175174713,1.1003202199935913
1790266582373023500,17.5750234375,0.99968022108078,-0.5522217750549316,0.8846849203109741
1790266582390276000,17.592276123046876,0.7376192212104797,-0.3084867000579834,0.5688678026199341
1790266582407528700,17.60952880859375,0.4218021333217621,0.09162971377372742,0.33307403326034546
1790266582424781000,17.626781005859375,0.1285870373249054,0.2162461280822754,0.25671592354774475
1790266582442033700,17.64403369140625,-0.01802051067352295,-0.06291907280683517,0.28664830327033997
1790266582459286000,17.6612861328125,-0.14202606678009033,-0.08979712426662445,0.1302669197320938
1790266582476538600,17.67853857421875,-0.22815799713134766,-0.059864748269319534,-0.08597921580076218
1790266582493791200,17.695791259765624,-0.27458372712135315,-0.24312418699264526,-0.2380845546722412
1790266582511043800,17.7130439453125,-0.374765545129776,-0.31031930446624756,-0.40973755717277527
1790266582528296400,17.73029638671875,-0.48472121357917786,0.001221729558892548,-0.6827940940856934
1790266582545549300,17.74754931640625,-0.5305360555648804,0.5149590373039246,-0.8257364630699158
1790266582562802000,17.764802001953125,-0.4101957082748413,0.7092140316963196,-0.7396045327186584
1790266582580054800,17.7820546875,-0.22266021370887756,0.5564978122711182,-0.7738129496574402
1790266582597307400,17.799307373046876,-0.18845178186893463,0.34208428859710693,-0.9320269227027893
1790266582614559700,17.816559814453125,-0.2837466895580292,0.23396120965480804,-1.0633628368377686
1790266582631812400,17.833812255859375,-0.4462367296218872,0.2675587832927704,-1.2887719869613647
1790266582649064700,17.851064697265624,-0.7211259007453918,0.2877173125743866,-1.6180280447006226
1790266582666317300,17.8683173828125,-0.9947932958602905,0.2730565667152405,-1.7108795642852783
1790266582683570000,17.88556982421875,-1.0045671463012695,0.23823726177215576,-1.476918339729309
1790266582700822300,17.902822265625,-0.8646790981292725,-0.003665188793092966,-1.3657408952713013
1790266582718075000,17.920074951171873,-0.8341358304023743,-0.5888736248016357,-1.5514438152313232
1790266582735327200,17.9373271484375,-0.8726203441619873,-1.3170244693756104,-1.809228777885437
1790266582752579800,17.954579833984376,-0.9129374027252197,-1.620624303817749,-2.121380567550659
1790266582769832200,17.971832275390625,-0.9508110284805298,-1.517388105392456,-2.5447099208831787
1790266582787084800,17.989084716796874,-1.0375537872314453,-1.4556907415390015,-2.72124981880188
1790266582804337400,18.00633740234375,-1.010064959526062,-1.2870920896530151,-2.5025603771209717
1790266582821590300,18.02359033203125,-0.8445205688476562,-1.0555742979049683,-2.112217664718628
1790266582838843000,18.0408427734375,-0.6820304989814758,-1.286481261253357,-2.030972719192505
1790266582856095700,18.058095703125,-0.5812378525733948,-1.638950228691101,-2.09572434425354
1790266582873348400,18.075348388671873,-0.6270527243614197,-1.2424989938735962,-2.217897415161133
1790266582890601000,18.09260107421875,-0.7528908252716064,-0.4416552484035492,-2.5410447120666504
1790266582907853600,18.109853515625,-0.9367611408233643,-0.3848448097705841,-2.219119071960449
1790266582925106000,18.12710595703125,-0.9221003651618958,-1.2742639780044556,-1.788459300994873
1790266582942358500,18.144358642578126,-0.9007201194763184,-1.164919137954712,-1.6565126180648804
1790266582959611000,18.16161083984375,-0.7308996915817261,-0.7635809779167175,-1.7945680618286133
1790266582976863500,18.178863525390625,-0.5476402640342712,-0.4324922561645508,-1.6284128427505493
1790266582994116000,18.1961162109375,-0.43829548358917236,-0.35796675086021423,-1.1464405059814453
1790266583011368700,18.21336865234375,-0.31062474846839905,-0.15821397304534912,-0.781143307685852
1790266583028621600,18.23062158203125,-0.21288637816905975,0.5076286196708679,-0.494647741317749
1790266583045874200,18.247874267578126,-0.06383536756038666,0.5375609993934631,0.0013744457392022014
1790266583063127000,18.265126953125,0.2464839369058609,0.09468404203653336,0.5303833484649658
1790266583080379600,18.282379638671873,0.3124573230743408,0.6359102129936218,0.3935496211051941
1790266583097632300,18.29963232421875,0.029016077518463135,0.48991355299949646,0.6073523163795471
1790266583114884600,18.316884521484376,0.2006690800189972,0.7250964641571045,1.0386228561401367
1790266583132137200,18.33413720703125,0.49144071340560913,0.9828814268112183,1.1571305990219116
1790266583149389600,18.3513896484375,0.6374374032020569,1.2644901275634766,1.2774709463119507
1790266583166642200,18.36864208984375,0.7241802215576172,1.0848958492279053,1.6727005243301392
1790266583183894800,18.385894775390625,0.7431169748306274,0.6542361974716187,2.0746495723724365
1790266583201147400,18.4031474609375,0.5433642268180847,0.20280711352825165,2.0972514152526855
1790266583218400000,18.42039990234375,0.3338375985622406,0.029932374134659767,1.9451462030410767
1790266583235652900,18.43765283203125,0.27030766010284424,0.34208428859710693,1.967137336730957
1790266583252905500,18.454905517578126,0.44379326701164246,0.8148936033248901,2.0410518646240234
1790266583270158300,18.472158447265624,0.6569850444793701,1.4440842866897583,1.8034255504608154
1790266583287411000,18.489410888671873,0.7846558094024658,1.9730932712554932,1.6195552349090576
1790266583304663600,18.50666357421875,0.9978476166725159,1.971260666847229,1.928041934967041
1790266583321916400,18.52391650390625,1.286786675453186,1.4385865926742554,2.4063491821289062
1790266583339169000,18.5411689453125,1.479819893836975,1.0384701490402222,2.5718934535980225
1790266583356422000,18.558421875,1.4847068786621094,1.2791508436203003,2.557232618331909
1790266583373674500,18.575674560546876,1.4999784231185913,1.5424336194992065,2.708116292953491
1790266583390927000,18.592927001953125,1.701563835144043,1.3170244693756104,2.5602869987487793
1790266583408179500,18.610179443359375,2.1138975620269775,1.056185245513916,2.1253511905670166
1790266583425431800,18.627431884765624,2.2537856101989746,0.6017017960548401,1.9042181968688965
1790266583442684200,18.64468408203125,1.7052290439605713,-0.09162971377372742,1.6391029357910156
1790266583459936300,18.661936279296874,1.3698642253875732,-0.627968966960907,1.353829026222229
1790266583477188600,18.679188720703124,1.2910627126693726,-0.768467903137207,1.0929898023605347
1790266583494441000,18.69644091796875,1.0277799367904663,-0.9004147052764893,0.8791871070861816
1790266583511693800,18.71369384765625,0.6875283122062683,-0.8350521326065063,0.7728966474533081
1790266583528946400,18.730946533203124,0.4425715208053589,-0.25411975383758545,0.5823068618774414
1790266583546199300,18.74819921875,0.36743515729904175,0.1893680840730667,0.3043633699417114
1790266583563452000,18.765451904296874,0.3026835024356842,0.18875721096992493,0.039248060435056686
1790266583580704500,18.78270458984375,0.15607595443725586,0.16310089826583862,-0.2441931962966919
1790266583597957000,18.79995703125,-0.16035200655460358,-0.043371398001909256,-0.4689914286136627
1790266583615209700,18.817209716796874,-0.3271180987358093,-0.009162971749901772,-0.5441278219223022
1790266583632462000,18.834462158203124,-0.30451610684394836,0.04581485688686371,-0.5355756878852844
1790266583649714700,18.851714599609377,-0.28985533118247986,-0.17837251722812653,-0.5465712547302246
1790266583666967300,18.86896728515625,-0.3185659945011139,-0.43310311436653137,-0.7774781584739685
1790266583684219600,18.8862197265625,-0.4266890585422516,-0.10323614627122879,-1.134223222732544
1790266583701472300,18.90347216796875,-0.5396990180015564,0.49052441120147705,-1.0523673295974731
1790266583718725000,18.92072509765625,-0.40836310386657715,0.7092140316963196,-0.817184329032898
1790266583735977700,18.937977783203124,-0.2464839369058609,0.5155698657035828,-0.9173662066459656
1790266583753230600,18.955230712890625,-0.3796524703502655,0.2571740746498108,-1.3968950510025024
1790266583770483200,18.972483154296874,-0.7602212429046631,-0.06536252796649933,-1.4701987504959106
1790266583787735800,18.98973583984375,-0.8830050230026245,-0.48502662777900696,-1.0621411800384521
1790266583804988400,19.006988525390625,-0.7400626540184021,-0.8491020202636719,-0.966235339641571
1790266583822240800,19.02424072265625,-0.6142245531082153,-0.9352339506149292,-1.4787509441375732
1790266583839493400,19.041493408203124,-0.7510582208633423,-0.8820887207984924,-2.1549782752990723
1790266583856746000,19.05874609375,-1.0607666969299316,-0.5681042671203613,-2.2728750705718994
1790266583873998300,19.075998291015626,-1.1884374618530273,-0.6035344004631042,-1.8532110452651978
1790266583891251000,19.0932509765625,-1.0247256755828857,-1.145371437072754,-1.4775291681289673
1790266583908503300,19.11050341796875,-0.8084795475006104,-1.1948515176773071,-1.5355613231658936
1790266583925756000,19.127755859375,-0.8439096808433533,-0.7202095985412598,-1.949116826057434
1790266583943008500,19.145008544921875,-1.2116502523422241,-0.7177661061286926,-2.2673773765563965
1790266583960260900,19.1622607421875,-1.5769474506378174,-1.117882490158081,-1.866650104522705
1790266583977513500,19.179513427734374,-1.3106104135513306,-1.2705987691879272,-1.4353795051574707
1790266583994766000,19.19676611328125,-0.9825760126113892,-1.2370011806488037,-1.3144283294677734
1790266584012018700,19.214018798828125,-1.0314451456069946,-1.1074978113174438,-1.5935934782028198
1790266584029271300,19.231271240234374,-1.1346813440322876,-1.045189619064331,-1.8324415683746338
1790266584046524200,19.248524169921875,-1.1982113122940063,-1.5314379930496216,-1.659566879272461
1790266584063776800,19.26577685546875,-1.10230553150177,-1.9181153774261475,-1.5746567249298096
1790266584081029600,19.283029541015626,-0.8903354406356812,-1.7305799722671509,-1.7402009963989258
1790266584098282200,19.3002822265625,-0.6637045741081238,-1.1465932130813599,-1.6754493713378906
1790266584115534600,19.31753466796875,-0.5195404887199402,-0.638353705406189,-1.3254238367080688
1790266584132787200,19.334787109375,-0.3851502537727356,0.0030543238390237093,-1.142775297164917
1790266584150039600,19.35203955078125,-0.5067123174667358,0.5338957905769348,-0.836732029914856
1790266584167292200,19.369292236328125,-0.42363473773002625,-0.033597562462091446,-0.20021092891693115
1790266584184544800,19.386544677734374,-0.06627883017063141,0.12583814561367035,0.1101083755493164
1790266584201797400,19.40379736328125,-0.035124726593494415,1.065959095954895,-0.20998476445674896
1790266584219050000,19.421050048828125,-0.2617555558681488,0.7318159937858582,0.2390008419752121
1790266584236302600,19.438302490234374,-0.20616686344146729,0.6352993845939636,0.7099775671958923
1790266584253555500,19.455555419921875,-0.06444623321294785,0.8045089244842529,0.736244797706604
1790266584270808000,19.47280810546875,-0.025961752980947495,0.6090322136878967,0.9561560750007629
1790266584288061000,19.49006103515625,0.035735588520765305,0.20830489695072174,1.4130829572677612
1790266584305313300,19.507313232421875,0.1737910360097885,0.07391463965177536,1.679419994354248
1790266584322566000,19.52456591796875,0.2678641974925995,0.2968802750110626,1.7539454698562622
1790266584339818200,19.541818359375,0.231212317943573,0.7696896195411682,1.8577924966812134
1790266584357070800,19.55907080078125,0.26358816027641296,1.0177006721496582,2.076482057571411
1790266584374323500,19.576323486328125,0.33505934476852417,0.998153030872345,2.151007652282715
1790266584391575800,19.593575927734374,0.35216355323791504,1.2705987691879272,2.0557126998901367
1790266584408828400,19.610828369140624,0.3295615613460541,1.8472551107406616,1.985463261604309
1790266584426080800,19.628080810546876,0.36193737387657166,1.8686354160308838,2.089921236038208
1790266584443333400,19.64533349609375,0.5348120927810669,1.7763947248458862,2.053269147872925
1790266584460585700,19.662585693359375,0.8451313972473145,1.8979568481445312,2.028834581375122
1790266584477838300,19.67983837890625,1.112079381942749,1.7495167255401611,2.1717770099639893
1790266584495091000,19.697091064453126,1.321605920791626,1.4556907415390015,2.297004222869873
1790266584512343600,19.714343505859375,1.468213438987732,1.284037709236145,2.2872304916381836
1790266584529596400,19.731596435546876,1.676518440246582,1.4404191970825195,2.2120940685272217
1790266584546849000,19.74884912109375,1.869551658630371,1.4275909662246704,2.2206461429595947
1790266584564102000,19.766101806640624,2.0607523918151855,0.8808670043945312,2.1027493476867676
1790266584581354500,19.7833544921875,2.0045528411865234,0.18692462146282196,1.9536982774734497
1790266584598607000,19.800607177734374,1.775478482246399,-0.43310311436653137,1.7484476566314697
1790266584615859500,19.817859375,1.5292999744415283,-0.6750055551528931,1.5798490047454834
1790266584633112000,19.835112060546876,1.1927134990692139,-0.6548470258712769,1.262810230255127
1790266584650364400,19.852364501953126,0.8671225309371948,-0.42943793535232544,0.9854776263237
1790266584667617000,19.869616943359375,0.6533198952674866,-0.21135921776294708,0.7539598345756531
1790266584684869600,19.88686962890625,0.6087267398834229,-0.011606430634856224,0.43020153045654297
1790266584702122000,19.9041220703125,0.42791077494621277,0.39217519760131836,-0.01511890348047018
1790266584719374600,19.92137451171875,0.1078176349401474,0.3341430425643921,-0.383470356464386
1790266584736627000,19.938626953125,-0.2257145345211029,0.0360410213470459,-0.5514581799507141
1790266584753879600,19.955879638671874,-0.3814850449562073,-0.0922405794262886,-0.5154171586036682
1790266584771132200,19.973132080078123,-0.38881543278694153,-0.17898337543010712,-0.43722647428512573
1790266584788384500,19.990384521484376,-0.3900371491909027,-0.19425499439239502,-0.4604393243789673
1790266584805637400,20.007637451171874,-0.3802633285522461,0.11484257876873016,-0.5374082922935486
1790266584822890000,20.024889892578123,-0.39675667881965637,0.5424479246139526,-0.6125446557998657
1790266584840142600,20.042142578125,-0.33689191937446594,0.9034690260887146,-0.5838339924812317
1790266584857395500,20.0593955078125,-0.2617555558681488,0.8845322132110596,-0.5367974042892456
1790266584874648000,20.07664794921875,-0.23854269087314606,0.657290518283844,-0.577725350856781
1790266584891900700,20.093900634765625,-0.35155269503593445,0.3481929302215576,-0.8972076177597046
1790266584909153300,20.1111533203125,-0.5061014890670776,-0.0409279391169548,-1.218522548675537
1790266584926405600,20.128405517578123,-0.639270007610321,-0.3946186602115631,-1.3095413446426392
1790266584943658200,20.145658203125,-0.6991347670555115,-0.5290089249610901,-1.4201078414916992
1790266584960910800,20.162910888671874,-0.7272345423698425,-0.5070177912712097,-1.763413906097412
1790266584978163200,20.1801630859375,-0.7895427346229553,-0.3029889166355133,-2.029139995574951
1790266584995415800,20.197415771484376,-0.879339873790741,-0.07757982611656189,-1.9167410135269165
1790266585012668200,20.214668212890626,-0.9782999157905579,-0.16187916696071625,-1.6760601997375488
1790266585029920800,20.231920654296875,-1.0387755632400513,-0.37629270553588867,-1.5428917407989502
1790266585047173400,20.24917333984375,-1.0949751138687134,-0.4508182108402252,-1.588706612586975
1790266585064425700,20.26642578125,-1.1780527830123901,-0.4062250852584839,-1.800676703453064
1790266585081678300,20.28367822265625,-1.3271037340164185,-0.6145299673080444,-2.0273075103759766
1790266585098931000,20.300930908203124,-1.4663809537887573,-1.2693769931793213,-2.0132575035095215
1790266585116183600,20.31818359375,-1.3851358890533447,-1.6255111694335938,-1.845269799232483
1790266585133436400,20.3354365234375,-1.1884374618530273,-1.3213005065917969,-1.900247573852539
1790266585150689000,20.35268896484375,-1.0638209581375122,-1.1850776672363281,-1.9674427509307861
1790266585167942000,20.36994189453125,-0.989906370639801,-1.426369309425354,-2.093280792236328
1790266585185194500,20.387194580078123,-0.9153808951377869,-1.582750678062439,-2.0853395462036133
1790266585202447000,20.404447021484376,-0.8310815095901489,-1.4789036512374878,-1.9912664890289307
1790266585219699500,20.421699462890626,-0.7199041247367859,-1.1814124584197998,-2.0132575035095215
1790266585236952000,20.4389521484375,-0.6594285368919373,-0.8057306408882141,-1.9515602588653564
1790266585254204400,20.456204345703124,-0.6673697829246521,-0.268169641494751,-1.560606837272644
1790266585271457000,20.47345703125,-0.6490437984466553,-0.25900667905807495,-1.0651954412460327
1790266585288709600,20.490709716796875,-0.5684096813201904,-0.2412915825843811,-0.6333140730857849
1790266585305962200,20.507962158203124,-0.36682429909706116,0.41233372688293457,-0.4488328993320465
1790266585323214800,20.52521484375,-0.1798996776342392,0.832608699798584,-0.3260490894317627
1790266585340467700,20.5424677734375,-0.11331541836261749,0.4679224193096161,0.05451968312263489
1790266585357720300,20.55972021484375,-0.003970621153712273,0.6316341757774353,0.37400195002555847
1790266585374973200,20.57697314453125,0.18356487154960632,0.5241219997406006,0.5090031027793884
1790266585392225800,20.594225830078123,0.2257145345211029,0.2211330533027649,0.5719221234321594
1790266585409478100,20.61147802734375,0.231212317943573,0.07452550530433655,0.838259220123291
1790266585426730800,20.628730712890626,0.44440412521362305,0.11484257876873016,1.0202969312667847
1790266585443983000,20.645983154296875,0.5885682106018066,0.3042106628417969,1.2322670221328735
1790266585461235700,20.663235595703124,0.6722567081451416,0.2608392536640167,1.6073379516601562
1790266585478488000,20.680488037109374,0.7357866168022156,0.3035998046398163,1.781434416770935
1790266585495740700,20.69774072265625,0.6875283122062683,0.9639446139335632,1.8516838550567627
1790266585512993300,20.7149931640625,0.5494728684425354,1.6578869819641113,1.9677481651306152
1790266585530245600,20.73224560546875,0.5586358308792114,1.7006475925445557,2.1339035034179688
1790266585547498200,20.749498291015627,0.7302888631820679,1.4654645919799805,2.185215950012207
1790266585564750600,20.76675048828125,0.8927788734436035,1.5302162170410156,2.0801472663879395
1790266585582003200,20.784003173828125,1.0015127658843994,1.746462345123291,2.0752604007720947
1790266585599255800,20.801255859375,1.1328487396240234,1.839924693107605,2.034332513809204
1790266585616508700,20.8185087890625,1.2977821826934814,1.655443549156189,1.9616395235061646
1790266585633761300,20.83576123046875,1.48776113986969,1.5222749710083008,1.9433135986328125
1790266585651014000,20.853013916015627,1.5934407711029053,1.320078730583191,1.8883357048034668
1790266585668266800,20.870266845703124,1.6942334175109863,0.9718858599662781,1.7722713947296143
1790266585685519400,20.887519287109374,1.8347324132919312,0.7348703145980835,1.686139464378357
1790266585702772000,20.90477197265625,1.9526292085647583,0.44348782300949097,1.5053235292434692
1790266585720024300,20.9220244140625,1.8964296579360962,-0.03176496922969818,1.2890774011611938
1790266585737277000,20.93927685546875,1.7626503705978394,-0.4062250852584839,1.0184643268585205
1790266585754529300,20.956529296875,1.7565417289733887,-0.5021308660507202,0.771064043045044
1790266585771782000,20.973781982421876,1.7107268571853638,-0.4050033390522003,0.6104066371917725
1790266585789034500,20.991034423828125,1.4816524982452393,-0.4062250852584839,0.46807512640953064
1790266585806286800,21.008286865234375,1.0980294942855835,-0.3078758418560028,0.25732678174972534
1790266585823539500,21.02553955078125,0.6582068204879761,-0.06780599057674408,0.1663079410791397
1790266585840791800,21.042791748046874,0.3326158821582794,-0.11484257876873016,0.1467602699995041
1790266585858044400,21.06004443359375,0.14630211889743805,-0.3964512348175049,0.08689551800489426
1790266585875296800,21.077296875,0.07055488228797913,-0.3591884970664978,0.036193739622831345
1790266585892549400,21.09454931640625,0.04062250629067421,-0.22907429933547974,-0.03955349326133728
1790266585909802000,21.111802001953127,0.04245510324835777,-0.23457208275794983,-0.24236060678958893
1790266585927054600,21.1290546875,-0.04550942778587341,-0.11178825795650482,-0.5312996506690979
1790266585944307000,21.146306884765625,-0.23243404924869537,0.18142683804035187,-0.7939714789390564
1790266585961559600,21.1635595703125,-0.3588830530643463,0.22357651591300964,-0.8092431426048279
1790266585978812000,21.18081201171875,-0.30146175622940063,0.1337793916463852,-0.6003273725509644
1790266585996064500,21.198064453125,-0.25442516803741455,0.1185077652335167,-0.48792824149131775
1790266586013317400,21.2153173828125,-0.30146175622940063,0.3084867000579834,-0.6693550944328308
1790266586030570000,21.232570068359376,-0.4627300798892975,0.411722868680954,-0.9680679440498352
1790266586047822600,21.249822509765625,-0.6563742160797119,0.23029601573944092,-1.1568251848220825
1790266586065075500,21.267075439453127,-0.7877101302146912,-0.15210533142089844,-1.2606722116470337
1790266586082328000,21.284328125,-0.8475748896598816,-0.4734202027320862,-1.3956732749938965
1790266586099580700,21.30158056640625,-0.9782999157905579,-0.583375871181488,-1.5251766443252563
1790266586116833300,21.318833251953127,-1.130405306816101,-0.5332849621772766,-1.6070325374603271
1790266586134085600,21.336085693359376,-1.1768310070037842,-0.5974257588386536,-1.7414227724075317
1790266586151338200,21.353338134765625,-1.1340705156326294,-0.8313869833946228,-1.762803077697754
1790266586168590600,21.370590576171875,-1.016784429550171,-1.137430191040039,-1.7371467351913452
1790266586185843200,21.38784326171875,-0.9257655739784241,-1.2076796293258667,-1.8055635690689087
1790266586203095800,21.405095703125,-0.9117156863212585,-1.0775654315948486,-1.9045236110687256
1790266586220348200,21.42234814453125,-1.025336503982544,-1.2828160524368286,-1.9985967874526978
1790266586237600800,21.439600830078124,-1.1963787078857422,-1.2803726196289062,-2.159865140914917
1790266586254853000,21.45685302734375,-1.3991857767105103,-1.5045599937438965,-2.0835070610046387
1790266586272105700,21.474105712890626,-1.4816524982452393,-1.8723005056381226,-1.6662863492965698
1790266586289358300,21.4913583984375,-1.3881902694702148,-1.490510106086731,-1.6143629550933838
1790266586306611000,21.50861083984375,-1.2702933549880981,-0.84177166223526,-1.94728422164917
1790266586323863600,21.525863525390626,-1.2690715789794922,-0.7721330523490906,-1.834274172782898
1790266586341116400,21.543116455078124,-1.2354739904403687,-1.0580178499221802,-1.384677767753601
1790266586358369000,21.560369140625,-1.1597267389297485,-0.8075632452964783,-1.269835114479065
