time,seconds_elapsed,z,y,x
1791022018242478600,0.067478515625,-0.4373791813850403,0.8776599764823914,-0.5349648594856262
1791022018259732500,0.084732421875,-0.4978547990322113,0.4176788032054901,-0.7951932549476624
1791022018276986400,0.101986328125,-0.5296197533607483,-1.218217134475708,-1.1739293336868286
1791022018294240300,0.119240234375,-0.39339691400527954,-3.0269877910614014,-1.7573052644729614
1791022018311494100,0.136494140625,-0.2632827162742615,-3.6708390712738037,-2.1470370292663574
1791022018328748000,0.153748046875,-0.006719512399286032,-3.475362539291382,-2.02303147315979
1791022018346002000,0.171001953125,0.3836230933666229,-2.668410062789917,-1.7041599750518799
1791022018363255800,0.188255859375,0.8936951756477356,-0.9225585460662842,-1.420718789100647
1791022018380509700,0.205509765625,1.5015056133270264,0.7316632866859436,-0.8965967893600464
1791022018397763800,0.222763916015625,1.9028438329696655,2.4860668182373047,-0.2863428592681885
1791022018415017700,0.240017822265625,2.175900459289551,4.398073673248291,0.6085740327835083
1791022018432271600,0.257271728515625,2.599229574203491,5.916683673858643,1.4882192611694336
1791022018449525500,0.274525390625,1.1893537044525146,2.0413572788238525,0.5664243698120117
1791022018466779400,0.291779296875,-0.9731075763702393,-0.5474875569343567,-0.5722275972366333
1791022018484033300,0.309033203125,-0.546113133430481,0.48853909969329834,-0.01695149764418602
1791022018501287200,0.326287109375,-0.26022839546203613,-0.9121738076210022,0.1669187992811203
1791022018518541000,0.343541015625,-0.31642794609069824,-1.5340341329574585,0.7386882305145264
1791022018535795000,0.360794921875,-0.2938259541988373,-1.5248712301254272,1.43873929977417
1791022018553048800,0.378048828125,-0.12217295914888382,-2.0941972732543945,1.908494234085083
1791022018570302700,0.395302734375,0.08796452730894089,-3.272555351257324,2.120464324951172
1791022018587556900,0.412556884765625,0.2669478952884674,-4.4582438468933105,1.9555308818817139
1791022018604810800,0.429810791015625,0.3707949221134186,-3.2756097316741943,0.8944587707519531
1791022018622064600,0.447064697265625,0.19364413619041443,-1.7838778495788574,-0.18555018305778503
1791022018639318500,0.464318603515625,-0.14049890637397766,-1.4869976043701172,-0.5758927464485168
1791022018656572400,0.481572509765625,0.11606431007385254,-1.1809543371200562,-0.36942046880722046
1791022018673826300,0.498826416015625,0.5216785073280334,0.044440411031246185,0.22983787953853607
1791022018691080200,0.516080078125,0.5888736248016357,0.8104648590087891,0.7215840220451355
1791022018708334000,0.533333984375,0.06597339361906052,-0.18463388085365295,0.40576693415641785
1791022018725588000,0.550587890625,-0.5491674542427063,-0.4222602844238281,-0.1049160286784172
1791022018742841900,0.567841796875,-0.665842592716217,-0.06856957077980042,-0.40973755717277527
1791022018760095700,0.585095703125,-0.28954991698265076,0.060933761298656464,-0.4243983030319214
1791022018777350000,0.602349853515625,0.06108647957444191,-0.18402300775051117,-0.2124282270669937
1791022018794603800,0.619603759765625,-0.08491020649671555,-0.46135562658309937,-0.4592176079750061
1791022018811857700,0.636857666015625,-0.5705476999282837,-0.541989803314209,-0.7970257997512817
1791022018829111600,0.654111572265625,-0.4477638900279999,-0.5658134818077087,-0.884379506111145
1791022018846365400,0.671365478515625,-0.01588248461484909,-0.7759509682655334,-0.5636754631996155
1791022018863619300,0.688619384765625,0.07330377399921417,-1.23654305934906,-0.25579962134361267
1791022018880873200,0.705873291015625,0.1997527778148651,-1.3000729084014893,-0.2942841053009033
1791022018898127000,0.723127197265625,0.3946186602115631,-0.9280562996864319,-0.4195113778114319
1791022018915381000,0.740381103515625,0.3194822669029236,-0.16936226189136505,-0.3877464234828949
1791022018932635000,0.757634765625,0.18814635276794434,0.8697187304496765,-0.4555523991584778
1791022018949888800,0.774888671875,0.10201441496610641,1.3608540296554565,-0.6937896609306335
1791022018967143000,0.792142822265625,0.11117739230394363,1.197142243385315,-0.8355103135108948
1791022018984396800,0.809396728515625,0.11484257876873016,0.5728384256362915,-0.671187698841095
1791022019001650700,0.826650634765625,0.08857539296150208,-0.09239330142736435,-0.3174969553947449
1791022019018904600,0.843904541015625,-0.011606430634856224,-0.47845983505249023,-0.06765327602624893
1791022019036158500,0.861158447265625,0.06536252796649933,-0.38560840487480164,0.05818486958742142
1791022019053412400,0.878412353515625,0.17592905461788177,-0.24572035670280457,0.033139415085315704
1791022019070666200,0.895666259765625,0.24312418699264526,-0.0539088174700737,-0.03894263133406639
1791022019087920000,0.912920166015625,0.2981020212173462,0.028557928279042244,-0.09697478264570236
1791022019105174300,0.93017431640625,0.24862197041511536,-0.06062832847237587,-0.17821979522705078
1791022019122428200,0.94742822265625,0.09040798991918564,-0.3782780170440674,-0.33399030566215515
1791022019139682000,0.96468212890625,0.29077163338661194,-0.6739365458488464,-0.3565923273563385
1791022019156936000,0.98193603515625,0.8338304162025452,-0.892626166343689,-0.13851359486579895
1791022019174189800,0.99918994140625,1.4257583618164062,-0.9121738076210022,0.06673697382211685
1791022019191443700,1.016443603515625,2.1813981533050537,-1.1583523750305176,0.2787070572376251
1791022019208697600,1.033697509765625,2.762941360473633,-1.9060508012771606,0.44791659712791443
1791022019225951500,1.050951416015625,3.3408195972442627,-2.9738423824310303,0.6586649417877197
1791022019243205400,1.068205322265625,3.8661632537841797,-3.6677849292755127,0.8156571984291077
1791022019260459500,1.08545947265625,4.310872554779053,-4.001317024230957,0.5059487819671631
1791022019277713400,1.10271337890625,4.778184413909912,-4.294532299041748,0.20967933535575867
1791022019294967300,1.11996728515625,5.1428704261779785,-4.694648742675781,0.06673697382211685
1791022019312221200,1.13722119140625,5.338347434997559,-5.340943336486816,0.2909243404865265
1791022019329475000,1.15447509765625,5.313912868499756,-7.543721675872803,1.068555235862732
1791022019346729000,1.17172900390625,5.5032806396484375,-10.81673526763916,2.4985897541046143
1791022019363982800,1.18898291015625,6.566185474395752,-11.335359573364258,3.5981462001800537
1791022019381236700,1.20623681640625,7.649859428405762,-8.075784683227539,2.60426926612854
1791022019398491000,1.223490966796875,8.66084098815918,-5.171123027801514,0.14004075527191162
1791022019415744800,1.240744873046875,7.665131092071533,-4.434420108795166,-1.864817500114441
1791022019432998700,1.25799853515625,1.767231822013855,-5.038565635681152,-4.955793380737305
1791022019450252500,1.27525244140625,3.3658649921417236,-4.535823822021484,-6.9282755851745605
1791022019467506400,1.29250634765625,5.304749965667725,-2.0795364379882812,-5.581929683685303
1791022019484760300,1.30976025390625,5.984642028808594,1.624747633934021,-1.4170535802841187
1791022019502014200,1.32701416015625,5.770228862762451,2.9582653045654297,1.058781385421753
1791022019519268400,1.344268310546875,5.551538944244385,2.2282819747924805,1.1552979946136475
1791022019536522200,1.361522216796875,3.9920012950897217,-0.11255183815956116,-0.6027708053588867
1791022019553776000,1.378776123046875,2.701854944229126,-0.3568977415561676,-1.0315978527069092
1791022019571030000,1.396030029296875,2.2528693675994873,0.17638720571994781,-0.44211336970329285
1791022019588284000,1.413283935546875,1.970038890838623,0.04199695214629173,0.264046311378479
1791022019605537800,1.430537841796875,1.5344923734664917,-0.6782126426696777,1.5749621391296387
1791022019622791700,1.447791748046875,0.8118392825126648,-0.9451605081558228,2.519969940185547
1791022019640045800,1.4650458984375,0.14233149588108063,-0.4399753510951996,2.632369041442871
1791022019657299700,1.4822998046875,-0.15027274191379547,-0.08689551800489426,2.3898556232452393
1791022019674553600,1.4995537109375,-0.7073814272880554,0.009621120058000088,2.1784965991973877
1791022019691807500,1.516807373046875,-1.2626575231552124,1.2881611585617065,1.2286018133163452
1791022019709061400,1.534061279296875,-0.8991929292678833,3.565464973449707,-1.1995856761932373
1791022019726315500,1.5513154296875,-1.6047418117523193,3.11586856842041,-2.1116068363189697
1791022019743569400,1.5685693359375,-3.2540767192840576,1.7408119440078735,-2.5636467933654785
1791022019760824000,1.585823974609375,-5.278482437133789,1.070082426071167,-2.8043274879455566
1791022019778077700,1.60307763671875,-8.55943775177002,0.1256854236125946,-2.1024439334869385
1791022019795331000,1.6203310546875,-10.621716499328613,-0.9237802624702454,-0.36453354358673096
1791022019812585000,1.6375849609375,-8.96749496459961,-1.6409355401992798,0.652556300163269
1791022019829839000,1.654839111328125,-9.607681274414062,-2.464992046356201,0.42592546343803406
1791022019847093000,1.672093017578125,-8.090904235839844,-4.000095367431641,-0.4604393243789673
1791022019864347000,1.689346923828125,-4.0781331062316895,-4.064236164093018,0.34345871210098267
1791022019881600800,1.706600830078125,-2.522871494293213,-3.4723081588745117,1.2035562992095947
1791022019898854700,1.723854736328125,-2.774547815322876,-2.6702425479888916,0.09239330142736435
1791022019916108800,1.74110888671875,-2.7592761516571045,-1.6519310474395752,-0.8965967893600464
1791022019933362700,1.75836279296875,-2.7543892860412598,-1.5010474920272827,-1.363297462463379
1791022019950616600,1.775616455078125,-2.2986841201782227,-0.6647735834121704,-1.2527309656143188
1791022019967870500,1.792870361328125,1.3695588111877441,-2.450331449508667,-1.0346522331237793
1791022019985124600,1.81012451171875,4.5918707847595215,-4.607295036315918,-0.2955058515071869
1791022020002378500,1.82737841796875,4.703047752380371,-1.4454587697982788,0.21945317089557648
1791022020019632400,1.84463232421875,3.0017895698547363,0.27168211340904236,0.5309942364692688
1791022020036886300,1.86188623046875,0.7880155444145203,0.12324196845293045,1.1033744812011719
1791022020054140200,1.87914013671875,-0.20769402384757996,-1.2927426099777222,1.3318378925323486
1791022020071394300,1.896394287109375,0.20708316564559937,-0.975092887878418,0.9476040005683899
1791022020088648200,1.913648193359375,0.7525854110717773,-1.3684898614883423,0.5566505193710327
1791022020105902000,1.930902099609375,1.0604612827301025,-1.2114975452423096,0.8651372194290161
1791022020123156000,1.948156005859375,1.1349867582321167,-1.3049598932266235,1.141248106956482
1791022020140410000,1.96541015625,1.2748748064041138,-1.5077669620513916,1.215162754058838
1791022020157664000,1.9826640625,2.369544506072998,-0.8034399151802063,1.4161372184753418
1791022020174918000,1.99991796875,2.885725259780884,-1.0581705570220947,1.8058689832687378
1791022020192172000,2.017172119140625,2.3090689182281494,-2.4906485080718994,2.1870486736297607
1791022020209426000,2.034426025390625,1.3573415279388428,-2.9573490619659424,2.891375780105591
1791022020226679800,2.0516796875,0.3127627670764923,-1.4417935609817505,2.84739351272583
1791022020243933700,2.06893359375,0.7764091491699219,-0.07834340631961823,2.6757404804229736
1791022020261187800,2.086187744140625,0.8289434909820557,0.6382009983062744,2.3422083854675293
1791022020278441700,2.103441650390625,1.5332705974578857,1.8758130073547363,2.067929983139038
1791022020295695600,2.120695556640625,1.5503748655319214,2.5349361896514893,0.672104001045227
1791022020312949500,2.137949462890625,-0.010384701192378998,1.4249948263168335,-2.19040846824646
1791022020330203600,2.15520361328125,-0.5112938284873962,1.1519381999969482,-2.8073818683624268
1791022020347457500,2.17245751953125,-0.38301220536231995,1.4311034679412842,-0.9717331528663635
1791022020364711400,2.18971142578125,-0.42394015192985535,1.9246822595596313,0.5847502946853638
1791022020381965600,2.206965576171875,-0.41233372688293457,0.42684176564216614,1.3086251020431519
1791022020399219500,2.224219482421875,0.16554436087608337,0.10125083476305008,0.6079631447792053
1791022020416473300,2.241473388671875,0.3738492429256439,-0.12721258401870728,-0.060322895646095276
1791022020433727200,2.258727294921875,-0.1130099818110466,-0.0539088174700737,0.0032070400193333626
1791022020450981400,2.2759814453125,-0.25411975383758545,-1.3672680854797363,0.18524473905563354
1791022020468235300,2.2932353515625,-0.27977606654167175,-3.3104288578033447,0.717307984828949
1791022020485489200,2.3104892578125,-0.8582650423049927,-5.474112033843994,0.4766272306442261
1791022020502743000,2.327742919921875,-1.091004490852356,-6.723941326141357,-0.3877464234828949
1791022020519997200,2.3449970703125,-0.4465421438217163,-4.077064037322998,-0.6577486395835876
1791022020537251000,2.3622509765625,-0.41844236850738525,-1.086881160736084,0.9231693744659424
1791022020554505000,2.3795048828125,0.3439168632030487,-1.6287182569503784,2.0153956413269043
1791022020571759000,2.396759033203125,0.4105011224746704,-2.9316928386688232,2.129016399383545
1791022020589013000,2.414012939453125,-0.22296564280986786,-3.3128724098205566,1.7606650590896606
1791022020606267100,2.43126708984375,-0.45875945687294006,-2.4692680835723877,0.8107702732086182
1791022020623521000,2.44852099609375,1.3732240200042725,-1.7649410963058472,0.4332558512687683
1791022020640775000,2.46577490234375,2.2504258155822754,-1.8663445711135864,1.7008002996444702
1791022020658028800,2.48302880859375,1.8130466938018799,0.5722275972366333,2.381303548812866
1791022020675283000,2.500282958984375,1.722638726234436,2.6815435886383057,1.4894410371780396
1791022020692536800,2.517536865234375,3.0280566215515137,3.194059133529663,0.5474875569343567
1791022020709790700,2.534790771484375,4.137998104095459,0.09941824525594711,0.633619487285614
1791022020727044900,2.552044921875,3.473377227783203,-4.9976372718811035,0.5206094980239868
1791022020744298800,2.569298828125,2.3628249168395996,-7.3861188888549805,0.6678279042243958
1791022020761552600,2.586552734375,1.2675443887710571,-6.741656303405762,1.0355684757232666
1791022020778806800,2.603806884765625,0.3530798554420471,-3.7759079933166504,1.299462080001831
1791022020796060700,2.621060791015625,0.001221729558892548,-0.716086208820343,-0.13545925915241241
1791022020813314800,2.638314697265625,0.4477638900279999,0.8794925808906555,-1.7414227724075317
1791022020830568700,2.655568603515625,0.46486809849739075,-0.12843431532382965,-1.9882121086120605
1791022020847822600,2.672822509765625,0.20647229254245758,-1.5346450805664062,-1.5343396663665771
1791022020865076500,2.690076416015625,0.04825831577181816,-2.2261440753936768,-1.4152209758758545
1791022020882330600,2.70733056640625,0.025045456364750862,-2.68001651763916,-1.5337287187576294
1791022020899584500,2.72458447265625,-0.10201441496610641,-2.325103998184204,-1.7750203609466553
1791022020916838700,2.741838623046875,-0.4202749729156494,-0.522442102432251,-1.966831922531128
1791022020934092500,2.759092529296875,-0.9731075763702393,1.9430081844329834,-2.1311545372009277
1791022020951346400,2.776346435546875,-1.1362085342407227,3.0865468978881836,-2.4182610511779785
1791022020968600600,2.7936005859375,-1.0861176252365112,1.4133883714675903,-2.0798418521881104
1791022020985854500,2.8108544921875,-1.056185245513916,-0.5303833484649658,-0.9546289443969727
1791022021003108400,2.8281083984375,-1.074511170387268,-1.1956150531768799,-0.02916879393160343
1791022021020362500,2.845362548828125,-1.0641264915466309,-0.7722858190536499,0.10399972647428513
1791022021037616600,2.86261669921875,-1.490510106086731,0.24663665890693665,-0.13484840095043182
1791022021054870500,2.87987060546875,-1.656665325164795,0.7799215912818909,-0.5746710300445557
1791022021072124400,2.89712451171875,-1.6322306394577026,0.3095557391643524,-0.7689260244369507
1791022021089378300,2.91437841796875,-1.3072506189346313,-0.4540252387523651,-0.8263473510742188
1791022021106632400,2.931632568359375,-0.36163195967674255,-0.7368556261062622,-1.1812597513198853
1791022021123886300,2.94888623046875,-0.516791582107544,-1.0496183633804321,-0.8752164840698242
1791022021141140200,2.96614013671875,-0.9553925395011902,-0.8657481074333191,-0.6235402226448059
1791022021158394400,2.983394287109375,-1.0506874322891235,-0.5737547278404236,-0.7609847784042358
1791022021175648300,3.000648193359375,-1.1441497802734375,-0.3721693754196167,-0.9277508854866028
1791022021192902400,3.01790234375,-1.12765634059906,-0.46685341000556946,-0.9265291690826416
1791022021210156300,3.03515625,-1.0653481483459473,-0.8162680864334106,-0.6479747891426086
1791022021227410400,3.052410400390625,-1.479514479637146,-2.3764166831970215,-0.028557928279042244
1791022021244664300,3.069664306640625,-2.224158763885498,-1.3672680854797363,0.1663079410791397
1791022021261918200,3.086918212890625,-2.5295910835266113,-0.3685041666030884,0.12293653935194016
1791022021279172400,3.10417236328125,-2.156963586807251,-0.5639809370040894,0.05329795181751251
1791022021296426200,3.12142626953125,-1.5082250833511353,-0.458301305770874,-0.0798705667257309
1791022021313680100,3.13868017578125,-1.0396918058395386,-0.0642935186624527,-0.5276344418525696
1791022021330934300,3.155934326171875,-0.646905779838562,-0.28848087787628174,-0.7689260244369507
1791022021348188200,3.173188232421875,-0.3915643095970154,-0.5737547278404236,-0.4653262495994568
1791022021365442300,3.1904423828125,-0.0720820426940918,-0.8498656153678894,0.3251327872276306
1791022021382696200,3.2076962890625,-0.039706211537122726,-1.0661118030548096,0.8327614068984985
1791022021399950300,3.224950439453125,-0.35185810923576355,-1.7136284112930298,1.2536472082138062
1791022021417204200,3.242204345703125,-0.2614501118659973,-1.8223623037338257,1.5431971549987793
1791022021434458000,3.2594580078125,0.2419024556875229,-1.243262529373169,0.8333722949028015
1791022021451712300,3.276712158203125,0.6707295179367065,-0.44608399271965027,-0.41157013177871704
1791022021468966400,3.29396630859375,0.7373138070106506,-0.7796161770820618,-1.0737475156784058
1791022021486220300,3.31122021484375,0.5882627964019775,-1.2200497388839722,-1.169653296470642
1791022021503474200,3.32847412109375,0.6139190793037415,-0.9005674123764038,-1.0163263082504272
1791022021520728000,3.34572802734375,0.6310232877731323,0.024892739951610565,-0.9356921315193176
1791022021537982200,3.362982177734375,0.7562506198883057,-0.6232348084449768,-1.4335469007492065
1791022021555236000,3.380236083984375,0.3799578845500946,-0.7099775671958923,-1.4726423025131226
1791022021572490200,3.397490234375,-0.3280344009399414,-0.698371171951294,-1.2899936437606812
1791022021589744000,3.414744140625,-0.8796452879905701,-0.8205441236495972,-1.1287254095077515
1791022021606998000,3.431998046875,-1.2534945011138916,-0.9036217331886292,-1.0957386493682861
1791022021624252200,3.449252197265625,-1.4984513521194458,-0.8559742569923401,-1.2203551530838013
1791022021641506000,3.466506103515625,-1.6438370943069458,-0.7118101716041565,-1.5355613231658936
1791022021658760200,3.48376025390625,-1.5625921487808228,-0.6702713966369629,-1.8526002168655396
1791022021676014000,3.50101416015625,-1.2565488815307617,-0.595745861530304,-2.011425018310547
1791022021693268000,3.51826806640625,-1.045189619064331,-0.6617192625999451,-1.7481422424316406
1791022021710522000,3.535522216796875,-1.3103049993515015,-0.6104066371917725,-1.511737585067749
1791022021727776000,3.55277587890625,-1.497840404510498,-0.3306305706501007,-1.3413063287734985
1791022021745030100,3.570030029296875,-1.276707410812378,-0.5566505193710327,-1.0413717031478882
1791022021762284000,3.587283935546875,-1.1349867582321167,-0.9885319471359253,-0.4915934205055237
1791022021779538200,3.6045380859375,-1.3793326616287231,-0.44119709730148315,-0.5575668215751648
1791022021796792000,3.6217919921875,-1.505781650543213,-0.2994764447212219,-0.8306233882904053
1791022021814046000,3.6390458984375,-1.3555089235305786,-0.5933024287223816,-1.1042908430099487
1791022021831300000,3.656300048828125,-1.1905754804611206,-0.7759509682655334,-1.0841323137283325
1791022021848554000,3.673553955078125,-1.0787872076034546,-0.6397281289100647,-0.8495602011680603
1791022021865808000,3.690807861328125,-1.1111630201339722,-0.5542070865631104,-0.7035635113716125
1791022021883062000,3.70806201171875,-1.130099892616272,-0.45769044756889343,-0.7121156454086304
1791022021900316000,3.72531591796875,-1.1294889450073242,-0.43692103028297424,-0.8978185057640076
1791022021917570000,3.742570068359375,-1.3017528057098389,-0.512668251991272,-1.0914626121520996
1791022021934824000,3.759823974609375,-1.4074324369430542,-0.471129447221756,-1.2704460620880127
1791022021952077800,3.777077880859375,-1.507614254951477,-0.6586649417877197,-1.251509189605713
1791022021969332000,3.79433203125,-1.4984513521194458,-0.5780308246612549,-1.1336122751235962
1791022021986585900,3.8115859375,-1.4025455713272095,-0.541378915309906,-0.9961677193641663
1791022022003840000,3.828840087890625,-1.4294235706329346,-0.6580541133880615,-0.9204205274581909
1791022022021094000,3.846093994140625,-1.4477494955062866,-0.6372846961021423,-0.9503529071807861
1791022022038348000,3.86334814453125,-1.461188554763794,-0.5529853701591492,-0.8849903345108032
1791022022055602000,3.880601806640625,-1.36772620677948,-0.37033677101135254,-0.9301943182945251
1791022022072855800,3.897855712890625,-1.313359260559082,-0.24205516278743744,-0.9430224895477295
1791022022090110000,3.91510986328125,-1.3762784004211426,-0.19624030590057373,-0.826958179473877
1791022022107363800,3.93236376953125,-1.444695234298706,0.2759581506252289,-0.9723440408706665
1791022022124618000,3.949617919921875,-1.4660754203796387,0.32788166403770447,-1.103679895401001
1791022022141871900,3.966871826171875,-1.4715732336044312,-0.08567378669977188,-0.8874338269233704
1791022022159125800,3.984125732421875,-1.528383731842041,-0.04108065739274025,-0.8813251852989197
1791022022176380000,4.0013798828125,-1.5705333948135376,-0.14431680738925934,-0.7060069441795349
1791022022193633800,4.0186337890625,-1.536935806274414,-0.1302669197320938,-0.6186532974243164
1791022022210888000,4.035887939453125,-1.4844014644622803,-0.09605848789215088,-0.6046034097671509
1791022022228141800,4.053141845703125,-1.4208714962005615,-0.0007635809597559273,-0.6766854524612427
1791022022245396000,4.07039599609375,-1.4001020193099976,-0.04230238497257233,-0.6656898856163025
1791022022262649900,4.08764990234375,-1.3151918649673462,-0.06551524996757507,-0.6479747891426086
1791022022279903700,4.10490380859375,-1.2180644273757935,-0.011759147047996521,-0.6210967898368835
1791022022297158000,4.122157958984375,-1.0567960739135742,-0.07284562289714813,-0.5545125007629395
1791022022314411800,4.139411865234375,-1.0152572393417358,-0.07712167501449585,-0.46227192878723145
1791022022331665700,4.156665771484375,-1.0238093137741089,0.1262962967157364,-0.46838057041168213
1791022022348919800,4.173919921875,-0.9010255336761475,0.08597921580076218,-0.4195113778114319
1791022022366173700,4.191173583984375,-0.8484911918640137,0.08842267841100693,-0.31383177638053894
1791022022383427800,4.208427734375,-0.7922916412353516,0.10430516302585602,-0.32299473881721497
1791022022400681700,4.225681640625,-0.8301652073860168,0.018173227086663246,-0.24480405449867249
1791022022417936000,4.242935791015625,-0.8564324378967285,0.037720900028944016,-0.10919208079576492
1791022022435189800,4.260189697265625,-0.8093958497047424,0.1366809904575348,-0.15928299725055695
1791022022452443600,4.277443603515625,-0.6334667801856995,0.16355904936790466,-0.2503018379211426
1791022022469697800,4.29469775390625,-0.6860011219978333,0.007177661173045635,-0.23503021895885468
1791022022486951700,4.31195166015625,-0.8063415288925171,-0.023976443335413933,-0.15989385545253754
1791022022504205600,4.32920556640625,-0.7654135823249817,-0.05818486958742142,-0.145843967795372
1791022022521459700,4.346459716796875,-0.7837395071983337,-0.141262486577034,-0.12018764764070511
1791022022538713600,4.363713623046875,-0.7238747477531433,-0.11682789027690887,-0.09575305134057999
1791022022555967700,4.3809677734375,-0.6615665555000305,-0.15225805342197418,-0.07498364895582199
1791022022573221600,4.3982216796875,-0.7360920310020447,-0.09239330142736435,0.07162389904260635
1791022022590475800,4.415475830078125,-0.7519745230674744,-0.12843431532382965,0.12965604662895203
1791022022607729700,4.432729736328125,-0.739757239818573,-0.052687086164951324,0.14920371770858765
1791022022624983600,4.449983642578125,-0.6939423680305481,-0.1101083755493164,0.02458730712532997
1791022022642237700,4.46723779296875,-0.7312051653862,-0.24083344638347626,0.13698641955852509
1791022022659491600,4.48449169921875,-0.7727439403533936,-0.20906847715377808,0.17058399319648743
1791022022676745500,4.501745361328125,-0.8527672290802002,-0.27198755741119385,0.1931859850883484
1791022022693999600,4.51899951171875,-0.9517273306846619,-0.1406516134738922,0.24572035670280457
1791022022711253500,4.53625341796875,-1.0946696996688843,0.00045814859913662076,0.3269653618335724
1791022022728507600,4.553507568359375,-1.1026109457015991,0.15012001991271973,0.39477136731147766
1791022022745761500,4.570761474609375,-1.1612539291381836,-0.017256930470466614,0.5303833484649658
1791022022763015400,4.588015380859375,-1.2577705383300781,-0.08933897316455841,0.5853611826896667
1791022022780269600,4.60526953125,-1.33290696144104,0.016340631991624832,0.6097957491874695
1791022022797523500,4.6225234375,-1.331685185432434,0.15012001991271973,0.615293562412262
1791022022814777600,4.639777587890625,-1.3481786251068115,0.2631300091743469,0.6751583218574524
1791022022832031500,4.657031494140625,-1.3151918649673462,-0.010537417605519295,0.6452259421348572
1791022022849285600,4.67428564453125,-1.4019346237182617,0.034666575491428375,0.7564033269882202
1791022022866539500,4.69153955078125,-1.4227041006088257,0.5258018374443054,0.8547525405883789
1791022022883793400,4.70879345703125,-1.29503333568573,0.2808450758457184,0.8523091077804565
1791022022901047600,4.726047607421875,-1.4563016891479492,0.2838993966579437,1.0911571979522705
1791022022918301400,4.743301513671875,-1.3561197519302368,0.577725350856781,1.0832159519195557
1791022022935555300,4.760555419921875,-1.3029745817184448,0.11346813291311264,1.0123556852340698
1791022022952809500,4.7778095703125,-1.1508692502975464,-1.0850485563278198,0.46135562658309937
1791022022970063400,4.7950634765625,-1.4043781757354736,0.09330959618091583,0.8523091077804565
1791022022987317500,4.8123173828125,-1.6224569082260132,0.21914774179458618,1.1516327857971191
1791022023004571400,4.8295712890625,-1.7947207689285278,0.8758273720741272,1.5163191556930542
1791022023021825500,4.846825439453125,-1.9828671216964722,0.7658717036247253,1.5438079833984375
1791022023039079400,4.864079345703125,-2.4636175632476807,0.3877464234828949,1.4827215671539307
1791022023056333600,4.88133349609375,-2.916879415512085,0.5367974042892456,1.4527891874313354
1791022023073587500,4.89858740234375,-2.9553637504577637,1.0639737844467163,1.3849831819534302
1791022023090841300,4.91584130859375,-2.8038692474365234,1.0768018960952759,1.3519964218139648
1791022023108095500,4.933095458984375,-2.6535966396331787,0.4702131748199463,1.3336704969406128
1791022023125349400,4.950349365234375,-2.6328272819519043,0.6101012229919434,1.4943280220031738
1791022023142603300,4.967603271484375,-2.6340489387512207,0.393244206905365,1.54930579662323
1791022023159857400,4.984857421875,-2.3762640953063965,0.6357575058937073,1.4778345823287964
1791022023177111300,5.002111328125,-1.6407828330993652,0.28328853845596313,1.4705042839050293
1791022023194365400,5.019365478515625,-0.794124186038971,-0.17363831400871277,1.5444189310073853
1791022023211619300,5.036619384765625,-0.9902117848396301,0.09941824525594711,1.5041017532348633
1791022023228873500,5.05387353515625,-1.3842196464538574,-0.1308777779340744,1.5120429992675781
1791022023246127400,5.07112744140625,-1.1081087589263916,-0.8309288024902344,1.0538945198059082
1791022023263381500,5.088381591796875,-1.0048725605010986,-0.5823068618774414,0.9152281284332275
1791022023280635400,5.105635498046875,-1.0800089836120605,0.1568395346403122,0.8907935619354248
1791022023297889300,5.12288916015625,-0.9028581380844116,0.11468986421823502,0.8987348079681396
1791022023315143400,5.140143310546875,-0.4105011224746704,-0.6586649417877197,1.3135119676589966
1791022023332397600,5.1573974609375,0.007941242307424545,-0.9439387917518616,1.6085597276687622
1791022023349651200,5.174651123046875,-0.05803215503692627,-0.5725330114364624,1.6391029357910156
1791022023366905300,5.1919052734375,-0.48441576957702637,-0.3153589367866516,1.4888302087783813
1791022023384159200,5.2091591796875,-0.9376774430274963,-0.4332558512687683,1.0960441827774048
1791022023401413400,5.226413330078125,-0.9230166673660278,-0.18646647036075592,1.0190751552581787
1791022023418667300,5.243667236328125,-0.5522217750549316,0.08414662629365921,1.2573124170303345
1791022023435921400,5.26092138671875,-0.3280344009399414,0.2503018379211426,1.5694643259048462
1791022023453175300,5.27817529296875,-0.24862197041511536,-0.08628465235233307,1.6769765615463257
1791022023470429200,5.29542919921875,-0.23335035145282745,-0.585972011089325,1.5517492294311523
1791022023487683300,5.312683349609375,-0.5259546041488647,-0.8804088830947876,1.3403900861740112
1791022023504937200,5.329937255859375,-0.9193515181541443,-0.7179188132286072,1.0459532737731934
1791022023522191400,5.34719140625,-0.656679630279541,0.5025889873504639,-0.187382772564888
1791022023539445200,5.3644453125,-0.46608981490135193,1.7408119440078735,-0.939357340335846
1791022023556699400,5.381699462890625,-0.22846342623233795,0.36392268538475037,0.43081238865852356
1791022023573953300,5.398953369140625,0.1588248461484909,-0.523052990436554,1.6458224058151245
1791022023591207200,5.416207275390625,0.10384701192378998,-0.21639885008335114,2.056323528289795
1791022023608461300,5.43346142578125,-0.07024945318698883,0.1055268943309784,1.8516838550567627
1791022023625715200,5.450715087890625,-0.3280344009399414,0.24174973368644714,1.743560791015625
1791022023642969300,5.46796923828125,-0.2632827162742615,0.6223185062408447,1.7307326793670654
1791022023660223200,5.48522314453125,0.014660755172371864,1.1531599760055542,1.4827215671539307
1791022023677477400,5.502477294921875,0.13439024984836578,1.198974847793579,1.111926555633545
1791022023694731300,5.519731201171875,0.20830489695072174,2.7145304679870605,1.0276272296905518
1791022023711985200,5.536985107421875,0.7061597108840942,3.3241734504699707,0.9121738076210022
1791022023729239300,5.5542392578125,0.8796452879905701,2.659552574157715,0.7961094975471497
1791022023746493200,5.5714931640625,0.8197805285453796,2.162919521331787,0.6806560754776001
1791022023763747300,5.588747314453125,0.638353705406189,2.909396171569824,0.6299542784690857
1791022023781001500,5.60600146484375,0.7422007322311401,3.403585910797119,0.5792525410652161
1791022023798255400,5.62325537109375,0.9376774430274963,1.835495948791504,0.672104001045227
1791022023815509200,5.64050927734375,0.4111120104789734,-0.1302669197320938,1.2011128664016724
1791022023832763100,5.65776318359375,0.6615665555000305,-3.9414522647857666,2.1253511905670166
1791022023850017300,5.675017333984375,0.7910698652267456,-2.325103998184204,2.637866735458374
1791022023867271200,5.692271240234375,0.25900667905807495,-2.640921115875244,0.15042544901371002
1791022023884525300,5.709525390625,-0.7666352987289429,-3.473529815673828,-0.7194460034370422
1791022023901779200,5.726779296875,-1.212566614151001,-4.000095367431641,-0.9295834898948669
1791022023919033300,5.744033447265625,-0.21135921776294708,-2.369086265563965,-0.7298306822776794
1791022023936287200,5.761287353515625,0.11728604137897491,-1.3611594438552856,0.03375028073787689
1791022023953541400,5.778541259765625,-0.18142683804035187,-1.3923135995864868,0.24999640882015228
1791022023970795300,5.795795166015625,-0.08552107214927673,0.24174973368644714,0.4943423271179199
1791022023988049200,5.813049072265625,0.09468404203653336,1.696218729019165,0.7307469844818115
1791022024005303300,5.83030322265625,0.04153880476951599,1.7175990343093872,0.5334376692771912
1791022024022557200,5.84755712890625,-0.017715077847242355,1.0566433668136597,0.3318522870540619
1791022024039811300,5.864811279296875,0.08857539296150208,0.734106719493866,0.3367392122745514
1791022024057065200,5.882065185546875,-0.0054977829568088055,0.6791289448738098,0.39049530029296875
1791022024074319400,5.8993193359375,-0.26511532068252563,0.7292198538780212,0.3733910918235779
1791022024091573200,5.9165732421875,-0.3488037884235382,0.8660535216331482,0.039858926087617874
1791022024108827100,5.9338271484375,-0.20952661335468292,0.8067996501922607,-0.1055268943309784
1791022024126081300,5.951081298828125,-0.10873392969369888,0.6595812439918518,-0.054214250296354294
1791022024143335200,5.968335205078125,-0.15149445831775665,-0.0642935186624527,-0.20143266022205353
1791022024160589300,5.98558935546875,-0.8338304162025452,-1.4912736415863037,-1.1782054901123047
1791022024177843200,6.00284326171875,-1.6780455112457275,-0.20051635801792145,-1.7121012210845947
1791022024195097300,6.020097412109375,-0.4667007029056549,2.274707794189453,-0.8581122756004333
1791022024212351500,6.0373515625,0.17776164412498474,1.6766711473464966,-0.29672756791114807
1791022024229605000,6.054605224609375,0.21135921776294708,0.7793107628822327,0.31413722038269043
1791022024246859300,6.071859375,0.20402882993221283,0.2857320010662079,0.3116937577724457
1791022024264113200,6.089113037109375,0.23518294095993042,0.14340050518512726,0.008704823441803455
1791022024281367300,6.1063671875,0.21135921776294708,0.1409570425748825,-0.2228129357099533
1791022024298621200,6.12362109375,0.15210533142089844,0.35537058115005493,-0.25702136754989624
1791022024315875300,6.140875244140625,0.08063415437936783,0.32360562682151794,-0.21914774179458618
1791022024333129200,6.158129150390625,-0.056810423731803894,0.12873975932598114,-0.39629852771759033
1791022024350383400,6.17538330078125,-0.4581485986709595,0.47204574942588806,-0.7316632866859436
1791022024367637200,6.19263720703125,-0.8765909671783447,1.0151045322418213,-1.1012364625930786
1791022024384891400,6.209891357421875,-0.8826996088027954,1.6406301259994507,-0.8061888217926025
1791022024402145300,6.227145263671875,-0.24801109731197357,1.152549147605896,-0.5728384256362915
1791022024419399400,6.2443994140625,0.13439024984836578,0.8043562173843384,-0.7506000995635986
1791022024436653300,6.2616533203125,-0.05558869615197182,0.8428406715393066,-0.8898772597312927
1791022024453907200,6.2789072265625,-0.15760311484336853,0.5826122760772705,-1.0914626121520996
1791022024471161300,6.296161376953125,-0.2162461280822754,0.19104796648025513,-1.1892009973526
1791022024488415200,6.313415283203125,-0.1337793916463852,0.053603384643793106,-1.0181589126586914
1791022024505669400,6.33066943359375,-0.19181154668331146,0.23258677124977112,-0.7615956664085388
1791022024522923300,6.34792333984375,-0.22296564280986786,-0.24205516278743744,-0.9497420191764832
1791022024540177200,6.36517724609375,-0.24862197041511536,-0.6501128673553467,-1.328478217124939
1791022024557431300,6.382431396484375,-0.13133592903614044,-0.9042325615882874,-1.440266489982605
1791022024574685200,6.399685302734375,0.05558869615197182,-0.6904299259185791,-1.264337420463562
1791022024591939300,6.416939208984375,0.06841685622930527,0.1922696828842163,-1.1348340511322021
1791022024609193200,6.434193115234375,0.30482152104377747,0.718224287033081,-0.8031344413757324
1791022024626447400,6.451447265625,0.48502662777900696,0.5068650245666504,-0.3254382014274597
1791022024643701200,6.468701171875,0.5064069032669067,0.4751000702381134,-0.23747368156909943
1791022024660955400,6.485955322265625,0.36774060130119324,0.5716167092323303,-0.5025889873504639
1791022024678209300,6.503209228515625,0.06108647957444191,0.651029109954834,-0.7322741746902466
1791022024695463200,6.520463134765625,-0.18631376326084137,0.49220430850982666,-0.855057954788208
1791022024712717300,6.53771728515625,-0.1130099818110466,-0.07651081681251526,-1.0248783826828003
1791022024729971200,6.55497119140625,0.205861434340477,-0.2023489624261856,-1.1128429174423218
1791022024747225300,6.572225341796875,0.38179048895835876,0.17027856409549713,-1.0138828754425049
1791022024764479200,6.589479248046875,0.28405213356018066,0.58749920129776,-0.8703296184539795
1791022024781733400,6.6067333984375,0.08552107214927673,0.7793107628822327,-0.7658717036247253
1791022024798987300,6.6239873046875,0.0665842592716217,0.6424770355224609,-0.7194460034370422
1791022024816241400,6.641241455078125,0.1588248461484909,0.25091269612312317,-0.6870701313018799
1791022024833495300,6.658495361328125,0.12950333952903748,-0.039248060435056686,-0.6223185062408447
1791022024850749200,6.675749267578125,-0.006108647678047419,0.1922696828842163,-0.5618428587913513
1791022024868003300,6.69300341796875,-0.20402882993221283,0.4641045033931732,-0.4659371078014374
1791022024885257200,6.71025732421875,-0.24740023910999298,0.5190823674201965,-0.3883572816848755
1791022024902511400,6.727511474609375,-0.1533270627260208,0.30894485116004944,-0.41523534059524536
1791022024919765200,6.74476513671875,-0.09101885557174683,-0.892015278339386,-0.6577486395835876
1791022024937019400,6.762019287109375,-0.26511532068252563,-0.46624255180358887,-1.1030690670013428
1791022024954273300,6.779273193359375,-0.23762640357017517,-0.0642935186624527,-0.8483384847640991
1791022024971527400,6.79652734375,-0.17592905461788177,0.20387612283229828,-0.43050694465637207
1791022024988781300,6.81378125,-0.1496618688106537,0.3718639314174652,-0.34437501430511475
1791022025006035500,6.831035400390625,-0.12767073512077332,0.1818849891424179,-0.5148062705993652
1791022025023289300,6.848289306640625,-0.07574722915887833,0.16355904936790466,-0.7218894362449646
1791022025040543500,6.86554345703125,-0.0769689604640007,0.07864884287118912,-0.7951932549476624
1791022025057797400,6.88279736328125,-0.2205221801996231,-0.1052214577794075,-0.7768672704696655
1791022025075051300,6.90005126953125,-0.32192572951316833,-0.13881902396678925,-0.8477275967597961
1791022025092305400,6.917305419921875,-0.2565632164478302,0.024892739951610565,-0.8666644096374512
1791022025109559300,6.934559326171875,-0.14233149588108063,0.19043709337711334,-0.8141300082206726
1791022025126813400,6.9518134765625,-0.11728604137897491,0.051159925758838654,-0.7163916826248169
1791022025144067300,6.9690673828125,-0.18264856934547424,-0.13698641955852509,-0.6931788325309753
1791022025161321500,6.986321533203125,-0.27427828311920166,-0.24572035670280457,-0.651639997959137
1791022025178575400,7.003575439453125,-0.30482152104377747,-0.388662725687027,-0.5801688432693481
1791022025195829500,7.02082958984375,-0.16065743565559387,-0.6207913160324097,-0.6644681692123413
1791022025213083400,7.03808349609375,-0.013439024798572063,-0.8272636532783508,-0.7567087411880493
1791022025230337500,7.055337646484375,0.14538581669330597,-0.7154753804206848,-0.9454659819602966
1791022025247591400,7.07259130859375,0.16249002516269684,-0.5920807123184204,-1.1000148057937622
1791022025264845600,7.089845458984375,0.01282816007733345,-0.8419243693351746,-0.9656245112419128
1791022025282099500,7.107099365234375,-0.036651886999607086,-0.9280562996864319,-0.791528046131134
1791022025299353300,7.124353271484375,0,-0.8559742569923401,-0.8856012225151062
1791022025316607500,7.141607421875,0,-0.7637336850166321,-0.9112575054168701
1791022025333861400,7.158861328125,-0.009773836471140385,-0.7557924389839172,-0.8513928055763245
1791022025351115500,7.176115478515625,-0.09957095980644226,-0.8266527652740479,-0.9625701904296875
1791022025368369400,7.193369384765625,-0.24495677649974823,-0.7673988938331604,-0.8813251852989197
1791022025385623600,7.21062353515625,-0.27855435013771057,-0.6317868828773499,-0.8129082918167114
1791022025402877400,7.22787744140625,-0.27916520833969116,-0.7331904768943787,-0.8923207521438599
1791022025420131600,7.245131591796875,-0.3433060050010681,-0.8077159523963928,-0.6944005489349365
1791022025437385500,7.262385498046875,-0.30054548382759094,-0.7063124179840088,-0.6656898856163025
1791022025454639600,7.2796396484375,-0.27977606654167175,-0.6666061878204346,-0.8122974634170532
1791022025471893500,7.2968935546875,-0.3481929302215576,-0.503505289554596,-0.753654420375824
1791022025489147400,7.3141474609375,-0.4819723069667816,-0.6311760544776917,-0.6119337677955627
1791022025506401500,7.331401611328125,-0.5235111117362976,-0.6855430006980896,-0.5545125007629395
1791022025523655400,7.348655517578125,-0.4978547990322113,-0.502894401550293,-0.6058251261711121
1791022025540909600,7.36590966796875,-0.5314523577690125,-0.6189587116241455,-0.671187698841095
1791022025558163500,7.38316357421875,-0.637742817401886,-0.6928733587265015,-0.6577486395835876
1791022025575417600,7.40041748046875,-0.648127555847168,-0.5908589363098145,-0.7518218159675598
1791022025592671500,7.41767138671875,-0.7165443897247314,-0.4631882309913635,-0.8391754627227783
1791022025609925600,7.434925537109375,-0.7428115606307983,-0.6562215089797974,-0.7848085165023804
1791022025627179500,7.452179443359375,-0.6841685771942139,-0.6788234710693359,-0.698676586151123
1791022025644433700,7.46943359375,-0.5949822664260864,-0.5438223481178284,-0.7060069441795349
1791022025661687600,7.4866875,-0.5949822664260864,-0.5334376692771912,-0.7328850030899048
1791022025678941700,7.503941650390625,-0.5754346251487732,-0.5542070865631104,-0.6027708053588867
1791022025696195600,7.521195556640625,-0.5174024701118469,-0.4802924394607544,-0.7133373618125916
1791022025713449700,7.53844970703125,-0.4776962697505951,-0.48273590207099915,-0.8067996501922607
1791022025730703600,7.55570361328125,-0.5229002237319946,-0.4741837978363037,-0.6058251261711121
1791022025747957800,7.572957763671875,-0.6090322136878967,-0.33368489146232605,-0.5392408967018127
1791022025765211600,7.590211669921875,-0.6151408553123474,-0.023365577682852745,-0.5856665968894958
1791022025782465500,7.607465576171875,-0.6230821013450623,-0.4033234715461731,-0.393244206905365
1791022025799719700,7.6247197265625,-0.6029235124588013,-0.3196350038051605,-0.37491825222969055
1791022025816973600,7.6419736328125,-0.554665207862854,0.1727220118045807,-0.6143772602081299
1791022025834227700,7.659227783203125,-0.4459312856197357,-0.06856957077980042,-0.5019781589508057
1791022025851481600,7.676481689453125,-0.3952295184135437,0.10858121514320374,-0.5080868005752563
1791022025868735700,7.69373583984375,-0.37323838472366333,0.38469210267066956,-0.44150251150131226
1791022025885989600,7.71098974609375,-0.3292561173439026,0.5129737257957458,-0.2893971800804138
1791022025903243800,7.728243896484375,-0.2528980076313019,0.4286743700504303,-0.12140937149524689
1791022025920497700,7.74549755859375,-0.1490510106086731,0.6485856771469116,-0.16844595968723297
1791022025937751800,7.762751708984375,-0.013439024798572063,0.6998983025550842,-0.2747364342212677
1791022025955005700,7.780005615234375,0.14599667489528656,0.4842630624771118,-0.10308343172073364
1791022025972259800,7.797259765625,0.2522871494293213,0.8403972387313843,-0.12324196845293045
1791022025989513700,7.814513671875,0.3237583339214325,0.6974548697471619,-0.064598947763443
1791022026006767600,7.831767578125,0.3689623177051544,0.6180424690246582,0.10277800261974335
1791022026024021800,7.849021728515625,0.34086254239082336,0.8251255750656128,0.11804962158203125
1791022026041275600,7.866275634765625,0.3292561173439026,0.5520690679550171,0.1314886510372162
1791022026058529800,7.88352978515625,0.3995055556297302,0.6473639607429504,0.2286161482334137
1791022026075783700,7.90078369140625,0.36651885509490967,0.6644681692123413,0.4198168218135834
1791022026093037800,7.918037841796875,0.31093016266822815,0.8336777091026306,0.6299542784690857
1791022026110291700,7.935291748046875,0.27855435013771057,1.001665472984314,0.5829176902770996
1791022026127545900,7.9525458984375,0.33108872175216675,0.986393928527832,0.7313578724861145
1791022026144799700,7.9697998046875,0.3390299379825592,1.0609194040298462,0.808937668800354
1791022026162054000,7.987053955078125,0.29016077518463135,1.0456477403640747,0.8541416525840759
1791022026179307800,8.004307861328124,0.3121519088745117,1.0566433668136597,0.873078465461731
1791022026196562000,8.02156201171875,0.4214966893196106,1.198364019393921,0.9048434495925903
1791022026213815800,8.03881591796875,0.5204567909240723,1.131779670715332,0.8981239199638367
1791022026231069700,8.056069580078125,0.6218603253364563,0.8605557680130005,1.0349576473236084
1791022026248323800,8.07332373046875,0.6860011219978333,0.6827940940856934,1.0581705570220947
1791022026265577700,8.09057763671875,0.6988292932510376,0.7799215912818909,1.1143701076507568
1791022026282832000,8.107831787109374,0.6750055551528931,1.0273218154907227,1.096655011177063
1791022026300085800,8.125085693359376,0.6988292932510376,0.9717331528663635,1.2078323364257812
1791022026317340000,8.14233984375,0.7745765447616577,0.8355103135108948,1.243262529373169
1791022026334593800,8.15959375,0.880256175994873,0.8978185057640076,1.2163845300674438
1791022026351848000,8.176847900390625,0.9798271059989929,0.9497420191764832,1.1840087175369263
1791022026369101800,8.194101806640624,1.0677915811538696,1.0389282703399658,1.1320852041244507
1791022026386356000,8.21135595703125,1.138651967048645,1.1580469608306885,1.1339176893234253
1791022026403609900,8.22860986328125,1.232114315032959,1.0261001586914062,1.0282381772994995
1791022026420864000,8.245864013671875,1.3090832233428955,1.1812597513198853,0.7967203855514526
1791022026438118000,8.263117919921875,1.3817760944366455,1.0975712537765503,0.8663589954376221
1791022026455372000,8.2803720703125,1.452636480331421,0.8758273720741272,0.8144354820251465
1791022026472626000,8.2976259765625,1.3500111103057861,0.7951932549476624,0.8443678617477417
1791022026489879800,8.3148798828125,1.2290599346160889,0.3871355652809143,1.134528636932373
1791022026507134000,8.332134033203126,1.145371437072754,0.1727220118045807,1.1210895776748657
1791022026524387800,8.349387939453125,1.046411395072937,0.15378521382808685,0.9463822841644287
1791022026541642000,8.36664208984375,0.9077450633049011,0.1256854236125946,0.7826704978942871
1791022026558895900,8.383895751953125,0.7635809779167175,0.18616104125976562,0.6794343590736389
1791022026576150000,8.40114990234375,0.7330377101898193,0.047494735568761826,0.6696605086326599
1791022026593404000,8.41840380859375,0.8081740736961365,-0.061850059777498245,0.5578722357749939
1791022026610658000,8.435657958984375,0.9327905178070068,-0.18585561215877533,0.5181660652160645
1791022026627912000,8.452911865234375,1.0488548278808594,-0.4277580678462982,0.549930989742279
1791022026645166000,8.470166015625,1.1221586465835571,-0.5743656158447266,0.5621483325958252
1791022026662420000,8.487419921875,1.0848958492279053,-0.49312058091163635,0.5737547278404236
1791022026679674000,8.504674072265624,0.8478803038597107,-0.3868301212787628,0.490677148103714
1791022026696928000,8.521927978515626,0.4465421438217163,-0.24510949850082397,0.3006981909275055
1791022026714182100,8.53918212890625,0.1795942485332489,-0.13820815086364746,0.09361502528190613
1791022026731436000,8.55643603515625,0.14599667489528656,-0.11438442766666412,0.06795870512723923
1791022026748690000,8.57368994140625,0.2724456787109375,-0.3116937577724457,0.15225805342197418
1791022026765944000,8.590944091796874,0.2461785078048706,-0.5969675779342651,0.11804962158203125
1791022026783198200,8.6081982421875,0.09896009415388107,-0.5279398560523987,0.10583232343196869
1791022026800452000,8.6254521484375,0.06291907280683517,-0.2994764447212219,0.21395538747310638
1791022026817706200,8.642706298828125,0.14477495849132538,0.06765327602624893,0.3935496211051941
1791022026834960100,8.659960205078125,0.08857539296150208,-0.28176137804985046,0.3623955249786377
1791022026852214300,8.67721435546875,-0.0720820426940918,-0.39416050910949707,0.26648977398872375
1791022026869468200,8.69446826171875,-0.1331685185432434,-0.141262486577034,0.11438442766666412
1791022026886722000,8.71172216796875,-0.15088360011577606,-0.1510363221168518,-0.125074565410614
1791022026903976200,8.72897607421875,-0.24984370172023773,-0.34956738352775574,-0.3272708058357239
1791022026921230000,8.74622998046875,-0.2632827162742615,-0.23655737936496735,-0.3975202441215515
1791022026938484200,8.763484130859375,-0.02260199747979641,-0.039248060435056686,-0.3969093859195709
1791022026955738000,8.780738037109375,0.13255766034126282,-0.11133010685443878,-0.38957902789115906
1791022026972992300,8.7979921875,0.039706211537122726,-0.22556181252002716,-0.33276858925819397
1791022026990246100,8.81524609375,-0.1185077652335167,-0.1925751268863678,-0.2551887631416321
1791022027007500300,8.832500244140626,-0.11117739230394363,0.0010690133785828948,-0.3156643807888031
1791022027024754200,8.849754150390625,-0.23945899307727814,0.09697478264570236,-0.4897608458995819
1791022027042008300,8.86700830078125,-0.37751442193984985,0.15439607203006744,-0.4958694875240326
1791022027059262200,8.88426220703125,-0.42882707715034485,0.27229297161102295,-0.2741255760192871
1791022027076516400,8.901516357421874,-0.26511532068252563,0.4494437575340271,-0.14523309469223022
1791022027093770200,8.918770263671876,-0.235793799161911,0.3058905303478241,-0.3413206934928894
1791022027111024400,8.9360244140625,-0.32681265473365784,-0.05696314200758934,-0.5630646347999573
1791022027128278300,8.9532783203125,-0.328645259141922,-0.04718930274248123,-0.5856665968894958
1791022027145532400,8.970532470703125,-0.24312418699264526,0.11102467030286789,-0.4958694875240326
1791022027162786300,8.987786376953125,-0.24923282861709595,0.13484840095043182,-0.4689914286136627
1791022027180040400,9.00504052734375,-0.2987128794193268,-0.02825249545276165,-0.44150251150131226
1791022027197294300,9.02229443359375,-0.25534147024154663,-0.028863361105322838,-0.37003132700920105
1791022027214548200,9.03954833984375,-0.19425499439239502,0.1977674663066864,-0.5227475166320801
1791022027231802400,9.05680224609375,-0.2864955961704254,0.04566214233636856,-0.8257364630699158
1791022027249056300,9.07405615234375,-0.5290089249610901,-0.2799287736415863,-0.9198096394538879
1791022027266310400,9.091310302734374,-0.6249146461486816,-0.09850194305181503,-0.928972601890564
1791022027283564300,9.108564208984374,-0.6725621223449707,0.13179408013820648,-1.0572541952133179
1791022027300818400,9.125818359375,-0.7531962990760803,-0.0019853105768561363,-1.0535889863967896
1791022027318072300,9.143072265625,-0.7324268817901611,-0.2811505198478699,-0.8666644096374512
1791022027335326500,9.160326416015625,-0.5149590373039246,-0.3068068325519562,-0.9912807941436768
1791022027352580400,9.177580322265625,-0.3995055556297302,-0.23472478985786438,-1.2521201372146606
1791022027369834500,9.19483447265625,-0.4667007029056549,-0.5181660652160645,-1.0010546445846558
1791022027387088400,9.21208837890625,-0.4111120104789734,-0.4094321131706238,-0.8422298431396484
1791022027404342500,9.229342529296876,-0.35246896743774414,-0.5645917654037476,-0.9332486391067505
1791022027421596400,9.246596435546875,-0.39889469742774963,-0.7863357067108154,-1.0022764205932617
1791022027438850600,9.2638505859375,-0.3860665261745453,-0.9677625298500061,-1.034041404724121
1791022027456104400,9.2811044921875,-0.32131487131118774,-1.2652536630630493,-1.15132737159729
1791022027473358600,9.298358642578124,-0.22663083672523499,-1.1357502937316895,-1.3626866340637207
1791022027490612500,9.315612548828126,-0.11667517572641373,-0.8388700485229492,-1.3761255741119385
1791022027507866400,9.332866455078126,-0.08491020649671555,-0.9952514171600342,-1.114675521850586
1791022027525120500,9.35012060546875,-0.12705987691879272,-1.041066288948059,-1.0022764205932617
1791022027542374400,9.36737451171875,-0.16126830875873566,-0.8797979950904846,-1.1446079015731812
1791022027559628500,9.384628662109375,-0.20158538222312927,-0.9097303748130798,-1.136055827140808
1791022027576882400,9.40188232421875,-0.21746785938739777,-0.9170607328414917,-1.057865023612976
1791022027594136600,9.419136474609376,-0.18692462146282196,-0.6580541133880615,-1.1403318643569946
1791022027611390500,9.436390380859375,-0.13683371245861053,-0.6378955245018005,-1.244789719581604
1791022027628644600,9.45364453125,-0.2516762912273407,-0.828485369682312,-1.3474149703979492
1791022027645898500,9.4708984375,-0.3744601011276245,-0.9909753799438477,-1.4384338855743408
1791022027663152600,9.488152587890625,-0.4062250852584839,-0.8791871070861816,-1.4915790557861328
1791022027680406500,9.505406494140624,-0.39217519760131836,-0.5364919900894165,-1.5367830991744995
1791022027697660700,9.52266064453125,-0.47464191913604736,-0.7509055137634277,-1.384677767753601
1791022027714914600,9.53991455078125,-0.3952295184135437,-0.5743656158447266,-1.3596322536468506
1791022027732168700,9.557168701171875,-0.41783151030540466,-0.5193877816200256,-1.1659882068634033
1791022027749422600,9.574422607421875,-0.41294458508491516,-0.6635518670082092,-1.0450369119644165
1791022027766676700,9.5916767578125,-0.41294458508491516,-0.5291616320610046,-0.8666644096374512
1791022027783930600,9.6089306640625,-0.42271843552589417,-0.4552469849586487,-0.7133373618125916
1791022027801184800,9.626184814453126,-0.35674503445625305,-0.41554075479507446,-0.6663007736206055
1791022027818438700,9.643438720703125,-0.27916520833969116,-0.005039634648710489,-0.5978838801383972
1791022027835692800,9.66069287109375,-0.2467893660068512,-0.0032070400193333626,-0.3303251266479492
1791022027852946700,9.67794677734375,-0.1588248461484909,0.031001387163996696,-0.19104796648025513
1791022027870200800,9.695200927734374,-0.2107483446598053,0.24663665890693665,-0.08597921580076218
1791022027887454700,9.712454833984374,-0.12034036219120026,0.443945974111557,0.10766492038965225
1791022027904708600,9.72970849609375,-0.043982263654470444,0.3920224606990814,0.11255183815956116
1791022027921962800,9.746962646484375,-0.04214967042207718,0.47815442085266113,0.22067490220069885
1791022027939217000,9.764216796875,0.03543015569448471,0.9130901098251343,0.3404043912887573
1791022027956470800,9.781470703125,0.08491020649671555,0.7866411209106445,0.48212501406669617
1791022027973724700,9.798724609375,0.1692095398902893,0.8440623879432678,0.7228057384490967
1791022027990978800,9.815978759765626,0.18814635276794434,0.9845613241195679,0.6446150541305542
1791022028008233000,9.83323291015625,0.22296564280986786,0.7622065544128418,0.7557924389839172
1791022028025486800,9.85048681640625,0.370184063911438,0.8116865754127502,0.9476040005683899
1791022028042740700,9.86774072265625,0.5473348498344421,0.9375247359275818,1.1168135404586792
1791022028059995000,9.884994873046875,0.5717694163322449,0.8129082918167114,1.315955400466919
1791022028077248800,9.902248779296874,0.4563159942626953,0.9246965646743774,1.4002548456192017
1791022028094503000,9.9195029296875,0.32009315490722656,1.0218240022659302,1.5444189310073853
1791022028111756800,9.9367568359375,0.32131487131118774,0.6956222653388977,1.7612758874893188
1791022028129011000,9.954010986328125,0.30482152104377747,0.5557342171669006,1.724013090133667
1791022028146264800,9.971264892578125,0.2406807243824005,0.6717985272407532,1.65987229347229
1791022028163519000,9.98851904296875,0.3084867000579834,0.5893318057060242,1.8687881231307983
1791022028180772900,10.00577294921875,0.4929678738117218,0.37980517745018005,2.078925609588623
1791022028198027000,10.023027099609376,0.7000510096549988,0.494647741317749,2.0135629177093506
1791022028215281000,10.040281005859375,0.7574723362922668,0.8996511101722717,1.9176572561264038
1791022028232535000,10.05753515625,0.7367029190063477,1.291215419769287,1.8712315559387207
1791022028249789000,10.074788818359375,0.7721330523490906,1.6369649171829224,1.846796989440918
1791022028267043000,10.09204296875,0.8765909671783447,1.5697697401046753,1.7869322299957275
1791022028284297000,10.109296875,0.9816597104072571,1.2319614887237549,1.5743513107299805
1791022028301550800,10.12655078125,0.9804379940032959,0.8684970140457153,1.4796671867370605
1791022028318805000,10.143804931640625,0.9572250843048096,0.873994767665863,1.4729477167129517
1791022028336059000,10.161058837890625,1.091004490852356,0.8709404468536377,1.2340996265411377
1791022028353313000,10.17831298828125,1.163697361946106,0.5765036344528198,1.0306816101074219
1791022028370567000,10.19556689453125,1.1795798540115356,0.31261005997657776,0.8443678617477417
1791022028387821000,10.212821044921874,1.1905754804611206,0.3523162603378296,0.6995928883552551
1791022028405075000,10.230074951171876,1.1600322723388672,0.09086613357067108,0.7228057384490967
1791022028422329000,10.2473291015625,1.0042617321014404,-0.18646647036075592,0.8022181987762451
1791022028439583000,10.2645830078125,0.8442151546478271,-0.17424917221069336,0.7735075354576111
1791022028456837000,10.281837158203125,0.7531962990760803,0.022449281066656113,0.70753413438797
1791022028474091000,10.299091064453124,0.7929024696350098,0.03527744114398956,0.7319687008857727
1791022028491345200,10.31634521484375,0.7153226733207703,-0.09544762223958969,0.6165152788162231
1791022028508599000,10.33359912109375,0.5027416944503784,-0.14004075527191162,0.5236638188362122
1791022028525853200,10.350853271484375,0.3897317349910736,-0.24999640882015228,0.42592546343803406
1791022028543107000,10.368107177734375,0.32559093832969666,-0.33857181668281555,0.22556181252002716
1791022028560361200,10.385361328125,0.19181154668331146,0.009621120058000088,0.06368265300989151
1791022028577615000,10.402614990234374,0.1130099818110466,0.29306238889694214,0.0032070400193333626
1791022028594869000,10.419868896484376,0.04825831577181816,-0.04780016839504242,-0.18921536207199097
1791022028612123100,10.437123046875,0.0360410213470459,-0.1974620372056961,-0.18616104125976562
1791022028629377300,10.454377197265625,0.05925388261675835,-0.17363831400871277,0.023365577682852745
1791022028646631200,10.471631103515625,0.10445787757635117,-0.09178243577480316,0.1204930767416954
1791022028663885000,10.488885009765625,0.10079269111156464,-0.11621702462434769,-0.13973531126976013
1791022028681139200,10.50613916015625,-0.1331685185432434,0.07498364895582199,-0.4555523991584778
1791022028698393000,10.52339306640625,-0.3402516841888428,0.2735147178173065,-0.6369792222976685
1791022028715647200,10.540647216796875,-0.43004879355430603,0.17944152653217316,-0.7121156454086304
1791022028732901000,10.557901123046875,-0.23029601573944092,0.19654574990272522,-0.6369792222976685
1791022028750155300,10.5751552734375,-0.05253437161445618,-0.11988221108913422,-0.46288278698921204
1791022028767409200,10.5924091796875,0.034208428114652634,-0.605519711971283,-0.28817546367645264
1791022028784663300,10.609663330078124,0.1081230640411377,-0.7582359313964844,-0.2906189262866974
1791022028801917200,10.626917236328126,0.15271618962287903,-0.6201804876327515,-0.4036289155483246
1791022028819171300,10.64417138671875,-0.002443459117785096,-0.30802857875823975,-0.39629852771759033
1791022028836425200,10.66142529296875,-0.19853104650974274,0.03894263133406639,-0.35964664816856384
1791022028853679400,10.678679443359375,-0.3139844834804535,0.19960007071495056,-0.32971426844596863
1791022028870933200,10.695933349609374,-0.34208428859710693,-0.11682789027690887,-0.42073312401771545
1791022028888187400,10.7131875,-0.46608981490135193,-0.44669488072395325,-0.568562388420105
1791022028905441300,10.730441162109376,-0.7116574645042419,-0.4864010810852051,-0.8086322546005249
1791022028922695400,10.7476953125,-0.8881973624229431,-0.22495095431804657,-0.9503529071807861
1791022028939949300,10.76494921875,-0.842382550239563,0.1153007298707962,-0.9271399974822998
1791022028957203500,10.782203369140625,-0.6157516837120056,0.1727220118045807,-0.8245147466659546
1791022028974457300,10.799457275390624,-0.45326167345046997,-0.0435241162776947,-0.8300125002861023
1791022028991711500,10.81671142578125,-0.4917461574077606,-0.3776671588420868,-0.8794925808906555
1791022029008965400,10.83396533203125,-0.6017017960548401,-0.5022835731506348,-0.9564615488052368
1791022029026219500,10.851219482421875,-0.5955931544303894,-0.5193877816200256,-1.0370956659317017
1791022029043473400,10.868473388671875,-0.5601630210876465,-0.7270817756652832,-1.131779670715332
1791022029060727600,10.8857275390625,-0.6224712133407593,-0.8950695991516113,-1.3040435314178467
1791022029077981400,10.9029814453125,-0.7147117853164673,-0.7790052890777588,-1.5001311302185059
1791022029095235300,10.9202353515625,-0.7018836140632629,-0.5664243698120117,-1.297934889793396
1791022029112489500,10.937489501953126,-0.5210676789283752,-0.6299542784690857,-0.864831805229187
1791022029129743400,10.954743408203125,-0.4361574649810791,-0.6458367705345154,-0.8006910085678101
1791022029146997500,10.97199755859375,-0.39828383922576904,-0.7515164017677307,-1.2050834894180298
1791022029164251400,10.98925146484375,-0.5852084755897522,-0.9048434495925903,-1.567326307296753
1791022029181505500,11.006505615234374,-0.9236275553703308,-0.7063124179840088,-1.4537054300308228
1791022029198759400,11.023759521484376,-0.9822705388069153,-0.4247037470340729,-1.3388628959655762
1791022029216013600,11.041013671875,-0.8356630206108093,-0.5682569742202759,-1.3822343349456787
1791022029233267500,11.058267333984375,-0.66645348072052,-1.1027636528015137,-1.2417353391647339
1791022029250521600,11.075521484375,-0.5864301919937134,-1.4088069200515747,-1.0370956659317017
1791022029267775500,11.092775390625,-0.49480047821998596,-1.3208423852920532,-1.1733185052871704
1791022029285029600,11.110029541015624,-0.5803215503692627,-0.8468112945556641,-1.1629338264465332
1791022029302283500,11.127283447265626,-0.750141978263855,-0.6739365458488464,-0.8575014472007751
1791022029319537400,11.144537353515625,-0.7629700899124146,-0.8614720702171326,-0.7188351154327393
1791022029336791600,11.16179150390625,-0.7550288438796997,-0.9042325615882874,-0.8397863507270813
1791022029354045400,11.17904541015625,-0.7770199775695801,-0.624456524848938,-0.9894482493400574
1791022029371299600,11.196299560546874,-0.6426297426223755,-0.4240928590297699,-1.1220059394836426
1791022029388553500,11.213553466796874,-0.5222893953323364,-0.6543889045715332,-0.9240856766700745
1791022029405807600,11.2308076171875,-0.35185810923576355,-0.3782780170440674,-0.7463240623474121
1791022029423061500,11.2480615234375,-0.3066541254520416,-0.14492766559123993,-0.7756455540657043
1791022029440315600,11.265315673828125,-0.41233372688293457,-0.03375028073787689,-0.7829759120941162
1791022029457569500,11.282569580078125,-0.4367683231830597,-0.1259908676147461,-0.734106719493866
1791022029474823700,11.29982373046875,-0.31459537148475647,-0.10155627131462097,-0.6333140730857849
1791022029492077600,11.31707763671875,0.01588248461484909,0.031001387163996696,-0.586888313293457
1791022029509331700,11.334331787109376,0.12217295914888382,0.08109229803085327,-0.5068650245666504
1791022029526585600,11.351585693359375,0.33108872175216675,0.4604393243789673,-0.44150251150131226
1791022029543839500,11.368839599609375,0.3585776388645172,0.6369792222976685,-0.25579962134361267
1791022029561093600,11.38609375,0.3237583339214325,0.6259836554527283,0.03497200831770897
1791022029578347500,11.403347412109374,0.1545487940311432,0.7426588535308838,0.10338886082172394
1791022029595601700,11.4206015625,0.13072505593299866,0.5007563829421997,0.15897755324840546
1791022029612855600,11.43785546875,0.16187916696071625,0.24113887548446655,0.2280052751302719
1791022029630109700,11.455109619140625,0.16676609218120575,0.1305723488330841,0.48334676027297974
1791022029647363800,11.47236376953125,0.18325942754745483,0.5276344418525696,0.6366738080978394
1791022029664617700,11.48961767578125,0.20219624042510986,0.5948295593261719,0.8315396904945374
1791022029681871600,11.50687158203125,0.25045454502105713,0.744491457939148,1.1259765625
1791022029699125800,11.524125732421876,0.20463970303535461,0.9973894953727722,1.0435097217559814
1791022029716379600,11.541379638671875,0.04214967042207718,1.0169371366500854,1.1381938457489014
1791022029733633800,11.5586337890625,0.0824667438864708,0.8666644096374512,1.3629920482635498
1791022029750887700,11.5758876953125,0.14599667489528656,0.6589703559875488,1.399643898010254
1791022029768141800,11.593141845703125,0.11972949653863907,0.6937896609306335,1.4417935609817505
1791022029785395700,11.610395751953124,0.17715078592300415,0.7646499872207642,1.5444189310073853
1791022029802649900,11.62764990234375,0.3176496922969818,1.030987024307251,1.4631738662719727
1791022029819903700,11.64490380859375,0.4153880476951599,1.263115644454956,1.4973822832107544
1791022029837158000,11.662157958984375,0.5125155448913574,1.0487021207809448,1.707519769668579
1791022029854411800,11.679411865234375,0.6084213256835938,0.8318451046943665,1.689193844795227
1791022029871666000,11.696666015625,0.7079922556877136,0.7896954417228699,1.5804599523544312
1791022029888919800,11.713919921875,0.7617483735084534,0.8025236129760742,1.4063634872436523
1791022029906173700,11.731173583984376,0.7611374855041504,1.0548107624053955,1.2640318870544434
1791022029923427800,11.748427734375,0.8307760953903198,0.9198096394538879,1.3623812198638916
1791022029940681700,11.765681640625,1.0763437747955322,0.6430879235267639,1.4185807704925537
1791022029957935900,11.782935791015625,1.2192860841751099,0.42195484042167664,1.3990330696105957
1791022029975189800,11.800189697265624,1.1465932130813599,0.1928805559873581,1.4106395244598389
1791022029992444000,11.81744384765625,1.0286962985992432,0.16661337018013,1.320231556892395
1791022030009697800,11.83469775390625,0.9193515181541443,0.3156643807888031,1.2774709463119507
1791022030026951700,11.85195166015625,0.8967494964599609,0.3480401933193207,1.4069743156433105
1791022030044205800,11.869205810546875,0.9120211005210876,0.4134027361869812,1.3825397491455078
1791022030061459700,11.886459716796875,0.8637627959251404,0.29367324709892273,1.3526073694229126
1791022030078713900,11.9037138671875,0.7360920310020447,0.08781181275844574,1.3471095561981201
1791022030095968000,11.920968017578126,0.6273581385612488,0.10125083476305008,1.2597558498382568
1791022030113222000,11.938221923828126,0.5491674542427063,0.064598947763443,1.1357502937316895
1791022030130475800,11.955475830078125,0.4416552484035492,0.06765327602624893,1.041066288948059
1791022030147730000,11.97272998046875,0.4013381600379944,0.13790272176265717,0.8944587707519531
1791022030164983800,11.98998388671875,0.3274235129356384,0.12324196845293045,0.7661771774291992
1791022030182238000,12.007238037109374,0.2614501118659973,-0.06307178735733032,0.717307984828949
1791022030199491800,12.024491943359376,0.31642794609069824,-0.17302745580673218,0.6134609580039978
1791022030216746000,12.04174609375,0.29443681240081787,0.10674861818552017,0.45707955956459045
1791022030234000000,12.058999755859375,0.16310089826583862,0.27168211340904236,0.3611738085746765
1791022030251254000,12.07625390625,0.07391463965177536,0.18310672044754028,0.23777911067008972
1791022030268508000,12.0935078125,0.034208428114652634,0.009010255336761475,0.09056070446968079
1791022030285761800,12.11076171875,0.001832594396546483,-0.07834340631961823,-0.10247256606817245
1791022030303016000,12.128015869140626,-0.01649334840476513,0.04566214233636856,-0.21120649576187134
1791022030320269800,12.145269775390625,-0.046425722539424896,0.08781181275844574,-0.2600756883621216
1791022030337524000,12.16252392578125,-0.01649334840476513,0.08597921580076218,-0.34865108132362366
1791022030354777900,12.17977783203125,-0.03176496922969818,0.1922696828842163,-0.45677414536476135
1791022030372032000,12.197031982421874,-0.1282816082239151,0.07681624591350555,-0.6424770355224609
1791022030389286000,12.214285888671874,-0.21319180727005005,-0.036804601550102234,-0.8410080671310425
1791022030406540000,12.2315400390625,-0.2822195291519165,-0.007483093533664942,-0.9234748482704163
1791022030423794000,12.2487939453125,-0.27488914132118225,0.1409570425748825,-0.8385646343231201
1791022030441048000,12.266048095703125,-0.24556763470172882,0.2900080680847168,-0.7640390992164612
1791022030458302000,12.283302001953125,-0.20647229254245758,0.2698495090007782,-0.8049670457839966
1791022030475556000,12.30055615234375,-0.18814635276794434,0.06826414167881012,-0.9564615488052368
1791022030492810000,12.31781005859375,-0.23212862014770508,-0.02214384824037552,-1.0865757465362549
1791022030510063900,12.33506396484375,-0.3329212963581085,0.16294817626476288,-1.0792453289031982
1791022030527318000,12.352318115234375,-0.4557051360607147,0.39996370673179626,-1.0132719278335571
1791022030544572000,12.369572021484375,-0.6090322136878967,0.41645705699920654,-0.8764382600784302
1791022030561826000,12.386825927734375,-0.6078104376792908,0.10674861818552017,-0.8263473510742188
1791022030579080000,12.404079833984374,-0.5009090900421143,-0.2964221239089966,-0.8807142972946167
1791022030596334000,12.421333984375,-0.5271763205528259,-0.4699077308177948,-0.8764382600784302
1791022030613588000,12.438587890625,-0.6047561168670654,-0.4143190383911133,-0.9876156449317932
1791022030630842000,12.455842041015625,-0.6151408553123474,-0.531605064868927,-1.0432043075561523
1791022030648096000,12.473095947265625,-0.5467239618301392,-0.6317868828773499,-0.9491311311721802
1791022030665350100,12.49035009765625,-0.4416552484035492,-0.6116283535957336,-1.012661099433899
1791022030682604000,12.50760400390625,-0.4984656572341919,-0.6696605086326599,-1.2655590772628784
1791022030699858200,12.524858154296876,-0.5974257588386536,-0.6262891292572021,-1.4182753562927246
1791022030717112000,12.542112060546875,-0.5864301919937134,-0.5994110703468323,-1.4989094734191895
1791022030734366000,12.559365966796875,-0.593149721622467,-0.6128500699996948,-1.5471677780151367
1791022030751620000,12.5766201171875,-0.6084213256835938,-0.7704532146453857,-1.5777109861373901
1791022030768874000,12.5938740234375,-0.5992583632469177,-0.8932369947433472,-1.8697043657302856
1791022030786128100,12.611128173828124,-0.6444623470306396,-1.0526727437973022,-1.8617631196975708
1791022030803382000,12.628382080078126,-0.5351175665855408,-1.0887137651443481,-1.3956732749938965
1791022030820636200,12.64563623046875,-0.34574946761131287,-1.2011128664016724,-1.382845163345337
1791022030837890000,12.66289013671875,-0.24434591829776764,-1.3232858180999756,-1.570380687713623
1791022030855144200,12.680144287109375,-0.22663083672523499,-1.2744166851043701,-1.7676899433135986
1791022030872398000,12.697398193359374,-0.18875721096992493,-1.0105230808258057,-1.7261511087417603
1791022030889652200,12.71465234375,-0.25045454502105713,-0.9176716208457947,-1.4592032432556152
1791022030906906000,12.731906005859376,-0.2889390289783478,-1.1809543371200562,-1.3810125589370728
1791022030924160000,12.749159912109375,-0.3555232882499695,-1.1107048988342285,-1.3333650827407837
1791022030941414100,12.7664140625,-0.5400044918060303,-0.9708168506622314,-1.0749692916870117
1791022030958668000,12.78366796875,-0.48930269479751587,-0.6537780165672302,-1.104901671409607
1791022030975922200,12.800922119140624,-0.36285367608070374,-0.5926915407180786,-1.0413717031478882
1791022030993176000,12.818176025390626,-0.2767217457294464,-0.502894401550293,-0.9179770350456238
1791022031010430200,12.83543017578125,-0.31520622968673706,0.06643154472112656,-0.8336777091026306
1791022031027684000,12.85268408203125,-0.3860665261745453,-0.006872228812426329,-0.6174315810203552
1791022031044938000,12.86993798828125,-0.29504770040512085,0.17333288490772247,-0.49892380833625793
1791022031062192000,12.887192138671875,-0.25411975383758545,0.5007563829421997,-0.4329504072666168
1791022031079446000,12.904446044921874,-0.09896009415388107,0.07192932814359665,-0.20021092891693115
1791022031096700400,12.921700439453126,0.07880155742168427,0.37858346104621887,-0.07620538026094437
1791022031113954000,12.9389541015625,0.13561198115348816,0.5025889873504639,0.03497200831770897
1791022031131208200,12.956208251953125,0.18814635276794434,0.5374082922935486,0.13393209874629974
1791022031148462000,12.973462158203125,0.10873392969369888,0.7927497625350952,0.3611738085746765
1791022031165716200,12.99071630859375,0.1178968995809555,0.6772963404655457,0.6140718460083008
1791022031182970000,13.00797021484375,0.13500112295150757,0.9057597517967224,0.7918334603309631
1791022031200224300,13.025224365234376,0.22357651591300964,0.9234748482704163,0.8755219578742981
1791022031217478100,13.04247802734375,0.2571740746498108,0.6125446557998657,0.9329432249069214
1791022031234732300,13.059732177734375,0.2779434621334076,0.6815723776817322,1.1669044494628906
1791022031251986200,13.076986083984375,0.29565855860710144,0.7194460034370422,1.2133301496505737
1791022031269240000,13.094239990234374,0.3133736252784729,0.8165735006332397,1.336724877357483
1791022031286494200,13.111494140625,0.38728827238082886,1.0041090250015259,1.3788745403289795
1791022031303748000,13.128748046875,0.37690356373786926,1.077412724494934,1.4436261653900146
1791022031321002200,13.146002197265625,0.3640754222869873,0.9931133985519409,1.6171118021011353
1791022031338256100,13.163256103515625,0.318871408700943,1.0230457782745361,1.5993967056274414
1791022031355510300,13.18051025390625,0.258395791053772,0.9906699657440186,1.7215696573257446
1791022031372764200,13.19776416015625,0.35796675086021423,0.9876156449317932,1.8920009136199951
1791022031390018000,13.21501806640625,0.4770853817462921,0.864220917224884,1.8773401975631714
1791022031407272200,13.232272216796876,0.6206386089324951,0.883768618106842,1.8364121913909912
1791022031424526000,13.249526123046875,0.7641918659210205,0.7218894362449646,1.9066617488861084
1791022031441780200,13.2667802734375,0.896138608455658,0.4995346665382385,1.893222689628601
1791022031459034000,13.2840341796875,1.0024291276931763,0.45066550374031067,1.6360485553741455
1791022031476288300,13.301288330078124,1.0409135818481445,0.606436014175415,1.6110031604766846
1791022031493542100,13.318542236328126,1.1459823846817017,0.6241511106491089,1.6116139888763428
1791022031510796000,13.335796142578126,1.2974767684936523,0.6455313563346863,1.5853468179702759
1791022031528050200,13.35305029296875,1.406821608543396,0.7066178321838379,1.6128357648849487
1791022031545304000,13.370303955078125,1.313359260559082,0.5502364635467529,1.616500973701477
1791022031562558200,13.38755810546875,1.2052361965179443,0.4488328993320465,1.6409355401992798
1791022031579812000,13.40481201171875,1.155145287513733,0.4915934205055237,1.7209588289260864
1791022031597066200,13.422066162109376,1.119104266166687,0.5123628377914429,1.5169299840927124
1791022031614320000,13.439320068359375,1.0238093137741089,0.3119991719722748,1.3416117429733276
1791022031631574300,13.45657421875,0.832608699798584,0.04016435891389847,1.2212713956832886
1791022031648828200,13.473828125,0.6731730103492737,0.06887500733137131,1.0844377279281616
1791022031666082000,13.49108203125,0.5955931544303894,0.2283107042312622,0.8773545622825623
1791022031683336200,13.508336181640624,0.5186241865158081,0.476321816444397,0.6323977708816528
1791022031700590000,13.525590087890626,0.5131264328956604,0.6052142977714539,0.32330018281936646
1791022031717844200,13.54284423828125,0.5009090900421143,0.4647153913974762,-0.022449281066656113
1791022031735098000,13.56009814453125,0.4263836145401001,0.22953243553638458,-0.5484038591384888
1791022031752352300,13.577352294921875,0.20341797173023224,0.4237874448299408,-0.8807142972946167
1791022031769606100,13.594606201171874,-0.017715077847242355,0.48670652508735657,-0.8898772597312927
1791022031786860000,13.611860107421874,0.018325943499803543,0.19593487679958344,-0.8471167087554932
1791022031804114200,13.6291142578125,0.1954767256975174,0.05604684352874756,-0.8245147466659546
1791022031821368000,13.6463681640625,0.2510654330253601,-0.09178243577480316,-0.9851721525192261
1791022031838622200,13.663622314453125,0.22724169492721558,-0.07406735420227051,-1.1452187299728394
1791022031855876000,13.6808759765625,0.18875721096992493,-0.03130681812763214,-1.0651954412460327
1791022031873130000,13.6981298828125,0.23884813487529755,0.16844595968723297,-0.9112575054168701
1791022031890384100,13.715384033203126,0.2577849328517914,0.539851725101471,-1.0022764205932617
1791022031907638000,13.732637939453125,0.14782927930355072,0.7903063297271729,-1.167820692062378
1791022031924892200,13.74989208984375,0.03298669680953026,0.6779071688652039,-1.169653296470642
1791022031942146000,13.76714599609375,-0.0360410213470459,0.08720094710588455,-1.1592686176300049
1791022031959400200,13.784400146484375,-0.036651886999607086,-0.4240928590297699,-1.216689944267273
1791022031976654000,13.801654052734374,-0.04886918142437935,-0.2689332067966461,-1.261283040046692
1791022031993908200,13.818908203125,-0.0720820426940918,0.16844595968723297,-1.0670280456542969
1791022032011162000,13.836162109375,-0.15027274191379547,0.1928805559873581,-0.773202121257782
1791022032028416000,13.853416015625,-0.3390299379825592,-0.009926552884280682,-0.5355756878852844
1791022032045670100,13.870670166015625,-0.5809323787689209,-0.22983787953853607,-0.5703949928283691
1791022032062924000,13.887924072265625,-0.7165443897247314,-0.5096139311790466,-0.7286089658737183
1791022032080178200,13.90517822265625,-0.841160774230957,-0.5138899683952332,-0.671187698841095
1791022032097432000,13.92243212890625,-0.8484911918640137,-0.26710063219070435,-0.708450436592102
1791022032114686200,13.939686279296875,-0.9615011811256409,-0.560315728187561,-0.9961677193641663
1791022032131940000,13.956940185546875,-1.1343759298324585,-1.0636682510375977,-1.493411660194397
1791022032149194000,13.974194091796875,-1.1313215494155884,-1.0251837968826294,-1.8770347833633423
1791022032166448000,13.9914482421875,-1.0830632448196411,-0.6403390169143677,-1.670562505722046
1791022032183702000,14.008701904296874,-0.8558215498924255,-0.6177369952201843,-1.021213173866272
1791022032200956000,14.025955810546876,-0.6444623470306396,-0.7686206102371216,-0.9882264733314514
1791022032218210000,14.0432099609375,-0.6860011219978333,-1.067333459854126,-1.297934889793396
1791022032235464000,14.0604638671875,-0.8075632452964783,-1.0257946252822876,-1.3877320289611816
1791022032252718000,14.077718017578125,-0.84177166223526,-1.0038034915924072,-1.2441788911819458
1791022032269972000,14.094971923828124,-0.7812960743904114,-1.3000729084014893,-0.9448550939559937
1791022032287226000,14.11222607421875,-0.7904590368270874,-1.5963424444198608,-0.9014837145805359
1791022032304480000,14.12947998046875,-0.8362739086151123,-1.6537636518478394,-1.0041090250015259
1791022032321734100,14.146734130859375,-0.7935133576393127,-1.4204133749008179,-1.0584759712219238
1791022032338988000,14.163988037109375,-0.7745765447616577,-0.9610430002212524,-1.2386810779571533
1791022032356242200,14.1812421875,-0.813060998916626,-1.0282381772994995,-1.2063052654266357
1791022032373496000,14.19849609375,-0.8148936033248901,-0.8755219578742981,-1.3602432012557983
1791022032390750000,14.21575,-0.84177166223526,-0.8969022035598755,-1.4433207511901855
1791022032408004000,14.233004150390625,-0.7525854110717773,-0.6855430006980896,-1.3700169324874878
1791022032425258000,14.250258056640625,-0.6750055551528931,-0.35811948776245117,-1.409723162651062
1791022032442512000,14.267511962890625,-0.7098248600959778,-0.838259220123291,-0.9283617734909058
1791022032459766000,14.28476611328125,-0.7006618976593018,-0.7845031023025513,-0.5942187309265137
1791022032477020000,14.30202001953125,-0.7165443897247314,-0.531605064868927,-0.6772963404655457
1791022032494274000,14.319274169921876,-0.730594277381897,0.02367101050913334,-0.6626355648040771
1791022032511528000,14.33652783203125,-0.6084213256835938,-0.5352702736854553,-0.36025750637054443
1791022032528782000,14.353781982421875,-0.5277871489524841,-0.2023489624261856,-0.24236060678958893
1791022032546036000,14.371035888671875,-0.4819723069667816,0.13851359486579895,-0.11346813291311264
1791022032563289900,14.388289794921874,-0.39889469742774963,-0.07406735420227051,0.03741546720266342
1791022032580544000,14.4055439453125,-0.3439168632030487,0.3309359848499298,0.1101083755493164
1791022032597798000,14.4227978515625,-0.3139844834804535,0.32788166403770447,0.06734783947467804
1791022032615052000,14.440052001953125,-0.3121519088745117,0.16600249707698822,0.18524473905563354
1791022032632306000,14.457305908203125,-0.25473061203956604,0.4805978536605835,0.29397866129875183
1791022032649560000,14.47456005859375,-0.164322629570961,0.5190823674201965,0.26099199056625366
1791022032666814000,14.49181396484375,-0.09346231073141098,0.6241511106491089,0.20479241013526917
1791022032684067800,14.50906787109375,0.02626718580722809,1.0010546445846558,0.48823368549346924
1791022032701322000,14.526322021484376,0.22663083672523499,0.9827287197113037,0.480903297662735
1791022032718575900,14.543575927734375,0.35674503445625305,0.7646499872207642,0.7716749310493469
1791022032735829800,14.560829833984375,0.44898560643196106,0.6980656981468201,0.8871283531188965
1791022032753084000,14.578083984375,0.3842339515686035,0.7780889868736267,0.9427170753479004
1791022032770337800,14.595337890625,0.46059203147888184,0.9259182810783386,1.1369720697402954
1791022032787592000,14.612592041015626,0.4886918365955353,0.9876156449317932,1.2945752143859863
1791022032804845800,14.629845703125,0.47952884435653687,1.0053306818008423,1.5236494541168213
1791022032822100000,14.647099853515625,0.4776962697505951,0.9460768103599548,1.6006184816360474
1791022032839353900,14.664353759765625,0.5229002237319946,0.7243329286575317,1.7863212823867798
1791022032856608000,14.68160791015625,0.583375871181488,0.6039925217628479,1.8767293691635132
1791022032873862000,14.69886181640625,0.5314523577690125,0.9228639602661133,1.6775873899459839
1791022032891115800,14.71611572265625,0.4990765154361725,1.1183407306671143,1.8303035497665405
1791022032908370000,14.733369873046875,0.5748237371444702,0.8605557680130005,1.9781328439712524
1791022032925623800,14.750623779296875,0.7464767694473267,1.0810779333114624,1.9249876737594604
1791022032942877700,14.767877685546875,0.9095776677131653,1.1275036334991455,2.0221152305603027
1791022032960131800,14.7851318359375,0.9841031432151794,0.8831577301025391,2.0630431175231934
1791022032977385700,14.8023857421875,0.8552106618881226,1.004719853401184,2.0050108432769775
1791022032994640000,14.819639892578126,0.7318159937858582,1.0456477403640747,1.954309105873108
1791022033011893800,14.836893798828125,0.8381064534187317,1.095127820968628,1.603672742843628
1791022033029148000,14.85414794921875,0.9297361969947815,0.7701478004455566,1.3300052881240845
1791022033046401800,14.87140185546875,0.9663881063461304,0.33399030566215515,1.2304344177246094
1791022033063655700,14.88865576171875,1.0299180746078491,0.07620538026094437,1.1094831228256226
1791022033080909800,14.905909912109376,1.0470222234725952,0.11774418503046036,1.0093013048171997
1791022033098163700,14.923163818359376,0.9847140312194824,-0.05085449293255806,1.052061915397644
1791022033115417600,14.94041748046875,0.9071341753005981,-0.3575085997581482,1.057559609413147
1791022033132671700,14.957671630859375,0.8173370957374573,-0.40637779235839844,1.0056360960006714
1791022033149925600,14.974925537109375,0.675616443157196,-0.25121814012527466,1.0453423261642456
1791022033167179800,14.9921796875,0.5485565662384033,-0.05329795181751251,1.08810293674469
1791022033184433700,15.00943359375,0.4318813979625702,0.16661337018013,0.9769254922866821
1791022033201687800,15.026687744140625,0.23457208275794983,0.2887863218784332,0.7771727442741394
1791022033218941700,15.043941650390625,0.0513126403093338,0.05543597787618637,0.48701193928718567
1791022033236195600,15.061195556640625,-0.09162971377372742,-0.22617268562316895,0.31841325759887695
1791022033253449700,15.07844970703125,-0.17104214429855347,-0.2695440948009491,0.2756527364253998
1791022033270703600,15.09570361328125,-0.16065743565559387,-0.3611738085746765,0.2176205813884735
1791022033287957500,15.11295751953125,-0.16126830875873566,-0.47784897685050964,0.16325360536575317
1791022033305211600,15.130211669921875,-0.12583814561367035,-0.3214675784111023,0.0899498388171196
1791022033322465500,15.147465576171875,-0.14049890637397766,-0.23105959594249725,-0.041386090219020844
1791022033339719700,15.1647197265625,-0.2003636509180069,-0.07101303339004517,-0.10247256606817245
1791022033356973600,15.1819736328125,-0.13133592903614044,0.015729768201708794,-0.1519526094198227
1791022033374227500,15.1992275390625,-0.004276053514331579,-0.09972367435693741,-0.22769984602928162
1791022033391481600,15.216481689453126,0.006108647678047419,-0.16386447846889496,-0.3614792227745056
1791022033408735500,15.233735595703125,-0.013439024798572063,-0.0899498388171196,-0.46227192878723145
1791022033425989600,15.25098974609375,-0.10201441496610641,-0.07895427197217941,-0.6455313563346863
1791022033443243500,15.268243408203125,-0.15699224174022675,-0.010537417605519295,-0.8208495378494263
1791022033460497400,15.285497314453124,-0.2101374864578247,0.2228129357099533,-0.8684970140457153
1791022033477751600,15.30275146484375,-0.2834412455558777,0.3150535225868225,-0.8483384847640991
1791022033495005400,15.32000537109375,-0.3243691921234131,0.21914774179458618,-0.7200568318367004
1791022033512259600,15.337259521484375,-0.32070401310920715,0.037720900028944016,-0.6687442064285278
1791022033529513500,15.354513427734375,-0.23212862014770508,-0.24999640882015228,-0.8666644096374512
1791022033546767400,15.371767333984375,-0.27855435013771057,-0.42592546343803406,-0.9747874736785889
1791022033564021500,15.389021484375,-0.4196641147136688,-0.20051635801792145,-1.1055124998092651
1791022033581275400,15.406275390625,-0.5180133581161499,-0.012980876490473747,-1.392619013786316
1791022033598529300,15.423529296875,-0.6737838387489319,-0.11194097250699997,-1.2973240613937378
1791022033615783400,15.440783447265625,-0.7855721116065979,-0.1876882016658783,-0.9540180563926697
1791022033633037300,15.458037353515625,-0.8350521326065063,-0.3318522870540619,-1.1653772592544556
1791022033650291500,15.47529150390625,-0.9767727851867676,-0.7050906419754028,-1.3938406705856323
1791022033667545300,15.49254541015625,-0.9028581380844116,-0.873078465461731,-1.1665990352630615
1791022033684799200,15.50979931640625,-0.8069523572921753,-0.809548556804657,-0.9130901098251343
1791022033702053400,15.527053466796875,-0.8277217745780945,-0.5212203860282898,-1.1568251848220825
1791022033719307300,15.544307373046875,-0.9065233469009399,-0.6556106209754944,-1.3779581785202026
1791022033736561200,15.56156103515625,-0.9395100474357605,-0.9256128668785095,-1.3242021799087524
1791022033753815300,15.578815185546874,-0.9077450633049011,-1.0093013048171997,-1.2789981365203857
1791022033771069200,15.596069091796876,-0.8680388331413269,-1.0593922138214111,-1.3290890455245972
1791022033788323300,15.6133232421875,-0.7739656567573547,-0.9830341339111328,-1.6033673286437988
1791022033805577200,15.6305771484375,-0.7189878225326538,-1.029459834098816,-1.5050181150436401
1791022033822831000,15.6478310546875,-0.6994401812553406,-0.7295252680778503,-1.5801544189453125
1791022033840085200,15.665085205078125,-0.6102539300918579,-0.7124210596084595,-1.651625633239746
1791022033857339100,15.682339111328124,-0.5870410799980164,-1.0746638774871826,-1.3351976871490479
1791022033874593300,15.69959326171875,-0.5699368119239807,-1.2231040000915527,-1.1751511096954346
1791022033891847200,15.71684716796875,-0.4734202027320862,-0.8462004065513611,-1.5025746822357178
1791022033909101000,15.73410107421875,-0.4361574649810791,-0.26221370697021484,-1.6216932535171509
1791022033926355200,15.751355224609375,-0.5271763205528259,-0.17058399319648743,-1.3761255741119385
1791022033943609000,15.768609130859375,-0.7189878225326538,-0.22250749170780182,-1.206916093826294
1791022033960863000,15.785863037109374,-0.7483093738555908,-0.15531237423419952,-1.0523673295974731
1791022033978117000,15.8031171875,-0.6059778332710266,-0.10155627131462097,-0.9088140726089478
1791022033995371000,15.82037109375,-0.4379900395870209,0.15806126594543457,-0.8874338269233704
1791022034012625000,15.837625,-0.37812530994415283,-0.23105959594249725,-0.49281516671180725
1791022034029879000,15.854879150390625,-0.18081597983837128,0.2655734717845917,-0.5099193453788757
1791022034047133000,15.8721328125,-0.10018182545900345,0.03283398225903511,-0.3657552897930145
1791022034064387000,15.889386962890624,0.009162971749901772,0.476321816444397,-0.2845102846622467
1791022034081641000,15.906640869140626,-0.08979712426662445,0.37369653582572937,-0.06704241037368774
1791022034098895000,15.92389501953125,-0.056810423731803894,0.09575305134057999,0.12232567369937897
1791022034116149000,15.94114892578125,0.0720820426940918,0.258853942155838,0.23716825246810913
1791022034133403000,15.95840283203125,0.2003636509180069,0.5355756878852844,0.212733656167984
1791022034150656800,15.97565673828125,0.17653992772102356,0.523969292640686,0.3019199073314667
1791022034167911000,15.992910888671876,0.30054548382759094,0.6791289448738098,0.595745861530304
1791022034185164800,16.010164794921874,0.24312418699264526,0.6149880886077881,0.7985529899597168
1791022034202419000,16.0274189453125,0.31031930446624756,0.8910989761352539,0.8229875564575195
1791022034219672800,16.0446728515625,0.4276053309440613,0.9088140726089478,0.8199332356452942
1791022034236926700,16.0619267578125,0.5290089249610901,1.1177297830581665,0.920115053653717
1791022034254180900,16.079180908203124,0.6542361974716187,1.2307398319244385,1.1039854288101196
1791022034271434800,16.096434814453126,0.7226530313491821,1.4940224885940552,1.2731949090957642
1791022034288688600,16.113688720703124,0.6633991599082947,1.2234094142913818,1.450345754623413
1791022034305942800,16.13094287109375,0.6963858604431152,0.8904881477355957,1.6592614650726318
1791022034323196700,16.14819677734375,0.7709113359451294,0.7579304575920105,1.7863212823867798
1791022034340450800,16.165450927734376,0.6688969135284424,0.7964149713516235,1.7655519247055054
1791022034357704700,16.18270458984375,0.7531962990760803,0.35475972294807434,1.8950552940368652
1791022034374958600,16.19995849609375,0.842382550239563,0.3987419903278351,1.8168646097183228
1791022034392212500,16.21721240234375,0.8081740736961365,0.957072377204895,1.6519310474395752
1791022034409466600,16.234466552734375,0.8875865340232849,0.957072377204895,1.7099632024765015
1791022034426720500,16.251720458984376,1.0262528657913208,0.7560978531837463,1.714239239692688
1791022034443974700,16.268974609375,1.0305289030075073,0.6760746240615845,1.7594432830810547
1791022034461228500,16.286228515625,0.9615011811256409,0.6058251261711121,1.7405065298080444
1791022034478482400,16.303482421875,0.7629700899124146,0.6314814686775208,1.6623157262802124
1791022034495736300,16.320736328125,0.842382550239563,0.5728384256362915,1.5566362142562866
1791022034512990500,16.337990478515625,1.0299180746078491,0.45799586176872253,1.4081960916519165
1791022034530244400,16.355244384765626,1.193018913269043,0.15317434072494507,1.3666572570800781
1791022034547498500,16.37249853515625,1.18446683883667,-0.06979130208492279,1.4265220165252686
1791022034564752400,16.38975244140625,1.0293071269989014,-0.1614210158586502,1.447291374206543
1791022034582006500,16.407006591796875,0.8588758707046509,-0.29825472831726074,1.3972004652023315
1791022034599260400,16.424260498046873,0.8210022449493408,-0.19624030590057373,1.2029454708099365
1791022034616514300,16.441514404296875,0.7147117853164673,0.025503603741526604,1.105207085609436
1791022034633768200,16.458768310546876,0.5326740741729736,0.04016435891389847,0.9543235301971436
1791022034651022300,16.476022216796874,0.4459312856197357,0.013286309316754341,0.7521272301673889
1791022034668276200,16.493276123046876,0.37629270553588867,0.08659008145332336,0.5633700489997864
1791022034685530000,16.510530029296874,0.21807873249053955,0.2582430839538574,0.4027126133441925
1791022034702784300,16.5277841796875,0.001832594396546483,0.45310893654823303,0.26160284876823425
1791022034720038100,16.5450380859375,-0.18814635276794434,0.42684176564216614,0.14981459081172943
1791022034737292300,16.562292236328126,-0.17104214429855347,0.2283107042312622,0.012980876490473747
1791022034754546200,16.579546142578124,-0.13133592903614044,-0.009315688163042068,-0.11285726726055145
1791022034771800000,16.596800048828126,-0.08429934084415436,-0.12110394239425659,-0.27290382981300354
1791022034789054200,16.61405419921875,-0.03237583488225937,0.13484840095043182,-0.45799586176872253
1791022034806308000,16.63130810546875,-0.2107483446598053,0.4042397737503052,-0.5636754631996155
1791022034823562000,16.64856201171875,-0.3402516841888428,0.6809614896774292,-0.5325213670730591
1791022034840816000,16.665816162109376,-0.2919933497905731,0.7658717036247253,-0.39629852771759033
1791022034858070000,16.683070068359374,-0.23396120965480804,0.38408124446868896,-0.29856017231941223
1791022034875324000,16.700323974609375,-0.09285144507884979,-0.14859285950660706,-0.494647741317749
1791022034892578000,16.717578125,0.10751219838857651,-0.5682569742202759,-0.8135191798210144
1791022034909832000,16.73483203125,0.1288924664258957,-0.5981893539428711,-0.9527963399887085
1791022034927085800,16.7520859375,0.021380268037319183,-0.19379685819149017,-0.9631810188293457
1791022034944340000,16.769340087890626,-0.1692095398902893,0.300392746925354,-0.9973894953727722
1791022034961593900,16.78659375,-0.3176496922969818,0.46166107058525085,-1.0487021207809448
1791022034978848000,16.803847900390625,-0.46364638209342957,0.125074565410614,-1.2936588525772095
1791022034996102000,16.821101806640623,-0.5253437161445618,-0.05635227635502815,-1.5459460020065308
1791022035013355800,16.838355712890625,-0.6298015713691711,0.1409570425748825,-1.5544981956481934
1791022035030609700,16.855609619140626,-0.7990111112594604,0.3413206934928894,-1.3590214252471924
1791022035047863800,16.87286376953125,-0.7764091491699219,0.11774418503046036,-1.1855357885360718
1791022035065117700,16.89011767578125,-0.6737838387489319,-0.346513032913208,-1.1898118257522583
1791022035082371600,16.90737158203125,-0.5962040424346924,-0.8633046746253967,-1.3309216499328613
1791022035099625700,16.924625732421877,-0.6029235124588013,-1.1180353164672852,-1.486692190170288
1791022035116879600,16.941879638671875,-0.6401863098144531,-0.9634864926338196,-1.5972586870193481
1791022035134133500,16.959133544921876,-0.647516667842865,-0.7399099469184875,-1.46714448928833
1791022035151387600,16.9763876953125,-0.5784889459609985,-0.6348412036895752,-1.1452187299728394
1791022035168641500,16.9936416015625,-0.564439058303833,-0.8859066367149353,-1.1549925804138184
1791022035185895400,17.0108955078125,-0.6218603253364563,-1.315955400466919,-1.1354448795318604
1791022035203149600,17.028149658203127,-0.6866120100021362,-1.5731295347213745,-1.381623387336731
1791022035220403500,17.045403564453125,-0.8313869833946228,-1.409417748451233,-1.6449061632156372
1791022035237657600,17.06265771484375,-0.9578359723091125,-0.643393337726593,-1.5465569496154785
1791022035254911500,17.079911376953124,-1.035415768623352,-0.3770562708377838,-1.457370638847351
1791022035272165400,17.097165283203125,-1.0494656562805176,-0.9738711714744568,-1.3040435314178467
1791022035289419300,17.114419189453123,-0.9560033679008484,-0.8962913751602173,-1.4225513935089111
1791022035306673400,17.13167333984375,-0.9224058389663696,-0.9133955836296082,-1.2344050407409668
1791022035323927300,17.14892724609375,-0.8814778923988342,-1.0483967065811157,-0.9949460029602051
1791022035341181400,17.166181396484376,-0.8185588121414185,-1.075885534286499,-0.9552397727966309
1791022035358435300,17.183435302734374,-0.7287616729736328,-1.1467459201812744,-0.7695369124412537
1791022035375689200,17.200689208984375,-0.6151408553123474,-0.7606793642044067,-0.8312342762947083
1791022035392943000,17.217943115234377,-0.5314523577690125,-0.6824886798858643,-0.8049670457839966
1791022035410197200,17.235197265625,-0.4770853817462921,-0.5242747068405151,-0.6394227147102356
1791022035427451100,17.252451171875,-0.33047783374786377,-0.0850629210472107,-0.651029109954834
1791022035444705000,17.269705078125,-0.29077163338661194,0.2637408673763275,-0.5624537467956543
1791022035461959200,17.286959228515624,-0.1380554437637329,0.4793761372566223,-0.5648971796035767
1791022035479213000,17.304213134765625,-0.040317077189683914,0.3058905303478241,-0.434783011674881
1791022035496467000,17.321467041015627,-0.03298669680953026,0.10247256606817245,-0.14462223649024963
1791022035513721000,17.33872119140625,0.01282816007733345,0.18066325783729553,-0.1623373180627823
1791022035530975000,17.35597509765625,0.10934479534626007,0.20570871233940125,-0.1769980639219284
1791022035548228900,17.373228759765624,0.18387030065059662,0.15500694513320923,0.09422589093446732
1791022035565483000,17.39048291015625,0.19914191961288452,0.22647811472415924,0.37400195002555847
1791022035582737000,17.40773681640625,0.24434591829776764,0.4085158109664917,0.6659952998161316
1791022035599990800,17.42499072265625,0.36651885509490967,0.5758927464485168,0.8541416525840759
1791022035617244700,17.44224462890625,0.5271763205528259,0.7176133990287781,0.901178240776062
1791022035634498800,17.459498779296876,0.5729911923408508,0.7396045327186584,1.067333459854126
1791022035651752700,17.476752685546874,0.5980366468429565,0.5917752385139465,1.3263401985168457
1791022035669006800,17.4940068359375,0.6817250847816467,0.48365217447280884,1.465617299079895
1791022035686260700,17.5112607421875,0.6860011219978333,0.596662163734436,1.5041017532348633
1791022035703514600,17.5285146484375,0.618806004524231,0.8177952170372009,1.380096197128296
1791022035720768500,17.5457685546875,0.6041452884674072,0.9534072279930115,1.3183989524841309
1791022035738022700,17.563022705078126,0.5974257588386536,1.0554215908050537,1.3874266147613525
1791022035755276500,17.580276611328124,0.675616443157196,1.0071632862091064,1.6006184816360474
1791022035772530400,17.597530517578125,0.7428115606307983,0.8752164840698242,1.5767947435379028
1791022035789784600,17.61478466796875,0.768467903137207,0.9350812435150146,1.4992148876190186
1791022035807038500,17.63203857421875,0.8063415288925171,1.0425934791564941,1.5346450805664062
1791022035824292400,17.649292236328126,0.7562506198883057,1.0670280456542969,1.448513150215149
1791022035841546500,17.66654638671875,0.8283326625823975,1.1549925804138184,1.4814997911453247
1791022035858800400,17.68380029296875,1.073289394378662,1.0053306818008423,1.5389211177825928
1791022035876054300,17.70105419921875,1.176525592803955,0.6687442064285278,1.5694643259048462
1791022035893308400,17.718308349609377,1.1117738485336304,0.6076577305793762,1.5584688186645508
1791022035910562300,17.735562255859374,1.1527018547058105,0.8226821422576904,1.3623812198638916
1791022035927816200,17.752816162109376,1.3994911909103394,0.5850557684898376,1.1962260007858276
1791022035945070000,17.770070068359374,1.4563016891479492,0.06337722390890121,1.1082614660263062
1791022035962324200,17.78732421875,1.276707410812378,-0.04108065739274025,1.03129243850708
1791022035979578000,17.804578125,1.2357794046401978,-0.005039634648710489,1.085659384727478
1791022035996832000,17.82183203125,1.1264346837997437,-0.21151192486286163,1.1815651655197144
1791022036014086100,17.839086181640624,0.963333785533905,-0.25732678174972534,1.310457706451416
1791022036031340000,17.856340087890626,0.7599157691001892,-0.08628465235233307,1.392924427986145
1791022036048594000,17.873593994140624,0.5302306413650513,0.26679518818855286,1.0380120277404785
1791022036065847800,17.890847900390625,0.29565855860710144,0.3761399984359741,0.8229875564575195
1791022036083102000,17.90810205078125,0.08368847519159317,-0.05024362727999687,0.5615374445915222
1791022036100355800,17.92535595703125,-0.03787361457943916,0.19837833940982819,0.6568323373794556
1791022036117610000,17.94260986328125,-0.06963858753442764,0.04260781779885292,0.6556106209754944
1791022036134864000,17.95986376953125,-0.0922405794262886,-0.17119485139846802,0.4644099473953247
1791022036152117800,17.97711767578125,-0.2620609998703003,-0.12293653935194016,0.3263545036315918
1791022036169371600,17.99437158203125,-0.3836230933666229,-0.2646571695804596,0.12171480804681778
1791022036186625800,18.011625732421876,-0.41233372688293457,-0.23777911067008972,0.023976443335413933
1791022036203879700,18.028879638671874,-0.49418962001800537,-0.009315688163042068,-0.043829549103975296
1791022036221133600,18.046133544921876,-0.5302306413650513,0.31261005997657776,-0.21975859999656677
1791022036238387500,18.063387451171874,-0.44409868121147156,0.4384481906890869,-0.25152358412742615
1791022036255641600,18.0806416015625,-0.3591884970664978,0.09147699922323227,-0.056657709181308746
1791022036272895500,18.0978955078125,-0.27488914132118225,-0.23777911067008972,-0.02611446939408779
1791022036290149400,18.1151494140625,-0.08674279600381851,-0.47723811864852905,-0.27168211340904236
1791022036307403500,18.132403564453124,0.10384701192378998,-0.6061305999755859,-0.4134027361869812
1791022036324657400,18.149657470703126,0.17715078592300415,-0.6733257174491882,-0.38102689385414124
1791022036341911300,18.166911376953124,0.2522871494293213,-0.3984365463256836,-0.3981311321258545
1791022036359165200,18.184165283203125,0.017715077847242355,-0.3862192630767822,-0.4696022868156433
1791022036376419300,18.20141943359375,-0.17653992772102356,-0.09972367435693741,-0.7249437570571899
1791022036393673200,18.218673095703124,-0.2926042377948761,0.23503021895885468,-1.2472331523895264
1791022036410927400,18.23592724609375,-0.5662716627120972,0.4488328993320465,-1.698662281036377
1791022036428181200,18.25318115234375,-0.6426297426223755,0.6870701313018799,-1.5581632852554321
1791022036445435100,18.27043505859375,-0.5992583632469177,0.3217730224132538,-1.366351842880249
1791022036462689000,18.28768896484375,-0.4874700903892517,-0.233503058552742,-1.7951788902282715
1791022036479943000,18.30494287109375,-0.657290518283844,0.10125083476305008,-2.073122262954712
1791022036497197000,18.322197021484374,-0.8356630206108093,0.30344706773757935,-1.8012875318527222
1791022036514451000,18.339450927734376,-0.7318159937858582,-0.35506516695022583,-1.3034327030181885
1791022036531705000,18.356705078125,-0.564439058303833,-1.0154099464416504,-1.2142465114593506
1791022036548959000,18.373958984375,-0.46059203147888184,-1.1094831228256226,-1.2961024045944214
1791022036566212900,18.391212890625,-0.44898560643196106,-1.1711804866790771,-1.205694317817688
1791022036583466800,18.408466796875,-0.5088503360748291,-1.3947570323944092,-1.195920467376709
1791022036600721000,18.425720947265624,-0.5418370366096497,-1.4314088821411133,-1.1739293336868286
1791022036617974800,18.442974853515626,-0.6175842881202698,-1.1559088230133057,-1.4152209758758545
1791022036635228700,18.460228759765624,-0.8222240209579468,-1.049007534980774,-1.8874194622039795
1791022036652482600,18.477482666015625,-1.0341941118240356,-0.9268345832824707,-2.0572397708892822
1791022036669736700,18.49473681640625,-1.1545344591140747,-0.5572614073753357,-2.02303147315979
1791022036686990600,18.511990478515624,-1.018311619758606,-0.6971494555473328,-1.6577342748641968
1791022036704244500,18.529244384765626,-0.7843503952026367,-0.755181610584259,-1.5905392169952393
1791022036721498600,18.54649853515625,-0.6847794055938721,-0.6079631447792053,-1.6174172163009644
1791022036738752500,18.56375244140625,-0.6017017960548401,-0.5401571989059448,-1.3736821413040161
1791022036756006400,18.58100634765625,-0.7428115606307983,-0.4332558512687683,-1.274111270904541
1791022036773260300,18.59826025390625,-0.9767727851867676,-0.7118101716041565,-1.1287254095077515
1791022036790514400,18.615514404296874,-1.0372483730316162,-0.614682674407959,-1.2374593019485474
1791022036807768300,18.632768310546876,-0.8918625712394714,-0.643393337726593,-1.1256710290908813
1791022036825022200,18.650022216796874,-0.7531962990760803,-1.0459532737731934,-0.8196278214454651
1791022036842276400,18.6672763671875,-0.6615665555000305,-0.790611743927002,-0.6204859018325806
1791022036859530200,18.6845302734375,-0.5943714380264282,-0.46807512640953064,-0.568562388420105
1791022036876784000,18.7017841796875,-0.49541133642196655,-0.5083922147750854,-0.3669770061969757
1791022036894038000,18.7190380859375,-0.3530798554420471,-0.39538222551345825,-0.2643517255783081
1791022036911292200,18.736292236328126,-0.205861434340477,-0.05146535858511925,-0.17455461621284485
1791022036928546000,18.753546142578124,-0.0030543238390237093,0.4396699368953705,-0.16294817626476288
1791022036945800000,18.770800048828125,0.08979712426662445,0.7640390992164612,-0.28206682205200195
1791022036963053800,18.7880537109375,0.11484257876873016,0.6736311316490173,0.09972367435693741
1791022036980308000,18.805307861328124,0.2419024556875229,0.7658717036247253,0.5426006317138672
1791022036997561900,18.822561767578126,0.337808221578598,1.1403318643569946,0.8510873317718506
1791022037014815700,18.839815673828124,0.37690356373786926,1.1464405059814453,1.0636682510375977
1791022037032070000,18.85706982421875,0.35063639283180237,0.743880569934845,1.205999732017517
1791022037049323800,18.87432373046875,0.4172206521034241,0.5862774848937988,1.1284199953079224
1791022037066577700,18.89157763671875,0.3384190797805786,0.39568766951560974,1.131474256515503
1791022037083831600,18.90883154296875,0.4043924808502197,0.30344706773757935,1.2964078187942505
1791022037101085400,18.92608544921875,0.4557051360607147,0.4195113778114319,1.4607304334640503
1791022037118339600,18.943339599609374,0.43921178579330444,0.6369792222976685,1.4393501281738281
1791022037135593500,18.960593505859375,0.42271843552589417,0.9558506608009338,1.4466805458068848
1791022037152847400,18.977847412109377,0.4557051360607147,1.0053306818008423,1.5389211177825928
1791022037170101200,18.995101318359374,0.5729911923408508,0.7029526233673096,1.7582215070724487
1791022037187355400,19.01235546875,0.5900954008102417,0.9112575054168701,1.7948734760284424
1791022037204609300,19.029609375,0.5112938284873962,1.3962842226028442,1.7380629777908325
1791022037221863200,19.04686328125,0.5522217750549316,1.197142243385315,1.7582215070724487
1791022037239117000,19.064116943359377,0.778241753578186,1.1953096389770508,1.7594432830810547
1791022037256371200,19.08137109375,1.0189224481582642,1.2704460620880127,1.7539454698562622
1791022037273625000,19.098625,1.1068869829177856,1.1898118257522583,1.6843068599700928
1791022037290879000,19.11587890625,1.2101231813430786,1.2600613832473755,1.58717942237854
1791022037308133000,19.133133056640624,1.352454662322998,0.9082031846046448,1.6586506366729736
1791022037325387000,19.150386962890625,1.5051708221435547,0.5471821427345276,1.7441716194152832
1791022037342641000,19.167640869140627,1.6145156621932983,0.5484038591384888,1.7508912086486816
1791022037359894800,19.184894775390624,1.6426154375076294,0.5013672709465027,1.676365613937378
1791022037377149000,19.20214892578125,1.5204424858093262,0.6779071688652039,1.6207770109176636
1791022037394402800,19.21940283203125,1.414151906967163,0.3889681398868561,1.6360485553741455
1791022037411656700,19.23665673828125,1.1875211000442505,0.15378521382808685,1.5951206684112549
1791022037428910600,19.25391064453125,1.035415768623352,0.024281874299049377,1.4185807704925537
1791022037446164500,19.27116455078125,0.7562506198883057,-0.4088212549686432,1.3293944597244263
1791022037463418600,19.288418701171874,0.5198459029197693,-0.3220784664154053,1.242040753364563
1791022037480672500,19.305672607421876,0.39339691400527954,-0.19013166427612305,1.0257946252822876
1791022037497926400,19.322926513671874,0.2657261788845062,-0.18463388085365295,0.7099775671958923
1791022037515180300,19.34018017578125,0.11362084746360779,0.1617264449596405,0.5682569742202759
1791022037532434400,19.357434326171877,-0.026878049597144127,0.228921577334404,0.3452913165092468
1791022037549688300,19.374688232421875,-0.15210533142089844,0.10369429737329483,0.1101083755493164
1791022037566942200,19.391942138671876,-0.21991132199764252,0.003512472379952669,0.02153298258781433
1791022037584196400,19.4091962890625,-0.23884813487529755,-0.35506516695022583,-0.0334448479115963
1791022037601450200,19.4264501953125,-0.19914191961288452,-0.5096139311790466,-0.08659008145332336
1791022037618704100,19.4437041015625,-0.22235478460788727,-0.2842048406600952,-0.13851359486579895
1791022037635958000,19.4609580078125,-0.370184063911438,-0.2182314395904541,-0.351705402135849
1791022037653212200,19.478212158203124,-0.42455101013183594,0.27107125520706177,-0.5575668215751648
1791022037670465800,19.4954658203125,-0.5125155448913574,0.5826122760772705,-0.679739773273468
1791022037687720000,19.512719970703124,-0.5088503360748291,0.4598284661769867,-0.7658717036247253
1791022037704973800,19.529973876953125,-0.3530798554420471,0.2698495090007782,-0.781143307685852
1791022037722227700,19.547227783203127,-0.17898337543010712,-0.017256930470466614,-0.7970257997512817
1791022037739481900,19.56448193359375,-0.04581485688686371,0.17027856409549713,-0.8629992008209229
1791022037756735700,19.58173583984375,-0.034208428114652634,0.07864884287118912,-0.86544269323349
1791022037773989600,19.59898974609375,-0.08552107214927673,-0.09544762223958969,-0.9772309064865112
1791022037791243500,19.616243408203125,-0.06902772188186646,-0.06856957077980042,-1.0438151359558105
1791022037808497700,19.63349755859375,-0.06291907280683517,-0.11499529331922531,-1.1256710290908813
1791022037825751600,19.65075146484375,-0.11056652665138245,-0.04718930274248123,-1.22402024269104
1791022037843005400,19.66800537109375,-0.2315177470445633,0.044440411031246185,-1.2227985858917236
1791022037860259300,19.68525927734375,-0.46425724029541016,-0.03436114266514778,-1.2637264728546143
1791022037877513200,19.70251318359375,-0.6524035930633545,-0.0795651376247406,-1.2118029594421387
1791022037894767400,19.719767333984375,-0.8252783417701721,-0.1156061589717865,-1.3706278800964355
1791022037912021200,19.737021240234377,-0.9107993841171265,-0.33918267488479614,-1.5862630605697632
1791022037929275100,19.754275146484375,-0.8869756460189819,-0.5725330114364624,-1.5587742328643799
1791022037946529000,19.771529052734376,-0.8442151546478271,-0.6214022040367126,-1.5929826498031616
1791022037963783200,19.788783203125,-0.8026763200759888,-0.5554288029670715,-1.6290236711502075
1791022037981037000,19.806037109375,-0.7965676784515381,-0.5059487819671631,-1.5844305753707886
1791022037998291000,19.823291015625,-0.822834849357605,-0.5267181396484375,-1.5740457773208618
1791022038015544800,19.840544921875,-0.7446441650390625,-0.7802270650863647,-1.5654937028884888
1791022038032798700,19.857798828125,-0.7128791809082031,-0.9647082090377808,-1.588706612586975
1791022038050052900,19.875052978515626,-0.7073814272880554,-1.1766782999038696,-1.4915790557861328
1791022038067306800,19.892306640625,-0.6145299673080444,-1.095433235168457,-1.4659227132797241
1791022038084560600,19.909560546875,-0.5589412450790405,-1.0655008554458618,-1.5893174409866333
1791022038101814800,19.926814697265623,-0.4880809485912323,-1.3519964218139648,-1.4897464513778687
1791022038119068700,19.944068603515625,-0.35796675086021423,-1.121700406074524,-1.5447243452072144
1791022038136322600,19.961322509765626,-0.2675587832927704,-1.172402262687683,-1.4726423025131226
1791022038153576400,19.978576416015624,-0.36774060130119324,-0.975703775882721,-1.4598140716552734
1791022038170830300,19.995830322265626,-0.49663305282592773,-0.4143190383911133,-1.6675081253051758
1791022038188084500,20.01308447265625,-0.6181951761245728,-0.8865175247192383,-1.3810125589370728
1791022038205338400,20.03033837890625,-0.627968966960907,-0.5358811020851135,-1.3419171571731567
1791022038222592300,20.04759228515625,-0.5687150955200195,-0.4405862092971802,-1.2399027347564697
1791022038239846100,20.06484619140625,-0.4312705397605896,-0.3214675784111023,-0.9900590777397156
1791022038257100000,20.08210009765625,-0.3964512348175049,-0.04169152304530144,-0.9375247359275818
1791022038274354000,20.09935400390625,-0.4520399272441864,-0.191964253783226,-0.6791289448738098
1791022038291608000,20.116608154296873,-0.4984656572341919,-0.030085090547800064,-0.5441278219223022
1791022038308862000,20.133862060546875,-0.49052441120147705,-0.1003345400094986,-0.4280634820461273
1791022038326115800,20.15111572265625,-0.3402516841888428,-0.011148282326757908,-0.38102689385414124
1791022038343370000,20.168369873046874,-0.25045454502105713,0.2631300091743469,-0.3455967605113983
1791022038360623900,20.185623779296876,-0.15210533142089844,0.02306014485657215,-0.04016435891389847
1791022038377877800,20.202877685546873,-0.07757982611656189,0.3370446562767029,0.14004075527191162
1791022038395131600,20.220131591796875,-0.03787361457943916,0.3052796721458435,0.2652680277824402
1791022038412385500,20.237385498046876,0.1692095398902893,0.34987279772758484,0.5358811020851135
1791022038429639700,20.2546396484375,0.481361448764801,0.7756455540657043,0.4943423271179199
1791022038446893600,20.2718935546875,0.5619956254959106,0.9100357890129089,0.4644099473953247
1791022038464147500,20.2891474609375,0.637742817401886,0.8611665964126587,0.7796161770820618
1791022038481401300,20.3064013671875,0.675616443157196,0.985783040523529,1.0343468189239502
1791022038498655200,20.3236552734375,0.5809323787689209,1.106734275817871,1.2200497388839722
1791022038515909400,20.340909423828126,0.6298015713691711,1.0273218154907227,1.1186461448669434
1791022038533163300,20.358163330078124,0.7379246354103088,0.753043532371521,1.105207085609436
1791022038550417200,20.375417236328126,0.813671886920929,0.5086976289749146,1.4240784645080566
1791022038567671000,20.392671142578124,0.9761618971824646,0.3938550651073456,1.494938850402832
1791022038584925000,20.409925048828125,1.0604612827301025,0.5942187309265137,1.399643898010254
1791022038602178800,20.4271787109375,1.0958913564682007,0.864220917224884,1.559079647064209
1791022038619433000,20.444432861328124,1.25715970993042,0.8385646343231201,1.7569998502731323
1791022038636687000,20.46168701171875,1.229670763015747,0.7768672704696655,1.8590142726898193
1791022038653940700,20.478940673828124,1.125823736190796,0.41157013177871704,1.9530874490737915
1791022038671194600,20.496194580078125,1.026863694190979,0.14706569910049438,2.0410518646240234
1791022038688448500,20.513448486328127,0.8252783417701721,0.15806126594543457,2.0605995655059814
1791022038705702700,20.53070263671875,0.583375871181488,0.1715002804994583,2.028834581375122
1791022038722956500,20.54795654296875,0.45020735263824463,0.20998476445674896,2.089921236038208
1791022038740210400,20.56521044921875,0.5619956254959106,0.145843967795372,2.174220561981201
1791022038757464300,20.58246435546875,0.5057960152626038,0.32788166403770447,1.9701915979385376
1791022038774718200,20.59971826171875,0.3585776388645172,1.2063052654266357,1.4039199352264404
1791022038791972400,20.616972412109376,0.5632173418998718,1.7805181741714478,1.5847359895706177
1791022038809226200,20.634226318359374,1.1136064529418945,1.143997073173523,1.854127287864685
1791022038826480000,20.651480224609376,1.3964369297027588,0.11835505068302155,1.8693989515304565
1791022038843734300,20.668734375,1.278540015220642,-0.07345648854970932,1.6378811597824097
1791022038860988000,20.68598779296875,1.1270455121994019,0.08720094710588455,1.2701406478881836
1791022038878242000,20.703241943359377,0.9022472500801086,-0.41126471757888794,0.9048434495925903
1791022038895496000,20.720495849609375,0.7672461867332458,-0.6256782412528992,0.8040507435798645
1791022038912749800,20.737749755859376,0.8625410795211792,0.0792597085237503,1.0374010801315308
1791022038930003700,20.755003662109374,1.0378592014312744,0.14767655730247498,0.9952514171600342
1791022038947257600,20.772257568359375,0.9010255336761475,-0.04413498193025589,0.522442102432251
1791022038964511700,20.78951171875,0.42394015192985535,0.16783510148525238,0.25121814012527466
1791022038981765600,20.806765625,0.021380268037319183,0.13301581144332886,0.22067490220069885
1791022038999019500,20.82401953125,-0.1185077652335167,0.09758564829826355,0.22250749170780182
1791022039016273400,20.8412734375,-0.1692095398902893,-0.263435423374176,-0.02000582218170166
1791022039033527300,20.85852734375,-0.23396120965480804,-0.5328267812728882,-0.17088942229747772
1791022039050781400,20.875781494140625,-0.347582072019577,-0.18890993297100067,-0.21731515228748322
1791022039068035300,20.893035400390627,-0.4581485986709595,0.30283620953559875,-0.3407098352909088
1791022039085289200,20.910289306640625,-0.5497782826423645,0.05482511222362518,-0.7463240623474121
1791022039102543000,20.927543212890626,-0.6175842881202698,-0.36422812938690186,-1.0664172172546387
1791022039119797000,20.944796875,-0.656679630279541,0.15500694513320923,-0.9265291690826416
1791022039137051100,20.962051025390625,-0.4935787320137024,0.503810703754425,-0.577725350856781
1791022039154304800,20.9793046875,-0.1844811588525772,0.33399030566215515,-0.5306887626647949
1791022039171559000,20.996558837890625,-0.1337793916463852,0.04932733252644539,-0.6058251261711121
1791022039188812800,21.013812744140626,-0.12950333952903748,-0.3623955249786377,-0.6980656981468201
1791022039206066700,21.031066650390624,-0.014660755172371864,-0.585972011089325,-0.8098539710044861
1791022039223320800,21.04832080078125,0.012217295356094837,-0.38988444209098816,-0.8037453293800354
1791022039240574500,21.065574462890623,-0.04764745384454727,-0.23777911067008972,-0.7127264738082886
1791022039257828600,21.08282861328125,-0.13072505593299866,-0.3404043912887573,-0.6449204683303833
1791022039275082500,21.10008251953125,-0.28405213356018066,-0.6598866581916809,-0.7451022863388062
1791022039292336400,21.11733642578125,-0.4685332775115967,-0.8938478827476501,-0.9918916821479797
1791022039309590300,21.13459033203125,-0.7177661061286926,-0.9524909257888794,-1.1867575645446777
1791022039326844200,21.15184423828125,-0.8790343999862671,-0.771064043045044,-1.3162609338760376
1791022039344098300,21.169098388671873,-0.9841031432151794,-0.5291616320610046,-1.5990912914276123
1791022039361352000,21.18635205078125,-1.237612009048462,-0.45097091794013977,-2.148258686065674
1791022039378606000,21.203606201171876,-1.5497639179229736,-0.2835939824581146,-2.290590286254883
1791022039395860000,21.22085986328125,-1.4275909662246704,-0.01908952370285988,-1.8098396062850952
1791022039413113900,21.23811376953125,-0.9932661056518555,-0.378888875246048,-1.4066689014434814
1791022039430367700,21.25536767578125,-0.860708475112915,-0.8779653906822205,-1.2417353391647339
1791022039447621600,21.27262158203125,-0.8472694754600525,-1.0661118030548096,-1.3602432012557983
1791022039464875800,21.289875732421876,-0.8753692507743835,-1.4185807704925537,-1.4610358476638794
1791022039482129700,21.307129638671874,-0.8374956250190735,-1.5224277973175049,-1.4665336608886719
1791022039499383600,21.324383544921876,-0.7635809779167175,-1.282357931137085,-1.4469859600067139
1791022039516637400,21.341637451171874,-0.7189878225326538,-1.234710454940796,-1.3938406705856323
1791022039533891300,21.358891357421875,-0.7012727856636047,-1.1326960325241089,-1.4152209758758545
1791022039551145500,21.3761455078125,-0.720820426940918,-1.0270164012908936,-1.4940224885940552
1791022039568399400,21.3933994140625,-0.7458658814430237,-1.1082614660263062,-1.4121665954589844
1791022039585653200,21.4106533203125,-0.7446441650390625,-0.9359975457191467,-1.354134440422058
1791022039602907100,21.4279072265625,-0.7648026943206787,0.08109229803085327,-1.7310380935668945
1791022039620161000,21.4451611328125,-0.7794634699821472,0.3657552897930145,-1.531285285949707
1791022039637415000,21.462414794921877,-0.7953459620475769,0.05177079141139984,-1.0315978527069092
