time,seconds_elapsed,z,y,x
1790267511205566000,0.07956591796875,0,0,0
1790267511215566000,0.089566162109375,0.42444801330566406,-0.1345047950744629,0.649837851524353
1790267511225566000,0.09956591796875,0.12182044982910156,0.011361122131347656,0.06716024875640869
1790267511235566000,0.109566162109375,-0.4901456832885742,0.2379894256591797,-0.6126495599746704
1790267511245566000,0.11956591796875,-1.072615623474121,0.15471887588500977,-0.88812255859375
1790267511255566000,0.129566162109375,-1.5917930603027344,-0.08796358108520508,-0.944257378578186
1790267511265566000,0.13956591796875,-1.9258136749267578,-0.20211362838745117,-1.0633063316345215
1790267511275566000,0.149566162109375,-1.951505184173584,-0.17977619171142578,-1.2557761669158936
1790267511285566000,0.15956591796875,-1.6567997932434082,-0.22440099716186523,-1.3160359859466553
1790267511295566000,0.169566162109375,-1.0254530906677246,-0.3190803527832031,-1.3826693296432495
1790267511305566000,0.17956591796875,-0.16408538818359375,-0.29741668701171875,-1.4833449125289917
1790267511315566000,0.189566162109375,0.3159360885620117,0.08358383178710938,-1.3843351602554321
1790267511325566000,0.19956591796875,-2.1585655212402344,0.06621980667114258,-0.5945566892623901
1790267511335566000,0.209566162109375,-2.235093593597412,-0.5027446746826172,0.25559210777282715
1790267511345566000,0.21956591796875,-1.886549949645996,-1.263176441192627,0.5774121284484863
1790267511355566000,0.229566162109375,-0.6295647621154785,-2.6071696281433105,1.1344894170761108
1790267511365566000,0.23956591796875,0.5053129196166992,-2.050604820251465,-0.676120400428772
1790267511375566000,0.249566162109375,1.4876012802124023,-1.2903075218200684,-2.18502140045166
1790267511385566000,0.25956591796875,1.8434839248657227,-1.7955138683319092,-1.3088204860687256
1790267511395566000,0.269566162109375,1.4357385635375977,-2.317309617996216,-0.8133901357650757
1790267511405566000,0.27956591796875,1.898111343383789,-1.7288061380386353,-0.5069328546524048
1790267511415566000,0.289566162109375,2.6257705688476562,-0.6778969764709473,-0.17640316486358643
1790267511425566000,0.29956591796875,2.8287878036499023,0.023977041244506836,-0.22572040557861328
1790267511435566000,0.309566162109375,2.420398712158203,0.0213167667388916,0.1021038293838501
1790267511445566000,0.31956591796875,2.00278377532959,-0.06779420375823975,0.9056022763252258
1790267511455566000,0.329566162109375,1.8036079406738281,0.08310830593109131,1.6717908382415771
1790267511465566000,0.33956591796875,1.8161211013793945,0.2637873888015747,2.1291422843933105
1790267511475566000,0.349566162109375,2.0615272521972656,0.3486546277999878,2.227482795715332
1790267511485566000,0.35956591796875,2.756699562072754,0.42164289951324463,1.8613035678863525
1790267511495566000,0.369566162109375,3.7213563919067383,0.5367069244384766,1.1968629360198975
1790267511505566000,0.37956591796875,4.5252685546875,0.6508462429046631,0.1486213207244873
1790267511515566000,0.389566162109375,4.165473937988281,0.36885499954223633,0.6065185070037842
1790267511525566000,0.39956591796875,0.8594608306884766,1.4411802291870117,2.676826238632202
1790267511535566000,0.409566162109375,-1.2518997192382812,3.8912553787231445,-1.8582241535186768
1790267511545566000,0.41956591796875,-1.634577751159668,3.9878323078155518,-4.494007110595703
1790267511555566000,0.429566162109375,-0.8601846694946289,2.1806352138519287,-4.211098670959473
1790267511565566000,0.43956591796875,0.28839874267578125,0.5296108722686768,-2.9866557121276855
1790267511575566000,0.449566162109375,1.527461051940918,-0.24627304077148438,-1.5563323497772217
1790267511585566000,0.45956591796875,2.601637840270996,-0.3288900852203369,-0.16431403160095215
1790267511595566000,0.469566162109375,3.113429069519043,-0.2617518901824951,0.7272124290466309
1790267511605566000,0.47956591796875,2.847402572631836,-0.14624285697937012,1.4648594856262207
1790267511615566000,0.489566162109375,2.4272708892822266,0.04594779014587402,1.4900896549224854
1790267511625566000,0.49956591796875,1.3910083770751953,0.2353804111480713,1.4501421451568604
1790267511635566000,0.509566162109375,-0.30197620391845703,-0.10376167297363281,0.5118632316589355
1790267511645566000,0.51956591796875,-1.5990190505981445,-0.17888092994689941,-0.30423808097839355
1790267511655566000,0.529566162109375,-1.951930046081543,0.1671309471130371,-0.8740425109863281
1790267511665566000,0.53956591796875,-1.6247787475585938,0.696774959564209,-1.0045201778411865
1790267511675566000,0.549566162109375,-0.9991273880004883,0.8806662559509277,-0.6813271045684814
1790267511685566000,0.55956591796875,-0.5036220550537109,0.5774269104003906,0.1709432601928711
1790267511695566000,0.569566162109375,0.11964893341064453,-0.09354209899902344,1.3526440858840942
1790267511705566000,0.57956591796875,0.6654853820800781,-0.7215597629547119,2.3636574745178223
1790267511715566000,0.589566162109375,0.4755105972290039,-0.9822242259979248,2.980832099914551
1790267511725566000,0.59956591796875,-0.23557662963867188,-0.6572446823120117,2.739132881164551
1790267511735566000,0.609566162109375,-1.382136344909668,-0.14930295944213867,1.847804069519043
1790267511745566000,0.61956591796875,-0.8099699020385742,0.15725421905517578,0.7375493049621582
1790267511755566000,0.629566162109375,0.44202709197998047,0.08005881309509277,0.26138925552368164
1790267511765566000,0.63956591796875,0.4949016571044922,-0.04320192337036133,-0.2041475772857666
1790267511775566000,0.649566162109375,1.5303144454956055,0.09911704063415527,-0.7184814214706421
1790267511785566000,0.65956591796875,2.402223587036133,0.10641837120056152,0.26664412021636963
1790267511795566000,0.669566162109375,2.620783805847168,-0.11710333824157715,1.6705583333969116
1790267511805566000,0.67956591796875,2.384161949157715,-0.6578097343444824,1.9865696430206299
1790267511815566000,0.689566162109375,2.9289989471435547,-1.1721265316009521,0.872208833694458
1790267511825566000,0.69956591796875,3.322751998901367,-0.951697826385498,-1.0766777992248535
1790267511835566000,0.709566162109375,3.3898706436157227,-1.0373811721801758,-1.7077484130859375
1790267511845566000,0.71956591796875,2.9598751068115234,-1.3331272602081299,-1.018416166305542
1790267511855566000,0.729566162109375,2.2347021102905273,-0.9985237121582031,-0.10601210594177246
1790267511865566000,0.73956591796875,1.5245189666748047,-0.5994572639465332,0.6214859485626221
1790267511875566000,0.749566162109375,0.16074275970458984,-0.4223966598510742,0.6651747226715088
1790267511885566000,0.75956591796875,-1.2981758117675781,-0.2233572006225586,0.06511163711547852
1790267511895566000,0.769566162109375,-2.0680971145629883,-0.6028871536254883,-0.7003412246704102
1790267511905566000,0.77956591796875,-0.888737678527832,-0.47935056686401367,-0.8268074989318848
1790267511915566000,0.789566162109375,-0.511591911315918,-0.9647228717803955,-0.7354979515075684
1790267511925566000,0.79956591796875,-0.5514678955078125,-1.0650742053985596,-0.4390292167663574
1790267511935566000,0.809566162109375,-1.158818244934082,-0.7321276664733887,-0.33481132984161377
1790267511945566000,0.81956591796875,-2.0914359092712402,-1.1859207153320312,0.496753454208374
1790267511955566000,0.829566162109375,-2.0969810485839844,-0.9073286056518555,0.4365074634552002
1790267511965566000,0.83956591796875,-2.3343143463134766,-0.9965157508850098,0.3671454191207886
1790267511975566000,0.849566162109375,-2.7714505195617676,-1.0668668746948242,0.6243152618408203
1790267511985566000,0.85956591796875,-2.8551530838012695,-1.4174165725708008,0.9236927628517151
1790267511995566000,0.869566162109375,-2.150857925415039,-1.2900950908660889,0.2905329465866089
1790267512005566000,0.87956591796875,-0.4695100784301758,-1.2909352779388428,0.2400379776954651
1790267512015566000,0.889566162109375,1.2331295013427734,-1.5030312538146973,0.8728024363517761
1790267512025566000,0.89956591796875,2.2829999923706055,-1.6783864498138428,1.2343031167984009
1790267512035566000,0.909566162109375,2.583889961242676,-2.368342876434326,0.7308183312416077
1790267512045566000,0.91956591796875,2.200662612915039,-3.0113680362701416,-0.020451486110687256
1790267512055566000,0.929566162109375,2.1469764709472656,-2.967432975769043,-0.7176851630210876
1790267512065566000,0.93956591796875,2.2302112579345703,-2.563366413116455,-1.3214046955108643
1790267512075566000,0.949566162109375,2.750701904296875,-2.396139621734619,-0.3101024627685547
1790267512085566000,0.95956591796875,2.4833898544311523,-2.7527647018432617,0.23426617681980133
1790267512095566000,0.969566162109375,1.0649700164794922,-3.0967464447021484,0.03656300902366638
1790267512105566000,0.97956591796875,0.6619701385498047,-2.9761123657226562,-0.8022288680076599
1790267512115566000,0.989566162109375,0.2400054931640625,-2.934115171432495,-1.444819450378418
1790267512125566000,0.99956591796875,-0.883967399597168,-2.9307045936584473,-1.9261202812194824
1790267512135566000,1.009566162109375,-2.2869768142700195,-3.493180751800537,-1.0996406078338623
1790267512145566000,1.01956591796875,-4.162809371948242,-4.883787631988525,1.7461879253387451
1790267512155566000,1.029566162109375,-4.1008782386779785,-2.829789400100708,0.36273193359375
1790267512165566000,1.03956591796875,-3.047781467437744,-0.5776586532592773,-1.5013854503631592
1790267512175566000,1.049566162109375,-1.799180507659912,0.6205992698669434,-2.3721959590911865
1790267512185566000,1.05956591796875,-1.1117596626281738,0.785222053527832,-1.598129391670227
1790267512195566000,1.069566162109375,-0.6730566024780273,0.33396148681640625,-0.46945059299468994
1790267512205566000,1.07956591796875,-0.6080150604248047,-0.11408710479736328,0.25092995166778564
1790267512215566000,1.089566162109375,-1.1143722534179688,-0.27399301528930664,0.5796012878417969
1790267512225566000,1.09956591796875,-1.9182109832763672,-0.39139795303344727,0.9038292169570923
1790267512235566000,1.109566162109375,-2.3961610794067383,-0.17542600631713867,1.3303629159927368
1790267512245566000,1.11956591796875,-2.6391501426696777,0.8928751945495605,1.3631006479263306
1790267512255566000,1.129566162109375,-3.1282811164855957,1.5219402313232422,1.8163957595825195
1790267512265566000,1.13956591796875,-3.8845391273498535,0.9298887252807617,2.961193799972534
1790267512275566000,1.149566162109375,-4.376967906951904,-0.22466087341308594,3.7197723388671875
1790267512285566000,1.15956591796875,-4.490986347198486,-0.9577598571777344,3.7562530040740967
1790267512295566000,1.169566162109375,-4.283297538757324,-1.1230580806732178,2.2257864475250244
1790267512305566000,1.17956591796875,-2.471017360687256,0.035161495208740234,-1.3474736213684082
1790267512315566000,1.189566162109375,-1.816380500793457,0.9529907703399658,-2.838364362716675
1790267512325566000,1.19956591796875,-2.7352118492126465,0.541386604309082,-1.6433367729187012
1790267512335566000,1.209566162109375,-3.5594897270202637,-0.2069697380065918,-0.016257286071777344
1790267512345566000,1.21956591796875,-2.6881422996520996,-0.6808567047119141,0.987208366394043
1790267512355566000,1.229566162109375,-0.605954647064209,-1.1971707344055176,1.661116600036621
1790267512365566000,1.23956591796875,0.4346938133239746,-1.7535804510116577,1.6962590217590332
1790267512375566000,1.249566162109375,0.7498884201049805,-2.3238162994384766,1.541841983795166
1790267512385566000,1.25956591796875,0.2883744239807129,-2.434349775314331,1.0329527854919434
1790267512395566000,1.269566162109375,-1.300765037536621,-1.328382968902588,0.6158113479614258
1790267512405566000,1.27956591796875,-3.672858476638794,0.3115222454071045,0.32401561737060547
1790267512415566000,1.289566162109375,-5.381638526916504,0.9747409820556641,-0.7367167472839355
1790267512425566000,1.29956591796875,-5.811388969421387,0.20659410953521729,-0.5876293182373047
1790267512435566000,1.309566162109375,-4.030535697937012,-1.1623456478118896,2.2418980598449707
1790267512445566000,1.31956591796875,0.7102210521697998,-2.374638557434082,5.236879348754883
1790267512455566000,1.329566162109375,5.281996250152588,-2.6281538009643555,5.306155204772949
1790267512465566000,1.33956591796875,7.103979110717773,-3.2049007415771484,4.209230422973633
1790267512475566000,1.349566162109375,6.383671283721924,-3.423327922821045,2.4363574981689453
1790267512485566000,1.35956591796875,3.57639479637146,-3.3258535861968994,0.9247655868530273
1790267512495566000,1.369566162109375,-0.04681861400604248,-2.6413657665252686,-0.49059391021728516
1790267512505566000,1.37956591796875,-3.240344524383545,-1.5666778087615967,-1.4091367721557617
1790267512515566000,1.389566162109375,-5.370547771453857,-1.7080180644989014,-0.7152853012084961
1790267512525566000,1.39956591796875,-5.987271785736084,-2.544408082962036,1.8155241012573242
1790267512535566000,1.409566162109375,-4.4970526695251465,-2.647456169128418,5.554786682128906
1790267512545566000,1.41956591796875,-1.501133918762207,-2.274568557739258,8.401811599731445
1790267512555566000,1.429566162109375,2.296539306640625,-2.12058162689209,8.16995620727539
1790267512565566000,1.43956591796875,4.135415077209473,-1.7365407943725586,5.80756950378418
1790267512575566000,1.449566162109375,4.702765464782715,-1.3971142768859863,3.0258731842041016
1790267512585566000,1.45956591796875,3.76888108253479,-1.0616214275360107,1.7188758850097656
1790267512595566000,1.469566162109375,2.144709825515747,-0.36563587188720703,2.9961633682250977
1790267512605566000,1.47956591796875,1.1830884218215942,0.39209413528442383,6.344408988952637
1790267512615566000,1.489566162109375,0.9317038059234619,1.1613366603851318,9.146718978881836
1790267512625566000,1.49956591796875,1.3896453380584717,2.1997897624969482,10.600381851196289
1790267512635566000,1.509566162109375,1.6946852207183838,3.4415602684020996,11.53574275970459
1790267512645566000,1.51956591796875,1.2972972393035889,4.583916664123535,11.928848266601562
1790267512655566000,1.529566162109375,1.252661943435669,5.082163333892822,11.642406463623047
1790267512665566000,1.53956591796875,1.5227439403533936,4.920441627502441,10.557170867919922
1790267512675566000,1.549566162109375,2.2112338542938232,4.770874977111816,8.81827163696289
1790267512685566000,1.55956591796875,1.8964624404907227,5.005241870880127,7.3067522048950195
1790267512695566000,1.569566162109375,1.2106648683547974,5.054200172424316,6.549062728881836
1790267512705566000,1.57956591796875,1.0730502605438232,4.996750354766846,5.810900688171387
1790267512715566000,1.589566162109375,1.2145295143127441,4.905133247375488,4.564205169677734
1790267512725566000,1.59956591796875,0.7073967456817627,4.894140243530273,3.833540916442871
1790267512735566000,1.609566162109375,-0.44732666015625,5.176344871520996,4.773639678955078
1790267512745566000,1.61956591796875,-0.9217844009399414,5.287848472595215,5.460907936096191
1790267512755566000,1.629566162109375,-0.8783864974975586,5.308046817779541,5.918482780456543
1790267512765566000,1.63956591796875,-1.0761160850524902,5.705672264099121,6.001397132873535
1790267512775566000,1.649566162109375,-1.825984239578247,5.823122501373291,5.366209030151367
1790267512785566000,1.65956591796875,-3.370415687561035,5.6540985107421875,5.37764835357666
1790267512795566000,1.669566162109375,-4.556560039520264,5.235936164855957,5.009027481079102
1790267512805566000,1.67956591796875,-4.429594039916992,4.526149749755859,3.070467948913574
1790267512815566000,1.689566162109375,-3.421400547027588,3.98917818069458,0.15947437286376953
1790267512825566000,1.69956591796875,-2.4604382514953613,3.4755172729492188,-2.8858108520507812
1790267512835566000,1.709566162109375,-2.1041383743286133,2.828205108642578,-4.375844955444336
1790267512845566000,1.71956591796875,-2.6579203605651855,2.004714012145996,-5.467256546020508
1790267512855566000,1.729566162109375,-2.2436413764953613,1.5073771476745605,-6.948286056518555
1790267512865566000,1.73956591796875,-0.6902713775634766,0.7550212144851685,-6.799467086791992
1790267512875566000,1.749566162109375,0.2612314224243164,-0.974368691444397,-7.287952423095703
1790267512885566000,1.75956591796875,2.176841974258423,-1.6916465759277344,-8.862116813659668
1790267512895566000,1.769566162109375,3.7963638305664062,-1.9415175914764404,-8.85107707977295
1790267512905566000,1.77956591796875,2.443577289581299,-1.3987590074539185,-8.250788688659668
1790267512915566000,1.789566162109375,-2.223207473754883,-0.03106093406677246,-6.973341464996338
1790267512925566000,1.79956591796875,-2.8076138496398926,0.39751291275024414,-5.757440567016602
1790267512935566000,1.809566162109375,-2.444058895111084,-2.286489486694336,-6.850208282470703
1790267512945566000,1.81956591796875,-2.4316110610961914,-2.753842353820801,-8.80383586883545
1790267512955566000,1.829566162109375,-2.188788890838623,-3.4078147411346436,-8.28792953491211
1790267512965566000,1.83956591796875,-0.8628792762756348,-4.393269062042236,-4.777207374572754
1790267512975566000,1.849566162109375,0.5158872604370117,-3.7232160568237305,-3.5661282539367676
1790267512985566000,1.85956591796875,-0.2877650260925293,-2.6962828636169434,-3.1977739334106445
1790267512995566000,1.869566162109375,-1.001265048980713,-1.297987937927246,0.9841609001159668
1790267513005566000,1.87956591796875,-3.358442783355713,-1.2986522912979126,8.555716514587402
1790267513015566000,1.889566162109375,-3.538571834564209,0.40540921688079834,10.394371032714844
1790267513025566000,1.89956591796875,-2.7954459190368652,1.2565534114837646,10.58683967590332
1790267513035566000,1.909566162109375,-1.7805533409118652,1.378045678138733,9.918601036071777
1790267513045566000,1.91956591796875,-0.950070858001709,1.3290324211120605,9.004592895507812
1790267513055566000,1.929566162109375,-0.06812858581542969,1.112081527709961,9.023012161254883
1790267513065566000,1.93956591796875,-0.4174947738647461,-0.47462642192840576,8.879769325256348
1790267513075566000,1.949566162109375,1.6478495597839355,-1.3381470441818237,7.788259029388428
1790267513085566000,1.95956591796875,1.6023821830749512,-2.2179527282714844,6.770468711853027
1790267513095566000,1.969566162109375,1.5609874725341797,-2.6363813877105713,4.782131671905518
1790267513105566000,1.97956591796875,1.063849925994873,-2.773392677307129,2.528463840484619
1790267513115566000,1.989566162109375,1.9885187149047852,-1.4490060806274414,1.400123119354248
1790267513125566000,1.99956591796875,1.6015691757202148,-3.7995190620422363,-3.198112964630127
1790267513135566000,2.009566162109375,2.5685715675354004,-5.584237098693848,-6.738901138305664
1790267513145566000,2.01956591796875,2.228936195373535,-6.42283821105957,-7.635885715484619
1790267513155566000,2.029566162109375,1.6511859893798828,-5.242025375366211,-5.4195098876953125
1790267513165566000,2.03956591796875,1.7579741477966309,-5.192668914794922,-6.469696044921875
1790267513175566000,2.049566162109375,1.2948360443115234,-4.009042739868164,-6.8391900062561035
1790267513185566000,2.05956591796875,1.435035228729248,-1.7924789190292358,-5.6630353927612305
1790267513195566000,2.069566162109375,1.5537700653076172,-0.10786688327789307,-4.087672233581543
1790267513205566000,2.07956591796875,0.577599048614502,-0.29937732219696045,-3.4486570358276367
1790267513215566000,2.089566162109375,-1.482095718383789,-1.251461148262024,-2.6952273845672607
1790267513225566000,2.09956591796875,-3.6457276344299316,-2.43471097946167,-1.846358060836792
1790267513235566000,2.109566162109375,-3.4351158142089844,-2.828773260116577,-1.2720003128051758
1790267513245566000,2.11956591796875,-1.517221450805664,-2.3726119995117188,-1.66074800491333
1790267513255566000,2.129566162109375,0.26916027069091797,-1.430607795715332,-2.9256536960601807
1790267513265566000,2.13956591796875,1.3591041564941406,-1.0759505033493042,-3.436638355255127
1790267513275566000,2.149566162109375,1.4057302474975586,-1.0029890537261963,-3.4194185733795166
1790267513285566000,2.15956591796875,0.5403833389282227,-1.058281660079956,-2.605499267578125
1790267513295566000,2.169566162109375,-0.9140410423278809,-0.8543198108673096,-0.6746244430541992
1790267513305566000,2.17956591796875,-1.965075969696045,0.08522605895996094,2.372015953063965
1790267513315566000,2.189566162109375,-1.2011489868164062,0.26879382133483887,4.540281772613525
1790267513325566000,2.19956591796875,0.1761155128479004,-0.3210721015930176,5.2297210693359375
1790267513335566000,2.209566162109375,0.5193819999694824,-0.20166611671447754,7.315853118896484
1790267513345566000,2.21956591796875,0.12394237518310547,0.9022161960601807,8.046838760375977
1790267513355566000,2.229566162109375,-2.3867454528808594,2.491061210632324,8.032747268676758
1790267513365566000,2.23956591796875,-4.316826820373535,2.5453248023986816,6.056362628936768
1790267513375566000,2.249566162109375,-3.662662982940674,2.524604320526123,2.9782204627990723
1790267513385566000,2.25956591796875,-2.701467514038086,2.470032215118408,0.661778450012207
1790267513395566000,2.269566162109375,-2.3943347930908203,2.3475587368011475,0.05778837203979492
1790267513405566000,2.27956591796875,-3.261916160583496,2.811737537384033,0.765261173248291
1790267513415566000,2.289566162109375,-3.665045738220215,2.7424731254577637,0.6154403686523438
1790267513425566000,2.29956591796875,-2.6908535957336426,1.828379511833191,-0.5379819869995117
1790267513435566000,2.309566162109375,-0.8647603988647461,1.0078415870666504,-1.4076805114746094
1790267513445566000,2.31956591796875,-0.3620753288269043,0.14855420589447021,-0.8877172470092773
1790267513455566000,2.329566162109375,-0.42925167083740234,-0.8993785381317139,0.3128657341003418
1790267513465566000,2.33956591796875,-0.715583324432373,-1.6254059076309204,1.1593451499938965
1790267513475566000,2.349566162109375,-0.3218069076538086,-1.2637304067611694,1.706047534942627
1790267513485566000,2.35956591796875,0.3027009963989258,-0.9609701633453369,1.2372002601623535
1790267513495566000,2.369566162109375,1.7636666297912598,-0.35748136043548584,0.25473737716674805
1790267513505566000,2.37956591796875,1.7663860321044922,0.8520697355270386,-0.9643516540527344
1790267513515566000,2.389566162109375,2.384012222290039,1.965773582458496,-1.497507095336914
1790267513525566000,2.39956591796875,5.0668134689331055,1.729339361190796,-2.8857383728027344
1790267513535566000,2.409566162109375,5.642837047576904,0.591144859790802,-3.015455722808838
1790267513545566000,2.41956591796875,4.536896705627441,0.06173783540725708,-2.413466453552246
1790267513555566000,2.429566162109375,3.0655598640441895,-0.0808292031288147,-1.8851213455200195
1790267513565566000,2.43956591796875,1.161116123199463,1.4664394855499268,-2.0998544692993164
1790267513575566000,2.449566162109375,1.1952366828918457,2.5818397998809814,-2.655864715576172
1790267513585566000,2.45956591796875,2.5215115547180176,2.852022886276245,-2.5180253982543945
1790267513595566000,2.469566162109375,3.1649014949798584,2.5313947200775146,-1.4952964782714844
1790267513605566000,2.47956591796875,3.3090322017669678,1.9240765571594238,0.3828721046447754
1790267513615566000,2.489566162109375,2.588719367980957,0.9547652006149292,2.363347053527832
1790267513625566000,2.49956591796875,1.4388628005981445,-0.7466863989830017,3.5826196670532227
1790267513635566000,2.509566162109375,-0.8494901657104492,-2.70529842376709,3.9251112937927246
1790267513645566000,2.51956591796875,-3.5489964485168457,-4.656515598297119,2.4683151245117188
1790267513655566000,2.529566162109375,-3.7805495262145996,-5.811790943145752,0.46836280822753906
1790267513665566000,2.53956591796875,-1.0875701904296875,-5.125056266784668,-0.6358213424682617
1790267513675566000,2.549566162109375,1.3624019622802734,-3.685025215148926,-1.4115629196166992
1790267513685566000,2.55956591796875,-0.26415109634399414,-3.1470794677734375,-2.5091910362243652
1790267513695566000,2.569566162109375,-3.116166591644287,-2.6836650371551514,-2.9176454544067383
1790267513705566000,2.57956591796875,-4.426588535308838,-2.0322041511535645,-1.9190492630004883
1790267513715566000,2.589566162109375,-3.67503023147583,-1.614230751991272,0.04143667221069336
1790267513725566000,2.59956591796875,-2.324626922607422,-1.4989737272262573,1.310227394104004
1790267513735566000,2.609566162109375,-1.7701797485351562,-1.9055161476135254,2.2686853408813477
1790267513745566000,2.61956591796875,-1.2602691650390625,-2.2652320861816406,2.0913143157958984
1790267513755566000,2.629566162109375,-0.4601631164550781,-2.4220452308654785,1.2441034317016602
1790267513765566000,2.63956591796875,0.43529319763183594,-2.1706387996673584,0.5180268287658691
1790267513775566000,2.649566162109375,0.6210289001464844,-1.8825087547302246,-0.29509544372558594
1790267513785566000,2.65956591796875,0.7506542205810547,-1.510655164718628,-1.3305845260620117
1790267513795566000,2.669566162109375,1.0232911109924316,-1.2178131341934204,-2.115312099456787
1790267513805566000,2.67956591796875,1.1732540130615234,-1.1816214323043823,-3.0740480422973633
1790267513815566000,2.689566162109375,1.0936942100524902,-1.1289767026901245,-3.433096408843994
1790267513825566000,2.69956591796875,1.6059789657592773,-0.6846538186073303,-3.0405831336975098
1790267513835566000,2.709566162109375,1.895071029663086,-0.7542482614517212,-2.91322922706604
1790267513845566000,2.71956591796875,0.7813658714294434,-1.49259352684021,-3.156404495239258
1790267513855566000,2.729566162109375,-0.12003850936889648,-1.5708632469177246,-2.327815532684326
1790267513865566000,2.73956591796875,0.16585111618041992,-1.3082959651947021,-1.630195140838623
1790267513875566000,2.749566162109375,0.4782829284667969,-1.1497526168823242,-2.0805771350860596
1790267513885566000,2.75956591796875,0.5506291389465332,-0.7046105265617371,-2.2504587173461914
1790267513895566000,2.769566162109375,-0.10312175750732422,-0.33901911973953247,-1.974867820739746
1790267513905566000,2.77956591796875,0.07701730728149414,-0.08760619163513184,-1.4935111999511719
1790267513915566000,2.789566162109375,0.07511377334594727,0.36101508140563965,-1.0133628845214844
1790267513925566000,2.79956591796875,-0.3545374870300293,0.6062599420547485,-0.8829312324523926
1790267513935566000,2.809566162109375,-0.17930078506469727,0.6071165800094604,-0.985558032989502
1790267513945566000,2.81956591796875,0.049243927001953125,0.5681953430175781,-1.0862321853637695
1790267513955566000,2.829566162109375,0.10447931289672852,0.553855299949646,-0.6683716773986816
1790267513965566000,2.83956591796875,0.46622562408447266,0.5588432550430298,-0.12235212326049805
1790267513975566000,2.849566162109375,0.8551688194274902,0.48015737533569336,-0.019508838653564453
1790267513985566000,2.85956591796875,1.1113429069519043,1.3545594215393066,0.3154606819152832
1790267513995566000,2.869566162109375,0.7623791694641113,1.6546684503555298,0.1749897003173828
1790267514005566000,2.87956591796875,0.8168783187866211,1.438239574432373,-0.16298294067382812
1790267514015566000,2.889566162109375,1.3903822898864746,1.4092862606048584,-0.2961153984069824
1790267514025566000,2.89956591796875,1.117973804473877,1.3498938083648682,-0.626288890838623
1790267514035566000,2.909566162109375,0.5889320373535156,1.3694779872894287,-0.9474563598632812
1790267514045566000,2.91956591796875,1.1780524253845215,1.5024347305297852,-0.9576549530029297
1790267514055566000,2.929566162109375,1.3258261680603027,1.1468623876571655,-1.0428886413574219
1790267514065566000,2.93956591796875,0.46992015838623047,1.209130048751831,-0.9207010269165039
1790267514075566000,2.949566162109375,0.32163095474243164,1.625941514968872,-0.7044034004211426
1790267514085566000,2.95956591796875,0.6663026809692383,1.5872294902801514,-0.9222478866577148
1790267514095566000,2.969566162109375,1.0713515281677246,1.3623508214950562,-0.9563202857971191
1790267514105566000,2.97956591796875,1.262087345123291,0.9653340578079224,-0.992408275604248
1790267514115566000,2.989566162109375,1.2410335540771484,0.7849262952804565,-0.9991707801818848
1790267514125566000,2.99956591796875,1.514796257019043,1.072292447090149,-0.9320197105407715
1790267514135566000,3.009566162109375,0.7504973411560059,1.4113867282867432,-0.28029632568359375
1790267514145566000,3.01956591796875,0.018448352813720703,1.46244478225708,0.11768484115600586
1790267514155566000,3.029566162109375,-0.003756999969482422,1.297743320465088,0.24394464492797852
1790267514165566000,3.03956591796875,-0.06137418746948242,1.2695369720458984,0.3567032814025879
1790267514175566000,3.049566162109375,0.013885498046875,1.263575553894043,0.5635576248168945
1790267514185566000,3.05956591796875,0.5213346481323242,2.1694581508636475,0.37639951705932617
1790267514195566000,3.069566162109375,0.41911983489990234,1.8174750804901123,0.9888710975646973
1790267514205566000,3.07956591796875,0.292724609375,1.5736629962921143,1.2178411483764648
1790267514215566000,3.089566162109375,0.9953866004943848,1.7310479879379272,1.5622749328613281
1790267514225566000,3.09956591796875,1.3159070014953613,1.765619158744812,1.4484739303588867
1790267514235566000,3.109566162109375,1.3187379837036133,1.3695189952850342,1.1154308319091797
1790267514245566000,3.11956591796875,1.0739827156066895,0.4731781482696533,0.7452163696289062
1790267514255566000,3.129566162109375,0.640812873840332,-1.3359031677246094,0.4203376770019531
1790267514265566000,3.13956591796875,-0.1271524429321289,-2.3809478282928467,1.4361863136291504
1790267514275566000,3.149566162109375,0.23899221420288086,-2.0614118576049805,1.5110139846801758
1790267514285566000,3.15956591796875,0.8023324012756348,-1.2260589599609375,0.4325237274169922
1790267514295566000,3.169566162109375,1.3986568450927734,-0.6442830562591553,0.3478074073791504
1790267514305566000,3.17956591796875,1.4685473442077637,-0.44115424156188965,1.085249900817871
1790267514315566000,3.189566162109375,1.1300201416015625,-0.41335248947143555,1.7569146156311035
1790267514325566000,3.19956591796875,1.1476187705993652,-0.46926283836364746,1.4271693229675293
1790267514335566000,3.209566162109375,0.9456405639648438,-0.6982085704803467,0.7410244941711426
1790267514345566000,3.21956591796875,1.227755069732666,-0.687321662902832,0.5178189277648926
1790267514355566000,3.229566162109375,1.2157626152038574,-0.5382614135742188,0.5385293960571289
1790267514365566000,3.23956591796875,1.4315428733825684,-0.6720700263977051,0.5157537460327148
1790267514375566000,3.249566162109375,1.7249107360839844,-0.6566505432128906,0.6352438926696777
1790267514385566000,3.25956591796875,0.8832621574401855,-0.4683961868286133,0.977637767791748
1790267514395566000,3.269566162109375,-0.0010471343994140625,0.02214813232421875,1.595616340637207
1790267514405566000,3.27956591796875,-0.3913736343383789,0.5840091705322266,2.978731632232666
1790267514415566000,3.289566162109375,-0.9576883316040039,1.413642406463623,4.028477668762207
1790267514425566000,3.29956591796875,-4.515187740325928,6.515546798706055,2.941333770751953
1790267514435566000,3.309566162109375,-2.200629234313965,8.358631134033203,4.018489837646484
1790267514445566000,3.31956591796875,1.98931884765625,8.656278610229492,2.141213893890381
1790267514455566000,3.329566162109375,3.6754188537597656,9.073335647583008,-1.3746304512023926
1790267514465566000,3.33956591796875,5.548732757568359,7.268141746520996,-2.310554265975952
1790267514475566000,3.349566162109375,7.2879557609558105,3.9419784545898438,-3.350473642349243
1790267514485566000,3.35956591796875,7.6436052322387695,-0.8406634330749512,-4.128256797790527
1790267514495566000,3.369566162109375,5.735775470733643,-4.182122707366943,-3.4996120929718018
1790267514505566000,3.37956591796875,3.1737358570098877,-5.298819541931152,-3.1119158267974854
1790267514515566000,3.389566162109375,1.4742650985717773,-3.8594841957092285,-3.7337470054626465
1790267514525566000,3.39956591796875,0.5837149620056152,-3.0588340759277344,-2.125926971435547
1790267514535566000,3.409566162109375,0.9977154731750488,-1.7650561332702637,0.16739463806152344
1790267514545566000,3.41956591796875,1.0124354362487793,0.07410240173339844,0.9620480537414551
1790267514555566000,3.429566162109375,1.3770489692687988,0.3574066162109375,0.3743753433227539
1790267514565566000,3.43956591796875,1.4639432430267334,-0.1599264144897461,0.3603358268737793
1790267514575566000,3.449566162109375,0.98514723777771,-0.051802635192871094,1.1674180030822754
1790267514585566000,3.45956591796875,0.38295769691467285,-1.1912145614624023,1.3051810264587402
1790267514595566000,3.469566162109375,-1.0077235698699951,-4.647111892700195,-0.7783761024475098
1790267514605566000,3.47956591796875,-2.2000741958618164,-5.941145896911621,-4.188173294067383
1790267514615566000,3.489566162109375,-2.7101359367370605,-6.287066459655762,-5.487077713012695
1790267514625566000,3.49956591796875,-2.886568546295166,-7.924245834350586,-4.830619812011719
1790267514635566000,3.509566162109375,-0.36846256256103516,-8.034422874450684,-3.491225242614746
1790267514645566000,3.51956591796875,1.7903997898101807,-9.11380386352539,-0.8195907473564148
1790267514655566000,3.529566162109375,1.6323530673980713,-8.228556632995605,1.446556568145752
1790267514665566000,3.53956591796875,-0.0843801498413086,-6.114908218383789,2.2965378761291504
1790267514675566000,3.549566162109375,-1.8416345119476318,-5.079292297363281,2.497007369995117
1790267514685566000,3.55956591796875,-0.9376165866851807,-4.200665473937988,1.7253272533416748
1790267514695566000,3.569566162109375,-0.5097346305847168,-3.4331750869750977,0.3360483646392822
1790267514705566000,3.57956591796875,-1.5450403690338135,-2.318979263305664,-1.3860721588134766
1790267514715566000,3.589566162109375,-2.6558353900909424,-1.7705087661743164,-2.432243824005127
1790267514725566000,3.59956591796875,-2.3651106357574463,-1.781881332397461,-2.303678512573242
1790267514735566000,3.609566162109375,-0.800260066986084,-1.747452735900879,-1.418304443359375
1790267514745566000,3.61956591796875,1.006505012512207,-1.5131769180297852,-0.3890317678451538
1790267514755566000,3.629566162109375,2.04781436920166,-0.994318962097168,0.3627166748046875
1790267514765566000,3.63956591796875,2.1027650833129883,0.2756023406982422,0.8986186981201172
1790267514775566000,3.649566162109375,0.9597220420837402,1.8293123245239258,0.6684191226959229
1790267514785566000,3.65956591796875,-0.47277379035949707,4.114569664001465,-0.21204805374145508
1790267514795566000,3.669566162109375,0.6956723928451538,3.6018242835998535,1.8550351858139038
1790267514805566000,3.67956591796875,1.1850676536560059,2.584514617919922,1.7924258708953857
1790267514815566000,3.689566162109375,0.3462648391723633,1.1275510787963867,-0.24532675743103027
1790267514825566000,3.69956591796875,-1.2000620365142822,0.09274101257324219,-1.393136978149414
1790267514835566000,3.709566162109375,-1.3456019163131714,-0.3506336212158203,-1.4221649169921875
1790267514845566000,3.71956591796875,-0.03147685527801514,-0.23840618133544922,-0.8818994760513306
1790267514855566000,3.729566162109375,-1.1390516757965088,0.156951904296875,-0.19512605667114258
1790267514865566000,3.73956591796875,-2.02280592918396,0.03751850128173828,1.2042466402053833
1790267514875566000,3.749566162109375,2.812047243118286,-1.131887435913086,1.683118224143982
1790267514885566000,3.75956591796875,2.850013256072998,-0.6386508941650391,0.5518302917480469
1790267514895566000,3.769566162109375,-0.004235982894897461,0.23970508575439453,-0.692310094833374
1790267514905566000,3.77956591796875,0.4154132604598999,1.0237388610839844,-1.3596621751785278
1790267514915566000,3.789566162109375,2.120725631713867,2.3431601524353027,-0.7651956081390381
1790267514925566000,3.79956591796875,2.3908896446228027,3.0636630058288574,0.8834340572357178
1790267514935566000,3.809566162109375,0.5750848054885864,2.411965847015381,2.577554941177368
1790267514945566000,3.81956591796875,-1.916054129600525,0.43477916717529297,3.212205648422241
1790267514955566000,3.829566162109375,-2.924823045730591,-1.0036792755126953,2.3815667629241943
1790267514965566000,3.83956591796875,-2.297236919403076,-1.1465425491333008,0.9282827377319336
1790267514975566000,3.849566162109375,-1.5543874502182007,-0.26384639739990234,-0.1801152229309082
1790267514985566000,3.85956591796875,-0.5191296339035034,0.9930448532104492,-0.6470044851303101
1790267514995566000,3.869566162109375,1.8029506206512451,2.0135087966918945,-0.250105619430542
1790267515005566000,3.87956591796875,3.366077423095703,1.5506701469421387,0.10331416130065918
1790267515015566000,3.889566162109375,4.858155727386475,0.36202049255371094,0.03027653694152832
1790267515025566000,3.89956591796875,5.304134368896484,-0.3215675354003906,-1.2882837057113647
1790267515035566000,3.909566162109375,2.942563056945801,-1.3505544662475586,-2.9996557235717773
1790267515045566000,3.91956591796875,-1.70421302318573,-2.7128171920776367,-2.800210475921631
1790267515055566000,3.929566162109375,-5.3291215896606445,-3.276169776916504,-1.8674077987670898
1790267515065566000,3.93956591796875,-5.89646053314209,-2.490154266357422,-0.9367983341217041
1790267515075566000,3.949566162109375,-4.32236909866333,-1.156874656677246,-0.15882611274719238
1790267515085566000,3.95956591796875,-2.984973907470703,-0.9896020889282227,-0.6166198253631592
1790267515095566000,3.969566162109375,1.7513971328735352,-0.624638557434082,-1.4842040538787842
1790267515105566000,3.97956591796875,3.3459839820861816,-2.7590389251708984,-1.8974817991256714
1790267515115566000,3.989566162109375,2.8831210136413574,-2.5832576751708984,-1.8027536869049072
1790267515125566000,3.99956591796875,0.6534608006477356,-1.8355379104614258,-1.2441520690917969
1790267515135566000,4.009566162109375,0.9760761260986328,-1.2503528594970703,-0.8727805614471436
1790267515145566000,4.01956591796875,1.288093090057373,0.2775850296020508,-0.9337501525878906
1790267515155566000,4.029566162109375,2.742553234100342,1.1070308685302734,-1.323859691619873
1790267515165566000,4.03956591796875,-1.4951237440109253,-1.434006690979004,-1.1842076778411865
1790267515175566000,4.049566162109375,-1.8754287958145142,-0.20751285552978516,-1.8891363143920898
1790267515185566000,4.05956591796875,0.4299328923225403,0.1754589080810547,-1.4900926351547241
1790267515195566000,4.069566162109375,1.295914649963379,-0.17795944213867188,-1.2127442359924316
1790267515205566000,4.07956591796875,0.25067609548568726,0.3831768035888672,-0.7990382313728333
1790267515215566000,4.089566162109375,0.8869728446006775,1.0447816848754883,-0.7095654010772705
1790267515225566000,4.09956591796875,1.2747690677642822,1.1699590682983398,-0.9299029111862183
1790267515235566000,4.109566162109375,1.7188159227371216,-0.2615833282470703,-1.6676909923553467
1790267515245566000,4.11956591796875,0.4144453704357147,-2.5364303588867188,-2.505903482437134
1790267515255566000,4.129566162109375,-1.6350096464157104,-2.6923980712890625,-2.1588287353515625
1790267515265566000,4.13956591796875,-2.67789363861084,-1.7764654159545898,-0.9797325134277344
1790267515275566000,4.149566162109375,-4.040947437286377,-1.5308265686035156,-0.4450531005859375
1790267515285566000,4.15956591796875,-3.4932363033294678,-1.9100141525268555,-0.46251368522644043
1790267515295566000,4.169566162109375,-1.4357627630233765,-1.3784093856811523,0.18172526359558105
1790267515305566000,4.17956591796875,-0.048770710825920105,0.21504497528076172,0.6387560367584229
1790267515315566000,4.189566162109375,1.3695156574249268,1.8615436553955078,1.077591896057129
1790267515325566000,4.19956591796875,1.1386405229568481,3.214296340942383,1.8650360107421875
1790267515335566000,4.209566162109375,0.1283222734928131,3.349720001220703,2.0422139167785645
1790267515345566000,4.21956591796875,0.2236621081829071,2.553565502166748,2.0107550621032715
1790267515355566000,4.229566162109375,1.0622131824493408,2.0614256858825684,1.829235315322876
1790267515365566000,4.23956591796875,1.4606834650039673,1.8656859397888184,1.1013565063476562
1790267515375566000,4.249566162109375,1.7050625085830688,1.9345731735229492,-0.02906966209411621
1790267515385566000,4.25956591796875,1.0713188648223877,1.8390183448791504,-0.9771162271499634
1790267515395566000,4.269566162109375,-0.21844559907913208,1.66068696975708,-1.638015627861023
1790267515405566000,4.27956591796875,-0.699970543384552,1.4196453094482422,-1.844066858291626
1790267515415566000,4.289566162109375,-0.2969713509082794,0.9315004348754883,-1.414036512374878
1790267515425566000,4.29956591796875,0.022150248289108276,-0.34076786041259766,-0.5204505920410156
1790267515435566000,4.309566162109375,-0.020984411239624023,0.7722148895263672,0.20963096618652344
1790267515445566000,4.31956591796875,-0.15168693661689758,0.6320915222167969,0.739682674407959
1790267515455566000,4.329566162109375,-0.10593381524085999,-0.3515787124633789,0.6405093669891357
1790267515465566000,4.33956591796875,0.17169272899627686,-1.3837299346923828,-0.14932680130004883
1790267515475566000,4.349566162109375,0.8159559369087219,-2.081562042236328,-0.4114689826965332
1790267515485566000,4.35956591796875,1.2693140506744385,-2.3621444702148438,-0.4601156711578369
1790267515495566000,4.369566162109375,1.1092259883880615,-2.3037471771240234,-1.1454851627349854
1790267515505566000,4.37956591796875,0.5650374293327332,-1.844191551208496,-1.5907623767852783
1790267515515566000,4.389566162109375,-0.2526514530181885,-1.5349788665771484,-1.7220137119293213
1790267515525566000,4.39956591796875,-0.911738395690918,-1.8001699447631836,-2.0453872680664062
1790267515535566000,4.409566162109375,-0.7295652627944946,-1.7108383178710938,-1.7194771766662598
1790267515545566000,4.41956591796875,0.047739267349243164,-0.2945823669433594,-1.395298957824707
1790267515555566000,4.429566162109375,0.13447332382202148,0.9254131317138672,-1.1344741582870483
1790267515565566000,4.43956591796875,0.08196461200714111,0.7928543090820312,-0.5220615863800049
1790267515575566000,4.449566162109375,0.5192302465438843,0.932347297668457,0.40358829498291016
1790267515585566000,4.45956591796875,0.1353839635848999,0.8035402297973633,1.5909950733184814
1790267515595566000,4.469566162109375,-0.2774507999420166,0.2324209213256836,1.720062494277954
1790267515605566000,4.47956591796875,-0.7634481191635132,-0.961369514465332,0.69936203956604
1790267515615566000,4.489566162109375,-0.5653170347213745,-1.8860759735107422,-0.5727851390838623
1790267515625566000,4.49956591796875,-0.10932731628417969,-1.4633941650390625,-0.7207081317901611
1790267515635566000,4.509566162109375,0.3985929489135742,-0.23412704467773438,-0.03313016891479492
1790267515645566000,4.51956591796875,0.29448676109313965,0.8342065811157227,0.6457934379577637
1790267515655566000,4.529566162109375,0.11402547359466553,0.8249788284301758,0.5058062076568604
1790267515665566000,4.53956591796875,-0.26257753372192383,0.10530662536621094,-0.028179407119750977
1790267515675566000,4.549566162109375,-0.1800518035888672,-1.0906400680541992,-0.9172205924987793
1790267515685566000,4.55956591796875,0.48621666431427,-1.8015689849853516,-0.7548017501831055
1790267515695566000,4.569566162109375,0.05839383602142334,-1.916274070739746,-1.0431678295135498
1790267515705566000,4.57956591796875,-0.13392090797424316,-1.7469673156738281,-1.4806194305419922
1790267515715566000,4.589566162109375,0.0009307861328125,-1.3996248245239258,-1.5984622240066528
1790267515725566000,4.59956591796875,0.09222638607025146,-1.0711431503295898,-1.4346461296081543
1790267515735566000,4.609566162109375,0.54659104347229,-0.9494266510009766,-1.4753711223602295
1790267515745566000,4.61956591796875,0.9725369811058044,-0.8857564926147461,-1.429835557937622
1790267515755566000,4.629566162109375,1.6726229190826416,-0.7314949035644531,-1.3007919788360596
1790267515765566000,4.63956591796875,2.117208480834961,-0.2774772644042969,-1.277679204940796
1790267515775566000,4.649566162109375,1.9513421058654785,0.15508174896240234,-1.3254387378692627
1790267515785566000,4.65956591796875,2.422375440597534,0.5885019302368164,-0.9053890705108643
1790267515795566000,4.669566162109375,2.2911252975463867,0.8533687591552734,-0.6256649494171143
1790267515805566000,4.67956591796875,0.17582285404205322,0.8910598754882812,-0.4129374027252197
1790267515815566000,4.689566162109375,-2.3433620929718018,0.8069295883178711,0.23069119453430176
1790267515825566000,4.69956591796875,-3.0019044876098633,0.46547508239746094,0.9455125331878662
1790267515835566000,4.709566162109375,-1.9006972312927246,0.18501949310302734,1.0004425048828125
1790267515845566000,4.71956591796875,-0.5709757804870605,0.43990039825439453,0.5885593891143799
1790267515855566000,4.729566162109375,-0.25176119804382324,0.7985496520996094,0.11602067947387695
1790267515865566000,4.73956591796875,-1.4059251546859741,-0.5327320098876953,-0.059252262115478516
1790267515875566000,4.749566162109375,-0.995742917060852,-2.0366592407226562,0.2839171886444092
1790267515885566000,4.75956591796875,-0.26473546028137207,-1.2825183868408203,-0.0073392391204833984
1790267515895566000,4.769566162109375,0.8733393549919128,-0.9910001754760742,-0.49544286727905273
1790267515905566000,4.77956591796875,0.7100505828857422,0.5091161727905273,-0.05032491683959961
1790267515915566000,4.789566162109375,-0.08482813835144043,1.0970792770385742,0.46358466148376465
1790267515925566000,4.79956591796875,-0.27475476264953613,1.3437700271606445,0.6435940265655518
1790267515935566000,4.809566162109375,-1.664656162261963,2.8947086334228516,-0.34677958488464355
1790267515945566000,4.81956591796875,-0.9888052940368652,6.7406463623046875,-2.540099620819092
1790267515955566000,4.829566162109375,1.157922387123108,3.425687789916992,1.985901117324829
1790267515965566000,4.83956591796875,2.4122202396392822,-1.9082269668579102,5.844176292419434
1790267515975566000,4.849566162109375,2.153473377227783,-3.1851701736450195,3.499886989593506
1790267515985566000,4.85956591796875,0.1850987672805786,-2.4212751388549805,0.39822840690612793
1790267515995566000,4.869566162109375,-1.2717244625091553,-1.9695777893066406,-1.0736901760101318
1790267516005566000,4.87956591796875,-2.4747331142425537,-0.9884262084960938,-0.5333194732666016
1790267516015566000,4.889566162109375,-1.001830816268921,-0.4575204849243164,1.6892118453979492
1790267516025566000,4.89956591796875,2.395312786102295,-0.32782745361328125,2.292065143585205
1790267516035566000,4.909566162109375,2.0788073539733887,0.3985137939453125,1.8323371410369873
1790267516045566000,4.91956591796875,1.0526480674743652,0.8135747909545898,0.9340167045593262
1790267516055566000,4.929566162109375,1.3913593292236328,0.952667236328125,0.5309455394744873
1790267516065566000,4.93956591796875,0.6415971517562866,0.4148225784301758,-0.2159590721130371
1790267516075566000,4.949566162109375,-0.0034122467041015625,-0.1806354522705078,-0.9996852874755859
1790267516085566000,4.95956591796875,0.2202209234237671,-0.4121274948120117,-1.2682127952575684
1790267516095566000,4.969566162109375,0.30503571033477783,-0.5000314712524414,-1.5949130058288574
1790267516105566000,4.97956591796875,-0.29000532627105713,-0.4806489944458008,-1.6234077215194702
1790267516115566000,4.989566162109375,-1.2560170888900757,-0.7673721313476562,-0.8883228302001953
1790267516125566000,4.99956591796875,-1.7949851751327515,-1.3771543502807617,0.2547614574432373
1790267516135566000,5.009566162109375,-2.2065305709838867,-1.9759340286254883,0.7793686389923096
1790267516145566000,5.01956591796875,-1.7854630947113037,-2.261402130126953,0.9351258277893066
1790267516155566000,5.029566162109375,-1.5359811782836914,-2.1407957077026367,0.9731378555297852
1790267516165566000,5.03956591796875,-1.474503755569458,-1.0615272521972656,0.14904332160949707
1790267516175566000,5.049566162109375,-0.6629148721694946,-0.030678749084472656,-0.5506165027618408
1790267516185566000,5.05956591796875,0.18873560428619385,0.596989631652832,0.1982119083404541
1790267516195566000,5.069566162109375,0.0956038236618042,0.37146568298339844,0.6001424789428711
1790267516205566000,5.07956591796875,-0.7046608924865723,-0.2602720260620117,0.6914541721343994
1790267516215566000,5.089566162109375,-1.3706626892089844,-1.6860504150390625,1.3168187141418457
1790267516225566000,5.09956591796875,-0.26114749908447266,-2.4579944610595703,1.0327677726745605
1790267516235566000,5.109566162109375,0.38243091106414795,-1.5045356750488281,0.5957870483398438
1790267516245566000,5.11956591796875,0.7837296724319458,0.4061574935913086,0.34278154373168945
1790267516255566000,5.129566162109375,-0.5473117828369141,1.9043779373168945,-0.28467726707458496
1790267516265566000,5.13956591796875,-2.2719688415527344,1.8975005149841309,0.048413753509521484
1790267516275566000,5.149566162109375,-2.3517961502075195,0.9937992095947266,0.8848440647125244
1790267516285566000,5.15956591796875,-1.7015851736068726,-0.38474273681640625,2.1319243907928467
1790267516295566000,5.169566162109375,-0.42646121978759766,-1.4300117492675781,2.6619691848754883
1790267516305566000,5.17956591796875,0.6524262428283691,-1.2881221771240234,2.5880446434020996
1790267516315566000,5.189566162109375,0.70792555809021,-0.6336021423339844,1.7611076831817627
1790267516325566000,5.19956591796875,0.2812650203704834,-0.5719671249389648,0.20342230796813965
1790267516335566000,5.209566162109375,1.7350866794586182,-1.135441780090332,-1.9381027221679688
1790267516345566000,5.21956591796875,3.6916093826293945,-1.9991188049316406,-3.7455594539642334
1790267516355566000,5.229566162109375,4.615937232971191,-1.8606672286987305,-5.224552631378174
1790267516365566000,5.23956591796875,5.017716407775879,-1.6665420532226562,-5.723390102386475
1790267516375566000,5.249566162109375,4.6068267822265625,-1.6615581512451172,-6.762801647186279
1790267516385566000,5.25956591796875,2.9396629333496094,-1.1361761093139648,-6.451074600219727
1790267516395566000,5.269566162109375,1.5146484375,-0.09136962890625,-4.730861663818359
1790267516405566000,5.27956591796875,1.3333022594451904,0.5685372352600098,-2.6628947257995605
1790267516415566000,5.289566162109375,1.6543760299682617,0.8621110916137695,-1.6510443687438965
1790267516425566000,5.29956591796875,2.5397589206695557,0.3008584976196289,-1.9032169580459595
1790267516435566000,5.309566162109375,1.579737663269043,-0.0775289535522461,-2.1312897205352783
1790267516445566000,5.31956591796875,-0.796417236328125,0.6415376663208008,-2.3005337715148926
1790267516455566000,5.329566162109375,-2.0618438720703125,0.5011734962463379,-1.2709629535675049
1790267516465566000,5.33956591796875,-0.4476900100708008,0.17475175857543945,-0.4927079677581787
1790267516475566000,5.349566162109375,0.47160863876342773,0.2387690544128418,0.1748051643371582
1790267516485566000,5.35956591796875,0.8645501136779785,0.6828656196594238,2.2893576622009277
1790267516495566000,5.369566162109375,0.20624971389770508,0.9533452987670898,5.291248798370361
1790267516505566000,5.37956591796875,-0.875648021697998,0.6269993782043457,7.481426239013672
1790267516515566000,5.389566162109375,-1.4694666862487793,0.28637075424194336,7.780214309692383
1790267516525566000,5.39956591796875,-1.6352849006652832,-0.1868753433227539,6.995680809020996
1790267516535566000,5.409566162109375,-1.2748384475708008,-0.5777015686035156,5.891468048095703
1790267516545566000,5.41956591796875,-0.867856502532959,-0.6755633354187012,4.477464199066162
1790267516555566000,5.429566162109375,-0.5357398986816406,-0.5077328681945801,2.5597147941589355
1790267516565566000,5.43956591796875,0.041576385498046875,-0.5019893646240234,1.4282145500183105
1790267516575566000,5.449566162109375,0.3637523651123047,-0.43210411071777344,1.3399252891540527
1790267516585566000,5.45956591796875,1.2665014266967773,0.5798163414001465,1.473015308380127
1790267516595566000,5.469566162109375,0.5152688026428223,0.16110563278198242,-0.06827163696289062
1790267516605566000,5.47956591796875,0.08409547805786133,-1.606884479522705,-1.127312183380127
1790267516615566000,5.489566162109375,0.10223722457885742,-2.179499626159668,-1.7774462699890137
1790267516625566000,5.49956591796875,0.19286251068115234,-1.78564453125,-1.6652750968933105
1790267516635566000,5.509566162109375,0.2333545684814453,-1.112447738647461,-0.9263310432434082
1790267516645566000,5.51956591796875,0.027801990509033203,-0.24746990203857422,-0.41927289962768555
1790267516655566000,5.529566162109375,-0.39406728744506836,0.28795385360717773,-0.3023343086242676
1790267516665566000,5.53956591796875,-0.368868350982666,0.5220603942871094,-0.48622560501098633
1790267516675566000,5.549566162109375,-0.19867753982543945,0.2406315803527832,-0.1501469612121582
1790267516685566000,5.55956591796875,-0.3891143798828125,-0.3589353561401367,0.15903377532958984
1790267516695566000,5.569566162109375,-0.26439380645751953,-0.16686344146728516,-0.8454012870788574
1790267516705566000,5.57956591796875,-0.07963705062866211,-0.4227919578552246,-1.761786937713623
1790267516715566000,5.589566162109375,0.1871190071105957,-1.3975262641906738,-1.5410208702087402
1790267516725566000,5.59956591796875,0.23630762100219727,-2.877070426940918,0.396575927734375
1790267516735566000,5.609566162109375,-0.25829648971557617,-4.151126861572266,1.3321070671081543
1790267516745566000,5.61956591796875,-0.11945343017578125,-1.0782756805419922,-2.2853429317474365
1790267516755566000,5.629566162109375,-0.23403310775756836,-0.039444923400878906,-2.8570826053619385
1790267516765566000,5.63956591796875,0.8341841697692871,0.8997139930725098,-3.4329662322998047
1790267516775566000,5.649566162109375,1.7192740440368652,1.6786894798278809,-3.69024658203125
1790267516785566000,5.65956591796875,1.8082833290100098,1.6256849765777588,-3.793457508087158
1790267516795566000,5.669566162109375,1.5613288879394531,1.022082805633545,-3.4136962890625
1790267516805566000,5.67956591796875,0.6720099449157715,-0.09967899322509766,-2.0519514083862305
1790267516815566000,5.689566162109375,-1.0286903381347656,-1.1332173347473145,-0.7061481475830078
1790267516825566000,5.69956591796875,-1.6356267929077148,-1.1478848457336426,-0.009956836700439453
1790267516835566000,5.709566162109375,-1.643958568572998,-0.9087023735046387,0.7897195816040039
1790267516845566000,5.71956591796875,-1.471066951751709,-0.6884841918945312,1.5482068061828613
1790267516855566000,5.729566162109375,-0.16632509231567383,-0.8034653663635254,2.1436872482299805
1790267516865566000,5.73956591796875,-1.1772422790527344,-0.9431562423706055,3.088613510131836
1790267516875566000,5.749566162109375,-1.8059945106506348,-1.3467106819152832,3.129757881164551
1790267516885566000,5.75956591796875,-2.2995471954345703,-1.063185691833496,2.3956637382507324
1790267516895566000,5.769566162109375,-2.9038639068603516,-0.6000018119812012,2.6753883361816406
1790267516905566000,5.77956591796875,-3.5720152854919434,-0.3423190116882324,2.8308892250061035
1790267516915566000,5.789566162109375,-3.995400905609131,-0.20886754989624023,1.9393014907836914
1790267516925566000,5.79956591796875,-3.0076980590820312,-0.26619482040405273,0.9998683929443359
1790267516935566000,5.809566162109375,-1.5764317512512207,-0.18477940559387207,0.8783831596374512
1790267516945566000,5.81956591796875,-0.6729130744934082,0.0014028549194335938,1.4298205375671387
1790267516955566000,5.829566162109375,-0.4252662658691406,-0.000050067901611328125,1.813122272491455
1790267516965566000,5.83956591796875,-0.4149746894836426,0.05800890922546387,1.788741111755371
1790267516975566000,5.849566162109375,-0.09674835205078125,0.15045857429504395,1.8357677459716797
1790267516985566000,5.85956591796875,0.04579782485961914,0.38600587844848633,2.0396227836608887
1790267516995566000,5.869566162109375,0.1708669662475586,0.7524974346160889,2.000382900238037
1790267517005566000,5.87956591796875,1.0070829391479492,1.1294876337051392,1.8311691284179688
1790267517015566000,5.889566162109375,2.0231752395629883,1.4554202556610107,1.612980842590332
1790267517025566000,5.89956591796875,2.712524890899658,1.6231151819229126,1.3576111793518066
1790267517035566000,5.909566162109375,3.1333441734313965,1.639726996421814,1.239943027496338
1790267517045566000,5.91956591796875,3.512021064758301,1.576233983039856,0.7465043067932129
1790267517055566000,5.929566162109375,3.869985580444336,1.4269901514053345,0.22601985931396484
1790267517065566000,5.93956591796875,3.954313278198242,1.0742045640945435,-0.532987117767334
1790267517075566000,5.949566162109375,3.671067714691162,0.645132303237915,-1.2138080596923828
1790267517085566000,5.95956591796875,2.9696083068847656,0.4138963222503662,-1.3134040832519531
1790267517095566000,5.969566162109375,2.537534713745117,0.5918681621551514,-0.8739447593688965
1790267517105566000,5.97956591796875,2.5700130462646484,0.43880581855773926,-0.5927736759185791
1790267517115566000,5.989566162109375,2.8545780181884766,0.25398683547973633,-0.48156094551086426
1790267517125566000,5.99956591796875,1.984391689300537,0.22787952423095703,-0.2593088150024414
1790267517135566000,6.009566162109375,0.7179021835327148,0.052978515625,-0.3514256477355957
1790267517145566000,6.01956591796875,0.13916492462158203,-0.17524206638336182,-0.6201953887939453
1790267517155566000,6.029566162109375,0.3505430221557617,-0.8824894428253174,-0.3152751922607422
1790267517165566000,6.03956591796875,0.3505830764770508,-1.773200511932373,-0.01591014862060547
1790267517175566000,6.049566162109375,-0.2833414077758789,-2.568345069885254,0.27675962448120117
1790267517185566000,6.05956591796875,-0.7604379653930664,-2.607771396636963,0.5601863861083984
1790267517195566000,6.069566162109375,0.06157493591308594,-1.9465699195861816,0.5394506454467773
1790267517205566000,6.07956591796875,1.1525487899780273,-1.751960039138794,-0.4982333183288574
1790267517215566000,6.089566162109375,0.8043789863586426,-2.1783761978149414,-1.9970042705535889
1790267517225566000,6.09956591796875,0.2669095993041992,-2.215075969696045,-2.8826096057891846
1790267517235566000,6.109566162109375,-0.12887001037597656,-1.152092695236206,-2.5285661220550537
1790267517245566000,6.11956591796875,-0.08606243133544922,-0.0698162317276001,-1.32169771194458
1790267517255566000,6.129566162109375,-0.043190956115722656,-0.04559016227722168,-0.36897945404052734
1790267517265566000,6.13956591796875,-0.24879837036132812,-0.20359903573989868,0.04383134841918945
1790267517275566000,6.149566162109375,0.0013217926025390625,-0.3224524259567261,0.16057491302490234
1790267517285566000,6.15956591796875,0.7990546226501465,-0.5926692485809326,-0.009172916412353516
1790267517295566000,6.169566162109375,1.4240026473999023,-0.511221170425415,-0.4625706672668457
1790267517305566000,6.17956591796875,1.7752351760864258,-0.27194944024086,-0.8589403629302979
1790267517315566000,6.189566162109375,2.2646656036376953,0.5757397413253784,-1.0969014167785645
1790267517325566000,6.19956591796875,3.3420772552490234,1.157434105873108,-1.860853672027588
1790267517335566000,6.209566162109375,3.4828858375549316,0.8777225017547607,-3.1961488723754883
1790267517345566000,6.21956591796875,2.3400397300720215,0.6338077783584595,-3.53694486618042
1790267517355566000,6.229566162109375,1.744311809539795,0.7452355027198792,-2.8292222023010254
1790267517365566000,6.23956591796875,2.359678268432617,0.8076782822608948,-2.3915939331054688
1790267517375566000,6.249566162109375,2.018831253051758,0.7625493407249451,-2.375730037689209
1790267517385566000,6.25956591796875,1.096266746520996,0.853020429611206,-1.9252471923828125
1790267517395566000,6.269566162109375,0.8848094940185547,1.3140037059783936,-1.39654541015625
1790267517405566000,6.27956591796875,1.2010278701782227,1.5651159286499023,-1.0941390991210938
1790267517415566000,6.289566162109375,1.443249225616455,1.4340611696243286,-1.1551132202148438
1790267517425566000,6.29956591796875,1.6126747131347656,1.2959074974060059,-1.3523449897766113
1790267517435566000,6.309566162109375,1.4906930923461914,1.3115360736846924,-1.470134973526001
1790267517445566000,6.31956591796875,1.331129550933838,1.539846658706665,-1.383293628692627
1790267517455566000,6.329566162109375,1.3438491821289062,1.614720344543457,-1.2909445762634277
1790267517465566000,6.33956591796875,1.7012195587158203,1.4837000370025635,-1.1608052253723145
1790267517475566000,6.349566162109375,1.6194348335266113,1.127760648727417,-1.1681106090545654
1790267517485566000,6.35956591796875,1.272226333618164,0.8176915645599365,-0.8742856979370117
1790267517495566000,6.369566162109375,1.2162981033325195,0.5843526124954224,-0.46736860275268555
1790267517505566000,6.37956591796875,1.472724437713623,0.2987179756164551,-0.14391088485717773
1790267517515566000,6.389566162109375,1.1606225967407227,-0.17531931400299072,-0.07948875427246094
1790267517525566000,6.39956591796875,1.071782112121582,-0.4318125247955322,0.10266637802124023
1790267517535566000,6.409566162109375,0.8287906646728516,-0.5957653522491455,0.18085861206054688
1790267517545566000,6.41956591796875,1.0317273139953613,-0.47584986686706543,0.039667606353759766
1790267517555566000,6.429566162109375,0.8934869766235352,-0.2977886199951172,-0.04353046417236328
1790267517565566000,6.43956591796875,0.8118529319763184,-0.14102506637573242,-0.11973285675048828
1790267517575566000,6.449566162109375,0.7676019668579102,-0.1023094654083252,-0.232452392578125
1790267517585566000,6.45956591796875,0.6456871032714844,-0.08311176300048828,-0.29317188262939453
1790267517595566000,6.469566162109375,0.32117223739624023,-0.09996438026428223,-0.46325254440307617
1790267517605566000,6.47956591796875,0.45438432693481445,-0.09306621551513672,-0.636751651763916
1790267517615566000,6.489566162109375,0.7022719383239746,-0.04076337814331055,-0.8938088417053223
1790267517625566000,6.49956591796875,0.6330385208129883,-0.014569520950317383,-1.1643905639648438
1790267517635566000,6.509566162109375,0.39931249618530273,-0.06101036071777344,-1.155104160308838
1790267517645566000,6.51956591796875,0.6869831085205078,-0.1061868667602539,-1.048771858215332
1790267517655566000,6.529566162109375,0.7131142616271973,-0.2007124423980713,-0.9672093391418457
1790267517665566000,6.53956591796875,-0.26612043380737305,-0.21206426620483398,-1.067535400390625
1790267517675566000,6.549566162109375,-0.8998432159423828,-0.1189274787902832,-0.879310131072998
1790267517685566000,6.55956591796875,-0.9240818023681641,0.0406804084777832,-0.6758575439453125
1790267517695566000,6.569566162109375,-0.41832399368286133,0.14151716232299805,-0.7024855613708496
1790267517705566000,6.57956591796875,-0.17947864532470703,0.07293987274169922,-0.7099194526672363
1790267517715566000,6.589566162109375,-0.6363787651062012,-0.07909917831420898,-0.5633049011230469
1790267517725566000,6.59956591796875,-0.9619007110595703,-0.21293067932128906,-0.43436288833618164
1790267517735566000,6.609566162109375,-1.0971565246582031,-0.3164987564086914,0.06188201904296875
1790267517745566000,6.61956591796875,-1.0907397270202637,-0.4138932228088379,0.5480566024780273
1790267517755566000,6.629566162109375,-1.1312713623046875,-0.533116340637207,0.878931999206543
1790267517765566000,6.63956591796875,-1.2527761459350586,-0.6184215545654297,1.5218324661254883
1790267517775566000,6.649566162109375,-1.1545987129211426,-0.5664801597595215,1.637500286102295
1790267517785566000,6.65956591796875,-1.0305418968200684,-0.529292106628418,1.348867416381836
1790267517795566000,6.669566162109375,-0.4310932159423828,-0.5795049667358398,1.2823834419250488
1790267517805566000,6.67956591796875,-0.3657546043395996,-0.6643209457397461,1.235476016998291
1790267517815566000,6.689566162109375,-0.816227912902832,-0.7393965721130371,1.2097678184509277
1790267517825566000,6.69956591796875,-0.8308448791503906,-0.7245192527770996,1.1152410507202148
1790267517835566000,6.709566162109375,-0.5988836288452148,-0.6860251426696777,0.9803318977355957
1790267517845566000,6.71956591796875,-0.6330175399780273,-0.749579906463623,0.612372875213623
1790267517855566000,6.729566162109375,-1.0799002647399902,-0.8487677574157715,0.28875017166137695
1790267517865566000,6.73956591796875,-1.280057430267334,-0.9291462898254395,0.003024578094482422
1790267517875566000,6.749566162109375,-1.1197710037231445,-1.0493578910827637,-0.2538585662841797
1790267517885566000,6.75956591796875,-1.0769472122192383,-1.1025662422180176,-0.3718099594116211
1790267517895566000,6.769566162109375,-1.2038445472717285,-1.1715359687805176,-0.683739185333252
1790267517905566000,6.77956591796875,-1.059941291809082,-1.212423324584961,-0.7539634704589844
1790267517915566000,6.789566162109375,-0.7562637329101562,-1.22566556930542,-0.7568893432617188
1790267517925566000,6.79956591796875,-0.6381087303161621,-1.2334203720092773,-0.8523716926574707
1790267517935566000,6.809566162109375,-0.6311888694763184,-1.1684532165527344,-0.6397671699523926
1790267517945566000,6.81956591796875,-0.4490699768066406,-1.1554365158081055,-0.0573878288269043
1790267517955566000,6.829566162109375,-0.4906349182128906,-1.1308207511901855,0.24297189712524414
1790267517965566000,6.83956591796875,-1.0380396842956543,-1.179807186126709,0.3342094421386719
1790267517975566000,6.849566162109375,-1.8384370803833008,-1.2528681755065918,0.48653602600097656
1790267517985566000,6.85956591796875,-2.5353355407714844,-1.3352813720703125,0.698030948638916
1790267517995566000,6.869566162109375,-2.49900484085083,-1.4269447326660156,1.2147088050842285
1790267518005566000,6.87956591796875,-1.9972987174987793,-1.4762511253356934,1.8297266960144043
1790267518015566000,6.889566162109375,-1.4394769668579102,-1.4027619361877441,2.243649959564209
1790267518025566000,6.89956591796875,-0.8698034286499023,-1.2230634689331055,2.2977051734924316
1790267518035566000,6.909566162109375,-0.35851001739501953,-0.9540424346923828,2.031494617462158
1790267518045566000,6.91956591796875,-0.1557774543762207,-0.5792860984802246,1.4580941200256348
1790267518055566000,6.929566162109375,-0.41104841232299805,-0.15411949157714844,0.8842859268188477
1790267518065566000,6.93956591796875,-0.6105227470397949,0.24399375915527344,0.5947937965393066
1790267518075566000,6.949566162109375,-0.5285019874572754,0.4835824966430664,0.6377749443054199
1790267518085566000,6.95956591796875,-0.1421513557434082,0.49852609634399414,1.141439437866211
1790267518095566000,6.969566162109375,0.22976255416870117,0.4718971252441406,1.3601994514465332
1790267518105566000,6.97956591796875,0.3866715431213379,0.3103189468383789,1.1514384746551514
1790267518115566000,6.989566162109375,-0.20510578155517578,-0.08545541763305664,0.5855967998504639
1790267518125566000,6.99956591796875,-0.8857851028442383,-0.6442074775695801,-0.1538074016571045
1790267518135566000,7.009566162109375,-1.0478177070617676,-1.196056842803955,-0.8462843894958496
1790267518145566000,7.01956591796875,-0.9511141777038574,-1.605539321899414,-1.35601806640625
1790267518155566000,7.029566162109375,-0.8814001083374023,-1.818826675415039,-1.4910330772399902
1790267518165566000,7.03956591796875,-0.9151444435119629,-1.851811408996582,-1.1348605155944824
1790267518175566000,7.049566162109375,-0.97967529296875,-1.724245548248291,-0.4588136672973633
1790267518185566000,7.05956591796875,-1.0464668273925781,-1.4259886741638184,0.11013269424438477
1790267518195566000,7.069566162109375,-0.9274563789367676,-0.9937639236450195,0.42067670822143555
1790267518205566000,7.07956591796875,-0.6052136421203613,-0.5312976837158203,0.6015844345092773
1790267518215566000,7.089566162109375,-0.1946406364440918,-0.09248161315917969,0.7297675609588623
1790267518225566000,7.09956591796875,0.14248180389404297,0.28029823303222656,0.7568707466125488
1790267518235566000,7.109566162109375,0.17935657501220703,0.5511264801025391,0.8896608352661133
1790267518245566000,7.11956591796875,0.1015157699584961,0.6807684898376465,1.087562084197998
1790267518255566000,7.129566162109375,-0.09045028686523438,0.7651557922363281,1.224684715270996
1790267518265566000,7.13956591796875,-0.30252933502197266,0.7992730140686035,1.1887736320495605
1790267518275566000,7.149566162109375,-0.32602977752685547,0.7341246604919434,1.1135797500610352
1790267518285566000,7.15956591796875,-0.17740821838378906,0.5667819976806641,1.2216382026672363
1790267518295566000,7.169566162109375,-0.12028360366821289,0.37449026107788086,1.4700922966003418
1790267518305566000,7.17956591796875,-0.21442270278930664,0.20869827270507812,1.6464848518371582
1790267518315566000,7.189566162109375,-0.34558868408203125,0.06664371490478516,1.6818575859069824
1790267518325566000,7.19956591796875,-0.33603429794311523,-0.10262918472290039,1.5676202774047852
1790267518335566000,7.209566162109375,-0.24977493286132812,-0.3711390495300293,1.206533432006836
1790267518345566000,7.21956591796875,-0.2650923728942871,-0.6584734916687012,0.7750034332275391
1790267518355566000,7.229566162109375,-0.47901391983032227,-0.903404712677002,0.44367122650146484
1790267518365566000,7.23956591796875,-0.8886198997497559,-1.0686125755310059,0.2765779495239258
1790267518375566000,7.249566162109375,-1.3997268676757812,-1.153620719909668,0.20297527313232422
1790267518385566000,7.25956591796875,-1.8271832466125488,-1.1053338050842285,0.29617834091186523
1790267518395566000,7.269566162109375,-2.0151515007019043,-0.8966975212097168,0.3929934501647949
1790267518405566000,7.27956591796875,-1.8593645095825195,-0.5305280685424805,0.4116697311401367
1790267518415566000,7.289566162109375,-1.3887758255004883,-0.13595914840698242,0.4211258888244629
1790267518425566000,7.29956591796875,-0.6986875534057617,0.1693735122680664,0.5730757713317871
1790267518435566000,7.309566162109375,-0.08393430709838867,0.3230476379394531,0.8395757675170898
1790267518445566000,7.31956591796875,0.13276004791259766,0.22530651092529297,1.1877250671386719
1790267518455566000,7.329566162109375,0.09618902206420898,-0.1696639060974121,1.5419120788574219
1790267518465566000,7.33956591796875,-0.18838787078857422,-0.7278947830200195,1.8900861740112305
1790267518475566000,7.349566162109375,-0.3769407272338867,-1.208442211151123,1.97892427444458
1790267518485566000,7.35956591796875,-0.4582786560058594,-1.4316868782043457,1.6963191032409668
1790267518495566000,7.369566162109375,-0.530430793762207,-1.4502229690551758,1.2163372039794922
1790267518505566000,7.37956591796875,-0.38010215759277344,-1.3190712928771973,0.9872274398803711
1790267518515566000,7.389566162109375,0.08925104141235352,-1.1381535530090332,1.002415657043457
1790267518525566000,7.39956591796875,0.39203500747680664,-0.9343547821044922,0.9641976356506348
1790267518535566000,7.409566162109375,0.29993391036987305,-0.6694226264953613,0.689720630645752
1790267518545566000,7.41956591796875,0.17915821075439453,-0.3872537612915039,0.2515139579772949
1790267518555566000,7.429566162109375,0.4735231399536133,-0.04475259780883789,-0.20691156387329102
1790267518565566000,7.43956591796875,0.7467937469482422,0.24524641036987305,-0.5427732467651367
1790267518575566000,7.449566162109375,0.7962074279785156,0.34612321853637695,-0.6537790298461914
1790267518585566000,7.45956591796875,0.6144051551818848,0.8932242393493652,-1.0010688304901123
1790267518595566000,7.469566162109375,1.37947416305542,0.27199792861938477,-1.0376667976379395
1790267518605566000,7.47956591796875,-0.49123716354370117,0.1793217658996582,-1.1316936016082764
1790267518615566000,7.489566162109375,-0.2957792282104492,-0.30909204483032227,-0.8573012351989746
1790267518625566000,7.49956591796875,0.42371320724487305,0.3695797920227051,-1.185774803161621
1790267518635566000,7.509566162109375,0.33796215057373047,0.3912837505340576,-1.2447655200958252
1790267518645566000,7.51956591796875,-0.1644001007080078,0.1851789951324463,-1.0917656421661377
1790267518655566000,7.529566162109375,-0.9365506172180176,-0.1382906436920166,-0.7355074882507324
1790267518665566000,7.53956591796875,-1.106252670288086,-0.550553560256958,-0.14249944686889648
1790267518675566000,7.549566162109375,-0.5227899551391602,-0.9734148979187012,0.24106407165527344
1790267518685566000,7.55956591796875,0.16144800186157227,-1.2563495635986328,0.1466517448425293
1790267518695566000,7.569566162109375,0.45508670806884766,-1.4889600276947021,-0.18187332153320312
1790267518705566000,7.57956591796875,0.6339702606201172,-1.5788638591766357,-0.4654502868652344
1790267518715566000,7.589566162109375,1.0782208442687988,-1.3788115978240967,-0.4765651226043701
1790267518725566000,7.59956591796875,1.4716229438781738,-0.8941709995269775,-0.15399789810180664
1790267518735566000,7.609566162109375,1.6366729736328125,-0.3737194538116455,0.4086017608642578
1790267518745566000,7.61956591796875,0.8957986831665039,-0.13379335403442383,0.9720273017883301
1790267518755566000,7.629566162109375,0.047733306884765625,-0.11833405494689941,1.101118564605713
1790267518765566000,7.63956591796875,0.5629243850708008,-0.05689239501953125,1.0500783920288086
1790267518775566000,7.649566162109375,1.3898653984069824,-0.12032723426818848,0.8759350776672363
1790267518785566000,7.65956591796875,1.2146563529968262,-0.30504488945007324,0.3393557071685791
1790267518795566000,7.669566162109375,1.293105125427246,-0.4844655990600586,-0.09841251373291016
1790267518805566000,7.67956591796875,1.2580108642578125,-0.6992512941360474,-0.22550058364868164
1790267518815566000,7.689566162109375,1.095646858215332,-0.8444664478302002,-0.6673195362091064
1790267518825566000,7.69956591796875,1.2210102081298828,-1.0424293279647827,-0.9002110958099365
1790267518835566000,7.709566162109375,1.647043228149414,-1.1232367753982544,-1.167334794998169
1790267518845566000,7.71956591796875,2.009946823120117,-1.018571138381958,-1.3315558433532715
1790267518855566000,7.729566162109375,1.4465537071228027,-0.6763705015182495,-1.3141436576843262
1790267518865566000,7.73956591796875,0.6944446563720703,-0.2464205026626587,-1.3038809299468994
1790267518875566000,7.749566162109375,0.37756824493408203,0.10677599906921387,-1.5805490016937256
1790267518885566000,7.75956591796875,0.8185873031616211,0.289902925491333,-2.0548393726348877
1790267518895566000,7.769566162109375,1.0291223526000977,0.25701797008514404,-2.309689998626709
1790267518905566000,7.77956591796875,1.3008499145507812,0.10164105892181396,-2.386660575866699
1790267518915566000,7.789566162109375,1.2995476722717285,-0.21425282955169678,-2.4630610942840576
1790267518925566000,7.79956591796875,0.8317832946777344,-0.5066165924072266,-2.32307767868042
1790267518935566000,7.809566162109375,1.2478809356689453,-0.7814306020736694,-2.0271639823913574
1790267518945566000,7.81956591796875,1.521611213684082,-1.0049020051956177,-1.7289297580718994
1790267518955566000,7.829566162109375,1.6208162307739258,-0.9829504489898682,-1.4733014106750488
1790267518965566000,7.83956591796875,1.5570526123046875,-0.5153656005859375,-1.4490022659301758
1790267518975566000,7.849566162109375,1.6646857261657715,0.20603704452514648,-1.5011382102966309
1790267518985566000,7.85956591796875,2.2403316497802734,0.9031097888946533,-1.6814062595367432
1790267518995566000,7.869566162109375,2.2109322547912598,1.2410937547683716,-2.0540390014648438
1790267519005566000,7.87956591796875,2.0052804946899414,1.3331949710845947,-2.0014939308166504
1790267519015566000,7.889566162109375,2.2641353607177734,1.3246265649795532,-2.186800956726074
1790267519025566000,7.89956591796875,2.2855615615844727,1.2488958835601807,-2.2416160106658936
1790267519035566000,7.909566162109375,2.0088233947753906,1.1767699718475342,-2.016660213470459
1790267519045566000,7.91956591796875,1.8413619995117188,1.2567191123962402,-1.6638100147247314
1790267519055566000,7.929566162109375,1.6665887832641602,1.3903172016143799,-1.5211238861083984
1790267519065566000,7.93956591796875,1.5439372062683105,1.5975048542022705,-1.2691259384155273
1790267519075566000,7.949566162109375,2.1119585037231445,1.7285587787628174,-0.8695454597473145
1790267519085566000,7.95956591796875,2.3385086059570312,1.7606357336044312,-0.7195396423339844
1790267519095566000,7.969566162109375,2.2024197578430176,1.6723637580871582,-0.6034197807312012
1790267519105566000,7.97956591796875,1.9533758163452148,1.5084831714630127,-0.6806497573852539
1790267519115566000,7.989566162109375,1.616379737854004,1.3924355506896973,-0.8683009147644043
1790267519125566000,7.99956591796875,1.555276870727539,1.523109793663025,-0.7442271709442139
1790267519135566000,8.009566162109374,1.769582748413086,1.772078275680542,-0.5605940818786621
1790267519145566000,8.01956591796875,1.810445785522461,1.8081003427505493,-0.31491994857788086
1790267519155566000,8.029566162109376,1.7874174118041992,1.869154691696167,-0.004446983337402344
1790267519165566000,8.03956591796875,1.7886919975280762,1.8920791149139404,0.26058530807495117
1790267519175566000,8.049566162109375,1.7467594146728516,1.6708900928497314,0.3779454231262207
1790267519185566000,8.05956591796875,1.811936378479004,1.6619410514831543,0.43422985076904297
1790267519195566000,8.069566162109375,1.4943947792053223,1.396007776260376,0.2942347526550293
1790267519205566000,8.07956591796875,1.2101364135742188,1.1104559898376465,-0.013671875
1790267519215566000,8.089566162109374,1.1515274047851562,0.8086187839508057,-0.10721302032470703
1790267519225566000,8.09956591796875,0.884315013885498,0.2776000499725342,-0.49027395248413086
1790267519235566000,8.109566162109376,0.34688377380371094,-0.3664398193359375,-1.0107150077819824
1790267519245566000,8.11956591796875,0.4533042907714844,-0.7266161441802979,-0.9708805084228516
1790267519255566000,8.129566162109375,0.5533924102783203,-0.9517145156860352,-0.937164306640625
1790267519265566000,8.13956591796875,-0.023636341094970703,-1.2080097198486328,-1.1821746826171875
1790267519275566000,8.149566162109375,-0.7334990501403809,-1.3904109001159668,-1.3192346096038818
1790267519285566000,8.15956591796875,-1.1669206619262695,-1.4228858947753906,-1.3261401653289795
1790267519295566000,8.169566162109374,-1.388843059539795,-1.4415631294250488,-1.3312430381774902
1790267519305566000,8.17956591796875,-1.3730382919311523,-1.4465045928955078,-1.360682487487793
1790267519315566000,8.189566162109376,-1.3992066383361816,-1.432365894317627,-1.3693256378173828
1790267519325566000,8.19956591796875,-1.538621425628662,-1.3842287063598633,-1.1522908210754395
1790267519335566000,8.209566162109375,-1.3500003814697266,-1.286329746246338,-0.7832560539245605
1790267519345566000,8.21956591796875,-1.315014362335205,-1.164240837097168,-0.46942758560180664
1790267519355566000,8.229566162109375,-1.8690104484558105,-1.1444101333618164,-0.2535409927368164
1790267519365566000,8.23956591796875,-2.329380989074707,-1.200251579284668,0.13600873947143555
1790267519375566000,8.249566162109375,-2.5857858657836914,-1.3136544227600098,0.5294923782348633
1790267519385566000,8.25956591796875,-2.5482988357543945,-1.569798469543457,0.7991209030151367
1790267519395566000,8.269566162109374,-1.986976146697998,-1.7344970703125,0.9884171485900879
1790267519405566000,8.27956591796875,-1.8143391609191895,-1.7907052040100098,0.9802951812744141
1790267519415566000,8.289566162109375,-1.524500846862793,-1.7739348411560059,0.8667278289794922
1790267519425566000,8.29956591796875,-1.0630550384521484,-1.6608753204345703,0.8267102241516113
1790267519435566000,8.309566162109375,-0.9065523147583008,-1.4530773162841797,0.8215274810791016
1790267519445566000,8.31956591796875,-0.9210314750671387,-1.2923808097839355,0.7605791091918945
1790267519455566000,8.329566162109375,-1.0590391159057617,-1.0709171295166016,0.6544942855834961
1790267519465566000,8.33956591796875,-0.839451789855957,-0.8629775047302246,0.7726750373840332
1790267519475566000,8.349566162109374,-0.6304683685302734,-0.715334415435791,0.9135799407958984
1790267519485566000,8.35956591796875,-0.669954776763916,-0.6486296653747559,1.0387864112854004
1790267519495566000,8.369566162109376,-0.5936856269836426,-0.6999468803405762,1.3495793342590332
1790267519505566000,8.37956591796875,-0.470797061920166,-0.7362442016601562,1.7210540771484375
1790267519515566000,8.389566162109375,-0.40289926528930664,-0.5839014053344727,1.783689022064209
1790267519525566000,8.39956591796875,-0.41026782989501953,-0.4422287940979004,1.640674114227295
1790267519535566000,8.409566162109375,-0.701261043548584,-0.3115253448486328,1.3908171653747559
1790267519545566000,8.41956591796875,-1.085256576538086,-0.16998767852783203,1.407606601715088
1790267519555566000,8.429566162109374,-1.0987615585327148,-0.09581375122070312,1.8583273887634277
1790267519565566000,8.43956591796875,-0.8688702583312988,-0.28087949752807617,2.2540249824523926
1790267519575566000,8.449566162109376,-0.8130593299865723,-0.6009502410888672,2.319936752319336
1790267519585566000,8.45956591796875,-0.7536025047302246,-0.9794068336486816,2.1880030632019043
1790267519595566000,8.469566162109375,-0.6511631011962891,-1.2818703651428223,1.7953991889953613
1790267519605566000,8.47956591796875,-0.5210299491882324,-1.4923405647277832,1.3597207069396973
1790267519615566000,8.489566162109375,-0.6254386901855469,-1.53049898147583,0.7637238502502441
1790267519625566000,8.49956591796875,-0.799407958984375,-1.3821964263916016,0.11305379867553711
1790267519635566000,8.509566162109374,-0.8017573356628418,-1.1463127136230469,-0.3706350326538086
1790267519645566000,8.51956591796875,-0.6294775009155273,-0.8989667892456055,-0.5829503536224365
1790267519655566000,8.529566162109376,-0.4126625061035156,-0.7182540893554688,-0.5395452976226807
1790267519665566000,8.53956591796875,-0.024048805236816406,-0.6453957557678223,-0.05202674865722656
1790267519675566000,8.549566162109375,0.4061880111694336,-0.5355305671691895,0.37192726135253906
1790267519685566000,8.55956591796875,0.3666524887084961,-0.3529539108276367,0.39594459533691406
1790267519695566000,8.569566162109375,-0.05238485336303711,-0.15565776824951172,0.26473522186279297
1790267519705566000,8.57956591796875,-0.5979304313659668,-0.001861572265625,0.12876653671264648
1790267519715566000,8.589566162109374,-1.1554679870605469,-0.015014171600341797,0.19970965385437012
1790267519725566000,8.59956591796875,-1.6556830406188965,-0.24287748336791992,0.5199573040008545
1790267519735566000,8.609566162109376,-2.0316672325134277,-0.6194024085998535,0.8736057281494141
1790267519745566000,8.61956591796875,-2.101491928100586,-1.0904765129089355,1.0144128799438477
1790267519755566000,8.629566162109375,-1.9442157745361328,-1.5161285400390625,0.7474370002746582
1790267519765566000,8.63956591796875,-1.7459287643432617,-1.7638630867004395,-0.03955268859863281
1790267519775566000,8.649566162109375,-1.1082468032836914,-1.737105369567871,-0.8096182346343994
1790267519785566000,8.65956591796875,0.03860950469970703,-1.3825931549072266,-0.7002027034759521
1790267519795566000,8.669566162109374,0.8430900573730469,-0.8061084747314453,0.08029556274414062
1790267519805566000,8.67956591796875,0.7815151214599609,-0.1946125030517578,0.9761524200439453
1790267519815566000,8.689566162109376,0.20950651168823242,0.27461671829223633,1.5984411239624023
1790267519825566000,8.69956591796875,-0.22338008880615234,0.4577913284301758,1.8374085426330566
1790267519835566000,8.709566162109375,-0.3316464424133301,0.3823552131652832,1.561826229095459
1790267519845566000,8.71956591796875,-0.17606735229492188,0.18947839736938477,0.957664966583252
1790267519855566000,8.729566162109375,-0.1389446258544922,-0.09400081634521484,0.42417240142822266
1790267519865566000,8.73956591796875,-0.05768251419067383,-0.3279147148132324,0.10198307037353516
1790267519875566000,8.749566162109375,0.12999725341796875,-0.5296926498413086,0.05656719207763672
1790267519885566000,8.75956591796875,0.07880592346191406,-0.757817268371582,0.44555091857910156
1790267519895566000,8.769566162109374,-0.31551647186279297,-0.9647932052612305,1.0776934623718262
1790267519905566000,8.77956591796875,-0.6869359016418457,-1.1097445487976074,1.4975695610046387
1790267519915566000,8.789566162109375,-0.8528714179992676,-1.1569218635559082,1.6294093132019043
1790267519925566000,8.79956591796875,-1.0824813842773438,-1.1677279472351074,1.633591651916504
1790267519935566000,8.809566162109375,-1.1908793449401855,-1.1249256134033203,1.5695414543151855
1790267519945566000,8.81956591796875,-1.0098376274108887,-0.9784440994262695,1.354118824005127
1790267519955566000,8.829566162109375,-0.9181175231933594,-0.8430256843566895,1.3140654563903809
1790267519965566000,8.83956591796875,-1.1429834365844727,-0.784233570098877,1.3977890014648438
1790267519975566000,8.849566162109374,-0.9132866859436035,-0.8783106803894043,1.5071406364440918
1790267519985566000,8.85956591796875,-0.08736658096313477,-0.9493193626403809,1.6434760093688965
1790267519995566000,8.869566162109376,0.2148270606994629,-0.9534053802490234,1.568723201751709
1790267520005566000,8.87956591796875,-0.1540369987487793,-0.9132847785949707,1.1957669258117676
1790267520015566000,8.889566162109375,-0.46351146697998047,-0.8699455261230469,0.737919807434082
1790267520025566000,8.89956591796875,-0.43430089950561523,-0.7952718734741211,0.33142805099487305
1790267520035566000,8.909566162109375,-0.31403207778930664,-0.787116527557373,0.0040912628173828125
1790267520045566000,8.91956591796875,0.03417539596557617,-0.7906007766723633,-0.33368825912475586
1790267520055566000,8.929566162109374,0.491208553314209,-0.8082175254821777,-0.5569205284118652
1790267520065566000,8.93956591796875,0.1600627899169922,-0.8656301498413086,-0.4386420249938965
1790267520075566000,8.949566162109376,-0.7761015892028809,-0.9405317306518555,-0.18104267120361328
1790267520085566000,8.95956591796875,-1.0815625190734863,-1.1098942756652832,0.1172337532043457
1790267520095566000,8.969566162109375,-0.37094545364379883,-1.2630810737609863,0.4807424545288086
1790267520105566000,8.97956591796875,0.2609853744506836,-1.2526931762695312,0.6094827651977539
1790267520115566000,8.989566162109375,0.4483203887939453,-1.0792865753173828,0.44310522079467773
1790267520125566000,8.99956591796875,0.7224025726318359,-0.8510968685150146,0.11967849731445312
1790267520135566000,9.009566162109374,0.8891868591308594,-0.5722227096557617,0.020142078399658203
1790267520145566000,9.01956591796875,0.3834242820739746,-0.4069199562072754,0.08730840682983398
1790267520155566000,9.029566162109376,0.18087387084960938,-0.4188995361328125,0.24882841110229492
1790267520165566000,9.03956591796875,0.7086391448974609,-0.5030455589294434,0.39753007888793945
1790267520175566000,9.049566162109375,0.9763269424438477,-0.548126220703125,0.4756741523742676
1790267520185566000,9.05956591796875,0.8606357574462891,-0.6591520309448242,0.5862851142883301
1790267520195566000,9.069566162109375,1.1359877586364746,-0.7222034931182861,0.8350415229797363
1790267520205566000,9.07956591796875,1.569615364074707,-0.6857113838195801,1.0857970714569092
1790267520215566000,9.089566162109374,1.4167604446411133,-0.5520298480987549,1.2057933807373047
1790267520225566000,9.09956591796875,1.4079084396362305,-0.6009907722473145,1.2822139263153076
1790267520235566000,9.109566162109376,2.0662784576416016,-0.8269097805023193,1.2808043956756592
1790267520245566000,9.11956591796875,2.4302783012390137,-0.99996018409729,1.1424498558044434
1790267520255566000,9.129566162109375,1.8770670890808105,-1.0786718130111694,0.866260290145874
1790267520265566000,9.13956591796875,1.616696834564209,-1.0767865180969238,0.3940145969390869
1790267520275566000,9.149566162109375,1.650411605834961,-1.0567594766616821,0.19043612480163574
1790267520285566000,9.15956591796875,1.4728193283081055,-0.7754495143890381,-0.031244754791259766
1790267520295566000,9.169566162109374,2.184859275817871,-0.46290600299835205,-0.6179792881011963
1790267520305566000,9.17956591796875,3.817270278930664,-0.2617661952972412,-1.2870700359344482
1790267520315566000,9.189566162109376,3.9667062759399414,0.005401492118835449,-1.985922932624817
1790267520325566000,9.19956591796875,2.681612968444824,0.2895442247390747,-2.409045696258545
1790267520335566000,9.209566162109375,1.2136449813842773,0.7148395776748657,-2.6913180351257324
1790267520345566000,9.21956591796875,1.0618915557861328,1.03368079662323,-2.3134799003601074
1790267520355566000,9.229566162109375,2.228816032409668,0.8576135635375977,-1.5146703720092773
1790267520365566000,9.23956591796875,2.7419281005859375,0.514735221862793,-1.0634288787841797
1790267520375566000,9.249566162109375,3.014042854309082,0.20303606986999512,-0.9741988182067871
1790267520385566000,9.25956591796875,2.7349977493286133,-0.1604183316230774,-0.9805557727813721
1790267520395566000,9.269566162109374,1.8879165649414062,-0.560102641582489,-1.2594285011291504
1790267520405566000,9.27956591796875,1.653477668762207,-0.7043801546096802,-1.4643077850341797
1790267520415566000,9.289566162109375,2.281987190246582,-0.30446964502334595,-1.2344131469726562
1790267520425566000,9.29956591796875,2.8225231170654297,0.3029422163963318,-1.221398115158081
1790267520435566000,9.309566162109375,2.8599987030029297,0.9275588989257812,-1.673898696899414
1790267520445566000,9.31956591796875,2.6690635681152344,1.402048110961914,-2.108254909515381
1790267520455566000,9.329566162109375,2.87457275390625,1.7763805389404297,-2.2163939476013184
1790267520465566000,9.33956591796875,3.152482509613037,1.997075080871582,-2.037325382232666
1790267520475566000,9.349566162109374,3.232004165649414,2.1369354724884033,-1.948777675628662
1790267520485566000,9.35956591796875,2.5571670532226562,2.168229579925537,-1.9039525985717773
1790267520495566000,9.369566162109376,1.727278709411621,1.9961642026901245,-1.670419692993164
1790267520505566000,9.37956591796875,1.882431983947754,1.6364483833312988,-1.152665615081787
1790267520515566000,9.389566162109375,2.29780912399292,1.1214638948440552,-0.8635051250457764
1790267520525566000,9.39956591796875,1.9253606796264648,0.6743687987327576,-0.5722389221191406
1790267520535566000,9.409566162109375,1.919168472290039,0.44084060192108154,-0.3134317398071289
1790267520545566000,9.41956591796875,2.221261978149414,0.3913757801055908,-0.41243505477905273
1790267520555566000,9.429566162109374,1.918820858001709,0.4322507381439209,-0.7913737297058105
1790267520565566000,9.43956591796875,1.4001178741455078,0.549490213394165,-0.9650754928588867
1790267520575566000,9.449566162109376,1.1576347351074219,0.7075948715209961,-0.8107032775878906
1790267520585566000,9.45956591796875,1.2832460403442383,0.8303970098495483,-0.7260899543762207
1790267520595566000,9.469566162109375,1.4558696746826172,0.9118576049804688,-0.813262939453125
1790267520605566000,9.47956591796875,1.4562039375305176,0.9919776916503906,-0.9026322364807129
1790267520615566000,9.489566162109375,1.3754863739013672,1.0666260719299316,-0.8594470024108887
1790267520625566000,9.49956591796875,1.4458131790161133,1.059079885482788,-0.8323764801025391
1790267520635566000,9.509566162109374,1.11529541015625,0.9951128959655762,-0.9825758934020996
1790267520645566000,9.51956591796875,0.6330842971801758,0.7827067375183105,-0.9171991348266602
1790267520655566000,9.529566162109376,0.6089940071105957,0.5150237083435059,-0.5609655380249023
1790267520665566000,9.53956591796875,0.4922032356262207,0.20606756210327148,-0.30242109298706055
1790267520675566000,9.549566162109375,0.3780946731567383,-0.1649177074432373,-0.01853179931640625
1790267520685566000,9.55956591796875,0.6631927490234375,-0.521726131439209,0.21937322616577148
1790267520695566000,9.569566162109375,0.8570089340209961,-0.8361606597900391,0.25334739685058594
1790267520705566000,9.57956591796875,0.45504140853881836,-1.2159075736999512,0.06423616409301758
1790267520715566000,9.589566162109374,-0.20834970474243164,-1.669736623764038,-0.11845207214355469
1790267520725566000,9.59956591796875,-0.23937559127807617,-2.016507148742676,-0.13440370559692383
1790267520735566000,9.609566162109376,-0.30628108978271484,-2.218453884124756,-0.3357839584350586
1790267520745566000,9.61956591796875,-0.48840761184692383,-2.195434093475342,-0.585047721862793
1790267520755566000,9.629566162109375,-0.4347343444824219,-1.9652948379516602,-0.5154151916503906
1790267520765566000,9.63956591796875,0.06608247756958008,-1.5184321403503418,-0.4240422248840332
1790267520775566000,9.649566162109375,0.41318178176879883,-1.0596070289611816,-0.34644031524658203
1790267520785566000,9.65956591796875,0.06447410583496094,-0.6035265922546387,-0.1883845329284668
1790267520795566000,9.669566162109374,-0.32127952575683594,-0.24474477767944336,0.20114517211914062
1790267520805566000,9.67956591796875,-0.24048995971679688,0.025832176208496094,0.49062108993530273
1790267520815566000,9.689566162109376,-0.21898317337036133,0.0993642807006836,0.4322805404663086
1790267520825566000,9.69956591796875,-0.6358842849731445,0.024044513702392578,0.23436355590820312
1790267520835566000,9.709566162109375,-0.9409146308898926,-0.20650386810302734,0.33971214294433594
1790267520845566000,9.71956591796875,-0.6601552963256836,-0.572075366973877,0.7309551239013672
1790267520855566000,9.729566162109375,-0.8008384704589844,-0.9671063423156738,1.1678428649902344
1790267520865566000,9.73956591796875,-1.0885553359985352,-1.42319917678833,1.7837834358215332
1790267520875566000,9.749566162109375,-1.091947078704834,-1.7622709274291992,2.338228702545166
1790267520885566000,9.75956591796875,-0.840641975402832,-1.96620512008667,2.485534191131592
1790267520895566000,9.769566162109374,-0.6173214912414551,-2.009317398071289,2.3499155044555664
1790267520905566000,9.77956591796875,-0.9448256492614746,-1.8317580223083496,1.8270397186279297
1790267520915566000,9.789566162109375,-1.2020163536071777,-1.5789237022399902,1.3693742752075195
1790267520925566000,9.79956591796875,-1.1647634506225586,-1.268242359161377,1.0100016593933105
1790267520935566000,9.809566162109375,-1.1073670387268066,-0.9930338859558105,0.777989387512207
1790267520945566000,9.81956591796875,-1.0884623527526855,-0.8082599639892578,0.5873146057128906
1790267520955566000,9.829566162109375,-0.9492630958557129,-0.7891383171081543,0.6450510025024414
1790267520965566000,9.83956591796875,-0.8579549789428711,-0.8450636863708496,0.7591967582702637
1790267520975566000,9.849566162109374,-0.9582018852233887,-1.0061802864074707,0.9115667343139648
1790267520985566000,9.85956591796875,-1.2952570915222168,-1.2876691818237305,1.169893741607666
1790267520995566000,9.869566162109376,-1.6456775665283203,-1.5431032180786133,1.4414830207824707
1790267521005566000,9.87956591796875,-1.8374228477478027,-1.7775945663452148,1.7480406761169434
1790267521015566000,9.889566162109375,-1.7858405113220215,-1.9871463775634766,2.0230274200439453
1790267521025566000,9.89956591796875,-1.705927848815918,-2.04946231842041,2.085757255554199
1790267521035566000,9.909566162109375,-1.8987526893615723,-1.9222002029418945,1.6776905059814453
1790267521045566000,9.91956591796875,-2.2146964073181152,-1.62650728225708,0.9671115875244141
1790267521055566000,9.929566162109374,-2.1971077919006348,-1.2972640991210938,0.33977222442626953
1790267521065566000,9.93956591796875,-1.7257986068725586,-1.0195627212524414,-0.3374972343444824
1790267521075566000,9.949566162109376,-1.234591007232666,-0.8051228523254395,-0.9829998016357422
1790267521085566000,9.95956591796875,-0.7150435447692871,-0.6885123252868652,-1.1239562034606934
1790267521095566000,9.969566162109375,-0.1134486198425293,-0.6025457382202148,-0.8210165500640869
1790267521105566000,9.97956591796875,0.03366804122924805,-0.5518207550048828,-0.4273362159729004
1790267521115566000,9.989566162109375,-0.13882732391357422,-0.5136942863464355,-0.10483837127685547
1790267521125566000,9.99956591796875,-0.2209458351135254,-0.4792189598083496,0.1300034523010254
1790267521135566000,10.009566162109374,-0.1809244155883789,-0.44643545150756836,0.2757081985473633
1790267521145566000,10.01956591796875,-0.17572879791259766,-0.3821554183959961,0.21533536911010742
1790267521155566000,10.029566162109376,-0.33006715774536133,-0.21450090408325195,-0.10270547866821289
1790267521165566000,10.03956591796875,-0.5993342399597168,-0.08030176162719727,-0.4761500358581543
1790267521175566000,10.049566162109375,-1.0490145683288574,0.04111957550048828,-0.9026684761047363
1790267521185566000,10.05956591796875,-1.4487671852111816,0.05297422409057617,-1.0497753620147705
1790267521195566000,10.069566162109375,-1.7692604064941406,-0.0938572883605957,-0.8978819847106934
1790267521205566000,10.07956591796875,-1.8481779098510742,-0.3192563056945801,-0.6242160797119141
1790267521215566000,10.089566162109374,-1.6698288917541504,-0.5913538932800293,-0.305971622467041
1790267521225566000,10.09956591796875,-1.412229061126709,-0.8682818412780762,-0.11028337478637695
1790267521235566000,10.109566162109376,-1.363656997680664,-1.1780576705932617,0.07358551025390625
1790267521245566000,10.11956591796875,-1.4088201522827148,-1.5059905052185059,0.3283376693725586
1790267521255566000,10.129566162109375,-1.3439059257507324,-1.8127355575561523,0.6545443534851074
1790267521265566000,10.13956591796875,-1.071176528930664,-1.967175006866455,0.8869576454162598
1790267521275566000,10.149566162109375,-0.8729782104492188,-1.9632067680358887,1.0164709091186523
1790267521285566000,10.15956591796875,-0.7487058639526367,-1.8237252235412598,1.0477972030639648
1790267521295566000,10.169566162109374,-0.6437644958496094,-1.51409912109375,1.0079360008239746
1790267521305566000,10.17956591796875,-0.6545882225036621,-1.0854401588439941,0.9711780548095703
1790267521315566000,10.189566162109376,-0.7805047035217285,-0.7766628265380859,1.053398609161377
1790267521325566000,10.19956591796875,-0.7477583885192871,-0.6472854614257812,1.1358108520507812
1790267521335566000,10.209566162109375,-0.4507174491882324,-0.5771417617797852,1.190861701965332
1790267521345566000,10.21956591796875,-0.2577018737792969,-0.4454326629638672,1.2081208229064941
1790267521355566000,10.229566162109375,-0.3252744674682617,-0.3123135566711426,1.1574153900146484
1790267521365566000,10.23956591796875,-0.2607851028442383,-0.20155858993530273,1.0543537139892578
1790267521375566000,10.249566162109375,-0.17573165893554688,-0.07407283782958984,0.9788837432861328
1790267521385566000,10.25956591796875,-0.14246606826782227,0.01494741439819336,1.0467000007629395
1790267521395566000,10.269566162109374,-0.19530820846557617,0.05179452896118164,1.2020564079284668
1790267521405566000,10.27956591796875,-0.3310728073120117,-0.023193359375,1.3874554634094238
1790267521415566000,10.289566162109375,-0.6281332969665527,-0.2128443717956543,1.6484451293945312
1790267521425566000,10.29956591796875,-0.5324263572692871,-0.34787654876708984,1.90830659866333
1790267521435566000,10.309566162109375,-0.1300654411315918,-0.4839205741882324,1.950632095336914
1790267521445566000,10.31956591796875,0.01702880859375,-0.4405078887939453,1.9362907409667969
1790267521455566000,10.329566162109375,-0.25929880142211914,-0.45789575576782227,1.8288664817810059
1790267521465566000,10.33956591796875,-0.4057455062866211,-0.5608859062194824,1.705733299255371
1790267521475566000,10.349566162109374,0.03770637512207031,-0.847236156463623,1.6038331985473633
1790267521485566000,10.35956591796875,0.7626352310180664,-1.0889883041381836,1.6077299118041992
1790267521495566000,10.369566162109376,1.4756474494934082,-1.2475810050964355,1.4677062034606934
1790267521505566000,10.37956591796875,1.96879243850708,-1.2344996929168701,0.997774600982666
1790267521515566000,10.389566162109375,1.8932476043701172,-1.0712645053863525,0.5464963912963867
1790267521525566000,10.39956591796875,1.037531852722168,-0.9748203754425049,0.5385961532592773
1790267521535566000,10.409566162109375,-0.12369728088378906,-0.9755136966705322,0.5926632881164551
1790267521545566000,10.41956591796875,-0.4200735092163086,-0.9790935516357422,0.3584909439086914
1790267521555566000,10.429566162109374,-0.4212379455566406,-0.8844444751739502,0.023156166076660156
1790267521565566000,10.43956591796875,0.2568988800048828,-0.911395788192749,-0.33597278594970703
1790267521575566000,10.449566162109376,1.3483991622924805,-1.0763344764709473,-0.19864177703857422
1790267521585566000,10.45956591796875,1.6010627746582031,-1.309361457824707,0.13426923751831055
1790267521595566000,10.469566162109375,0.8035621643066406,-1.5470874309539795,0.1509242057800293
1790267521605566000,10.47956591796875,0.5214529037475586,-1.7282941341400146,-0.1934370994567871
1790267521615566000,10.489566162109375,1.3770980834960938,-1.7711224555969238,-0.4579434394836426
1790267521625566000,10.49956591796875,2.078329086303711,-1.7607502937316895,-0.3903055191040039
1790267521635566000,10.509566162109374,1.830063819885254,-1.713806390762329,-0.25273704528808594
1790267521645566000,10.51956591796875,1.822704792022705,-1.5554643869400024,-0.39501404762268066
1790267521655566000,10.529566162109376,2.5257444381713867,-1.168071985244751,-0.8216423988342285
1790267521665566000,10.53956591796875,2.732027530670166,-0.5990253686904907,-1.3416824340820312
1790267521675566000,10.549566162109375,2.128173828125,-0.26669323444366455,-1.6735000610351562
1790267521685566000,10.55956591796875,1.9797391891479492,-0.11056065559387207,-1.9107983112335205
1790267521695566000,10.569566162109375,2.4930219650268555,0.07049858570098877,-2.1444671154022217
1790267521705566000,10.57956591796875,2.7036142349243164,0.15680599212646484,-2.535504102706909
1790267521715566000,10.589566162109374,2.5655975341796875,0.119620680809021,-2.7205190658569336
1790267521725566000,10.59956591796875,1.917515754699707,0.03023672103881836,-2.714327812194824
1790267521735566000,10.609566162109376,1.9484748840332031,-0.00932455062866211,-2.6586031913757324
1790267521745566000,10.61956591796875,2.254378318786621,0.21578717231750488,-2.6386287212371826
1790267521755566000,10.629566162109375,2.245579719543457,0.6195427179336548,-2.685267686843872
1790267521765566000,10.63956591796875,2.4223952293395996,1.0929887294769287,-2.6693320274353027
1790267521775566000,10.649566162109375,3.217524528503418,1.4941725730895996,-2.7732443809509277
1790267521785566000,10.65956591796875,3.0859642028808594,1.7330379486083984,-2.8175387382507324
1790267521795566000,10.669566162109374,2.5342206954956055,1.8538391590118408,-2.6081697940826416
1790267521805566000,10.67956591796875,2.402648448944092,1.7562568187713623,-2.247807264328003
1790267521815566000,10.689566162109376,2.582180976867676,1.2501652240753174,-2.0286128520965576
1790267521825566000,10.69956591796875,2.8754591941833496,0.684105396270752,-1.2296299934387207
1790267521835566000,10.709566162109375,2.8811755180358887,0.48591190576553345,-1.1161136627197266
1790267521845566000,10.71956591796875,2.7622604370117188,0.5281776189804077,-1.2137341499328613
1790267521855566000,10.729566162109375,2.5413222312927246,0.6718559265136719,-1.1328158378601074
1790267521865566000,10.73956591796875,1.9274134635925293,0.8210899829864502,-1.04075026512146
1790267521875566000,10.749566162109375,1.8894391059875488,0.9916295409202576,-0.8296403884887695
1790267521885566000,10.75956591796875,2.1123046875,1.0917888879776,-0.7120087146759033
1790267521895566000,10.769566162109374,2.2582592964172363,1.2616758346557617,-0.7328624725341797
1790267521905566000,10.77956591796875,2.4853639602661133,1.6103596687316895,-0.7563414573669434
1790267521915566000,10.789566162109375,2.464754104614258,1.8293389081954956,-0.9194440841674805
1790267521925566000,10.79956591796875,2.4094977378845215,1.843736171722412,-0.9342837333679199
1790267521935566000,10.809566162109375,2.3148388862609863,1.751754879951477,-0.9501495361328125
1790267521945566000,10.81956591796875,2.4212417602539062,1.5459647178649902,-1.074714183807373
1790267521955566000,10.829566162109375,2.460761547088623,1.3091133832931519,-1.0086584091186523
1790267521965566000,10.83956591796875,2.311119556427002,1.17618727684021,-1.013692855834961
1790267521975566000,10.849566162109374,2.29354190826416,1.0730679035186768,-0.8266839981079102
1790267521985566000,10.85956591796875,2.164273262023926,1.0065224170684814,-0.7248439788818359
1790267521995566000,10.869566162109376,1.788865089416504,0.9050798416137695,-0.7820405960083008
1790267522005566000,10.87956591796875,1.5056066513061523,0.8170015811920166,-0.838416576385498
1790267522015566000,10.889566162109375,1.4127707481384277,0.8659913539886475,-0.8174352645874023
1790267522025566000,10.89956591796875,1.1641359329223633,0.8449077606201172,-0.9050102233886719
1790267522035566000,10.909566162109375,0.6705074310302734,0.713068962097168,-0.8174490928649902
1790267522045566000,10.91956591796875,0.4206409454345703,0.4443986415863037,-0.45430850982666016
1790267522055566000,10.929566162109374,0.034104347229003906,-0.013415336608886719,0.006709098815917969
1790267522065566000,10.93956591796875,-0.5558924674987793,-0.6838126182556152,0.28786754608154297
1790267522075566000,10.949566162109376,-0.5727119445800781,-1.323862075805664,0.6548242568969727
1790267522085566000,10.95956591796875,-0.3794264793395996,-2.1796627044677734,0.9282159805297852
1790267522095566000,10.969566162109375,-0.42661428451538086,-3.019770622253418,1.1534757614135742
1790267522105566000,10.97956591796875,-0.5485000610351562,-3.5825791358947754,1.2925934791564941
1790267522115566000,10.989566162109375,-0.7797431945800781,-3.6847786903381348,1.4341716766357422
1790267522125566000,10.99956591796875,-1.0704731941223145,-3.4039759635925293,1.2220940589904785
1790267522135566000,11.009566162109374,-1.665339469909668,-3.019528388977051,0.7961835861206055
1790267522145566000,11.01956591796875,-1.9727110862731934,-2.5396203994750977,0.40900135040283203
1790267522155566000,11.029566162109376,-1.672497272491455,-2.1082324981689453,0.15541982650756836
1790267522165566000,11.03956591796875,-0.9683771133422852,-1.7966389656066895,0.05170774459838867
1790267522175566000,11.049566162109375,-1.0068631172180176,-1.5912127494812012,-0.13551664352416992
1790267522185566000,11.05956591796875,-1.3977851867675781,-1.6427617073059082,-0.35293006896972656
1790267522195566000,11.069566162109375,-1.4907050132751465,-1.844818115234375,-0.35112714767456055
1790267522205566000,11.07956591796875,-1.6585087776184082,-2.0371127128601074,-0.26761960983276367
1790267522215566000,11.089566162109374,-2.106387138366699,-2.2039480209350586,-0.3501911163330078
1790267522225566000,11.09956591796875,-2.351506233215332,-2.2486085891723633,-0.3075227737426758
1790267522235566000,11.109566162109376,-2.3438591957092285,-2.249647617340088,-0.22407770156860352
1790267522245566000,11.11956591796875,-2.155582904815674,-2.1364426612854004,-0.10904312133789062
1790267522255566000,11.129566162109375,-1.7772068977355957,-1.8942861557006836,0.256561279296875
1790267522265566000,11.13956591796875,-1.5508122444152832,-1.5075287818908691,0.8049602508544922
1790267522275566000,11.149566162109375,-1.3173699378967285,-1.049696922302246,1.336357593536377
1790267522285566000,11.15956591796875,-0.8413810729980469,-0.697974681854248,1.80824613571167
1790267522295566000,11.169566162109374,-0.42838001251220703,-0.3754158020019531,2.2490129470825195
1790267522305566000,11.17956591796875,-0.45533037185668945,-0.07571935653686523,2.430622100830078
1790267522315566000,11.189566162109376,-0.9290170669555664,0.15454721450805664,2.262110710144043
1790267522325566000,11.19956591796875,-1.6224822998046875,0.24894428253173828,2.056675434112549
1790267522335566000,11.209566162109375,-2.004274368286133,0.17961883544921875,1.9198570251464844
1790267522345566000,11.21956591796875,-1.853722095489502,-0.03828239440917969,1.845383644104004
1790267522355566000,11.229566162109375,-1.3752684593200684,-0.2850356101989746,1.8682031631469727
1790267522365566000,11.23956591796875,-0.8771843910217285,-0.4822120666503906,1.8008861541748047
1790267522375566000,11.249566162109375,-0.659386157989502,-0.5538792610168457,1.3978147506713867
1790267522385566000,11.25956591796875,-0.6609592437744141,-0.48516082763671875,0.7323417663574219
1790267522395566000,11.269566162109374,-0.7732563018798828,-0.3221116065979004,0.1976323127746582
1790267522405566000,11.27956591796875,-0.9428906440734863,-0.2496933937072754,0.01971578598022461
1790267522415566000,11.289566162109375,-1.1975593566894531,-0.31308603286743164,0.09290218353271484
1790267522425566000,11.29956591796875,-1.5319452285766602,-0.5232157707214355,0.3519430160522461
1790267522435566000,11.309566162109375,-1.8521876335144043,-0.8272562026977539,0.6192960739135742
1790267522445566000,11.31956591796875,-1.9803471565246582,-1.094923973083496,0.6934852600097656
1790267522455566000,11.329566162109375,-1.8347558975219727,-1.2793164253234863,0.6646203994750977
1790267522465566000,11.33956591796875,-1.4613261222839355,-1.3774189949035645,0.5394768714904785
1790267522475566000,11.349566162109374,-1.046678066253662,-1.3070335388183594,0.39046669006347656
1790267522485566000,11.35956591796875,-0.6264996528625488,-1.0859932899475098,0.38199377059936523
1790267522495566000,11.369566162109376,-0.32781124114990234,-0.8477349281311035,0.4141054153442383
1790267522505566000,11.37956591796875,-0.20427942276000977,-0.7099819183349609,0.4236440658569336
1790267522515566000,11.389566162109375,-0.1316695213317871,-0.6938667297363281,0.44832706451416016
1790267522525566000,11.39956591796875,-0.14751052856445312,-0.7162532806396484,0.4668107032775879
1790267522535566000,11.409566162109375,-0.2435307502746582,-0.7142701148986816,0.48079681396484375
1790267522545566000,11.41956591796875,-0.2920088768005371,-0.6898937225341797,0.4308633804321289
1790267522555566000,11.429566162109374,-0.4619011878967285,-0.6225509643554688,0.21866369247436523
1790267522565566000,11.43956591796875,-0.6561627388000488,-0.5058989524841309,-0.047215938568115234
1790267522575566000,11.449566162109376,-0.8080005645751953,-0.3903388977050781,-0.2675600051879883
1790267522585566000,11.45956591796875,-1.000230312347412,-0.45996570587158203,-0.22539854049682617
1790267522595566000,11.469566162109375,-1.17600679397583,-0.5814886093139648,0.07717323303222656
1790267522605566000,11.47956591796875,-1.2565736770629883,-0.7186484336853027,0.5996031761169434
1790267522615566000,11.489566162109375,-1.2169852256774902,-0.801694393157959,1.135880470275879
1790267522625566000,11.49956591796875,-1.0932183265686035,-0.8643240928649902,1.4727015495300293
1790267522635566000,11.509566162109374,-0.9014596939086914,-0.8960709571838379,1.6169710159301758
1790267522645566000,11.51956591796875,-0.7979393005371094,-0.987694263458252,1.4626703262329102
1790267522655566000,11.529566162109376,-0.8439755439758301,-1.1061344146728516,1.1410346031188965
1790267522665566000,11.53956591796875,-0.8367853164672852,-1.1282238960266113,0.920382022857666
1790267522675566000,11.549566162109375,-0.7399039268493652,-1.0840463638305664,0.8391661643981934
1790267522685566000,11.55956591796875,-0.6033334732055664,-1.0855164527893066,0.8572945594787598
1790267522695566000,11.569566162109375,-0.40529394149780273,-1.1568584442138672,0.9434394836425781
1790267522705566000,11.57956591796875,-0.25182485580444336,-1.2530593872070312,1.0866284370422363
1790267522715566000,11.589566162109374,-0.299008846282959,-1.3921122550964355,1.2007570266723633
1790267522725566000,11.59956591796875,-0.3017578125,-1.5452947616577148,1.1941275596618652
1790267522735566000,11.609566162109376,-0.24254798889160156,-1.6015748977661133,1.1132731437683105
1790267522745566000,11.61956591796875,-0.33190155029296875,-1.5849919319152832,1.0390667915344238
1790267522755566000,11.629566162109375,-0.2578163146972656,-1.573904037475586,0.9777379035949707
1790267522765566000,11.63956591796875,-0.004971027374267578,-1.5726556777954102,1.0671005249023438
1790267522775566000,11.649566162109375,0.0831136703491211,-1.5735087394714355,1.0822601318359375
1790267522785566000,11.65956591796875,0.4480423927307129,-1.429945945739746,0.8260941505432129
1790267522795566000,11.669566162109374,1.0422720909118652,-1.0984759330749512,0.3910965919494629
1790267522805566000,11.67956591796875,1.1783137321472168,-0.7707316875457764,0.22213077545166016
1790267522815566000,11.689566162109376,0.7971367835998535,-0.6036124229431152,0.27889013290405273
1790267522825566000,11.69956591796875,0.34910011291503906,-0.5862550735473633,0.4647250175476074
1790267522835566000,11.709566162109375,0.13404560089111328,-0.6523036956787109,0.5283331871032715
1790267522845566000,11.71956591796875,0.08323526382446289,-0.7347574234008789,0.7396683692932129
1790267522855566000,11.729566162109375,-0.21011829376220703,-0.9416911602020264,0.9349236488342285
1790267522865566000,11.73956591796875,-0.003993034362792969,-1.1316132545471191,0.7603564262390137
1790267522875566000,11.749566162109375,1.0252809524536133,-1.2889471054077148,0.41004371643066406
1790267522885566000,11.75956591796875,2.038464069366455,-1.2478439807891846,0.4152946472167969
1790267522895566000,11.769566162109374,1.790346622467041,-1.0341014862060547,0.2988457679748535
1790267522905566000,11.77956591796875,1.2260513305664062,-0.8096480369567871,0.06038713455200195
1790267522915566000,11.789566162109375,1.6223869323730469,-0.8149619102478027,-0.2641134262084961
1790267522925566000,11.79956591796875,2.4758548736572266,-0.8608818054199219,-0.9534363746643066
1790267522935566000,11.809566162109375,3.1545019149780273,-0.6482932567596436,-1.4377760887145996
1790267522945566000,11.81956591796875,3.015439987182617,-0.3030737638473511,-1.5189540386199951
1790267522955566000,11.829566162109375,2.606050491333008,-0.1309279203414917,-1.701073169708252
1790267522965566000,11.83956591796875,2.111600875854492,-0.11601471900939941,-1.6850569248199463
1790267522975566000,11.849566162109374,1.168290138244629,-0.17367660999298096,-1.490492343902588
1790267522985566000,11.85956591796875,1.3154802322387695,-0.2042694091796875,-0.9946653842926025
1790267522995566000,11.869566162109376,1.8752837181091309,-0.19936108589172363,-0.4852712154388428
1790267523005566000,11.87956591796875,2.275223731994629,-0.05029499530792236,-0.3454432487487793
1790267523015566000,11.889566162109375,2.6667490005493164,0.22335141897201538,-0.30951404571533203
1790267523025566000,11.89956591796875,2.46351957321167,0.37945425510406494,-0.7833986282348633
1790267523035566000,11.909566162109375,1.8848423957824707,0.363197922706604,-1.5784997940063477
1790267523045566000,11.91956591796875,2.098057746887207,0.2890567183494568,-1.9413299560546875
1790267523055566000,11.929566162109374,2.9376773834228516,0.18358778953552246,-1.8989830017089844
1790267523065566000,11.93956591796875,3.8514175415039062,0.2302696704864502,-1.7580785751342773
1790267523075566000,11.949566162109376,4.103327751159668,0.5102536678314209,-1.822131633758545
1790267523085566000,11.95956591796875,3.6825790405273438,1.1175873279571533,-2.0008246898651123
1790267523095566000,11.969566162109375,3.307690143585205,1.757124900817871,-2.2278425693511963
1790267523105566000,11.97956591796875,3.5123586654663086,2.0982186794281006,-2.4928371906280518
1790267523115566000,11.989566162109375,3.8000078201293945,2.008652925491333,-2.7856132984161377
1790267523125566000,11.99956591796875,3.4837303161621094,1.7003982067108154,-2.829902410507202
1790267523135566000,12.009566162109374,3.328296661376953,1.4041391611099243,-2.427701711654663
1790267523145566000,12.01956591796875,3.18936824798584,1.2186064720153809,-2.0854625701904297
1790267523155566000,12.029566162109376,2.966291904449463,1.1376068592071533,-1.8987741470336914
1790267523165566000,12.03956591796875,2.473355293273926,1.1180816888809204,-1.7854013442993164
1790267523175566000,12.049566162109375,2.2856030464172363,1.1834813356399536,-1.5675950050354004
1790267523185566000,12.05956591796875,2.306948661804199,1.2379409074783325,-1.3573153018951416
1790267523195566000,12.069566162109375,2.141732692718506,1.2062275409698486,-1.2738604545593262
1790267523205566000,12.07956591796875,1.8555212020874023,1.0797007083892822,-1.1022191047668457
1790267523215566000,12.089566162109374,1.7052350044250488,0.9625097513198853,-1.0574321746826172
1790267523225566000,12.09956591796875,1.5949077606201172,0.8264237642288208,-0.9214065074920654
1790267523235566000,12.109566162109376,1.735447883605957,0.6264543533325195,-0.6775088310241699
1790267523245566000,12.11956591796875,1.7746477127075195,0.3889191150665283,-0.6197900772094727
1790267523255566000,12.129566162109375,1.7402338981628418,0.13643550872802734,-0.7299108505249023
1790267523265566000,12.13956591796875,1.550969123840332,-0.13746356964111328,-0.7569036483764648
1790267523275566000,12.149566162109375,1.4803895950317383,-0.38252735137939453,-0.6417407989501953
1790267523285566000,12.15956591796875,1.1053414344787598,-0.4749765396118164,-0.5410780906677246
1790267523295566000,12.169566162109374,0.8507657051086426,-0.4702019691467285,-0.39385414123535156
1790267523305566000,12.17956591796875,0.9901561737060547,-0.37541627883911133,-0.1473078727722168
1790267523315566000,12.189566162109376,0.9191460609436035,-0.2366316318511963,-0.16121435165405273
1790267523325566000,12.19956591796875,0.4645376205444336,-0.15010476112365723,-0.28310155868530273
1790267523335566000,12.209566162109375,0.31095409393310547,-0.16039729118347168,-0.23868799209594727
1790267523345566000,12.21956591796875,0.6912937164306641,-0.24237871170043945,0.04658651351928711
1790267523355566000,12.229566162109375,1.009631633758545,-0.3571662902832031,0.19953155517578125
1790267523365566000,12.23956591796875,1.1479158401489258,-0.4961886405944824,0.22689104080200195
1790267523375566000,12.249566162109375,1.2137813568115234,-0.7335186004638672,0.36607885360717773
1790267523385566000,12.25956591796875,0.742887020111084,-0.9940385818481445,0.27036142349243164
1790267523395566000,12.269566162109374,-0.17116355895996094,-1.3362598419189453,0.10534286499023438
1790267523405566000,12.27956591796875,-0.7589712142944336,-1.6472668647766113,0.09822750091552734
1790267523415566000,12.289566162109375,-1.0175113677978516,-1.8421049118041992,0.2781682014465332
1790267523425566000,12.29956591796875,-1.4207344055175781,-1.9380993843078613,0.4443502426147461
1790267523435566000,12.309566162109375,-1.7381372451782227,-2.0061802864074707,0.5606536865234375
1790267523445566000,12.31956591796875,-1.584414005279541,-2.009974956512451,0.6552762985229492
1790267523455566000,12.329566162109375,-1.403696060180664,-1.9770684242248535,0.748957633972168
1790267523465566000,12.33956591796875,-1.3677587509155273,-1.9807305335998535,0.8453850746154785
1790267523475566000,12.349566162109374,-1.5708942413330078,-2.046074390411377,0.847012996673584
1790267523485566000,12.35956591796875,-1.8622956275939941,-2.1511054039001465,0.7572636604309082
1790267523495566000,12.369566162109376,-1.9761438369750977,-2.152479648590088,0.7176122665405273
1790267523505566000,12.37956591796875,-1.692361831665039,-2.0130152702331543,0.7781639099121094
1790267523515566000,12.389566162109375,-1.0996379852294922,-1.8220734596252441,0.8905653953552246
1790267523525566000,12.39956591796875,-0.6845703125,-1.5275254249572754,1.062291145324707
1790267523535566000,12.409566162109375,-0.7807259559631348,-1.2265830039978027,1.3925061225891113
1790267523545566000,12.41956591796875,-1.1498794555664062,-0.9614849090576172,1.8229241371154785
1790267523555566000,12.429566162109374,-1.2653188705444336,-0.6151857376098633,2.0212936401367188
1790267523565566000,12.43956591796875,-1.067399501800537,-0.27085399627685547,2.2541136741638184
1790267523575566000,12.449566162109376,-1.1277823448181152,0.0029053688049316406,2.44000244140625
1790267523585566000,12.45956591796875,-1.3185791969299316,0.16035079956054688,2.309791088104248
1790267523595566000,12.469566162109375,-1.5187101364135742,0.1398453712463379,2.0121378898620605
1790267523605566000,12.47956591796875,-1.6267542839050293,-0.05352497100830078,1.7675418853759766
1790267523615566000,12.489566162109375,-1.7797956466674805,-0.5603227615356445,1.6588749885559082
1790267523625566000,12.49956591796875,-1.8728981018066406,-1.1330523490905762,1.696591854095459
1790267523635566000,12.509566162109374,-1.7029829025268555,-1.6302223205566406,1.8551855087280273
1790267523645566000,12.51956591796875,-1.4525799751281738,-1.857295036315918,1.704483985900879
1790267523655566000,12.529566162109376,-1.4551725387573242,-1.8464031219482422,1.2305936813354492
1790267523665566000,12.53956591796875,-1.5851335525512695,-1.6387147903442383,0.6126012802124023
1790267523675566000,12.549566162109375,-1.6026215553283691,-1.3937225341796875,0.0739431381225586
1790267523685566000,12.55956591796875,-1.585646629333496,-1.1795825958251953,-0.2702813148498535
