time,seconds_elapsed,z,y,x
1790267511205566000,0.07956591796875,8.425268173217773,4.987245559692383,0.5591354966163635
1790267511215566000,0.089566162109375,8.54049015045166,4.691699981689453,1.103796362876892
1790267511225566000,0.09956591796875,8.54734992980957,4.69894552230835,1.0164240598678589
1790267511235566000,0.109566162109375,8.481401443481445,4.8773088455200195,0.6693885922431946
1790267511245566000,0.11956591796875,8.38696575164795,5.0744147300720215,0.28197693824768066
1790267511255566000,0.129566162109375,8.28366470336914,5.2483439445495605,-0.07841455191373825
1790267511265566000,0.13956591796875,8.172480583190918,5.403965950012207,-0.42200714349746704
1790267511275566000,0.149566162109375,8.05965805053711,5.535773754119873,-0.7533279657363892
1790267511285566000,0.15956591796875,7.968240737915039,5.621069431304932,-1.0397638082504272
1790267511295566000,0.169566162109375,7.917300224304199,5.645749568939209,-1.2697465419769287
1790267511305566000,0.17956591796875,7.908529281616211,5.619265556335449,-1.4315732717514038
1790267511315566000,0.189566162109375,7.911965847015381,5.595457077026367,-1.5040115118026733
1790267511325566000,0.19956591796875,7.868973255157471,5.649017810821533,-1.5291327238082886
1790267511335566000,0.209566162109375,7.894212245941162,5.616742134094238,-1.5178980827331543
1790267511345566000,0.21956591796875,7.999550819396973,5.467159271240234,-1.5125309228897095
1790267511355566000,0.229566162109375,8.219756126403809,5.145167350769043,-1.4605580568313599
1790267511365566000,0.23956591796875,8.43626880645752,4.77020263671875,-1.4983073472976685
1790267511375566000,0.249566162109375,8.624442100524902,4.386474609375,-1.596318006515503
1790267511385566000,0.25956591796875,8.827890396118164,3.967073678970337,-1.5814714431762695
1790267511395566000,0.269566162109375,9.024469375610352,3.53230619430542,-1.500717043876648
1790267511405566000,0.27956591796875,9.189087867736816,3.1296911239624023,-1.3914388418197632
1790267511415566000,0.289566162109375,9.313887596130371,2.794768810272217,-1.26930832862854
1790267511425566000,0.29956591796875,9.40105152130127,2.526989459991455,-1.185299038887024
1790267511435566000,0.309566162109375,9.462762832641602,2.3006551265716553,-1.1547690629959106
1790267511445566000,0.31956591796875,9.504626274108887,2.111605167388916,-1.1720032691955566
1790267511455566000,0.329566162109375,9.525697708129883,1.9706571102142334,-1.244174599647522
1790267511465566000,0.33956591796875,9.524327278137207,1.8794567584991455,-1.3875246047973633
1790267511475566000,0.349566162109375,9.496682167053223,1.8339663743972778,-1.618630051612854
1790267511485566000,0.35956591796875,9.437273979187012,1.8351681232452393,-1.9340137243270874
1790267511495566000,0.369566162109375,9.341358184814453,1.8891639709472656,-2.3109490871429443
1790267511505566000,0.37956591796875,9.204780578613281,2.001591205596924,-2.7269093990325928
1790267511515566000,0.389566162109375,9.085952758789062,2.114426851272583,-3.0240769386291504
1790267511525566000,0.39956591796875,9.047330856323242,2.18554949760437,-3.0886192321777344
1790267511535566000,0.409566162109375,8.985257148742676,2.2718582153320312,-3.2053382396698
1790267511545566000,0.41956591796875,8.898639678955078,2.361915111541748,-3.3772692680358887
1790267511555566000,0.429566162109375,8.830098152160645,2.4105138778686523,-3.5198254585266113
1790267511565566000,0.43956591796875,8.80351448059082,2.412659168243408,-3.5843544006347656
1790267511575566000,0.449566162109375,8.815048217773438,2.3916735649108887,-3.5700438022613525
1790267511585566000,0.45956591796875,8.842581748962402,2.3820462226867676,-3.507845878601074
1790267511595566000,0.469566162109375,8.86998462677002,2.401447296142578,-3.42444109916687
1790267511605566000,0.47956591796875,8.897080421447754,2.4511301517486572,-3.317272663116455
1790267511615566000,0.489566162109375,8.923890113830566,2.522188901901245,-3.189535140991211
1790267511625566000,0.49956591796875,8.948769569396973,2.611548900604248,-3.0446226596832275
1790267511635566000,0.509566162109375,8.9669828414917,2.7057814598083496,-2.9055700302124023
1790267511645566000,0.51956591796875,8.979195594787598,2.8044354915618896,-2.771205425262451
1790267511655566000,0.529566162109375,8.989850997924805,2.9015867710113525,-2.6332058906555176
1790267511665566000,0.53956591796875,9.002031326293945,2.9915547370910645,-2.4868478775024414
1790267511675566000,0.549566162109375,9.01708984375,3.068298578262329,-2.3340983390808105
1790267511685566000,0.55956591796875,9.037991523742676,3.125990629196167,-2.1710076332092285
1790267511695566000,0.569566162109375,9.068580627441406,3.161491632461548,-1.9839869737625122
1790267511705566000,0.57956591796875,9.106287002563477,3.183053970336914,-1.7646796703338623
1790267511715566000,0.589566162109375,9.142012596130371,3.1982970237731934,-1.5378159284591675
1790267511725566000,0.59956591796875,9.164432525634766,3.2075717449188232,-1.37660813331604
1790267511735566000,0.609566162109375,9.17158031463623,3.196798324584961,-1.3538758754730225
1790267511745566000,0.61956591796875,9.16910171508789,3.1611828804016113,-1.4508225917816162
1790267511755566000,0.629566162109375,9.163466453552246,3.1136558055877686,-1.583168387413025
1790267511765566000,0.63956591796875,9.155513763427734,3.059988260269165,-1.7272603511810303
1790267511775566000,0.649566162109375,9.142088890075684,3.0105338096618652,-1.8786373138427734
1790267511785566000,0.65956591796875,9.12766170501709,2.977271318435669,-1.9980089664459229
1790267511795566000,0.669566162109375,9.11528205871582,2.9623970985412598,-2.075141668319702
1790267511805566000,0.67956591796875,9.102149963378906,2.959852457046509,-2.1355409622192383
1790267511815566000,0.689566162109375,9.084181785583496,2.968106746673584,-2.1996302604675293
1790267511825566000,0.69956591796875,9.052799224853516,3.003450870513916,-2.279581069946289
1790267511835566000,0.709566162109375,9.01406478881836,3.0665342807769775,-2.348057270050049
1790267511845566000,0.71956591796875,8.974214553833008,3.154425859451294,-2.383999824523926
1790267511855566000,0.729566162109375,8.933752059936523,3.2702085971832275,-2.3799569606781006
1790267511865566000,0.73956591796875,8.892119407653809,3.4063007831573486,-2.344719171524048
1790267511875566000,0.749566162109375,8.846246719360352,3.5517048835754395,-2.3021090030670166
1790267511885566000,0.75956591796875,8.802637100219727,3.696638345718384,-2.2402751445770264
1790267511895566000,0.769566162109375,8.772774696350098,3.832472562789917,-2.1262564659118652
1790267511905566000,0.77956591796875,8.749456405639648,3.963355779647827,-1.9771722555160522
1790267511915566000,0.789566162109375,8.722969055175781,4.090628147125244,-1.8294707536697388
1790267511925566000,0.79956591796875,8.687275886535645,4.218378067016602,-1.704963207244873
1790267511935566000,0.809566162109375,8.640056610107422,4.346547603607178,-1.620903491973877
1790267511945566000,0.81956591796875,8.59219741821289,4.458794593811035,-1.5696111917495728
1790267511955566000,0.829566162109375,8.545637130737305,4.558272361755371,-1.537726640701294
1790267511965566000,0.83956591796875,8.505694389343262,4.64399528503418,-1.5022833347320557
1790267511975566000,0.849566162109375,8.476592063903809,4.713083744049072,-1.4507322311401367
1790267511985566000,0.85956591796875,8.462974548339844,4.757217884063721,-1.3846763372421265
1790267511995566000,0.869566162109375,8.462925910949707,4.7786383628845215,-1.3091589212417603
1790267512005566000,0.87956591796875,8.473937034606934,4.784877777099609,-1.2114940881729126
1790267512015566000,0.889566162109375,8.487835884094238,4.789666652679443,-1.0890921354293823
1790267512025566000,0.89956591796875,8.49574089050293,4.805106163024902,-0.950647234916687
1790267512035566000,0.909566162109375,8.494424819946289,4.831386566162109,-0.8202680945396423
1790267512045566000,0.91956591796875,8.48423957824707,4.867356777191162,-0.7049242854118347
1790267512055566000,0.929566162109375,8.465841293334961,4.9132161140441895,-0.6001896262168884
1790267512065566000,0.93956591796875,8.439972877502441,4.968384742736816,-0.5024016499519348
1790267512075566000,0.949566162109375,8.410064697265625,5.028968811035156,-0.38816189765930176
1790267512085566000,0.95956591796875,8.37492847442627,5.095048904418945,-0.26730650663375854
1790267512095566000,0.969566162109375,8.335466384887695,5.163996696472168,-0.15337304770946503
1790267512105566000,0.97956591796875,8.295655250549316,5.229786396026611,-0.04280807450413704
1790267512115566000,0.989566162109375,8.25635051727295,5.291397571563721,0.06468117237091064
1790267512125566000,0.99956591796875,8.220222473144531,5.345170974731445,0.16573838889598846
1790267512135566000,1.009566162109375,8.196028709411621,5.378695964813232,0.2552463710308075
1790267512145566000,1.01956591796875,8.194533348083496,5.376893043518066,0.33022060990333557
1790267512155566000,1.029566162109375,8.208523750305176,5.353643417358398,0.3591969609260559
1790267512165566000,1.03956591796875,8.235207557678223,5.312005043029785,0.3665306866168976
1790267512175566000,1.049566162109375,8.272350311279297,5.252104759216309,0.39244934916496277
1790267512185566000,1.05956591796875,8.314827919006348,5.178465366363525,0.46640774607658386
1790267512195566000,1.069566162109375,8.35689640045166,5.096172332763672,0.6014183759689331
1790267512205566000,1.07956591796875,8.391159057617188,5.013852119445801,0.7874850034713745
1790267512215566000,1.089566162109375,8.41363525390625,4.9353108406066895,1.011853575706482
1790267512225566000,1.09956591796875,8.424612045288086,4.854120254516602,1.2782073020935059
1790267512235566000,1.109566162109375,8.423054695129395,4.765397071838379,1.585411787033081
1790267512245566000,1.11956591796875,8.407584190368652,4.674356937408447,1.9061211347579956
1790267512255566000,1.129566162109375,8.385819435119629,4.575376510620117,2.2168333530426025
1790267512265566000,1.13956591796875,8.367770195007324,4.456286430358887,2.5084493160247803
1790267512275566000,1.149566162109375,8.357128143310547,4.314309120178223,2.7776875495910645
1790267512285566000,1.15956591796875,8.34739875793457,4.15776252746582,3.033865213394165
1790267512295566000,1.169566162109375,8.321504592895508,3.9983301162719727,3.307006359100342
1790267512305566000,1.17956591796875,8.271623611450195,3.842984914779663,3.6030709743499756
1790267512315566000,1.189566162109375,8.187847137451172,3.6843066215515137,3.9440369606018066
1790267512325566000,1.19956591796875,8.068964004516602,3.505293607711792,4.33302640914917
1790267512335566000,1.209566162109375,7.921486854553223,3.294203996658325,4.750646591186523
1790267512345566000,1.21956591796875,7.765936374664307,3.051877498626709,5.152345657348633
1790267512355566000,1.229566162109375,7.615966796875,2.7922072410583496,5.510990619659424
1790267512365566000,1.23956591796875,7.45249605178833,2.5391087532043457,5.846675395965576
1790267512375566000,1.249566162109375,7.250172138214111,2.3073670864105225,6.18720006942749
1790267512385566000,1.25956591796875,6.982774257659912,2.1012260913848877,6.5571417808532715
1790267512395566000,1.269566162109375,6.630446434020996,1.908455729484558,6.968885898590088
1790267512405566000,1.27956591796875,6.192982196807861,1.7017947435379028,7.410887241363525
1790267512415566000,1.289566162109375,5.695069313049316,1.4476442337036133,7.851171970367432
1790267512425566000,1.29956591796875,5.154512405395508,1.1226320266723633,8.266867637634277
1790267512435566000,1.309566162109375,4.575271129608154,0.7487866282463074,8.641562461853027
1790267512445566000,1.31956591796875,3.9750516414642334,0.3853437304496765,8.956609725952148
1790267512455566000,1.329566162109375,3.362732172012329,0.07228859513998032,9.211795806884766
1790267512465566000,1.33956591796875,2.7215981483459473,-0.1968960016965866,9.4193696975708
1790267512475566000,1.349566162109375,2.0417447090148926,-0.4377845227718353,9.581753730773926
1790267512485566000,1.35956591796875,1.3278154134750366,-0.6736583113670349,9.692959785461426
1790267512495566000,1.369566162109375,0.5994471907615662,-0.9284052848815918,9.744183540344238
1790267512505566000,1.37956591796875,-0.11607590317726135,-1.220444917678833,9.729718208312988
1790267512515566000,1.389566162109375,-0.7875556945800781,-1.5533841848373413,9.650757789611816
1790267512525566000,1.39956591796875,-1.3802220821380615,-1.9010505676269531,9.521101951599121
1790267512535566000,1.409566162109375,-1.868557333946228,-2.216310739517212,9.368396759033203
1790267512545566000,1.41956591796875,-2.2495152950286865,-2.4697341918945312,9.220111846923828
1790267512555566000,1.429566162109375,-2.541126251220703,-2.6786305904388428,9.085042953491211
1790267512565566000,1.43956591796875,-2.7640695571899414,-2.8760454654693604,8.958720207214355
1790267512575566000,1.449566162109375,-2.9376981258392334,-3.096639394760132,8.828994750976562
1790267512585566000,1.45956591796875,-3.0783891677856445,-3.357344150543213,8.684592247009277
1790267512595566000,1.469566162109375,-3.188500165939331,-3.642650842666626,8.528478622436523
1790267512605566000,1.47956591796875,-3.2652981281280518,-3.919833183288574,8.375149726867676
1790267512615566000,1.489566162109375,-3.308284282684326,-4.164355278015137,8.239161491394043
1790267512625566000,1.49956591796875,-3.3222978115081787,-4.367814540863037,8.12741756439209
1790267512635566000,1.509566162109375,-3.316746473312378,-4.5264458656311035,8.042441368103027
1790267512645566000,1.51956591796875,-3.300307512283325,-4.635659217834473,7.986802101135254
1790267512655566000,1.529566162109375,-3.2800190448760986,-4.699851989746094,7.957591533660889
1790267512665566000,1.53956591796875,-3.2565057277679443,-4.734146595001221,7.94691276550293
1790267512675566000,1.549566162109375,-3.210702419281006,-4.759462833404541,7.950427532196045
1790267512685566000,1.55956591796875,-3.139697551727295,-4.783685684204102,7.964234352111816
1790267512695566000,1.569566162109375,-3.0546393394470215,-4.802913665771484,7.985711097717285
1790267512705566000,1.57956591796875,-2.966785192489624,-4.813579082489014,8.01236629486084
1790267512715566000,1.589566162109375,-2.881009817123413,-4.820088863372803,8.039708137512207
1790267512725566000,1.59956591796875,-2.8095648288726807,-4.822118759155273,8.063739776611328
1790267512735566000,1.609566162109375,-2.7651824951171875,-4.799041271209717,8.092796325683594
1790267512745566000,1.61956591796875,-2.7474284172058105,-4.739007472991943,8.134115219116211
1790267512755566000,1.629566162109375,-2.7556240558624268,-4.63915491104126,8.188721656799316
1790267512765566000,1.63956591796875,-2.792548894882202,-4.499157428741455,8.254067420959473
1790267512775566000,1.649566162109375,-2.8657920360565186,-4.322714328765869,8.322965621948242
1790267512785566000,1.65956591796875,-2.981562614440918,-4.104139804840088,8.392658233642578
1790267512795566000,1.669566162109375,-3.135773181915283,-3.842238426208496,8.460171699523926
1790267512805566000,1.67956591796875,-3.318192958831787,-3.5511608123779297,8.517584800720215
1790267512815566000,1.689566162109375,-3.512312173843384,-3.251723289489746,8.559226036071777
1790267512825566000,1.69956591796875,-3.7038795948028564,-2.964679718017578,8.582676887512207
1790267512835566000,1.709566162109375,-3.889538288116455,-2.693803071975708,8.589837074279785
1790267512845566000,1.71956591796875,-4.071160793304443,-2.4385640621185303,8.581924438476562
1790267512855566000,1.729566162109375,-4.240002155303955,-2.204159736633301,8.563553810119629
1790267512865566000,1.73956591796875,-4.390188694000244,-1.9881227016448975,8.540726661682129
1790267512875566000,1.749566162109375,-4.533477783203125,-1.8018178939819336,8.5071382522583
1790267512885566000,1.75956591796875,-4.678801536560059,-1.660435676574707,8.457077026367188
1790267512895566000,1.769566162109375,-4.821761131286621,-1.569240689277649,8.393956184387207
1790267512905566000,1.77956591796875,-4.958743572235107,-1.5147405862808228,8.323869705200195
1790267512915566000,1.789566162109375,-5.094651222229004,-1.4623199701309204,8.250850677490234
1790267512925566000,1.79956591796875,-5.1977996826171875,-1.4055757522583008,8.196195602416992
1790267512935566000,1.809566162109375,-5.269604206085205,-1.3790262937545776,8.154749870300293
1790267512945566000,1.81956591796875,-5.319740295410156,-1.3883825540542603,8.120537757873535
1790267512955566000,1.829566162109375,-5.345073699951172,-1.4309611320495605,8.096476554870605
1790267512965566000,1.83956591796875,-5.364735126495361,-1.4847326278686523,8.073759078979492
1790267512975566000,1.849566162109375,-5.459816932678223,-1.5358176231384277,8.000127792358398
1790267512985566000,1.85956591796875,-5.643673419952393,-1.5832223892211914,7.8621087074279785
1790267512995566000,1.869566162109375,-5.842475891113281,-1.606877088546753,7.710629463195801
1790267513005566000,1.87956591796875,-6.003862380981445,-1.571624994277954,7.593024730682373
1790267513015566000,1.889566162109375,-6.119653224945068,-1.4777851104736328,7.51906681060791
1790267513025566000,1.89956591796875,-6.184685230255127,-1.3595272302627563,7.4881062507629395
1790267513035566000,1.909566162109375,-6.221288204193115,-1.2446863651275635,7.477747917175293
1790267513045566000,1.91956591796875,-6.247743606567383,-1.1525025367736816,7.470463275909424
1790267513055566000,1.929566162109375,-6.2515549659729,-1.086398959159851,7.477176666259766
1790267513065566000,1.93956591796875,-6.234071254730225,-1.0400958061218262,7.498329162597656
1790267513075566000,1.949566162109375,-6.196945667266846,-1.0120397806167603,7.532863616943359
1790267513085566000,1.95956591796875,-6.147834300994873,-0.9930919408798218,7.575506687164307
1790267513095566000,1.969566162109375,-6.098642826080322,-0.9772843718528748,7.617208003997803
1790267513105566000,1.97956591796875,-6.069089412689209,-0.9613029956817627,7.642802715301514
1790267513115566000,1.989566162109375,-6.0531511306762695,-0.927793562412262,7.6595659255981445
1790267513125566000,1.99956591796875,-6.077518939971924,-0.9092755317687988,7.642471790313721
1790267513135566000,2.009566162109375,-6.150156021118164,-0.9250833988189697,7.582228183746338
1790267513145566000,2.01956591796875,-6.265615463256836,-0.9640493988990784,7.482183456420898
1790267513155566000,2.029566162109375,-6.422669410705566,-0.9912492036819458,7.3441901206970215
1790267513165566000,2.03956591796875,-6.591983795166016,-1.0269454717636108,7.187594413757324
1790267513175566000,2.049566162109375,-6.759679317474365,-1.0854434967041016,7.021320819854736
1790267513185566000,2.05956591796875,-6.943141937255859,-1.1661758422851562,6.826653480529785
1790267513195566000,2.069566162109375,-7.152504920959473,-1.266483187675476,6.588479518890381
1790267513205566000,2.07956591796875,-7.384209632873535,-1.3787121772766113,6.30420446395874
1790267513215566000,2.089566162109375,-7.601456642150879,-1.4897189140319824,6.014065742492676
1790267513225566000,2.09956591796875,-7.742428779602051,-1.585252285003662,5.806217670440674
1790267513235566000,2.109566162109375,-7.792913436889648,-1.6548727750778198,5.718591690063477
1790267513245566000,2.11956591796875,-7.781365871429443,-1.7048028707504272,5.719648361206055
1790267513255566000,2.129566162109375,-7.746819019317627,-1.7559971809387207,5.750969409942627
1790267513265566000,2.13956591796875,-7.712884902954102,-1.8281646966934204,5.774046421051025
1790267513275566000,2.149566162109375,-7.6917572021484375,-1.9263489246368408,5.77030611038208
1790267513285566000,2.15956591796875,-7.6861982345581055,-2.042335033416748,5.737736225128174
1790267513295566000,2.169566162109375,-7.68480110168457,-2.1496145725250244,5.700296401977539
1790267513305566000,2.17956591796875,-7.670976161956787,-2.211843490600586,5.695107936859131
1790267513315566000,2.189566162109375,-7.642598628997803,-2.2266600131988525,5.727395534515381
1790267513325566000,2.19956591796875,-7.609089374542236,-2.2243196964263916,5.772741794586182
1790267513335566000,2.209566162109375,-7.549483299255371,-2.226557970046997,5.849627494812012
1790267513345566000,2.21956591796875,-7.4658331871032715,-2.2335498332977295,5.953400611877441
1790267513355566000,2.229566162109375,-7.381782054901123,-2.2239432334899902,6.060838222503662
1790267513365566000,2.23956591796875,-7.312106132507324,-2.194106101989746,6.155435562133789
1790267513375566000,2.249566162109375,-7.249285697937012,-2.1546545028686523,6.243052959442139
1790267513385566000,2.25956591796875,-7.183907508850098,-2.1175129413604736,6.330719947814941
1790267513395566000,2.269566162109375,-7.11452054977417,-2.0804061889648438,6.420738697052002
1790267513405566000,2.27956591796875,-7.037471294403076,-2.012341260910034,6.5264739990234375
1790267513415566000,2.289566162109375,-6.959737300872803,-1.8920382261276245,6.644745826721191
1790267513425566000,2.29956591796875,-6.892701625823975,-1.7252546548843384,6.759034633636475
1790267513435566000,2.309566162109375,-6.8569111824035645,-1.5542073249816895,6.836490154266357
1790267513445566000,2.31956591796875,-6.846428394317627,-1.4083688259124756,6.878467559814453
1790267513455566000,2.329566162109375,-6.835755348205566,-1.3015178442001343,6.9100565910339355
1790267513465566000,2.33956591796875,-6.812872409820557,-1.2266676425933838,6.946254253387451
1790267513475566000,2.349566162109375,-6.785467624664307,-1.1607294082641602,6.9843058586120605
1790267513485566000,2.35956591796875,-6.775158405303955,-1.0927298069000244,7.005252838134766
1790267513495566000,2.369566162109375,-6.790282249450684,-1.023445963859558,7.001072883605957
1790267513505566000,2.37956591796875,-6.80828332901001,-0.9450539946556091,6.994607925415039
1790267513515566000,2.389566162109375,-6.797609329223633,-0.8382499814033508,7.018564224243164
1790267513525566000,2.39956591796875,-6.783773422241211,-0.7305429577827454,7.043941974639893
1790267513535566000,2.409566162109375,-6.799879550933838,-0.6490139961242676,7.036391258239746
1790267513545566000,2.41956591796875,-6.845009803771973,-0.5958335995674133,6.997228145599365
1790267513555566000,2.429566162109375,-6.903024673461914,-0.5540022850036621,6.9434661865234375
1790267513565566000,2.43956591796875,-6.950772762298584,-0.5098773241043091,6.8990702629089355
1790267513575566000,2.449566162109375,-6.999940872192383,-0.4806543290615082,6.851290702819824
1790267513585566000,2.45956591796875,-7.076742649078369,-0.4887160658836365,6.771355152130127
1790267513595566000,2.469566162109375,-7.185885906219482,-0.530645489692688,6.652205467224121
1790267513605566000,2.47956591796875,-7.3158650398254395,-0.588240921497345,6.504034042358398
1790267513615566000,2.489566162109375,-7.44993782043457,-0.6403878927230835,6.344974994659424
1790267513625566000,2.49956591796875,-7.57308292388916,-0.665520191192627,6.194826602935791
1790267513635566000,2.509566162109375,-7.673610210418701,-0.641105055809021,6.072485446929932
1790267513645566000,2.51956591796875,-7.753115653991699,-0.5556823015213013,5.9791975021362305
1790267513655566000,2.529566162109375,-7.828221321105957,-0.4186753034591675,5.891862392425537
1790267513665566000,2.53956591796875,-7.890026569366455,-0.2558862268924713,5.8182806968688965
1790267513675566000,2.549566162109375,-7.928713321685791,-0.09463091194629669,5.770350933074951
1790267513685566000,2.55956591796875,-7.955443382263184,0.056235648691654205,5.733946800231934
1790267513695566000,2.569566162109375,-7.966773509979248,0.20050498843193054,5.7149553298950195
1790267513705566000,2.57956591796875,-7.952082633972168,0.340900182723999,5.728747844696045
1790267513715566000,2.589566162109375,-7.915448188781738,0.4785463511943817,5.769493103027344
1790267513725566000,2.59956591796875,-7.868749618530273,0.6069380044937134,5.821064472198486
1790267513735566000,2.609566162109375,-7.820438861846924,0.7160900235176086,5.873528003692627
1790267513745566000,2.61956591796875,-7.778242111206055,0.8019192814826965,5.91829776763916
1790267513755566000,2.629566162109375,-7.74763298034668,0.8661855459213257,5.949309825897217
1790267513765566000,2.63956591796875,-7.731647968292236,0.9141919016838074,5.962906837463379
1790267513775566000,2.649566162109375,-7.727067947387695,0.953430712223053,5.9626994132995605
1790267513785566000,2.65956591796875,-7.728881359100342,0.9866803288459778,5.954934597015381
1790267513795566000,2.669566162109375,-7.736995697021484,1.0128271579742432,5.939988136291504
1790267513805566000,2.67956591796875,-7.75382137298584,1.029301404953003,5.915164470672607
1790267513815566000,2.689566162109375,-7.77873420715332,1.037840723991394,5.880865097045898
1790267513825566000,2.69956591796875,-7.808670997619629,1.0416102409362793,5.840384006500244
1790267513835566000,2.709566162109375,-7.844827651977539,1.0388160943984985,5.792229652404785
1790267513845566000,2.71956591796875,-7.888309478759766,1.0330244302749634,5.7339186668396
1790267513855566000,2.729566162109375,-7.92431640625,1.035748839378357,5.683557987213135
1790267513865566000,2.73956591796875,-7.946439743041992,1.0467922687530518,5.650548934936523
1790267513875566000,2.749566162109375,-7.954616069793701,1.0589309930801392,5.636765956878662
1790267513885566000,2.75956591796875,-7.953851699829102,1.0700883865356445,5.63573694229126
1790267513895566000,2.769566162109375,-7.944433212280273,1.0836470127105713,5.646421432495117
1790267513905566000,2.77956591796875,-7.925503253936768,1.0982881784439087,5.670144081115723
1790267513915566000,2.789566162109375,-7.9045844078063965,1.1113686561584473,5.6967339515686035
1790267513925566000,2.79956591796875,-7.8832173347473145,1.122553825378418,5.72408390045166
1790267513935566000,2.809566162109375,-7.860598087310791,1.1275163888931274,5.7541375160217285
1790267513945566000,2.81956591796875,-7.840216159820557,1.1206640005111694,5.783208847045898
1790267513955566000,2.829566162109375,-7.824621677398682,1.0987714529037476,5.808475494384766
1790267513965566000,2.83956591796875,-7.812885761260986,1.062733769416809,5.830935001373291
1790267513975566000,2.849566162109375,-7.809610366821289,1.0117871761322021,5.8443708419799805
1790267513985566000,2.85956591796875,-7.814606666564941,0.9513166546821594,5.847846031188965
1790267513995566000,2.869566162109375,-7.829300880432129,0.8827189207077026,5.838942527770996
1790267514005566000,2.87956591796875,-7.849243640899658,0.8048197031021118,5.8234028816223145
1790267514015566000,2.889566162109375,-7.866025924682617,0.7186062932014465,5.812023639678955
1790267514025566000,2.89956591796875,-7.875185012817383,0.62638920545578,5.810290813446045
1790267514035566000,2.909566162109375,-7.874283313751221,0.5305375456809998,5.821046352386475
1790267514045566000,2.91956591796875,-7.865914821624756,0.42760998010635376,5.840798377990723
1790267514055566000,2.929566162109375,-7.866890907287598,0.3113803565502167,5.846833229064941
1790267514065566000,2.93956591796875,-7.87338924407959,0.19067750871181488,5.843268394470215
1790267514075566000,2.949566162109375,-7.877413272857666,0.07793290913105011,5.840435028076172
1790267514085566000,2.95956591796875,-7.885134696960449,-0.02760462276637554,5.830462455749512
1790267514095566000,2.969566162109375,-7.892332077026367,-0.1321602314710617,5.819279193878174
1790267514105566000,2.97956591796875,-7.892634868621826,-0.24268792569637299,5.815307140350342
1790267514115566000,2.989566162109375,-7.8884663581848145,-0.36537182331085205,5.814549922943115
1790267514125566000,2.99956591796875,-7.887379169464111,-0.5104848146438599,5.805088043212891
1790267514135566000,3.009566162109375,-7.88428258895874,-0.6739561557769775,5.792604446411133
1790267514145566000,3.01956591796875,-7.866726875305176,-0.8449056148529053,5.794060707092285
1790267514155566000,3.029566162109375,-7.8322224617004395,-1.0210603475570679,5.812410354614258
1790267514165566000,3.03956591796875,-7.789234161376953,-1.202115774154663,5.835506439208984
1790267514175566000,3.049566162109375,-7.750312328338623,-1.3874738216400146,5.846192359924316
1790267514185566000,3.05956591796875,-7.7334818840026855,-1.577728509902954,5.820173263549805
1790267514195566000,3.069566162109375,-7.735996723175049,-1.7720285654067993,5.760612964630127
1790267514205566000,3.07956591796875,-7.7352495193481445,-1.9663070440292358,5.698240756988525
1790267514215566000,3.089566162109375,-7.722051620483398,-2.157331705093384,5.646788120269775
1790267514225566000,3.09956591796875,-7.701042175292969,-2.347494602203369,5.599429130554199
1790267514235566000,3.109566162109375,-7.680657386779785,-2.5412557125091553,5.542553424835205
1790267514245566000,3.11956591796875,-7.670645713806152,-2.7418713569641113,5.460195541381836
1790267514255566000,3.129566162109375,-7.680246829986572,-2.949436664581299,5.3371357917785645
1790267514265566000,3.13956591796875,-7.697519302368164,-3.138096809387207,5.202971935272217
1790267514275566000,3.149566162109375,-7.710729598999023,-3.2952911853790283,5.084888458251953
1790267514285566000,3.15956591796875,-7.7079758644104,-3.4334964752197266,4.996859073638916
1790267514295566000,3.169566162109375,-7.681225776672363,-3.56754207611084,4.943864822387695
1790267514305566000,3.17956591796875,-7.636666774749756,-3.697744607925415,4.917151927947998
1790267514315566000,3.189566162109375,-7.583259582519531,-3.8149986267089844,4.910228252410889
1790267514325566000,3.19956591796875,-7.523168087005615,-3.923788547515869,4.916932582855225
1790267514335566000,3.209566162109375,-7.453141212463379,-4.030084133148193,4.937560558319092
1790267514345566000,3.21956591796875,-7.368252754211426,-4.136076927185059,4.9771575927734375
1790267514355566000,3.229566162109375,-7.271632671356201,-4.241194725036621,5.0305094718933105
1790267514365566000,3.23956591796875,-7.164675712585449,-4.352962017059326,5.088176727294922
1790267514375566000,3.249566162109375,-7.055569171905518,-4.488382339477539,5.122866630554199
1790267514385566000,3.25956591796875,-6.9456329345703125,-4.652088165283203,5.127049446105957
1790267514395566000,3.269566162109375,-6.828182220458984,-4.8351898193359375,5.11539363861084
1790267514405566000,3.27956591796875,-6.707646369934082,-5.023523807525635,5.093337059020996
1790267514415566000,3.289566162109375,-6.6045050621032715,-5.194631099700928,5.0563530921936035
1790267514425566000,3.29956591796875,-6.606756210327148,-5.287120342254639,4.956563472747803
1790267514435566000,3.309566162109375,-6.665569305419922,-5.319271564483643,4.842099666595459
1790267514445566000,3.31956591796875,-6.659556865692139,-5.365627288818359,4.7990336418151855
1790267514455566000,3.329566162109375,-6.577454090118408,-5.463834762573242,4.80145788192749
1790267514465566000,3.33956591796875,-6.420063495635986,-5.625729560852051,4.827457427978516
1790267514475566000,3.349566162109375,-6.1728410720825195,-5.861495494842529,4.86922025680542
1790267514485566000,3.35956591796875,-5.853787422180176,-6.1646881103515625,4.888782024383545
1790267514495566000,3.369566162109375,-5.520069122314453,-6.496262073516846,4.847453594207764
1790267514505566000,3.37956591796875,-5.215939521789551,-6.8301239013671875,4.723746299743652
1790267514515566000,3.389566162109375,-4.960104942321777,-7.16862678527832,4.492053031921387
1790267514525566000,3.39956591796875,-4.7532525062561035,-7.501213073730469,4.16038179397583
1790267514535566000,3.409566162109375,-4.573561668395996,-7.812637805938721,3.770359754562378
1790267514545566000,3.41956591796875,-4.393348693847656,-8.092376708984375,3.373769998550415
1790267514555566000,3.429566162109375,-4.18757963180542,-8.345002174377441,2.999248504638672
1790267514565566000,3.43956591796875,-3.965162515640259,-8.566353797912598,2.6580920219421387
1790267514575566000,3.449566162109375,-3.7407541275024414,-8.748603820800781,2.3746750354766846
1790267514585566000,3.45956591796875,-3.5252935886383057,-8.890416145324707,2.1686861515045166
1790267514595566000,3.469566162109375,-3.3397958278656006,-8.992120742797852,2.039098024368286
1790267514605566000,3.47956591796875,-3.1876020431518555,-9.067954063415527,1.944682240486145
1790267514615566000,3.489566162109375,-3.075559139251709,-9.127410888671875,1.8443725109100342
1790267514625566000,3.49956591796875,-3.0056793689727783,-9.171038627624512,1.7402089834213257
1790267514635566000,3.509566162109375,-2.9338767528533936,-9.213643074035645,1.6344802379608154
1790267514645566000,3.51956591796875,-2.8249638080596924,-9.263833999633789,1.5399231910705566
1790267514655566000,3.529566162109375,-2.689244508743286,-9.314519882202148,1.4758306741714478
1790267514665566000,3.53956591796875,-2.5526089668273926,-9.357559204101562,1.4459069967269897
1790267514675566000,3.549566162109375,-2.4396705627441406,-9.386571884155273,1.452811360359192
1790267514685566000,3.55956591796875,-2.329875946044922,-9.40934944152832,1.485329270362854
1790267514695566000,3.569566162109375,-2.212890386581421,-9.428984642028809,1.538745403289795
1790267514705566000,3.57956591796875,-2.103945732116699,-9.442626953125,1.6064252853393555
1790267514715566000,3.589566162109375,-2.022597551345825,-9.447729110717773,1.6792572736740112
1790267514725566000,3.59956591796875,-1.9760854244232178,-9.444890022277832,1.749147653579712
1790267514735566000,3.609566162109375,-1.9596292972564697,-9.437246322631836,1.8079358339309692
1790267514745566000,3.61956591796875,-1.9583029747009277,-9.428693771362305,1.853419303894043
1790267514755566000,3.629566162109375,-1.9543670415878296,-9.422904014587402,1.886720061302185
1790267514765566000,3.63956591796875,-1.9389595985412598,-9.421022415161133,1.91184663772583
1790267514775566000,3.649566162109375,-1.920756459236145,-9.42309284210205,1.9200029373168945
1790267514785566000,3.65956591796875,-1.9111731052398682,-9.4324312210083,1.8833613395690918
1790267514795566000,3.669566162109375,-1.8773497343063354,-9.4464750289917,1.8466295003890991
1790267514805566000,3.67956591796875,-1.8096054792404175,-9.461905479431152,1.8352280855178833
1790267514815566000,3.689566162109375,-1.7253397703170776,-9.477155685424805,1.8376891613006592
1790267514825566000,3.69956591796875,-1.654410719871521,-9.48817253112793,1.8460450172424316
1790267514835566000,3.709566162109375,-1.6055680513381958,-9.4943208694458,1.857527494430542
1790267514845566000,3.71956591796875,-1.5645591020584106,-9.498771667480469,1.8697264194488525
1790267514855566000,3.729566162109375,-1.551872968673706,-9.498407363891602,1.8821089267730713
1790267514865566000,3.73956591796875,-1.5860904455184937,-9.488065719604492,1.9055975675582886
1790267514875566000,3.749566162109375,-1.5845190286636353,-9.47866153717041,1.9531164169311523
1790267514885566000,3.75956591796875,-1.5400290489196777,-9.470449447631836,2.0271332263946533
1790267514895566000,3.769566162109375,-1.4909392595291138,-9.458012580871582,2.119781732559204
1790267514905566000,3.77956591796875,-1.440416932106018,-9.445271492004395,2.209623336791992
1790267514915566000,3.789566162109375,-1.380394458770752,-9.438072204589844,2.277649164199829
1790267514925566000,3.79956591796875,-1.321641445159912,-9.436821937561035,2.3173351287841797
1790267514935566000,3.809566162109375,-1.286725640296936,-9.436517715454102,2.3381295204162598
1790267514945566000,3.81956591796875,-1.2818435430526733,-9.431875228881836,2.3594484329223633
1790267514955566000,3.829566162109375,-1.292360782623291,-9.422718048095703,2.3900980949401855
1790267514965566000,3.83956591796875,-1.3018776178359985,-9.41329574584961,2.421851634979248
1790267514975566000,3.849566162109375,-1.312099814414978,-9.406014442443848,2.444516897201538
1790267514985566000,3.85956591796875,-1.3268486261367798,-9.401592254638672,2.4535562992095947
1790267514995566000,3.869566162109375,-1.334754228591919,-9.400976181030273,2.451624631881714
1790267515005566000,3.87956591796875,-1.3251068592071533,-9.402931213378906,2.4493589401245117
1790267515015566000,3.889566162109375,-1.2810888290405273,-9.407151222229004,2.4565658569335938
1790267515025566000,3.89956591796875,-1.2021493911743164,-9.417364120483398,2.457331895828247
1790267515035566000,3.909566162109375,-1.115466833114624,-9.435216903686523,2.429570198059082
1790267515045566000,3.91956591796875,-1.0564631223678589,-9.45434284210205,2.381108283996582
1790267515055566000,3.929566162109375,-1.0379323959350586,-9.469562530517578,2.3281896114349365
1790267515065566000,3.93956591796875,-1.0530893802642822,-9.480367660522461,2.276846170425415
1790267515075566000,3.949566162109375,-1.0970029830932617,-9.486519813537598,2.230008602142334
1790267515085566000,3.95956591796875,-1.1812915802001953,-9.485651969909668,2.1902835369110107
1790267515095566000,3.969566162109375,-1.260503888130188,-9.486655235290527,2.141234874725342
1790267515105566000,3.97956591796875,-1.3165711164474487,-9.49143123626709,2.0856099128723145
1790267515115566000,3.989566162109375,-1.3504520654678345,-9.499499320983887,2.026371955871582
1790267515125566000,3.99956591796875,-1.3704556226730347,-9.509178161621094,1.9666666984558105
1790267515135566000,4.009566162109375,-1.3691486120224,-9.520196914672852,1.913547158241272
1790267515145566000,4.01956591796875,-1.3475104570388794,-9.532487869262695,1.8671565055847168
1790267515155566000,4.029566162109375,-1.2857346534729004,-9.549111366271973,1.825303077697754
1790267515165566000,4.03956591796875,-1.2220896482467651,-9.5625,1.7987438440322876
1790267515175566000,4.049566162109375,-1.1721360683441162,-9.5740385055542,1.7703862190246582
1790267515185566000,4.05956591796875,-1.1136417388916016,-9.586448669433594,1.740747094154358
1790267515195566000,4.069566162109375,-1.0433869361877441,-9.597970962524414,1.7206647396087646
1790267515205566000,4.07956591796875,-0.9785062074661255,-9.604905128479004,1.7200895547866821
1790267515215566000,4.089566162109375,-0.9131262898445129,-9.608200073242188,1.7375503778457642
1790267515225566000,4.09956591796875,-0.8393255472183228,-9.609085083007812,1.7695761919021606
1790267515235566000,4.109566162109375,-0.7369714379310608,-9.610203742980957,1.8086564540863037
1790267515245566000,4.11956591796875,-0.6036891341209412,-9.612181663513184,1.847137689590454
1790267515255566000,4.129566162109375,-0.46303796768188477,-9.613216400146484,1.8820304870605469
1790267515265566000,4.13956591796875,-0.3105180561542511,-9.610810279846191,1.9251728057861328
1790267515275566000,4.149566162109375,-0.15509216487407684,-9.604167938232422,1.976433515548706
1790267515285566000,4.15956591796875,-0.009489367716014385,-9.596559524536133,2.0189945697784424
1790267515295566000,4.169566162109375,0.12089637666940689,-9.589564323425293,2.0484163761138916
1790267515305566000,4.17956591796875,0.22795328497886658,-9.583951950073242,2.0654985904693604
1790267515315566000,4.189566162109375,0.3059930205345154,-9.580178260803223,2.072906494140625
1790267515325566000,4.19956591796875,0.34992361068725586,-9.576863288879395,2.081254720687866
1790267515335566000,4.209566162109375,0.3567081391811371,-9.574563026428223,2.0906689167022705
1790267515345566000,4.21956591796875,0.3379267156124115,-9.572630882263184,2.102602958679199
1790267515355566000,4.229566162109375,0.3083592355251312,-9.568788528442383,2.1245203018188477
1790267515365566000,4.23956591796875,0.26713401079177856,-9.562663078308105,2.1574337482452393
1790267515375566000,4.249566162109375,0.21357892453670502,-9.55526065826416,2.1958510875701904
1790267515385566000,4.25956591796875,0.1510288268327713,-9.54619026184082,2.240048885345459
1790267515395566000,4.269566162109375,0.08018239587545395,-9.535648345947266,2.2880923748016357
1790267515405566000,4.27956591796875,0.0010287950281053782,-9.524768829345703,2.3343470096588135
1790267515415566000,4.289566162109375,-0.08327462524175644,-9.514548301696777,2.374203681945801
1790267515425566000,4.29956591796875,-0.17533648014068604,-9.501779556274414,2.4198830127716064
1790267515435566000,4.309566162109375,-0.2718280255794525,-9.486072540283203,2.4720301628112793
1790267515445566000,4.31956591796875,-0.3782479763031006,-9.46634578704834,2.5329058170318604
1790267515455566000,4.329566162109375,-0.4916793406009674,-9.441848754882812,2.6038687229156494
1790267515465566000,4.33956591796875,-0.6050211191177368,-9.41552734375,2.674358606338501
1790267515475566000,4.349566162109375,-0.7071365714073181,-9.388997077941895,2.7417287826538086
1790267515485566000,4.35956591796875,-0.7886673808097839,-9.362277030944824,2.8100128173828125
1790267515495566000,4.369566162109375,-0.8498197793960571,-9.337884902954102,2.872648239135742
1790267515505566000,4.37956591796875,-0.8970977663993835,-9.317550659179688,2.923842430114746
1790267515515566000,4.389566162109375,-0.938701331615448,-9.301569938659668,2.9614224433898926
1790267515525566000,4.39956591796875,-0.9806755185127258,-9.290483474731445,2.982544422149658
1790267515535566000,4.409566162109375,-1.0211807489395142,-9.282093048095703,2.9950499534606934
1790267515545566000,4.41956591796875,-1.0487233400344849,-9.275517463684082,3.005887746810913
1790267515555566000,4.429566162109375,-1.0608830451965332,-9.27358627319336,3.0075769424438477
1790267515565566000,4.43956591796875,-1.0710405111312866,-9.276422500610352,2.9952046871185303
1790267515575566000,4.449566162109375,-1.086026668548584,-9.281747817993164,2.9732284545898438
1790267515585566000,4.45956591796875,-1.1142966747283936,-9.281749725341797,2.962740421295166
1790267515595566000,4.469566162109375,-1.159301519393921,-9.27129077911377,2.9781806468963623
1790267515605566000,4.47956591796875,-1.2185596227645874,-9.252145767211914,3.013850212097168
1790267515615566000,4.489566162109375,-1.28019118309021,-9.231313705444336,3.0519416332244873
1790267515625566000,4.49956591796875,-1.331346035003662,-9.213569641113281,3.0835118293762207
1790267515635566000,4.509566162109375,-1.3671740293502808,-9.199050903320312,3.111058235168457
1790267515645566000,4.51956591796875,-1.396285057067871,-9.184365272521973,3.1413681507110596
1790267515655566000,4.529566162109375,-1.4238026142120361,-9.170079231262207,3.170616626739502
1790267515665566000,4.53956591796875,-1.4572057723999023,-9.1559419631958,3.1961958408355713
1790267515675566000,4.549566162109375,-1.4988226890563965,-9.143867492675781,3.2114791870117188
1790267515685566000,4.55956591796875,-1.540494680404663,-9.132851600646973,3.2230865955352783
1790267515695566000,4.569566162109375,-1.5831661224365234,-9.120683670043945,3.2368345260620117
1790267515705566000,4.57956591796875,-1.6255788803100586,-9.108026504516602,3.25141978263855
1790267515715566000,4.589566162109375,-1.6646414995193481,-9.096685409545898,3.2633838653564453
1790267515725566000,4.59956591796875,-1.699482798576355,-9.087423324584961,3.2712202072143555
1790267515735566000,4.609566162109375,-1.7291269302368164,-9.081963539123535,3.270848512649536
1790267515745566000,4.61956591796875,-1.750595211982727,-9.082215309143066,3.258707284927368
1790267515755566000,4.629566162109375,-1.7579634189605713,-9.089143753051758,3.235340118408203
1790267515765566000,4.63956591796875,-1.7486037015914917,-9.103856086730957,3.1988399028778076
1790267515775566000,4.649566162109375,-1.723201036453247,-9.127155303955078,3.14578914642334
1790267515785566000,4.65956591796875,-1.6773724555969238,-9.159448623657227,3.0759224891662598
1790267515795566000,4.669566162109375,-1.6035491228103638,-9.199710845947266,2.9940500259399414
1790267515805566000,4.67956591796875,-1.5137896537780762,-9.241284370422363,2.9116110801696777
1790267515815566000,4.689566162109375,-1.4327524900436401,-9.27604866027832,2.8412163257598877
1790267515825566000,4.69956591796875,-1.3749749660491943,-9.299935340881348,2.791243076324463
1790267515835566000,4.709566162109375,-1.3389443159103394,-9.3138427734375,2.762233018875122
1790267515845566000,4.71956591796875,-1.3157610893249512,-9.320882797241211,2.749600410461426
1790267515855566000,4.729566162109375,-1.303896188735962,-9.324737548828125,2.742173910140991
1790267515865566000,4.73956591796875,-1.3174813985824585,-9.324942588806152,2.734973430633545
1790267515875566000,4.749566162109375,-1.348585844039917,-9.319778442382812,2.737417221069336
1790267515885566000,4.75956591796875,-1.3854429721832275,-9.311400413513184,2.7474989891052246
1790267515895566000,4.769566162109375,-1.4126979112625122,-9.30545425415039,2.7537598609924316
1790267515905566000,4.77956591796875,-1.4251585006713867,-9.302329063415527,2.75789475440979
1790267515915566000,4.789566162109375,-1.4356985092163086,-9.299894332885742,2.760636329650879
1790267515925566000,4.79956591796875,-1.4556353092193604,-9.297645568847656,2.7577707767486572
1790267515935566000,4.809566162109375,-1.536002516746521,-9.292525291442871,2.7313098907470703
1790267515945566000,4.81956591796875,-1.6688218116760254,-9.295175552368164,2.6429407596588135
1790267515955566000,4.829566162109375,-1.77951180934906,-9.29908275604248,2.5555403232574463
1790267515965566000,4.83956591796875,-1.8355209827423096,-9.29465103149414,2.5319387912750244
1790267515975566000,4.849566162109375,-1.8524372577667236,-9.288435935974121,2.5424070358276367
1790267515985566000,4.85956591796875,-1.856215000152588,-9.283758163452148,2.5566964149475098
1790267515995566000,4.869566162109375,-1.863531231880188,-9.279547691345215,2.5666377544403076
1790267516005566000,4.87956591796875,-1.883450984954834,-9.273841857910156,2.5727121829986572
1790267516015566000,4.889566162109375,-1.9014257192611694,-9.267415046691895,2.582632064819336
1790267516025566000,4.89956591796875,-1.8950399160385132,-9.266904830932617,2.589146375656128
1790267516035566000,4.909566162109375,-1.8851028680801392,-9.271612167358398,2.5795328617095947
1790267516045566000,4.91956591796875,-1.8828855752944946,-9.27912425994873,2.5540122985839844
1790267516055566000,4.929566162109375,-1.8702927827835083,-9.287070274353027,2.5343081951141357
1790267516065566000,4.93956591796875,-1.8459445238113403,-9.294235229492188,2.5258824825286865
1790267516075566000,4.949566162109375,-1.8155465126037598,-9.302295684814453,2.5182294845581055
1790267516085566000,4.95956591796875,-1.7758375406265259,-9.31302547454834,2.5068628787994385
1790267516095566000,4.969566162109375,-1.7199033498764038,-9.327260971069336,2.4928903579711914
1790267516105566000,4.97956591796875,-1.6479419469833374,-9.344877243041992,2.4754669666290283
1790267516115566000,4.989566162109375,-1.56818425655365,-9.365654945373535,2.4486095905303955
1790267516125566000,4.99956591796875,-1.4931031465530396,-9.386537551879883,2.4153573513031006
1790267516135566000,5.009566162109375,-1.430433750152588,-9.404757499694824,2.382181406021118
1790267516145566000,5.01956591796875,-1.3690470457077026,-9.421385765075684,2.3523545265197754
1790267516155566000,5.029566162109375,-1.307033896446228,-9.435054779052734,2.3327670097351074
1790267516165566000,5.03956591796875,-1.2541157007217407,-9.446084022521973,2.3171257972717285
1790267516175566000,5.049566162109375,-1.2063722610473633,-9.456082344055176,2.301640748977661
1790267516185566000,5.05956591796875,-1.1566189527511597,-9.461963653564453,2.3030121326446533
1790267516195566000,5.069566162109375,-1.1114089488983154,-9.461963653564453,2.3251655101776123
1790267516205566000,5.07956591796875,-1.0730499029159546,-9.456095695495605,2.3666880130767822
1790267516215566000,5.089566162109375,-1.0567339658737183,-9.441298484802246,2.432197093963623
1790267516225566000,5.09956591796875,-1.0726263523101807,-9.420588493347168,2.5044708251953125
1790267516235566000,5.109566162109375,-1.1263749599456787,-9.396398544311523,2.570866107940674
1790267516245566000,5.11956591796875,-1.2097915410995483,-9.368497848510742,2.634016513824463
1790267516255566000,5.129566162109375,-1.3249646425247192,-9.338248252868652,2.6855125427246094
1790267516265566000,5.13956591796875,-1.4846165180206299,-9.30274486541748,2.724933385848999
1790267516275566000,5.149566162109375,-1.6893723011016846,-9.257002830505371,2.761214256286621
1790267516285566000,5.15956591796875,-1.9323867559432983,-9.192384719848633,2.8171486854553223
1790267516295566000,5.169566162109375,-2.202096462249756,-9.103222846984863,2.907318115234375
1790267516305566000,5.17956591796875,-2.485811710357666,-8.98921012878418,3.0307118892669678
1790267516315566000,5.189566162109375,-2.7785487174987793,-8.853363037109375,3.173013687133789
1790267516325566000,5.19956591796875,-3.076775550842285,-8.697246551513672,3.3259198665618896
1790267516335566000,5.209566162109375,-3.354979991912842,-8.531264305114746,3.4831044673919678
1790267516345566000,5.21956591796875,-3.5879859924316406,-8.375238418579102,3.626586437225342
1790267516355566000,5.229566162109375,-3.770921230316162,-8.245100021362305,3.7374942302703857
1790267516365566000,5.23956591796875,-3.9244468212127686,-8.143880844116211,3.8008313179016113
1790267516375566000,5.249566162109375,-4.053811073303223,-8.073740005493164,3.8146708011627197
1790267516385566000,5.25956591796875,-4.170319080352783,-8.024091720581055,3.7937798500061035
1790267516395566000,5.269566162109375,-4.2764668464660645,-7.981790065765381,3.764735698699951
1790267516405566000,5.27956591796875,-4.371489524841309,-7.936209678649902,3.751938581466675
1790267516415566000,5.289566162109375,-4.455721378326416,-7.877171516418457,3.777182102203369
1790267516425566000,5.29956591796875,-4.535083770751953,-7.803439140319824,3.8353285789489746
1790267516435566000,5.309566162109375,-4.629025459289551,-7.706380844116211,3.918443441390991
1790267516445566000,5.31956591796875,-4.756478786468506,-7.584079742431641,4.003502368927002
1790267516455566000,5.329566162109375,-4.906642913818359,-7.443803787231445,4.084730625152588
1790267516465566000,5.33956591796875,-5.010354042053223,-7.316204071044922,4.188065052032471
1790267516475566000,5.349566162109375,-5.032838821411133,-7.225112438201904,4.317251682281494
1790267516485566000,5.35956591796875,-5.000823020935059,-7.166861534118652,4.44952392578125
1790267516495566000,5.369566162109375,-4.950595378875732,-7.121494770050049,4.5767130851745605
1790267516505566000,5.37956591796875,-4.90657377243042,-7.067827224731445,4.705501079559326
1790267516515566000,5.389566162109375,-4.880575656890869,-7.003063201904297,4.827782154083252
1790267516525566000,5.39956591796875,-4.88104772567749,-6.9320807456970215,4.928691864013672
1790267516535566000,5.409566162109375,-4.9122819900512695,-6.85938024520874,4.998876571655273
1790267516545566000,5.41956591796875,-4.973906517028809,-6.7866363525390625,5.037083625793457
1790267516555566000,5.429566162109375,-5.055540561676025,-6.717325687408447,5.0487060546875
1790267516565566000,5.43956591796875,-5.1421051025390625,-6.652383804321289,5.047269344329834
1790267516575566000,5.449566162109375,-5.213414669036865,-6.582176685333252,5.066126823425293
1790267516585566000,5.45956591796875,-5.249268054962158,-6.492530822753906,5.144182205200195
1790267516595566000,5.469566162109375,-5.27910041809082,-6.396493434906006,5.233197212219238
1790267516605566000,5.47956591796875,-5.310812950134277,-6.309488773345947,5.306222915649414
1790267516615566000,5.489566162109375,-5.342031478881836,-6.238180637359619,5.35893440246582
1790267516625566000,5.49956591796875,-5.374476432800293,-6.180738925933838,5.392945766448975
1790267516635566000,5.509566162109375,-5.40804386138916,-6.130359172821045,5.416839122772217
1790267516645566000,5.51956591796875,-5.438525199890137,-6.080082416534424,5.442925453186035
1790267516655566000,5.529566162109375,-5.4673171043396,-6.025313854217529,5.474889755249023
1790267516665566000,5.53956591796875,-5.502494812011719,-5.961943626403809,5.50891637802124
1790267516675566000,5.549566162109375,-5.53986930847168,-5.892286777496338,5.546276569366455
1790267516685566000,5.55956591796875,-5.579827308654785,-5.813523769378662,5.58917236328125
1790267516695566000,5.569566162109375,-5.647091865539551,-5.720554828643799,5.617471218109131
1790267516705566000,5.57956591796875,-5.741477966308594,-5.619298934936523,5.623992443084717
1790267516715566000,5.589566162109375,-5.837900161743164,-5.522571563720703,5.62054443359375
1790267516725566000,5.59956591796875,-5.925751209259033,-5.437272071838379,5.611767292022705
1790267516735566000,5.609566162109375,-6.0355224609375,-5.346684455871582,5.581738471984863
1790267516745566000,5.61956591796875,-6.138894081115723,-5.260416507720947,5.5508904457092285
1790267516755566000,5.629566162109375,-6.21775484085083,-5.183619022369385,5.535341739654541
1790267516765566000,5.63956591796875,-6.281851768493652,-5.11144495010376,5.530086517333984
1790267516775566000,5.649566162109375,-6.337260723114014,-5.038388729095459,5.533910274505615
1790267516785566000,5.65956591796875,-6.382973670959473,-4.966141700744629,5.5466628074646
1790267516795566000,5.669566162109375,-6.4187493324279785,-4.89832878112793,5.565645217895508
1790267516805566000,5.67956591796875,-6.449184894561768,-4.835176944732666,5.585648059844971
1790267516815566000,5.689566162109375,-6.489835262298584,-4.771806716918945,5.593056678771973
1790267516825566000,5.69956591796875,-6.55148983001709,-4.706043243408203,5.576873779296875
1790267516835566000,5.709566162109375,-6.62783670425415,-4.63599157333374,5.545246601104736
1790267516845566000,5.71956591796875,-6.704023361206055,-4.5622477531433105,5.514739990234375
1790267516855566000,5.729566162109375,-6.784819602966309,-4.4918212890625,5.473586559295654
1790267516865566000,5.73956591796875,-6.874340057373047,-4.417486667633057,5.422143936157227
1790267516875566000,5.749566162109375,-6.9698638916015625,-4.334501266479492,5.366886138916016
1790267516885566000,5.75956591796875,-7.0718183517456055,-4.249365329742432,5.301194190979004
1790267516895566000,5.769566162109375,-7.170654296875,-4.165671348571777,5.234433174133301
1790267516905566000,5.77956591796875,-7.257082939147949,-4.079162120819092,5.183199882507324
1790267516915566000,5.789566162109375,-7.333498001098633,-3.9833202362060547,5.150083541870117
1790267516925566000,5.79956591796875,-7.410104751586914,-3.8800599575042725,5.119167327880859
1790267516935566000,5.809566162109375,-7.492282867431641,-3.775329113006592,5.077694416046143
1790267516945566000,5.81956591796875,-7.579728603363037,-3.6712536811828613,5.0239434242248535
1790267516955566000,5.829566162109375,-7.667938232421875,-3.567697525024414,4.96433687210083
1790267516965566000,5.83956591796875,-7.754414081573486,-3.4652903079986572,4.902165412902832
1790267516975566000,5.849566162109375,-7.838366508483887,-3.364736557006836,4.838280200958252
1790267516985566000,5.85956591796875,-7.919742107391357,-3.2636303901672363,4.774598121643066
1790267516995566000,5.869566162109375,-7.999110221862793,-3.158839225769043,4.7123637199401855
1790267517005566000,5.87956591796875,-8.07666301727295,-3.052201271057129,4.649942398071289
1790267517015566000,5.889566162109375,-8.152432441711426,-2.948514223098755,4.5841569900512695
1790267517025566000,5.89956591796875,-8.225846290588379,-2.850217342376709,4.514653205871582
1790267517035566000,5.909566162109375,-8.294179916381836,-2.756716012954712,4.447187900543213
1790267517045566000,5.91956591796875,-8.35777759552002,-2.6684327125549316,4.3814849853515625
1790267517055566000,5.929566162109375,-8.41808032989502,-2.5857913494110107,4.315090656280518
1790267517065566000,5.93956591796875,-8.475530624389648,-2.5073928833007812,4.248381614685059
1790267517075566000,5.949566162109375,-8.52902603149414,-2.4287867546081543,4.186539173126221
1790267517085566000,5.95956591796875,-8.576982498168945,-2.3419899940490723,4.1377339363098145
1790267517095566000,5.969566162109375,-8.618382453918457,-2.240875005722046,4.107595920562744
1790267517105566000,5.97956591796875,-8.655184745788574,-2.12709641456604,4.090676784515381
1790267517115566000,5.989566162109375,-8.689767837524414,-2.003558397293091,4.079715251922607
1790267517125566000,5.99956591796875,-8.716924667358398,-1.8721814155578613,4.084181308746338
1790267517135566000,6.009566162109375,-8.732256889343262,-1.739450454711914,4.1100335121154785
1790267517145566000,6.01956591796875,-8.739424705505371,-1.612908959388733,4.1462483406066895
1790267517155566000,6.029566162109375,-8.737974166870117,-1.4988023042678833,4.191870212554932
1790267517165566000,6.03956591796875,-8.733366012573242,-1.392618179321289,4.237844467163086
1790267517175566000,6.049566162109375,-8.730633735656738,-1.2854609489440918,4.277150630950928
1790267517185566000,6.05956591796875,-8.731634140014648,-1.1756101846694946,4.306610584259033
1790267517195566000,6.069566162109375,-8.735085487365723,-1.0754375457763672,4.325748920440674
1790267517205566000,6.07956591796875,-8.74270248413086,-0.9917229413986206,4.330362319946289
1790267517215566000,6.089566162109375,-8.751113891601562,-0.9178596138954163,4.329655647277832
1790267517225566000,6.09956591796875,-8.753911018371582,-0.8486759066581726,4.338107585906982
1790267517235566000,6.109566162109375,-8.749811172485352,-0.7827067971229553,4.358733654022217
1790267517245566000,6.11956591796875,-8.740523338317871,-0.7183589935302734,4.388347148895264
1790267517255566000,6.129566162109375,-8.724879264831543,-0.659518301486969,4.428531169891357
1790267517265566000,6.13956591796875,-8.705854415893555,-0.6074293851852417,4.473200798034668
1790267517275566000,6.149566162109375,-8.688175201416016,-0.5631924867630005,4.513184547424316
1790267517285566000,6.15956591796875,-8.674345970153809,-0.530226469039917,4.543672561645508
1790267517295566000,6.169566162109375,-8.665512084960938,-0.5083782076835632,4.562987327575684
1790267517305566000,6.17956591796875,-8.659417152404785,-0.49640482664108276,4.575855731964111
1790267517315566000,6.189566162109375,-8.655938148498535,-0.4926489591598511,4.582839488983154
1790267517325566000,6.19956591796875,-8.656256675720215,-0.5012567639350891,4.58130407333374
1790267517335566000,6.209566162109375,-8.658536911010742,-0.5240501165390015,4.574438095092773
1790267517345566000,6.21956591796875,-8.657135009765625,-0.5559830665588379,4.573321342468262
1790267517355566000,6.229566162109375,-8.648086547851562,-0.5926453471183777,4.585821628570557
1790267517365566000,6.23956591796875,-8.633280754089355,-0.6356510519981384,4.607906818389893
1790267517375566000,6.249566162109375,-8.616174697875977,-0.6824882626533508,4.633155822753906
1790267517385566000,6.25956591796875,-8.596473693847656,-0.7310190200805664,4.662257194519043
1790267517395566000,6.269566162109375,-8.57189655303955,-0.7822579741477966,4.699049472808838
1790267517405566000,6.27956591796875,-8.54291820526123,-0.8374432325363159,4.742110729217529
1790267517415566000,6.289566162109375,-8.51059341430664,-0.8982225060462952,4.788880825042725
1790267517425566000,6.29956591796875,-8.478322982788086,-0.9647403955459595,4.832980155944824
1790267517435566000,6.309566162109375,-8.445938110351562,-1.0351238250732422,4.874940872192383
1790267517445566000,6.31956591796875,-8.409879684448242,-1.1089192628860474,4.920833587646484
1790267517455566000,6.329566162109375,-8.369930267333984,-1.187903881072998,4.970266342163086
1790267517465566000,6.33956591796875,-8.326803207397461,-1.2737691402435303,5.021178722381592
1790267517475566000,6.349566162109375,-8.28145694732666,-1.367398977279663,5.0712995529174805
1790267517485566000,6.35956591796875,-8.231183052062988,-1.4702715873718262,5.124092102050781
1790267517495566000,6.369566162109375,-8.17587661743164,-1.583328127861023,5.178658485412598
1790267517505566000,6.37956591796875,-8.117079734802246,-1.707279920578003,5.231500625610352
1790267517515566000,6.389566162109375,-8.058059692382812,-1.8407142162322998,5.2772932052612305
1790267517525566000,6.39956591796875,-7.997298240661621,-1.982077717781067,5.318363189697266
1790267517535566000,6.409566162109375,-7.9352641105651855,-2.127673864364624,5.354901313781738
1790267517545566000,6.41956591796875,-7.871669769287109,-2.2763655185699463,5.387517929077148
1790267517555566000,6.429566162109375,-7.80582857131958,-2.426393508911133,5.417752742767334
1790267517565566000,6.43956591796875,-7.736090660095215,-2.5759713649749756,5.448638916015625
1790267517575566000,6.449566162109375,-7.661323547363281,-2.723419666290283,5.482470989227295
1790267517585566000,6.45956591796875,-7.57968807220459,-2.8677258491516113,5.522214889526367
1790267517595566000,6.469566162109375,-7.491471290588379,-3.008086919784546,5.5677337646484375
1790267517605566000,6.47956591796875,-7.3971357345581055,-3.14725923538208,5.61671781539917
1790267517615566000,6.489566162109375,-7.3001837730407715,-3.287846803665161,5.662841796875
1790267517625566000,6.49956591796875,-7.204001426696777,-3.4302291870117188,5.701427936553955
1790267517635566000,6.509566162109375,-7.10896635055542,-3.5725953578948975,5.733197212219238
1790267517645566000,6.51956591796875,-7.012183666229248,-3.71474289894104,5.7619757652282715
1790267517655566000,6.529566162109375,-6.910360813140869,-3.8565244674682617,5.791762828826904
1790267517665566000,6.53956591796875,-6.806325435638428,-3.993135452270508,5.822300910949707
1790267517675566000,6.549566162109375,-6.698584079742432,-4.122561931610107,5.856948375701904
1790267517685566000,6.55956591796875,-6.585988998413086,-4.246828556060791,5.895726203918457
1790267517695566000,6.569566162109375,-6.469000816345215,-4.371042728424072,5.9343414306640625
1790267517705566000,6.57956591796875,-6.351195812225342,-4.497372150421143,5.967104911804199
1790267517715566000,6.589566162109375,-6.236464977264404,-4.623605251312256,5.991590976715088
1790267517725566000,6.59956591796875,-6.123624324798584,-4.7498931884765625,6.009169101715088
1790267517735566000,6.609566162109375,-6.013503551483154,-4.876027584075928,6.019345283508301
1790267517745566000,6.61956591796875,-5.905733108520508,-5.002264022827148,6.022462368011475
1790267517755566000,6.629566162109375,-5.799964904785156,-5.1291608810424805,6.0185136795043945
1790267517765566000,6.63956591796875,-5.696649551391602,-5.254665374755859,6.008915424346924
1790267517775566000,6.649566162109375,-5.599579334259033,-5.37937593460083,5.989775657653809
1790267517785566000,6.65956591796875,-5.515911102294922,-5.504718780517578,5.953418254852295
1790267517795566000,6.669566162109375,-5.445520401000977,-5.633326053619385,5.897655010223389
1790267517805566000,6.67956591796875,-5.3856940269470215,-5.7644243240356445,5.825470447540283
1790267517815566000,6.689566162109375,-5.3325324058532715,-5.894915580749512,5.743208885192871
1790267517825566000,6.69956591796875,-5.281198501586914,-6.023781776428223,5.656269073486328
1790267517835566000,6.709566162109375,-5.230503559112549,-6.150476932525635,5.566314697265625
1790267517845566000,6.71956591796875,-5.180548191070557,-6.274059772491455,5.474348068237305
1790267517855566000,6.729566162109375,-5.130035400390625,-6.392683982849121,5.383932113647461
1790267517865566000,6.73956591796875,-5.077284336090088,-6.505870819091797,5.297661304473877
1790267517875566000,6.749566162109375,-5.021994590759277,-6.6140875816345215,5.215726852416992
1790267517885566000,6.75956591796875,-4.968443870544434,-6.716292858123779,5.1357927322387695
1790267517895566000,6.769566162109375,-4.92083740234375,-6.812594413757324,5.054136753082275
1790267517905566000,6.77956591796875,-4.876880168914795,-6.904333591461182,4.971578598022461
1790267517915566000,6.789566162109375,-4.833255767822266,-6.993419647216797,4.888977527618408
1790267517925566000,6.79956591796875,-4.789199352264404,-7.08128023147583,4.805146217346191
1790267517935566000,6.809566162109375,-4.741789817810059,-7.168309688568115,4.722408294677734
1790267517945566000,6.81956591796875,-4.691123962402344,-7.253448009490967,4.642331600189209
1790267517955566000,6.829566162109375,-4.643082618713379,-7.334837436676025,4.562053680419922
1790267517965566000,6.83956591796875,-4.600513458251953,-7.410854339599609,4.481617450714111
1790267517975566000,6.849566162109375,-4.56501579284668,-7.478753089904785,4.4044623374938965
1790267517985566000,6.85956591796875,-4.5383453369140625,-7.536972522735596,4.332188606262207
1790267517995566000,6.869566162109375,-4.517551422119141,-7.586150169372559,4.267603397369385
1790267518005566000,6.87956591796875,-4.500603675842285,-7.627186298370361,4.212005138397217
1790267518015566000,6.889566162109375,-4.486445903778076,-7.661051273345947,4.1653923988342285
1790267518025566000,6.89956591796875,-4.473762512207031,-7.689056873321533,4.127256393432617
1790267518035566000,6.909566162109375,-4.463465213775635,-7.712126731872559,4.095235824584961
1790267518045566000,6.91956591796875,-4.457931995391846,-7.730681419372559,4.066176414489746
1790267518055566000,6.929566162109375,-4.459418773651123,-7.743841171264648,4.039416313171387
1790267518065566000,6.93956591796875,-4.469176292419434,-7.750375747680664,4.01603364944458
1790267518075566000,6.949566162109375,-4.487391948699951,-7.749423027038574,3.997516632080078
1790267518085566000,6.95956591796875,-4.512815475463867,-7.74058198928833,3.986010789871216
1790267518095566000,6.969566162109375,-4.541314125061035,-7.726090908050537,3.9817564487457275
1790267518105566000,6.97956591796875,-4.566089630126953,-7.7108049392700195,3.983051061630249
1790267518115566000,6.989566162109375,-4.585801124572754,-7.697569847106934,3.9860050678253174
1790267518125566000,6.99956591796875,-4.60263204574585,-7.68703031539917,3.986945629119873
1790267518135566000,7.009566162109375,-4.61699914932251,-7.67943811416626,3.9849636554718018
1790267518145566000,7.01956591796875,-4.628668308258057,-7.674710273742676,3.9805328845977783
1790267518155566000,7.029566162109375,-4.640261650085449,-7.6711344718933105,3.9739229679107666
1790267518165566000,7.03956591796875,-4.657073020935059,-7.665157318115234,3.965780258178711
1790267518175566000,7.049566162109375,-4.683295726776123,-7.652660846710205,3.9590280055999756
1790267518185566000,7.05956591796875,-4.720139980316162,-7.631324768066406,3.956458330154419
1790267518195566000,7.069566162109375,-4.764199733734131,-7.601696491241455,3.9606809616088867
1790267518205566000,7.07956591796875,-4.810486793518066,-7.566087245941162,3.972898483276367
1790267518215566000,7.089566162109375,-4.855367183685303,-7.5271196365356445,3.992276668548584
1790267518225566000,7.09956591796875,-4.897238254547119,-7.488029479980469,4.014579772949219
1790267518235566000,7.109566162109375,-4.935245990753174,-7.450067043304443,4.0385942459106445
1790267518245566000,7.11956591796875,-4.968421459197998,-7.413205623626709,4.065656661987305
1790267518255566000,7.129566162109375,-4.996735095977783,-7.376646041870117,4.097330093383789
1790267518265566000,7.13956591796875,-5.0218915939331055,-7.339785575866699,4.132617950439453
1790267518275566000,7.149566162109375,-5.0439276695251465,-7.30338716506958,4.170098304748535
1790267518285566000,7.15956591796875,-5.062107563018799,-7.268570899963379,4.2087202072143555
1790267518295566000,7.169566162109375,-5.0783610343933105,-7.234841346740723,4.247084140777588
1790267518305566000,7.17956591796875,-5.096466541290283,-7.200271129608154,4.283984184265137
1790267518315566000,7.189566162109375,-5.120795249938965,-7.162410259246826,4.318302631378174
1790267518325566000,7.19956591796875,-5.153094291687012,-7.119670867919922,4.350436210632324
1790267518335566000,7.209566162109375,-5.193692684173584,-7.071537971496582,4.380557537078857
1790267518345566000,7.21956591796875,-5.242181301116943,-7.017961502075195,4.408872127532959
1790267518355566000,7.229566162109375,-5.297142028808594,-6.959317207336426,4.436054706573486
1790267518365566000,7.23956591796875,-5.357172012329102,-6.8954644203186035,4.463592529296875
1790267518375566000,7.249566162109375,-5.4206862449646,-6.82600212097168,4.493577480316162
1790267518385566000,7.25956591796875,-5.485424518585205,-6.749967098236084,4.529727935791016
1790267518395566000,7.269566162109375,-5.5495991706848145,-6.666748523712158,4.574583053588867
1790267518405566000,7.27956591796875,-5.612318992614746,-6.577108383178711,4.627516746520996
1790267518415566000,7.289566162109375,-5.673647880554199,-6.483397006988525,4.684619426727295
1790267518425566000,7.29956591796875,-5.733067989349365,-6.388919353485107,4.741732120513916
1790267518435566000,7.309566162109375,-5.790963172912598,-6.2966179847717285,4.794553279876709
1790267518445566000,7.31956591796875,-5.849660873413086,-6.206961154937744,4.839986801147461
1790267518455566000,7.329566162109375,-5.911986827850342,-6.118142604827881,4.877205848693848
1790267518465566000,7.33956591796875,-5.980828762054443,-6.026793956756592,4.906915664672852
1790267518475566000,7.349566162109375,-6.058239459991455,-5.930577278137207,4.929134845733643
1790267518485566000,7.35956591796875,-6.145086765289307,-5.829712390899658,4.941938400268555
1790267518495566000,7.369566162109375,-6.24009895324707,-5.726571083068848,4.943475246429443
1790267518505566000,7.37956591796875,-6.340742111206055,-5.622271537780762,4.935123920440674
1790267518515566000,7.389566162109375,-6.443073749542236,-5.516850471496582,4.9215407371521
1790267518525566000,7.39956591796875,-6.54476261138916,-5.409152507781982,4.906887531280518
1790267518535566000,7.409566162109375,-6.645168781280518,-5.298031806945801,4.8931565284729
1790267518545566000,7.41956591796875,-6.74282693862915,-5.184242248535156,4.881424427032471
1790267518555566000,7.429566162109375,-6.835514068603516,-5.071126461029053,4.871325492858887
1790267518565566000,7.43956591796875,-6.924313545227051,-4.960079193115234,4.860235214233398
1790267518575566000,7.449566162109375,-7.017172813415527,-4.844306945800781,4.843795299530029
1790267518585566000,7.45956591796875,-7.12198543548584,-4.70831823348999,4.8248772621154785
1790267518595566000,7.469566162109375,-7.227814674377441,-4.560928821563721,4.809054851531982
1790267518605566000,7.47956591796875,-7.329869270324707,-4.399118900299072,4.805325508117676
1790267518615566000,7.489566162109375,-7.412469863891602,-4.235255718231201,4.8257927894592285
1790267518625566000,7.49956591796875,-7.480998516082764,-4.087727069854736,4.847218990325928
1790267518635566000,7.509566162109375,-7.546205520629883,-3.963361978530884,4.849425792694092
1790267518645566000,7.51956591796875,-7.615800380706787,-3.855173110961914,4.827796936035156
1790267518655566000,7.529566162109375,-7.690778732299805,-3.750509738922119,4.79124116897583
1790267518665566000,7.53956591796875,-7.76724910736084,-3.640852689743042,4.752306938171387
1790267518675566000,7.549566162109375,-7.843071937561035,-3.524661064147949,4.715227127075195
1790267518685566000,7.55956591796875,-7.9209065437316895,-3.4045960903167725,4.673152923583984
1790267518695566000,7.569566162109375,-8.00504207611084,-3.2810099124908447,4.617862701416016
1790267518705566000,7.57956591796875,-8.097356796264648,-3.1527960300445557,4.545665740966797
1790267518715566000,7.589566162109375,-8.192889213562012,-3.0232248306274414,4.461733341217041
1790267518725566000,7.59956591796875,-8.284565925598145,-2.896258592605591,4.375846862792969
1790267518735566000,7.609566162109375,-8.3706693649292,-2.771373987197876,4.292059898376465
1790267518745566000,7.61956591796875,-8.451787948608398,-2.6424427032470703,4.213687896728516
1790267518755566000,7.629566162109375,-8.527978897094727,-2.5047409534454346,4.143697261810303
1790267518765566000,7.63956591796875,-8.596851348876953,-2.365532636642456,4.082742691040039
1790267518775566000,7.649566162109375,-8.65691089630127,-2.235619068145752,4.028682708740234
1790267518785566000,7.65956591796875,-8.709331512451172,-2.117072343826294,3.9794387817382812
1790267518795566000,7.669566162109375,-8.752565383911133,-2.0110132694244385,3.939392566680908
1790267518805566000,7.67956591796875,-8.786964416503906,-1.917358160018921,3.9093942642211914
1790267518815566000,7.689566162109375,-8.81992244720459,-1.830791711807251,3.8765389919281006
1790267518825566000,7.69956591796875,-8.854799270629883,-1.745909333229065,3.8359768390655518
1790267518835566000,7.709566162109375,-8.892759323120117,-1.6605795621871948,3.7857227325439453
1790267518845566000,7.71956591796875,-8.929768562316895,-1.5754352807998657,3.7346508502960205
1790267518855566000,7.729566162109375,-8.956316947937012,-1.4899095296859741,3.7060678005218506
1790267518865566000,7.73956591796875,-8.96782112121582,-1.4060548543930054,3.7110061645507812
1790267518875566000,7.749566162109375,-8.966903686523438,-1.3297756910324097,3.741219997406006
1790267518885566000,7.75956591796875,-8.960335731506348,-1.2669503688812256,3.7785732746124268
1790267518895566000,7.769566162109375,-8.953252792358398,-1.217066764831543,3.8116142749786377
1790267518905566000,7.77956591796875,-8.947585105895996,-1.1745738983154297,3.8381619453430176
1790267518915566000,7.789566162109375,-8.942217826843262,-1.1353098154067993,3.8624072074890137
1790267518925566000,7.79956591796875,-8.932962417602539,-1.0982352495193481,3.8944125175476074
1790267518935566000,7.809566162109375,-8.921459197998047,-1.0682488679885864,3.928969383239746
1790267518945566000,7.81956591796875,-8.909464836120605,-1.0481820106506348,3.961456537246704
1790267518955566000,7.829566162109375,-8.895864486694336,-1.0389862060546875,3.994307518005371
1790267518965566000,7.83956591796875,-8.882430076599121,-1.0396397113800049,4.023924827575684
1790267518975566000,7.849566162109375,-8.870234489440918,-1.0492384433746338,4.048262119293213
1790267518985566000,7.85956591796875,-8.85953140258789,-1.0687669515609741,4.066549777984619
1790267518995566000,7.869566162109375,-8.849201202392578,-1.0955305099487305,4.08189058303833
1790267519005566000,7.87956591796875,-8.834480285644531,-1.127772331237793,4.104934215545654
1790267519015566000,7.889566162109375,-8.81587028503418,-1.169690728187561,4.133115291595459
1790267519025566000,7.89956591796875,-8.796380043029785,-1.2217689752578735,4.159490585327148
1790267519035566000,7.909566162109375,-8.77539348602295,-1.2810916900634766,4.185888290405273
1790267519045566000,7.91956591796875,-8.751194953918457,-1.3460115194320679,4.216068267822266
1790267519055566000,7.929566162109375,-8.723241806030273,-1.4169172048568726,4.250624656677246
1790267519065566000,7.93956591796875,-8.690518379211426,-1.4953620433807373,4.290592670440674
1790267519075566000,7.949566162109375,-8.652972221374512,-1.5846365690231323,4.334211349487305
1790267519085566000,7.95956591796875,-8.611066818237305,-1.684633731842041,4.379719257354736
1790267519095566000,7.969566162109375,-8.56387710571289,-1.7926088571548462,4.429103851318359
1790267519105566000,7.97956591796875,-8.510882377624512,-1.9055215120315552,4.483777046203613
1790267519115566000,7.989566162109375,-8.451958656311035,-2.0222694873809814,4.543700218200684
1790267519125566000,7.99956591796875,-8.384713172912598,-2.1441779136657715,4.611885070800781
1790267519135566000,8.009566162109374,-8.309809684753418,-2.2728590965270996,4.6852498054504395
1790267519145566000,8.01956591796875,-8.228324890136719,-2.406933546066284,4.761483192443848
1790267519155566000,8.029566162109376,-8.139845848083496,-2.5453484058380127,4.840919017791748
1790267519165566000,8.03956591796875,-8.047249794006348,-2.6879947185516357,4.918014049530029
1790267519175566000,8.049566162109375,-7.953603744506836,-2.8333053588867188,4.988280296325684
1790267519185566000,8.05956591796875,-7.862029552459717,-2.98091197013855,5.047082424163818
1790267519195566000,8.069566162109375,-7.771600723266602,-3.131312370300293,5.095831394195557
1790267519205566000,8.07956591796875,-7.677642822265625,-3.2835676670074463,5.142214298248291
1790267519215566000,8.089566162109374,-7.579179763793945,-3.437793493270874,5.187292098999023
1790267519225566000,8.09956591796875,-7.478532314300537,-3.593170642852783,5.227911949157715
1790267519235566000,8.109566162109376,-7.37761926651001,-3.7479517459869385,5.262507438659668
1790267519245566000,8.11956591796875,-7.273860454559326,-3.9033939838409424,5.293851375579834
1790267519255566000,8.129566162109375,-7.167008399963379,-4.060075283050537,5.3216705322265625
1790267519265566000,8.13956591796875,-7.056807041168213,-4.216294765472412,5.347403526306152
1790267519275566000,8.149566162109375,-6.941755771636963,-4.369701385498047,5.374767303466797
1790267519285566000,8.15956591796875,-6.8186492919921875,-4.519587993621826,5.408301830291748
1790267519295566000,8.169566162109374,-6.688101768493652,-4.66621732711792,5.446659564971924
1790267519305566000,8.17956591796875,-6.554381370544434,-4.810704708099365,5.483392238616943
1790267519315566000,8.189566162109376,-6.420811653137207,-4.954360008239746,5.513428211212158
1790267519325566000,8.19956591796875,-6.2894697189331055,-5.096844673156738,5.534901142120361
1790267519335566000,8.209566162109375,-6.161506652832031,-5.237813949584961,5.547209739685059
1790267519345566000,8.21956591796875,-6.0380072593688965,-5.376377105712891,5.550442218780518
1790267519355566000,8.229566162109375,-5.9211907386779785,-5.510835647583008,5.544419765472412
1790267519365566000,8.23956591796875,-5.8108229637146,-5.641025543212891,5.530241012573242
1790267519375566000,8.249566162109375,-5.7075276374816895,-5.76727819442749,5.507541656494141
1790267519385566000,8.25956591796875,-5.612560272216797,-5.890437126159668,5.474697589874268
1790267519395566000,8.269566162109374,-5.526625156402588,-6.012199878692627,5.429572105407715
1790267519405566000,8.27956591796875,-5.452857494354248,-6.132236957550049,5.36958122253418
1790267519415566000,8.289566162109375,-5.390952110290527,-6.250133991241455,5.2956438064575195
1790267519425566000,8.29956591796875,-5.336777687072754,-6.365083694458008,5.212954044342041
1790267519435566000,8.309566162109375,-5.290425777435303,-6.474824905395508,5.12429666519165
1790267519445566000,8.31956591796875,-5.253172874450684,-6.578703880310059,5.029435157775879
1790267519455566000,8.329566162109375,-5.220875263214111,-6.678144454956055,4.931048393249512
1790267519465566000,8.33956591796875,-5.185594081878662,-6.775226593017578,4.834905624389648
1790267519475566000,8.349566162109374,-5.147173881530762,-6.869546890258789,4.741973876953125
1790267519485566000,8.35956591796875,-5.107638835906982,-6.9596076011657715,4.652556419372559
1790267519495566000,8.369566162109376,-5.065100193023682,-7.044904708862305,4.569951057434082
1790267519505566000,8.37956591796875,-5.022158145904541,-7.122715950012207,4.496133804321289
1790267519515566000,8.389566162109375,-4.981551170349121,-7.192528247833252,4.429680824279785
1790267519525566000,8.39956591796875,-4.941732406616211,-7.256808280944824,4.3690266609191895
1790267519535566000,8.409566162109375,-4.904865741729736,-7.315915107727051,4.311620235443115
1790267519545566000,8.41956591796875,-4.8703484535217285,-7.369207382202148,4.25968074798584
1790267519555566000,8.429566162109374,-4.837459564208984,-7.415652275085449,4.216333866119385
1790267519565566000,8.43956591796875,-4.805919170379639,-7.45508337020874,4.182731628417969
1790267519575566000,8.449566162109376,-4.776691913604736,-7.487743377685547,4.15779972076416
1790267519585566000,8.45956591796875,-4.752148628234863,-7.514547348022461,4.137518405914307
1790267519595566000,8.469566162109375,-4.734517574310303,-7.5361809730529785,4.1183366775512695
1790267519605566000,8.47956591796875,-4.724575042724609,-7.552992343902588,4.098911762237549
1790267519615566000,8.489566162109375,-4.72281551361084,-7.564863681793213,4.078998565673828
1790267519625566000,8.49956591796875,-4.728171348571777,-7.5721821784973145,4.059166431427002
1790267519635566000,8.509566162109374,-4.739820957183838,-7.576104164123535,4.038209438323975
1790267519645566000,8.51956591796875,-4.758147239685059,-7.577726364135742,4.013537883758545
1790267519655566000,8.529566162109376,-4.783230781555176,-7.5774054527282715,3.984222650527954
1790267519665566000,8.53956591796875,-4.812148571014404,-7.574622631072998,3.9545795917510986
1790267519675566000,8.549566162109375,-4.838783264160156,-7.570079803466797,3.930706262588501
1790267519685566000,8.55956591796875,-4.860921859741211,-7.5633955001831055,3.916231870651245
1790267519695566000,8.569566162109375,-4.880848407745361,-7.55298376083374,3.9115383625030518
1790267519705566000,8.57956591796875,-4.901700496673584,-7.537152290344238,3.9159982204437256
1790267519715566000,8.589566162109374,-4.924764156341553,-7.514616966247559,3.9303455352783203
1790267519725566000,8.59956591796875,-4.947798728942871,-7.4848504066467285,3.9581174850463867
1790267519735566000,8.609566162109376,-4.965517997741699,-7.448395252227783,4.004426002502441
1790267519745566000,8.61956591796875,-4.9746928215026855,-7.407015800476074,4.069265842437744
1790267519755566000,8.629566162109375,-4.979544639587402,-7.362179756164551,4.144011497497559
1790267519765566000,8.63956591796875,-4.993499755859375,-7.31484842300415,4.210504055023193
1790267519775566000,8.649566162109375,-5.027886390686035,-7.266982555389404,4.252258777618408
1790267519785566000,8.65956591796875,-5.083492755889893,-7.219147205352783,4.2675981521606445
1790267519795566000,8.669566162109374,-5.151393413543701,-7.1699299812316895,4.269150257110596
1790267519805566000,8.67956591796875,-5.218890190124512,-7.117616653442383,4.274703502655029
1790267519815566000,8.689566162109376,-5.277743816375732,-7.0603485107421875,4.297357082366943
1790267519825566000,8.69956591796875,-5.32709264755249,-6.9966230392456055,4.3404765129089355
1790267519835566000,8.709566162109375,-5.372504711151123,-6.926633834838867,4.396398544311523
1790267519845566000,8.71956591796875,-5.417603015899658,-6.8535990715026855,4.455124378204346
1790267519855566000,8.729566162109375,-5.463819980621338,-6.780875205993652,4.5096330642700195
1790267519865566000,8.73956591796875,-5.51449728012085,-6.710041046142578,4.553685188293457
1790267519875566000,8.749566162109375,-5.5729079246521,-6.641972541809082,4.582277774810791
1790267519885566000,8.75956591796875,-5.638462543487549,-6.575651168823242,4.5977091789245605
1790267519895566000,8.769566162109374,-5.708698749542236,-6.506821155548096,4.608949184417725
1790267519905566000,8.77956591796875,-5.781503200531006,-6.432013511657715,4.623180866241455
1790267519915566000,8.789566162109375,-5.856444835662842,-6.349360942840576,4.643064498901367
1790267519925566000,8.79956591796875,-5.935044765472412,-6.257384300231934,4.6680588722229
1790267519935566000,8.809566162109375,-6.01713752746582,-6.156557559967041,4.696940898895264
1790267519945566000,8.81956591796875,-6.10042667388916,-6.049851417541504,4.728053569793701
1790267519955566000,8.829566162109375,-6.180933952331543,-5.941249370574951,4.761090278625488
1790267519965566000,8.83956591796875,-6.2594757080078125,-5.8321943283081055,4.793210506439209
1790267519975566000,8.849566162109374,-6.340086936950684,-5.724085330963135,4.817523002624512
1790267519985566000,8.85956591796875,-6.426457405090332,-5.619312286376953,4.826423168182373
1790267519995566000,8.869566162109376,-6.522444248199463,-5.5175299644470215,4.815077781677246
1790267520005566000,8.87956591796875,-6.62957763671875,-5.415648937225342,4.784332275390625
1790267520015566000,8.889566162109375,-6.746101379394531,-5.310157299041748,4.7394866943359375
1790267520025566000,8.89956591796875,-6.868886947631836,-5.19929838180542,4.685730934143066
1790267520035566000,8.909566162109375,-6.994203567504883,-5.08254337310791,4.628094673156738
1790267520045566000,8.91956591796875,-7.118843078613281,-4.96116828918457,4.56938362121582
1790267520055566000,8.929566162109374,-7.2396464347839355,-4.838083267211914,4.511192798614502
1790267520065566000,8.93956591796875,-7.355844497680664,-4.71199893951416,4.456344127655029
1790267520075566000,8.949566162109376,-7.468631744384766,-4.578090190887451,4.40806245803833
1790267520085566000,8.95956591796875,-7.578032493591309,-4.435974597930908,4.366456985473633
1790267520095566000,8.969566162109375,-7.682001113891602,-4.29044771194458,4.330047130584717
1790267520105566000,8.97956591796875,-7.780412673950195,-4.145175933837891,4.2957048416137695
1790267520115566000,8.989566162109375,-7.87614631652832,-3.9995226860046387,4.259169578552246
1790267520125566000,8.99956591796875,-7.972757816314697,-3.852940320968628,4.2143049240112305
1790267520135566000,9.009566162109374,-8.070694923400879,-3.7040836811065674,4.161013126373291
1790267520145566000,9.01956591796875,-8.167055130004883,-3.548588752746582,4.108176231384277
1790267520155566000,9.029566162109376,-8.258708000183105,-3.3842074871063232,4.063405990600586
1790267520165566000,9.03956591796875,-8.34426212310791,-3.2145941257476807,4.026173114776611
1790267520175566000,9.049566162109375,-8.424421310424805,-3.042842149734497,3.9925711154937744
1790267520185566000,9.05956591796875,-8.49953556060791,-2.86922025680542,3.9617979526519775
1790267520195566000,9.069566162109375,-8.569086074829102,-2.695519208908081,3.933868646621704
1790267520205566000,9.07956591796875,-8.632863998413086,-2.5249245166778564,3.9075307846069336
1790267520215566000,9.089566162109374,-8.690062522888184,-2.3575539588928223,3.885247230529785
1790267520225566000,9.09956591796875,-8.739934921264648,-2.1936192512512207,3.8693597316741943
1790267520235566000,9.109566162109376,-8.78373908996582,-2.0373775959014893,3.855567693710327
1790267520245566000,9.11956591796875,-8.824943542480469,-1.8908246755599976,3.8360838890075684
1790267520255566000,9.129566162109375,-8.863999366760254,-1.7501283884048462,3.8127353191375732
1790267520265566000,9.13956591796875,-8.899736404418945,-1.6149944067001343,3.7890450954437256
1790267520275566000,9.149566162109375,-8.930523872375488,-1.4891680479049683,3.768092632293701
1790267520285566000,9.15956591796875,-8.954601287841797,-1.3752291202545166,3.7542290687561035
1790267520295566000,9.169566162109374,-8.971378326416016,-1.2769596576690674,3.748884439468384
1790267520305566000,9.17956591796875,-8.983052253723145,-1.196305513381958,3.7475337982177734
1790267520315566000,9.189566162109376,-8.99392032623291,-1.1216020584106445,3.744568109512329
1790267520325566000,9.19956591796875,-8.998478889465332,-1.0436580181121826,3.7561328411102295
1790267520335566000,9.209566162109375,-8.993427276611328,-0.9635800719261169,3.789480447769165
1790267520345566000,9.21956591796875,-8.979275703430176,-0.8902573585510254,3.840628147125244
1790267520355566000,9.229566162109375,-8.961271286010742,-0.833838939666748,3.894958734512329
1790267520365566000,9.23956591796875,-8.949334144592285,-0.7913814783096313,3.9310970306396484
1790267520375566000,9.249566162109375,-8.943870544433594,-0.7580430507659912,3.9500536918640137
1790267520385566000,9.25956591796875,-8.939176559448242,-0.7326863408088684,3.9654335975646973
1790267520395566000,9.269566162109374,-8.9303617477417,-0.7134496569633484,3.9887351989746094
1790267520405566000,9.27956591796875,-8.916863441467285,-0.7035154104232788,4.020573616027832
1790267520415566000,9.289566162109375,-8.902504920959473,-0.7052493095397949,4.0519633293151855
1790267520425566000,9.29956591796875,-8.890314102172852,-0.7169185876846313,4.076606750488281
1790267520435566000,9.309566162109375,-8.877398490905762,-0.7357169389724731,4.101327896118164
1790267520445566000,9.31956591796875,-8.859617233276367,-0.7611986994743347,4.134990215301514
1790267520455566000,9.329566162109375,-8.836113929748535,-0.7971429824829102,4.178282260894775
1790267520465566000,9.33956591796875,-8.808065414428711,-0.8474040031433105,4.227325916290283
1790267520475566000,9.349566162109374,-8.776683807373047,-0.9118120074272156,4.2788801193237305
1790267520485566000,9.35956591796875,-8.741195678710938,-0.9862545728683472,4.334651470184326
1790267520495566000,9.369566162109376,-8.702316284179688,-1.0669834613800049,4.393359184265137
1790267520505566000,9.37956591796875,-8.66089153289795,-1.1570872068405151,4.452023029327393
1790267520515566000,9.389566162109375,-8.619660377502441,-1.2607423067092896,4.503595352172852
1790267520525566000,9.39956591796875,-8.579168319702148,-1.3745838403701782,4.547390460968018
1790267520535566000,9.409566162109375,-8.537995338439941,-1.4952378273010254,4.586642742156982
1790267520545566000,9.41956591796875,-8.496251106262207,-1.6220415830612183,4.620939254760742
1790267520555566000,9.429566162109374,-8.452791213989258,-1.753757119178772,4.652423858642578
1790267520565566000,9.43956591796875,-8.404251098632812,-1.8878616094589233,4.687743186950684
1790267520575566000,9.449566162109376,-8.346829414367676,-2.022784471511841,4.733834266662598
1790267520585566000,9.45956591796875,-8.282102584838867,-2.1578261852264404,4.787583827972412
1790267520595566000,9.469566162109375,-8.212336540222168,-2.2936391830444336,4.844287872314453
1790267520605566000,9.47956591796875,-8.138184547424316,-2.4304068088531494,4.902393817901611
1790267520615566000,9.489566162109375,-8.058408737182617,-2.5681042671203613,4.96359395980835
1790267520625566000,9.49956591796875,-7.9709978103637695,-2.7071216106414795,5.03041410446167
1790267520635566000,9.509566162109374,-7.878625869750977,-2.845116138458252,5.09930944442749
1790267520645566000,9.51956591796875,-7.781692028045654,-2.9815149307250977,5.169742107391357
1790267520655566000,9.529566162109376,-7.676723480224609,-3.119220733642578,5.244879245758057
1790267520665566000,9.53956591796875,-7.564023971557617,-3.2598655223846436,5.3225178718566895
1790267520675566000,9.549566162109375,-7.446506500244141,-3.4046242237091064,5.397078037261963
1790267520685566000,9.55956591796875,-7.326225757598877,-3.5552029609680176,5.464186668395996
1790267520695566000,9.569566162109375,-7.20497989654541,-3.711230754852295,5.521359920501709
1790267520705566000,9.57956591796875,-7.086844444274902,-3.8686399459838867,5.5660271644592285
1790267520715566000,9.589566162109374,-6.975051403045654,-4.021936893463135,5.5984883308410645
1790267520725566000,9.59956591796875,-6.86599063873291,-4.170449256896973,5.624581813812256
1790267520735566000,9.609566162109376,-6.756314277648926,-4.316593170166016,5.647090435028076
1790267520745566000,9.61956591796875,-6.6446661949157715,-4.463852405548096,5.66505241394043
1790267520755566000,9.629566162109375,-6.532184600830078,-4.613460540771484,5.675995826721191
1790267520765566000,9.63956591796875,-6.422486782073975,-4.76595401763916,5.6751861572265625
1790267520775566000,9.649566162109375,-6.317741394042969,-4.921689510345459,5.659815311431885
1790267520785566000,9.65956591796875,-6.218596935272217,-5.079214096069336,5.630365371704102
1790267520795566000,9.669566162109374,-6.123065948486328,-5.235827445983887,5.59147310256958
1790267520805566000,9.67956591796875,-6.027191162109375,-5.388820171356201,5.550131320953369
1790267520815566000,9.689566162109376,-5.926366329193115,-5.536835193634033,5.512897491455078
1790267520825566000,9.69956591796875,-5.821293354034424,-5.678669452667236,5.4804792404174805
1790267520835566000,9.709566162109375,-5.713919162750244,-5.815019130706787,5.450418949127197
1790267520845566000,9.71956591796875,-5.604480743408203,-5.948655605316162,5.419749736785889
1790267520855566000,9.729566162109375,-5.498222351074219,-6.079718112945557,5.383025646209717
1790267520865566000,9.73956591796875,-5.398564338684082,-6.207283973693848,5.338118553161621
1790267520875566000,9.749566162109375,-5.3074445724487305,-6.329957008361816,5.285173416137695
1790267520885566000,9.75956591796875,-5.227856159210205,-6.446104526519775,5.223758220672607
1790267520895566000,9.769566162109374,-5.159676551818848,-6.553305625915527,5.157742977142334
1790267520905566000,9.77956591796875,-5.101189613342285,-6.6505608558654785,5.091001510620117
1790267520915566000,9.789566162109375,-5.045265197753906,-6.739163875579834,5.02984619140625
1790267520925566000,9.79956591796875,-4.986721992492676,-6.82062292098999,4.978161334991455
1790267520935566000,9.809566162109375,-4.92929744720459,-6.895171642303467,4.932445526123047
1790267520945566000,9.81956591796875,-4.880322456359863,-6.962770462036133,4.8859663009643555
1790267520955566000,9.829566162109375,-4.841743469238281,-7.024665355682373,4.8354926109313965
1790267520965566000,9.83956591796875,-4.808811664581299,-7.082579612731934,4.783595561981201
1790267520975566000,9.849566162109374,-4.777859687805176,-7.137312412261963,4.732993125915527
1790267520985566000,9.85956591796875,-4.749194622039795,-7.187134742736816,4.686217308044434
1790267520995566000,9.869566162109376,-4.724907875061035,-7.2298383712768555,4.644896030426025
1790267521005566000,9.87956591796875,-4.707208156585693,-7.26370906829834,4.609892845153809
1790267521015566000,9.889566162109375,-4.695380210876465,-7.288054943084717,4.58345365524292
1790267521025566000,9.89956591796875,-4.6864705085754395,-7.303701877593994,4.567637920379639
1790267521035566000,9.909566162109375,-4.678447723388672,-7.3127827644348145,4.561328887939453
1790267521045566000,9.91956591796875,-4.670736312866211,-7.318052291870117,4.560781002044678
1790267521055566000,9.929566162109374,-4.663681507110596,-7.321730136871338,4.562097072601318
1790267521065566000,9.93956591796875,-4.658136367797852,-7.325705528259277,4.5613813400268555
1790267521075566000,9.949566162109376,-4.656400203704834,-7.3302717208862305,4.555812835693359
1790267521085566000,9.95956591796875,-4.661141872406006,-7.333420276641846,4.545887470245361
1790267521095566000,9.969566162109375,-4.673640727996826,-7.333036422729492,4.533657073974609
1790267521105566000,9.97956591796875,-4.694600582122803,-7.326587677001953,4.522414207458496
1790267521115566000,9.989566162109375,-4.722543716430664,-7.312082767486572,4.5167927742004395
1790267521125566000,9.99956591796875,-4.753355503082275,-7.289518356323242,4.520942687988281
1790267521135566000,10.009566162109374,-4.7848124504089355,-7.26054048538208,4.534368991851807
1790267521145566000,10.01956591796875,-4.817007541656494,-7.227248191833496,4.553428649902344
1790267521155566000,10.029566162109376,-4.851326942443848,-7.191051959991455,4.574252605438232
1790267521165566000,10.03956591796875,-4.889503479003906,-7.152489185333252,4.594024181365967
1790267521175566000,10.049566162109375,-4.932669639587402,-7.1114702224731445,4.6115241050720215
1790267521185566000,10.05956591796875,-4.981293678283691,-7.067322254180908,4.62709903717041
1790267521195566000,10.069566162109375,-5.036314964294434,-7.018168926239014,4.642330169677734
1790267521205566000,10.07956591796875,-5.095808982849121,-6.963214874267578,4.6601243019104
1790267521215566000,10.089566162109374,-5.155144214630127,-6.904084205627441,4.682787895202637
1790267521225566000,10.09956591796875,-5.211261749267578,-6.8438005447387695,4.709090709686279
1790267521235566000,10.109566162109376,-5.265146732330322,-6.783465385437012,4.73637056350708
1790267521245566000,10.11956591796875,-5.319244861602783,-6.721880912780762,4.763647079467773
1790267521255566000,10.129566162109375,-5.374431133270264,-6.657188892364502,4.7924628257751465
1790267521265566000,10.13956591796875,-5.430538654327393,-6.5890703201293945,4.823254585266113
1790267521275566000,10.149566162109375,-5.48915433883667,-6.51764440536499,4.853852272033691
1790267521285566000,10.15956591796875,-5.55219841003418,-6.4428935050964355,4.88186502456665
1790267521295566000,10.169566162109374,-5.620945930480957,-6.364029884338379,4.906574249267578
1790267521305566000,10.17956591796875,-5.696439743041992,-6.279717445373535,4.928093433380127
1790267521315566000,10.189566162109376,-5.77898645401001,-6.187975883483887,4.947994709014893
1790267521325566000,10.19956591796875,-5.865988731384277,-6.088168144226074,4.969382286071777
1790267521335566000,10.209566162109375,-5.95201301574707,-5.982267379760742,4.9956374168396
1790267521345566000,10.21956591796875,-6.033877849578857,-5.873219013214111,5.026730060577393
1790267521355566000,10.229566162109375,-6.111621379852295,-5.76279878616333,5.060496807098389
1790267521365566000,10.23956591796875,-6.187201023101807,-5.652235984802246,5.093246936798096
1790267521375566000,10.249566162109375,-6.265829086303711,-5.5404534339904785,5.11987829208374
1790267521385566000,10.25956591796875,-6.352142810821533,-5.42553186416626,5.136562824249268
1790267521395566000,10.269566162109374,-6.446568012237549,-5.305694103240967,5.144101142883301
1790267521405566000,10.27956591796875,-6.546236991882324,-5.179732322692871,5.146604537963867
1790267521415566000,10.289566162109375,-6.648850917816162,-5.046295166015625,5.147628307342529
1790267521425566000,10.29956591796875,-6.7516560554504395,-4.9071269035339355,5.148362636566162
1790267521435566000,10.309566162109375,-6.851580619812012,-4.767017841339111,5.14798641204834
1790267521445566000,10.31956591796875,-6.950226306915283,-4.6281633377075195,5.142454147338867
1790267521455566000,10.329566162109375,-7.050554275512695,-4.489528656005859,5.128760814666748
1790267521465566000,10.33956591796875,-7.15327787399292,-4.3497138023376465,5.106955528259277
1790267521475566000,10.349566162109374,-7.255794048309326,-4.209408283233643,5.079835414886475
1790267521485566000,10.35956591796875,-7.358842849731445,-4.067962646484375,5.046730995178223
1790267521495566000,10.369566162109376,-7.467286109924316,-3.9237353801727295,5.0014328956604
1790267521505566000,10.37956591796875,-7.583434581756592,-3.7774102687835693,4.93893575668335
1790267521515566000,10.389566162109375,-7.706653594970703,-3.6290946006774902,4.858759880065918
1790267521525566000,10.39956591796875,-7.834347724914551,-3.4738333225250244,4.767165184020996
1790267521535566000,10.409566162109375,-7.957034111022949,-3.3074793815612793,4.681514263153076
1790267521545566000,10.41956591796875,-8.063224792480469,-3.1366891860961914,4.616922378540039
1790267521555566000,10.429566162109374,-8.155205726623535,-2.9689385890960693,4.566006183624268
1790267521565566000,10.43956591796875,-8.245600700378418,-2.806863784790039,4.505772113800049
1790267521575566000,10.449566162109376,-8.3367919921875,-2.652570962905884,4.430818557739258
1790267521585566000,10.45956591796875,-8.422431945800781,-2.5042526721954346,4.3545074462890625
1790267521595566000,10.469566162109375,-8.494790077209473,-2.357630491256714,4.295405864715576
1790267521605566000,10.47956591796875,-8.552485466003418,-2.2133944034576416,4.2574944496154785
1790267521615566000,10.489566162109375,-8.603145599365234,-2.0750014781951904,4.225000858306885
1790267521625566000,10.49956591796875,-8.653878211975098,-1.9430060386657715,4.183959484100342
1790267521635566000,10.509566162109374,-8.703055381774902,-1.8138432502746582,4.139708518981934
1790267521645566000,10.51956591796875,-8.74632740020752,-1.6882799863815308,4.101446151733398
1790267521655566000,10.529566162109376,-8.784485816955566,-1.5714514255523682,4.066169261932373
1790267521665566000,10.53956591796875,-8.819751739501953,-1.4630690813064575,4.030112266540527
1790267521675566000,10.549566162109375,-8.850903511047363,-1.3579626083374023,3.9984776973724365
1790267521685566000,10.55956591796875,-8.876855850219727,-1.2557120323181152,3.9742929935455322
1790267521695566000,10.569566162109375,-8.898454666137695,-1.1621112823486328,3.954411745071411
1790267521705566000,10.57956591796875,-8.91739273071289,-1.0794109106063843,3.935147523880005
1790267521715566000,10.589566162109374,-8.934035301208496,-1.0063621997833252,3.9167134761810303
1790267521725566000,10.59956591796875,-8.943917274475098,-0.940020740032196,3.910639524459839
1790267521735566000,10.609566162109376,-8.945435523986816,-0.883739709854126,3.920278310775757
1790267521745566000,10.61956591796875,-8.942208290100098,-0.8415670394897461,3.9368844032287598
1790267521755566000,10.629566162109375,-8.935691833496094,-0.8144024014472961,3.957339286804199
1790267521765566000,10.63956591796875,-8.924310684204102,-0.8030248284339905,3.985250234603882
1790267521775566000,10.649566162109375,-8.909832000732422,-0.8106943368911743,4.015974521636963
1790267521785566000,10.65956591796875,-8.89149284362793,-0.831870436668396,4.052126407623291
1790267521795566000,10.669566162109374,-8.864216804504395,-0.8551876544952393,4.10666561126709
1790267521805566000,10.67956591796875,-8.82873249053955,-0.876683235168457,4.177952766418457
1790267521815566000,10.689566162109376,-8.791513442993164,-0.9038525223731995,4.250026702880859
1790267521825566000,10.69956591796875,-8.751736640930176,-0.9471585154533386,4.322079181671143
1790267521835566000,10.709566162109375,-8.712106704711914,-1.0077366828918457,4.387943267822266
1790267521845566000,10.71956591796875,-8.678413391113281,-1.0792717933654785,4.437419891357422
1790267521855566000,10.729566162109375,-8.648590087890625,-1.159757137298584,4.475179672241211
1790267521865566000,10.73956591796875,-8.617318153381348,-1.2502068281173706,4.511007785797119
1790267521875566000,10.749566162109375,-8.582181930541992,-1.351902723312378,4.548503875732422
1790267521885566000,10.75956591796875,-8.542967796325684,-1.4645333290100098,4.587289333343506
1790267521895566000,10.769566162109374,-8.49893569946289,-1.585931420326233,4.6285319328308105
1790267521905566000,10.77956591796875,-8.449705123901367,-1.7137610912322998,4.67288875579834
1790267521915566000,10.789566162109375,-8.39415168762207,-1.8456058502197266,4.722536087036133
1790267521925566000,10.79956591796875,-8.330039978027344,-1.9792258739471436,4.78157901763916
1790267521935566000,10.809566162109375,-8.25422477722168,-2.1155436038970947,4.854135513305664
1790267521945566000,10.81956591796875,-8.166131973266602,-2.257500410079956,4.938458442687988
1790267521955566000,10.829566162109375,-8.069779396057129,-2.4059386253356934,5.02598237991333
1790267521965566000,10.83956591796875,-7.969883441925049,-2.5606801509857178,5.1082539558410645
1790267521975566000,10.849566162109374,-7.86887264251709,-2.7214510440826416,5.181210517883301
1790267521985566000,10.85956591796875,-7.76579475402832,-2.887878894805908,5.246234893798828
1790267521995566000,10.869566162109376,-7.660559177398682,-3.059711456298828,5.303242206573486
1790267522005566000,10.87956591796875,-7.5514326095581055,-3.236083507537842,5.3548126220703125
1790267522015566000,10.889566162109375,-7.438755035400391,-3.4152066707611084,5.401081562042236
1790267522025566000,10.89956591796875,-7.321040153503418,-3.5960135459899902,5.44439697265625
1790267522035566000,10.909566162109375,-7.195860385894775,-3.776968240737915,5.488577842712402
1790267522045566000,10.91956591796875,-7.061953544616699,-3.9590554237365723,5.533993721008301
1790267522055566000,10.929566162109374,-6.918767929077148,-4.142624378204346,5.580296993255615
1790267522065566000,10.93956591796875,-6.767658710479736,-4.3267903327941895,5.625661373138428
1790267522075566000,10.949566162109376,-6.6134748458862305,-4.510983943939209,5.664217948913574
1790267522085566000,10.95956591796875,-6.46279239654541,-4.694311141967773,5.689125061035156
1790267522095566000,10.969566162109375,-6.323563575744629,-4.87418270111084,5.694319248199463
1790267522105566000,10.97956591796875,-6.194097518920898,-5.04847526550293,5.684755325317383
1790267522115566000,10.989566162109375,-6.070487976074219,-5.213622093200684,5.669012546539307
1790267522125566000,10.99956591796875,-5.953851699829102,-5.3699469566345215,5.646742820739746
1790267522135566000,11.009566162109374,-5.846479415893555,-5.515804290771484,5.6182708740234375
1790267522145566000,11.01956591796875,-5.747420787811279,-5.6525959968566895,5.584415912628174
1790267522155566000,11.029566162109376,-5.6571221351623535,-5.78522253036499,5.540628433227539
1790267522165566000,11.03956591796875,-5.57474946975708,-5.918804168701172,5.48272705078125
1790267522175566000,11.049566162109375,-5.499940395355225,-6.054561138153076,5.40955924987793
1790267522185566000,11.05956591796875,-5.429568290710449,-6.1902618408203125,5.3264288902282715
1790267522195566000,11.069566162109375,-5.359142303466797,-6.3233256340026855,5.240757465362549
1790267522205566000,11.07956591796875,-5.286602020263672,-6.450328350067139,5.15902042388916
1790267522215566000,11.089566162109374,-5.213441371917725,-6.568265914916992,5.084123134613037
1790267522225566000,11.09956591796875,-5.141751289367676,-6.675390720367432,5.017165184020996
1790267522235566000,11.109566162109376,-5.073062896728516,-6.772103786468506,4.957118988037109
1790267522245566000,11.11956591796875,-5.007134437561035,-6.860135555267334,4.9028096199035645
1790267522255566000,11.129566162109375,-4.942399501800537,-6.941484451293945,4.853747844696045
1790267522265566000,11.13956591796875,-4.882241725921631,-7.01568078994751,4.807735919952393
1790267522275566000,11.149566162109375,-4.832380294799805,-7.0820136070251465,4.7606282234191895
1790267522285566000,11.15956591796875,-4.796061038970947,-7.141037940979004,4.708902359008789
1790267522295566000,11.169566162109374,-4.772716045379639,-7.1935906410217285,4.652292728424072
1790267522305566000,11.17956591796875,-4.759065628051758,-7.240451812744141,4.593204498291016
1790267522315566000,11.189566162109376,-4.750998497009277,-7.281884670257568,4.5356974601745605
1790267522325566000,11.19956591796875,-4.7436676025390625,-7.317594051361084,4.485624313354492
1790267522335566000,11.209566162109375,-4.732701778411865,-7.34783411026001,4.447612762451172
1790267522345566000,11.21956591796875,-4.716677188873291,-7.373454570770264,4.422162055969238
1790267522355566000,11.229566162109375,-4.698431015014648,-7.394190311431885,4.4069342613220215
1790267522365566000,11.23956591796875,-4.682948112487793,-7.4090142250061035,4.3985090255737305
1790267522375566000,11.249566162109375,-4.675683498382568,-7.4176249504089355,4.391721725463867
1790267522385566000,11.25956591796875,-4.6785759925842285,-7.421284198760986,4.382448196411133
1790267522395566000,11.269566162109374,-4.691792964935303,-7.4207000732421875,4.369287967681885
1790267522405566000,11.27956591796875,-4.714595317840576,-7.415765762329102,4.353090286254883
1790267522415566000,11.289566162109375,-4.744974613189697,-7.405782699584961,4.337047576904297
1790267522425566000,11.29956591796875,-4.781006336212158,-7.389815807342529,4.324695587158203
1790267522435566000,11.309566162109375,-4.820234298706055,-7.367852687835693,4.318619728088379
1790267522445566000,11.31956591796875,-4.858164310455322,-7.340939998626709,4.32194709777832
1790267522455566000,11.329566162109375,-4.891354084014893,-7.310294151306152,4.33643102645874
1790267522465566000,11.33956591796875,-4.919193744659424,-7.277066707611084,4.360759735107422
1790267522475566000,11.349566162109374,-4.94264030456543,-7.242530822753906,4.391632556915283
1790267522485566000,11.35956591796875,-4.963406085968018,-7.207056522369385,4.42643404006958
1790267522495566000,11.369566162109376,-4.983831882476807,-7.17044734954834,4.462789058685303
1790267522505566000,11.37956591796875,-5.006808757781982,-7.131690979003906,4.499025821685791
1790267522515566000,11.389566162109375,-5.034909248352051,-7.089568614959717,4.534102916717529
1790267522525566000,11.39956591796875,-5.069363594055176,-7.042646408081055,4.568705081939697
1790267522535566000,11.409566162109375,-5.108791828155518,-6.989745616912842,4.605876445770264
1790267522545566000,11.41956591796875,-5.151365280151367,-6.930513858795166,4.647772789001465
1790267522555566000,11.429566162109374,-5.197301387786865,-6.865233898162842,4.693292617797852
1790267522565566000,11.43956591796875,-5.247857570648193,-6.794734001159668,4.739406585693359
1790267522575566000,11.449566162109376,-5.303300380706787,-6.720188140869141,4.78377103805542
1790267522585566000,11.45956591796875,-5.364361763000488,-6.641471862792969,4.825437545776367
1790267522595566000,11.469566162109375,-5.430552005767822,-6.558019161224365,4.865374565124512
1790267522605566000,11.47956591796875,-5.499366760253906,-6.469256401062012,4.906735897064209
1790267522615566000,11.489566162109375,-5.568968772888184,-6.374600410461426,4.951912879943848
1790267522625566000,11.49956591796875,-5.638762950897217,-6.274616241455078,5.000391960144043
1790267522635566000,11.509566162109374,-5.708503246307373,-6.1705193519592285,5.050551414489746
1790267522645566000,11.51956591796875,-5.779138088226318,-6.064083099365234,5.09890604019165
1790267522655566000,11.529566162109376,-5.853419780731201,-5.956430912017822,5.140894889831543
1790267522665566000,11.53956591796875,-5.93258810043335,-5.847823143005371,5.174721717834473
1790267522675566000,11.549566162109375,-6.0168914794921875,-5.738485336303711,5.19973087310791
1790267522685566000,11.55956591796875,-6.107059478759766,-5.6275177001953125,5.215865612030029
1790267522695566000,11.569566162109375,-6.203526973724365,-5.513583660125732,5.223698616027832
1790267522705566000,11.57956591796875,-6.30509090423584,-5.394832134246826,5.226089000701904
1790267522715566000,11.589566162109374,-6.409813404083252,-5.269262790679932,5.226809978485107
1790267522725566000,11.59956591796875,-6.516838550567627,-5.136098861694336,5.227015495300293
1790267522735566000,11.609566162109376,-6.6258440017700195,-4.996459484100342,5.225320339202881
1790267522745566000,11.61956591796875,-6.737231254577637,-4.851181983947754,5.219783306121826
1790267522755566000,11.629566162109375,-6.849857807159424,-4.702347755432129,5.2093915939331055
1790267522765566000,11.63956591796875,-6.962437152862549,-4.55101203918457,5.194530487060547
1790267522775566000,11.649566162109375,-7.075291633605957,-4.396202087402344,5.175329208374023
1790267522785566000,11.65956591796875,-7.190698623657227,-4.237700939178467,5.148409843444824
1790267522795566000,11.669566162109374,-7.310641765594482,-4.077798843383789,5.1084699630737305
1790267522805566000,11.67956591796875,-7.433283805847168,-3.9172821044921875,5.056834697723389
1790267522815566000,11.689566162109376,-7.554328441619873,-3.754979133605957,5.0002641677856445
1790267522825566000,11.69956591796875,-7.67294454574585,-3.588618516921997,4.941470623016357
1790267522835566000,11.709566162109375,-7.791292667388916,-3.4177441596984863,4.8770036697387695
1790267522845566000,11.71956591796875,-7.9023237228393555,-3.2479050159454346,4.814018249511719
1790267522855566000,11.729566162109375,-7.996637344360352,-3.085545539855957,4.764828205108643
1790267522865566000,11.73956591796875,-8.081428527832031,-2.93041729927063,4.719485759735107
1790267522875566000,11.749566162109375,-8.16800594329834,-2.781404733657837,4.66024112701416
1790267522885566000,11.75956591796875,-8.252880096435547,-2.641788959503174,4.591438293457031
1790267522895566000,11.769566162109374,-8.332418441772461,-2.510563373565674,4.520870208740234
1790267522905566000,11.77956591796875,-8.406051635742188,-2.3815882205963135,4.453843593597412
1790267522915566000,11.789566162109375,-8.474370002746582,-2.252459764480591,4.391111850738525
1790267522925566000,11.79956591796875,-8.542142868041992,-2.1256134510040283,4.3224945068359375
1790267522935566000,11.809566162109375,-8.609726905822754,-2.004833698272705,4.245423316955566
1790267522945566000,11.81956591796875,-8.67165756225586,-1.8885325193405151,4.1720733642578125
1790267522955566000,11.829566162109375,-8.724570274353027,-1.7731568813323975,4.111957550048828
1790267522965566000,11.83956591796875,-8.76740837097168,-1.657251000404358,4.068963527679443
1790267522975566000,11.849566162109374,-8.798245429992676,-1.5395276546478271,4.0485944747924805
1790267522985566000,11.85956591796875,-8.817704200744629,-1.4236807823181152,4.0486578941345215
1790267522995566000,11.869566162109376,-8.83021354675293,-1.3150255680084229,4.058131694793701
1790267523005566000,11.87956591796875,-8.839812278747559,-1.2169370651245117,4.0678205490112305
1790267523015566000,11.889566162109375,-8.84864330291748,-1.1278047561645508,4.074303150177002
1790267523025566000,11.89956591796875,-8.855822563171387,-1.0450153350830078,4.080775260925293
1790267523035566000,11.909566162109375,-8.858720779418945,-0.9680481553077698,4.093450546264648
1790267523045566000,11.91956591796875,-8.857015609741211,-0.9013874530792236,4.11231803894043
1790267523055566000,11.929566162109374,-8.85318374633789,-0.8488107919692993,4.131711006164551
1790267523065566000,11.93956591796875,-8.849175453186035,-0.8113299608230591,4.147796154022217
1790267523075566000,11.949566162109376,-8.846295356750488,-0.7850440740585327,4.158982753753662
1790267523085566000,11.95956591796875,-8.841726303100586,-0.7648767828941345,4.172434329986572
1790267523095566000,11.969566162109375,-8.832569122314453,-0.7524958848953247,4.19402551651001
1790267523105566000,11.97956591796875,-8.821023941040039,-0.7522786855697632,4.218292713165283
1790267523115566000,11.989566162109375,-8.807968139648438,-0.7698260545730591,4.24233865737915
1790267523125566000,11.99956591796875,-8.792316436767578,-0.8065795302391052,4.2679033279418945
1790267523135566000,12.009566162109374,-8.773512840270996,-0.8614226579666138,4.2957892417907715
1790267523145566000,12.01956591796875,-8.751036643981934,-0.9316998720169067,4.326857089996338
1790267523155566000,12.029566162109376,-8.722278594970703,-1.0146573781967163,4.366086959838867
1790267523165566000,12.03956591796875,-8.685792922973633,-1.107513666152954,4.415971755981445
1790267523175566000,12.049566162109375,-8.640890121459961,-1.2100205421447754,4.476746559143066
1790267523185566000,12.05956591796875,-8.587906837463379,-1.3230459690093994,4.546185493469238
1790267523195566000,12.069566162109375,-8.529937744140625,-1.4446617364883423,4.617736339569092
1790267523205566000,12.07956591796875,-8.467610359191895,-1.571428656578064,4.6904754638671875
1790267523215566000,12.089566162109374,-8.40014934539795,-1.7023322582244873,4.765496253967285
1790267523225566000,12.09956591796875,-8.326796531677246,-1.836586833000183,4.843738079071045
1790267523235566000,12.109566162109376,-8.245803833007812,-1.9744007587432861,4.927358627319336
1790267523245566000,12.11956591796875,-8.157025337219238,-2.115840435028076,5.015629768371582
1790267523255566000,12.129566162109375,-8.062822341918945,-2.2597272396087646,5.104400634765625
1790267523265566000,12.13956591796875,-7.964235782623291,-2.40633225440979,5.191427707672119
1790267523275566000,12.149566162109375,-7.862342834472656,-2.558027744293213,5.273560047149658
1790267523285566000,12.15956591796875,-7.759614944458008,-2.7157883644104004,5.346330165863037
1790267523295566000,12.169566162109374,-7.655337810516357,-2.880674123764038,5.4099812507629395
1790267523305566000,12.17956591796875,-7.548459053039551,-3.0523266792297363,5.465753078460693
1790267523315566000,12.189566162109376,-7.439606189727783,-3.227694034576416,5.514040470123291
1790267523325566000,12.19956591796875,-7.329107761383057,-3.4046008586883545,5.5554728507995605
1790267523335566000,12.209566162109375,-7.217328071594238,-3.583296775817871,5.589324951171875
1790267523345566000,12.21956591796875,-7.103310585021973,-3.7663795948028564,5.6149582862854
1790267523355566000,12.229566162109375,-6.987966060638428,-3.9542274475097656,5.630524635314941
1790267523365566000,12.23956591796875,-6.872512340545654,-4.145068168640137,5.6353678703308105
1790267523375566000,12.249566162109375,-6.75435733795166,-4.337099075317383,5.63370418548584
1790267523385566000,12.25956591796875,-6.634491920471191,-4.5273637771606445,5.6264448165893555
1790267523395566000,12.269566162109374,-6.517305374145508,-4.711512088775635,5.612198829650879
1790267523405566000,12.27956591796875,-6.402982234954834,-4.887276649475098,5.5934529304504395
1790267523415566000,12.289566162109375,-6.288774490356445,-5.054550647735596,5.57433557510376
1790267523425566000,12.29956591796875,-6.174856662750244,-5.214191436767578,5.554615497589111
1790267523435566000,12.309566162109375,-6.06127405166626,-5.3674702644348145,5.533679008483887
1790267523445566000,12.31956591796875,-5.950193881988525,-5.516240119934082,5.50787353515625
1790267523455566000,12.329566162109375,-5.848891735076904,-5.661896705627441,5.4684343338012695
1790267523465566000,12.33956591796875,-5.763105392456055,-5.8050761222839355,5.40907621383667
1790267523475566000,12.349566162109374,-5.6919426918029785,-5.945240020751953,5.331631183624268
1790267523485566000,12.35956591796875,-5.63193941116333,-6.080582618713379,5.241962432861328
1790267523495566000,12.369566162109376,-5.577576637268066,-6.210723876953125,5.146643161773682
1790267523505566000,12.37956591796875,-5.523235321044922,-6.337024688720703,5.050384998321533
1790267523515566000,12.389566162109375,-5.464247703552246,-6.461636066436768,4.9557671546936035
1790267523525566000,12.39956591796875,-5.398621082305908,-6.5850138664245605,4.864449977874756
1790267523535566000,12.409566162109375,-5.328249931335449,-6.7042155265808105,4.7784552574157715
1790267523545566000,12.41956591796875,-5.2568864822387695,-6.81525993347168,4.699762344360352
1790267523555566000,12.429566162109374,-5.187098503112793,-6.91601037979126,4.629599571228027
1790267523565566000,12.43956591796875,-5.121868133544922,-7.0055999755859375,4.567101955413818
1790267523575566000,12.449566162109376,-5.065310001373291,-7.082765579223633,4.510814189910889
1790267523585566000,12.45956591796875,-5.019861698150635,-7.147826194763184,4.458695411682129
1790267523595566000,12.469566162109375,-4.984964370727539,-7.203195095062256,4.408458232879639
1790267523605566000,12.47956591796875,-4.958481788635254,-7.251676559448242,4.358558654785156
1790267523615566000,12.489566162109375,-4.936962127685547,-7.2954912185668945,4.309594631195068
1790267523625566000,12.49956591796875,-4.917489528656006,-7.335917949676514,4.262977600097656
1790267523635566000,12.509566162109374,-4.898568153381348,-7.372729778289795,4.2210493087768555
1790267523645566000,12.51956591796875,-4.8806047439575195,-7.405559539794922,4.184227466583252
1790267523655566000,12.529566162109376,-4.865160942077637,-7.43289852142334,4.153625965118408
1790267523665566000,12.53956591796875,-4.855363845825195,-7.452725887298584,4.129493236541748
1790267523675566000,12.549566162109375,-4.853590965270996,-7.463757038116455,4.1116156578063965
1790267523685566000,12.55956591796875,-4.861438274383545,-7.464962005615234,4.100139141082764
1790267523695566000,12.569566162109375,-4.878776550292969,-7.456462383270264,4.095008850097656
1790267523705566000,12.57956591796875,-4.904545783996582,-7.438913822174072,4.096142292022705
1790267523715566000,12.589566162109374,-4.937139987945557,-7.413496017456055,4.103062152862549
1790267523725566000,12.59956591796875,-4.9745049476623535,-7.381968021392822,4.114758014678955
1790267523735566000,12.609566162109376,-5.014498233795166,-7.346309185028076,4.1300048828125
1790267523745566000,12.61956591796875,-5.056082248687744,-7.307844161987305,4.1475090980529785
1790267523755566000,12.629566162109375,-5.098439693450928,-7.267472267150879,4.166550636291504
1790267523765566000,12.63956591796875,-5.139348983764648,-7.226646900177002,4.187249183654785
1790267523775566000,12.649566162109375,-5.177048206329346,-7.186857223510742,4.209233283996582
1790267523785566000,12.65956591796875,-5.212479114532471,-7.148192882537842,4.231287002563477
1790267523795566000,12.669566162109374,-5.2483110427856445,-7.108545780181885,4.253727436065674
1790267523805566000,12.67956591796875,-5.287143707275391,-7.06465482711792,4.278684139251709
1790267523815566000,12.689566162109376,-5.330413818359375,-7.01416015625,4.3079729080200195
1790267523825566000,12.69956591796875,-5.378434181213379,-6.9559245109558105,4.342573642730713
1790267523835566000,12.709566162109375,-5.433095932006836,-6.888671875,4.381558895111084
1790267523845566000,12.71956591796875,-5.493959426879883,-6.8122076988220215,4.424999237060547
1790267523855566000,12.729566162109375,-5.55862283706665,-6.7275309562683105,4.47352409362793
1790267523865566000,12.73956591796875,-5.625489711761475,-6.636018753051758,4.526312828063965
1790267523875566000,12.749566162109375,-5.694303035736084,-6.539008140563965,4.581122398376465
1790267523885566000,12.75956591796875,-5.7671051025390625,-6.436172962188721,4.635358810424805
1790267523895566000,12.769566162109374,-5.845211982727051,-6.328388690948486,4.685656547546387
1790267523905566000,12.77956591796875,-5.926307678222656,-6.2180094718933105,4.731344699859619
1790267523915566000,12.789566162109375,-6.007303714752197,-6.1058197021484375,4.775108337402344
1790267523925566000,12.79956591796875,-6.086435794830322,-5.992854595184326,4.817820072174072
1790267523935566000,12.809566162109375,-6.164021968841553,-5.879894256591797,4.858194828033447
1790267523945566000,12.81956591796875,-6.2436089515686035,-5.767247200012207,4.891483306884766
