time,seconds_elapsed,z,y,x
1790943543313411800,0.051411865234375,-0.36877895185649395,-0.17656565043479203,0.4395353996682912
1790943543323442000,0.06144189453125,-0.4270411712110042,-0.1327075117468834,0.3678280078072101
1790943543333471700,0.0714716796875,-0.5677537102371454,-0.15447949083298443,0.2955946923758834
1790943543343501800,0.081501708984375,-0.5560492439180612,-0.26156360876262186,0.2504277726443484
1790943543353532000,0.091531982421875,-0.3665285425812006,-0.19836305622309444,0.4333158675663173
1790943543363562000,0.10156201171875,-0.5966121404528617,0.0650245530962944,0.5965150002213194
1790943543373591800,0.111591796875,-0.8487649467915296,0.10492051015496254,0.4638245857397094
1790943543383622000,0.121621826171875,-0.7538397609502077,-0.010142916090786457,0.2885692507185042
1790943543393652000,0.13165185546875,-0.5442682052314282,-0.15363427218049763,0.2068527617467567
1790943543403682000,0.14168212890625,-0.43136721771657466,-0.17471125473976135,0.2197143987443298
1790943543413712000,0.1517119140625,-0.35653438731133935,-0.10396277103871107,0.37680516805425285
1790943543423741700,0.16174169921875,-0.33257249696552754,-0.09764408941119909,0.4026074986349791
1790943543433771800,0.171771728515625,-0.35065818875432014,-0.1620692153096199,0.3807702722929418
1790943543443802400,0.18180224609375,-0.27430267882645126,-0.234416366378963,0.39687421567998826
1790943543453832400,0.19183251953125,-0.18388707936406135,-0.2794832963347435,0.5272547457840293
1790943543463862500,0.201862548828125,-0.21934067006111144,-0.25223054774999615,0.6801891260668635
1790943543473892400,0.211892333984375,-0.3230406985104084,-0.24213176306188106,0.7316147773995995
1790943543483922400,0.22192236328125,-0.407304205083847,-0.21630758597552774,0.752416157887876
1790943543493952500,0.231952392578125,-0.5073480491131543,-0.1775949934825301,0.6110266694482416
1790943543503982600,0.241982666015625,-0.644827597567439,-0.010182079057395458,-0.0020469956576824187
1790943543514012700,0.2520126953125,-0.9538274957656859,-0.32048283072113987,0.13468798150699585
1790943543524042200,0.262042236328125,-1.3350339675188063,-0.41998862235099077,0.6376920465990901
1790943543534072300,0.272072265625,-1.7904127599418163,-0.39627223119884725,0.8177830216158181
1790943543544102400,0.282102294921875,-1.715447243067622,-0.2326820899322629,1.0411094733774662
1790943543554132500,0.292132568359375,-1.4897136570990084,0.05100859496444463,1.1898621109962462
1790943543564162600,0.30216259765625,-1.4522808752834797,0.31622838814705606,1.9754402415126562
1790943543574192600,0.312192626953125,-1.2560597995251417,0.33305005134940147,1.9178687809012829
1790943543584222500,0.322222412109375,-0.7664823849022389,-0.31512627212405203,0.7624551021475344
1790943543594252500,0.33225244140625,-0.8354162203967571,-0.5001283269926905,0.7862661127805709
1790943543604282400,0.342282470703125,-0.8876637095063924,-0.1791205956146121,1.1214899279724806
1790943543614312400,0.3523125,-1.0265782591998576,0.016125497631728648,0.9804758487164974
1790943543624342500,0.362342529296875,-0.9647206457018852,-0.09687398182153702,1.138165314571932
1790943543634372400,0.372372314453125,-0.9595961422950029,-0.18931904128491878,1.4177622273489832
1790943543644402400,0.38240234375,-0.8731699047297239,-0.474752185934782,1.363893566778302
1790943543654432500,0.3924326171875,-0.17998714931607246,-0.8368614507690072,2.096270560722053
1790943543664462600,0.402462646484375,0.9686959790736436,-1.1716267816036938,3.255621213598549
1790943543674492400,0.412492431640625,1.8181670283079145,-1.7433876816555856,3.8216257420808075
1790943543684522500,0.4225224609375,2.2522207086294888,-2.1200646932855247,3.6238504226177928
1790943543694552300,0.43255224609375,2.165988532331586,-2.059365894433856,2.9591426510602235
1790943543704582400,0.44258251953125,1.9869500620424747,-2.1196374077841638,2.3920156944192943
1790943543714613500,0.452613525390625,2.212566743633151,-2.0257517941236496,2.353689909286797
1790943543724643600,0.4626435546875,2.7623861532509326,-1.733796846489608,2.433936873695254
1790943543734672600,0.472672607421875,3.3198809198021886,-1.3789043811663984,2.6124168333187696
1790943543744703500,0.482703369140625,3.79092314530313,-1.2010124505639075,2.578833128146827
1790943543754733600,0.492733642578125,3.967441741725802,-1.2819292770579456,2.6625243877902625
1790943543764763400,0.502763427734375,3.6407980502873656,-1.5709674604624508,2.8645369064316153
1790943543774793500,0.51279345703125,3.2247640107810494,-1.8066195061162114,2.8515301253423093
1790943543784823300,0.5228232421875,1.60871705314219,-1.3616665383785962,2.3356018794104454
1790943543794853400,0.532853271484375,-2.6389842299878596,0.03145721453726291,1.6913371764227747
1790943543804883500,0.542883544921875,-4.5529386139243835,1.0568991631835698,1.8205173908263443
1790943543814913500,0.55291357421875,-4.98344599994123,0.23961627310961484,1.8739108351007103
1790943543824943600,0.562943603515625,-3.356961819440126,-1.3362979961052537,2.0494193776980043
1790943543834973700,0.5729736328125,-3.260226369306445,-1.5636200203090904,2.385795943121612
1790943543845003300,0.583003173828125,-4.499218129652738,-1.2267810980707405,3.672086922520399
1790943543855033300,0.593033447265625,-7.793504589471221,-0.04956745624542236,5.005532744064927
1790943543865063400,0.6030634765625,-5.328054971659183,-1.6151374415785074,3.085551939445734
1790943543875093500,0.613093505859375,-4.306893476811051,-2.841032696725428,2.5737510025769472
1790943543885123600,0.62312353515625,-2.4324288072198628,-4.8724555222228165,2.4065263042002916
1790943543895153400,0.6331533203125,0.7757131545841693,-6.004396482387185,1.7381272769093512
1790943543905183500,0.64318359375,1.624144339376688,-5.674651317802072,0.8323352055162191
1790943543915213600,0.653213623046875,0.8393979835093021,-3.697898532386124,0.24565526101291177
1790943543925243400,0.663243408203125,-0.8912316311210393,-2.0560320738360285,0.2505985626339912
1790943543935273500,0.6732734375,-2.2012749497681856,-1.5492065872922538,0.7783528554379939
1790943543945303600,0.683303466796875,-2.5536510483562944,-1.564208633852005,0.8078355550318956
1790943543955333400,0.69333349609375,-2.5906781719803806,-2.201986605168879,-0.10324527041912078
1790943543965363500,0.703363525390625,-2.087068724873662,-2.6594644156977534,-1.1731395242542029
1790943543975393500,0.7133935546875,-0.9390729942262173,-2.7397324228942392,-2.494078330925107
1790943543985423600,0.723423583984375,-0.7116390340805053,-2.3629221402734517,-4.520098420596122
1790943543995453400,0.733453369140625,0.12673720516562462,-2.534022218778729,-6.895587781497836
1790943544005483300,0.743483154296875,1.1729834569096564,-2.2058860968254503,-9.072081925752759
1790943544015513300,0.753513427734375,1.5670517483234405,-1.9729405336514114,-10.14488709859848
1790943544025543400,0.76354345703125,1.6254945849418638,-1.7292808303698897,-10.20613330219984
1790943544035573500,0.773573486328125,1.3333183957725763,-0.8967325666248798,-9.967401702970266
1790943544045603600,0.783603515625,1.199901858973503,-0.5795259810954332,-9.36402664425373
1790943544055633700,0.793633544921875,1.6089327417194843,-0.34422698666304347,-8.534759009614586
1790943544065663500,0.80366357421875,2.106314108091593,0.022789339435100555,-7.9123893275707955
1790943544075693300,0.813693359375,2.383237198549509,0.32341099312752486,-7.470276259434223
1790943544085723400,0.823723388671875,2.595142165651917,0.5097334829449653,-6.7202621942520135
1790943544095753500,0.83375341796875,3.3503280805140734,0.6461673217386007,-5.9125756923019885
1790943544105783600,0.843783447265625,4.342303228366375,0.8669263341650366,-5.490702279117703
1790943544115813400,0.8538134765625,4.600678854742646,0.9846750539720058,-5.474082568228244
1790943544125843500,0.863843505859375,4.242829293179512,0.9400824635297059,-5.194038715401292
1790943544135873500,0.87387353515625,3.8920208822995424,0.8349085631355643,-4.685536820077896
1790943544145903600,0.883903564453125,3.2992654172748326,0.9925503173917531,-4.020304732385277
1790943544155933400,0.893933349609375,2.5128116729676724,1.162053189833462,-2.9320781185239553
1790943544165963500,0.903963623046875,1.4848594950661063,1.5987573846638201,-1.4874930584400892
1790943544175993300,0.913993408203125,0.7918623253524303,1.9579682977080344,-0.09075345311462879
1790943544186023400,0.9240234375,1.0417240981444715,1.0670564000606537,2.002449244469404
1790943544196053500,0.934053466796875,-0.3335410497367382,2.0226129115760325,3.1187855160057545
1790943544206083600,0.94408349609375,-1.0462713861852884,2.4199703076630827,4.334534347930551
1790943544216113700,0.95411376953125,1.5544985562205313,1.7307289833515882,6.408208753702044
1790943544226143500,0.9641435546875,2.222315399709344,2.4068019062712787,6.6065721021860835
1790943544236173300,0.97417333984375,-1.0494155294299126,2.33066003909409,2.62680454737246
1790943544246203400,0.984203369140625,2.7681673670008777,1.8260493059903382,2.7008617172300813
1790943544256233500,0.9942333984375,16.112095713841914,3.308936624200642,1.3376602243691682
1790943544266262500,1.004262451171875,20.213613333058355,5.285118331730366,-0.20248422780632971
1790943544276292600,1.014292724609375,7.7138254880785935,6.41358810865283,3.435558970814943
1790943544286323500,1.024323486328125,-2.2610855676084753,6.553564734619855,5.509289490687847
1790943544296352500,1.0343525390625,0.663529959949851,3.887985343173146,4.471994022640586
1790943544306382300,1.04438232421875,4.706338785088062,1.9107009350985287,3.5347225248783825
1790943544316412400,1.054412353515625,4.079933563917875,3.205342686474323,4.938914784297347
1790943544326442500,1.0644423828125,2.964215716540813,4.088879671439528,7.913813222894072
1790943544336472600,1.07447265625,2.838533573386073,3.1910797678440805,10.174431172990799
1790943544346502700,1.084502685546875,0.6997298389695584,1.1912357374370097,9.21264658074081
1790943544356532500,1.094532470703125,-1.5353795758612454,-0.953758522182703,2.6089573405146598
1790943544366562300,1.104562255859375,-6.488088346102834,-4.824034605664014,-5.556963096010684
1790943544376592400,1.11459228515625,-12.935771032059192,-6.6979696984231465,-12.2652098582983
1790943544386622500,1.12462255859375,-7.707299301180243,6.046042497983574,-2.0699825655162334
1790943544396652500,1.134652587890625,4.678688561618328,4.6431887936919924,-0.9019178603082895
1790943544406682400,1.144682373046875,10.054230091595649,-0.8907546612590551,-5.1101510564029216
1790943544416712400,1.15471240234375,6.4436629289209835,2.0672820743858815,-4.003176487451792
1790943544426742500,1.164742431640625,3.88620605854094,1.4971388386636972,-2.9760505312412975
1790943544436772600,1.174772705078125,1.874172408646345,1.1798726319015025,-4.247188657432794
1790943544446802000,1.184802001953125,-0.667690879021585,1.6624761158585548,-3.7888738115578886
1790943544456832000,1.19483203125,0.1159890166580677,1.44105279430449,-1.4483195704370737
1790943544466862000,1.204862060546875,2.218850353947282,0.6655857234358787,0.3721639181196689
1790943544476891600,1.2148916015625,3.8790982723623513,-0.2715443200290203,1.0680290444850922
1790943544486921700,1.224921630859375,0.6259317584395409,1.9333610951960085,1.3340759361416101
1790943544496951800,1.234951904296875,-11.089918708968161,6.836480928012728,-1.0238143474444745
1790943544506982000,1.24498193359375,-9.375966088372468,3.0950784772038458,-1.127174184153974
1790943544517012000,1.255011962890625,-0.8217319784373045,0.6164975751399994,0.44299774201661346
1790943544527041800,1.265041748046875,2.7032956663787364,-0.5441688365101814,0.701262601494789
1790943544537071900,1.27507177734375,2.718843071861565,-2.4361036963403224,2.6721795203641054
1790943544547101700,1.285101806640625,0.5432043753921986,-4.456146465167403,2.9084087813839314
1790943544557131800,1.2951318359375,-1.5296832639157771,-5.875784130999445,0.9978758963286876
1790943544567161900,1.305161865234375,-1.1652227597802878,-5.432864422655105,-0.3518158343568444
1790943544577192000,1.31519189453125,0.08271481582671403,-3.6698885356932878,-1.0479071706935763
1790943544587221800,1.3252216796875,0.9059481387376784,-3.2327666999727485,-1.1002589969605208
1790943544597251800,1.335251953125,0.046480596145987506,-3.521957735851407,-0.7462339621216059
1790943544607282000,1.345281982421875,0.2954977348074317,-3.3154905758887527,-0.016602759754657744
1790943544617312000,1.35531201171875,0.7886930476665497,-3.404341994774341,-0.009892156200110911
1790943544627341800,1.365341796875,2.0141043186888097,-4.257477411735057,-0.447483947519958
1790943544637372000,1.375371826171875,1.3788690175920724,-4.117654515025019,-0.6963166695252061
1790943544647401700,1.385401611328125,-1.065845270705223,-2.563047822254896,0.27700404673963785
1790943544657431800,1.395431884765625,-0.25171646074801685,-0.946669440704584,1.395337629573047
1790943544667462000,1.4054619140625,1.1458435210496187,0.05064589913189411,0.3296338131651282
1790943544677492000,1.415491943359375,-0.19212299278974532,0.11450374653637409,0.6835740923300385
1790943544687522000,1.42552197265625,0.03897854995280504,-0.15341829134225846,0.6764025932654738
1790943544697551600,1.435551513671875,0.20929332329928874,0.057707508081197734,0.3643625967189669
1790943544707581700,1.445581787109375,0.3002534049019217,0.007352700850367546,0.5095610489875078
1790943544717611800,1.45561181640625,0.9058069767013192,0.18016484397053717,-0.15577917525470256
1790943544727641900,1.465641845703125,0.8045622324496507,1.0958277365148066,-0.46119887687861916
1790943544737672000,1.475671875,1.0500631796836852,2.5761685851126908,-0.06498889726102351
1790943544747701800,1.48570166015625,-2.4425971500128507,0.9902923093318938,1.3706521011278032
1790943544757731800,1.49573193359375,-1.0078726819470525,2.91241187954545,2.527469143873453
1790943544767762000,1.505761962890625,2.8025381308972834,6.8159040039300915,1.1113859556525945
1790943544777791700,1.515791748046875,1.9608155038326978,10.91852753856182,0.07028115845024585
1790943544787821800,1.52582177734375,-0.5111094474732876,14.521414083606004,-0.021672902625799177
1790943544797852000,1.535851806640625,-0.46233168030083177,12.901761210429667,0.8756497388467193
1790943544807881700,1.5458818359375,-0.4676759639382362,9.299450419446826,1.443492296411097
1790943544817911800,1.555911865234375,0.5109989728361368,4.848181204926967,1.374060156005621
1790943544827942000,1.56594189453125,-1.3187106092274188,2.7828882585316896,1.7638251972675323
1790943544837972000,1.575971923828125,-2.2435767989248037,-2.715773455157876,1.3506655441537498
1790943544848002000,1.586001953125,-0.9020289194673299,-2.043741039800644,0.5992120938181876
1790943544858031900,1.596031982421875,-0.6764642603248358,1.2371394104778766,0.4668143786728382
1790943544868061700,1.606061767578125,-2.3600386937916276,6.150590667694806,1.1345564033597708
1790943544878091800,1.616091796875,-2.4976076740950344,8.760442326700687,2.6629139716297385
1790943544888121900,1.626121826171875,-4.526846725812554,-1.6182605420351028,2.1366019865885377
1790943544898152000,1.63615185546875,-0.8490428869500756,-8.253848310825228,2.7691382578596473
1790943544908182000,1.64618212890625,4.9016824934899805,-10.079525860893726,2.9830501808702943
1790943544918211800,1.6562119140625,4.634019106547534,-8.846936368805169,1.8610533993542193
1790943544928241700,1.66624169921875,1.451560159793496,-3.059853434565663,0.5668555923536419
1790943544938271700,1.676271728515625,-0.1625418012574315,-1.6481740342617035,-0.29901611819192764
1790943544948301800,1.6863017578125,-1.922244657897949,-3.1249644969016313,0.1836424569532275
1790943544958332000,1.696331787109375,-0.6649035863906144,-10.48967084236145,-3.4313416453808543
1790943544968361700,1.70636181640625,1.5312231868341564,-16.81168892081976,-7.8325214256078
1790943544978391800,1.716391845703125,1.699124761559069,-11.164819343912601,-6.664037618204951
1790943544988422000,1.726421875,1.6135072100281715,-4.925806880921125,-3.910786665306985
1790943544998452000,1.736451904296875,-0.7067389870792626,-1.2633388506174086,0.5476585052568466
1790943545008481800,1.746481689453125,-0.9484054707169532,1.1674456965267657,2.588676769030094
1790943545018512000,1.756511962890625,0.2826145800977945,1.906890436899662,2.6362223640590905
1790943545028541700,1.766541748046875,0.6359034096166492,0.31082536005973815,1.8172554664209484
1790943545038571800,1.77657177734375,0.32935908787697554,-1.2922481342375278,1.0119343784280121
1790943545048601900,1.786601806640625,-0.5523012895613908,-3.7030917171150444,0.288782674273476
1790943545058632000,1.7966318359375,0.141119366261363,-2.260215799036622,0.6719958827391267
1790943545068662000,1.806662109375,2.360019404569268,0.20796879669725893,-0.43733255586177106
1790943545078691800,1.81669189453125,1.454689689990878,2.095362505966425,-0.4485837254554033
1790943545088721700,1.8267216796875,-0.32010347601473327,2.1472084285378457,-0.1361863668385893
1790943545098751700,1.836751708984375,-1.2291437355488537,0.970271265566349,2.306151328520477
1790943545108781800,1.84678173828125,-0.06970949604213238,0.6799556095719337,1.733078322956711
1790943545118812000,1.85681201171875,0.37431203606426716,-0.07418576467335224,-1.096660972468555
1790943545128841000,1.866841064453125,0.4176490734875202,-0.710375297755003,-1.0023436163272708
1790943545138871000,1.87687109375,0.01443009189069271,-1.1920990762680768,-0.8863248621180653
1790943545148900900,1.88690087890625,0.4525654885679483,0.09848141701817512,-0.5030827928841114
1790943545158930700,1.8969306640625,0.28906594819426534,0.9567670563489198,0.06133819273374974
1790943545168960800,1.906960693359375,-0.28856501293480397,0.19235563250184057,-0.19942220988720655
1790943545178990800,1.916990966796875,0.07094225270748138,-0.2688900061279535,-0.277480651275441
1790943545189021000,1.92702099609375,0.7719500026583671,-0.42068391113877296,-0.526980458887294
1790943545199051000,1.937051025390625,0.502093197324872,-0.160575177359581,-0.4035725442748517
1790943545209080800,1.947080810546875,0.352101957821846,0.12413900536596774,-0.2852296579670161
1790943545219110700,1.957110595703125,0.25358780757784843,0.24646657739579675,-0.15144998694397507
1790943545229140700,1.967140625,0.2905143934369087,0.17401333560347557,-0.07924779730327428
1790943545239170800,1.9771708984375,0.3291337546885013,0.0436620315939188,-0.08603767663910984
1790943545249201000,1.987200927734375,0.3490618594735861,-0.04514087197482586,-0.07115538400150835
1790943545259231000,1.99723095703125,0.381067355543375,-0.08957797959446906,-0.04712481233365833
1790943545269260800,2.0072607421875,0.37067338730096816,-0.08212707906663418,-0.026860461331531405
1790943545279291000,2.017290771484375,0.38813247162401676,-0.06389642584919929,0.016686419450119137
1790943545289321000,2.027321044921875,0.2711129428744316,0.014548749834299086,0.06787870041839777
1790943545299350800,2.037350830078125,0.22244155868589877,0.11158990491628647,0.1022252797216177
1790943545309380900,2.047380859375,0.19788170244693756,0.1416524502247572,0.14228000753857195
1790943545319410700,2.05741064453125,0.15041326430737972,0.19015315402150154,0.16156002367846667
1790943545329440800,2.067440673828125,0.13477671923637388,0.2467348729431629,0.13021934819296002
1790943545339470800,2.077470947265625,0.07268471246063708,0.270498610368371,0.07355331198871136
1790943545349501000,2.0875009765625,0.03556698794364929,0.25248247668445106,0.0572832913197577
1790943545359531000,2.097531005859375,-0.018425299006700514,0.19748072043061254,0.08120689548179506
1790943545369560800,2.107560791015625,-0.033870705419778824,0.11593524064421654,0.12465930291302502
1790943545379590700,2.117590576171875,-0.030189386558532712,0.05537409669756889,0.1753591241892427
1790943545389620700,2.127620849609375,0.012410568761825561,0.0008142389923334122,0.20304076571054755
1790943545399650800,2.13765087890625,0.03876841433346271,-0.10937105982303619,0.24343619672395286
1790943545409681000,2.147680908203125,0.13075228602588176,-0.16420505829453466,0.24638116413466632
1790943545419711000,2.1577109375,0.1680909598171711,-0.17510639153718946,0.20322474397532642
1790943545429740800,2.16774072265625,0.1641837232455611,-0.16273907739520072,0.16136004412695765
1790943545439771100,2.177771240234375,0.165735628862679,-0.11353753185272217,0.0870438580069691
1790943545449801200,2.18780126953125,0.15201748463362455,-0.03807049519717693,0.039536329966038466
1790943545469234200,2.207234130859375,0.009532090716063975,0.12951894483864307,0.039547070555761454
1790943545479264300,2.21726416015625,-0.019153028759360313,0.17006138310730456,0.0538146653611213
1790943545489294300,2.22729443359375,-0.004190437427163123,0.18095804017484188,0.08513225223198533
1790943545499324400,2.237324462890625,-0.010890519587695598,0.1461012463271618,0.1348024381995201
1790943545509354200,2.247354248046875,-0.04520283129513263,0.10916355455219745,0.16313092625699938
1790943545519384000,2.257384033203125,-0.0987175638616085,0.07261340079009533,0.21941103188358246
1790943545529414100,2.2674140625,-0.12789426624625921,0.030231472134590147,0.2832713635060936
1790943545539444200,2.2774443359375,-0.17245236989706753,-0.003438742277026176,0.3622079029031098
1790943545549474300,2.287474365234375,-0.1948684921056032,-0.033438743743300435,0.466323234155029
1790943545559504400,2.29750439453125,-0.18191256442070006,-0.08526596161425114,0.5413333208233118
1790943545569534200,2.3075341796875,-0.13728724075257778,-0.1379740539729595,0.6060042381763457
1790943545579564300,2.317564208984375,-0.09872107099294662,-0.16144962210655212,0.6082464641451836
1790943545589594000,2.327593994140625,-0.037783494949340815,-0.12538286794722078,0.6527048337485641
1790943545599624200,2.337624267578125,-0.09391396297216414,-0.061008887714147565,0.5024229407358914
1790943545609654300,2.347654296875,-0.03172492556273937,0.005810732105374336,0.5135195042897015
1790943545619684000,2.35768408203125,-0.0826139858007431,0.00475917722582817,0.35281945844143625
1790943545629714200,2.367714111328125,-0.10802286008447408,-0.018053543084859847,0.3329066973559558
1790943545639744300,2.377744140625,-0.09205664466768503,0.03964110551476478,0.226432747213915
1790943545649774300,2.3877744140625,-0.09268763604760169,0.02405132219493389,0.1745401359565556
1790943545659804200,2.39780419921875,-0.0658347004354,-0.008555646899342536,0.13184665713384747
1790943545669834200,2.407834228515625,-0.04798281740248203,-0.0335492183804512,0.13179931086078286
1790943545679864000,2.417864013671875,0.04050444434583187,-0.0635474662810564,0.14199702587872742
1790943545689894100,2.42789404296875,-0.00986088427901268,-0.04443535405397415,0.14273023552410305
1790943545699924200,2.43792431640625,-0.03999298769235611,0.03913023338317871,0.14928038781993092
1790943545709954300,2.447954345703125,0.038293782559037204,0.06314122356772423,0.10744995556734502
1790943545719984400,2.457984375,0.034601942303776737,0.010260112729668617,0.07561258260607719
1790943545730014200,2.46801416015625,0.06514934851974248,0.03315525062680244,0.03482223399095237
1790943545740044000,2.4780439453125,0.059337447370588776,0.035897827333211896,-0.036988983570784326
1790943545750074000,2.48807421875,0.08079583046287298,0.010277648386359214,0.025139921149238943
1790943545760104200,2.498104248046875,0.1193354044765234,-0.03742635207474231,0.009479776006937026
1790943545770134300,2.50813427734375,0.11919687278866767,-0.07759937250912188,0.005351005639135837
1790943545780164400,2.518164306640625,0.1815206424936652,-0.0286737212985754,0.027752149474248287
1790943545790194200,2.528194091796875,0.16239216365367173,0.010727730241417884,-0.03110175216309726
1790943545800224300,2.538224365234375,0.15227555104792118,0.08589549168944359,-0.04596234442554414
1790943545810254300,2.54825439453125,0.12826543764621018,0.13917524645626544,-0.09999320982061326
1790943545820284200,2.5582841796875,0.18687720109075306,0.17787936338186264,-0.10814590194225311
1790943545830314200,2.568314208984375,0.19606383937001226,0.17098492769300935,-0.17760989879071712
1790943545840344000,2.578343994140625,0.14869593899548053,0.1862017860472202,-0.2291285621691495
1790943545850374100,2.5883740234375,0.11569704797416924,0.194089324426651,-0.28183322046175596
1790943545860404200,2.598404296875,0.11647680017501115,0.12969547044932841,-0.27359423829615115
1790943545870434300,2.608434326171875,0.08171703696101904,0.009479776006937026,-0.19868761200234292
1790943545880464400,2.61846435546875,0.08280044828355312,-0.043299628022313116,-0.03346015185751021
1790943545890494200,2.628494140625,0.07215922728180885,-0.03639525546133518,0.029005583601444958
1790943545900524000,2.63852392578125,0.09469371517300605,-0.014580898538231848,0.040474852925166484
1790943545910554000,2.64855419921875,0.10057283633947371,-0.025334347742795943,0.06878573226071893
1790943545920584200,2.658584228515625,0.13113690142929554,0.014993570992350578,0.14274769811555743
1790943545930614300,2.6686142578125,0.10492401728630066,0.029210312393307684,0.1787352495588362
1790943545940644400,2.678644287109375,0.08510697166025638,0.03274959243535995,0.1881966131262481
1790943545950674200,2.688674072265625,0.08502747668325901,0.07689911528527736,0.16071524341739712
1790943545960704300,2.698704345703125,0.1197358019709587,0.1330634855777025,0.11757387469671667
1790943545970734000,2.708734130859375,0.15020225190520287,0.1691495289593935,-0.007355112003162503
1790943545980764200,2.71876416015625,0.1762286735653877,0.1571153922945261,-0.06583806143626571
1790943545990794200,2.728794189453125,0.17997487435638904,0.13545944080352781,-0.054508054452762
1790943546000823300,2.7388232421875,0.14560498724281787,0.0939379283696413,-0.06912731224000454
1790943546010853400,2.748853271484375,0.10346475838869809,0.06743629041314125,-0.06246712369844317
1790943546020883200,2.75888330078125,0.07241495560854673,0.07394026547968387,0.0017762158922851085
1790943546030913000,2.7689130859375,0.06570289074927568,0.11349135462343692,0.020874007333070037
1790943546040943000,2.778943115234375,0.12052139939069748,0.1845417438805103,0.02761829396151006
1790943546050973200,2.78897314453125,0.17691285643726587,0.20556758077442644,0.032530177531018854
1790943546061003300,2.799003173828125,0.21841244930028914,0.19994389567375181,-0.027829233298450707
1790943546071033300,2.809033447265625,0.2805143929481506,0.23492402364015577,-0.01953800948895514
1790943546081063200,2.819063232421875,0.26188275771439073,0.19161621231138706,-0.10377945036105811
1790943546091093200,2.82909326171875,0.3532341767221689,0.10918109020888805,-0.09024382309205829
1790943546101123300,2.839123291015625,0.3319453049778938,0.06233925953507423,-0.04561345792263746
1790943546111153200,2.849153076171875,0.3155629099756479,-0.016969254979491234,0.0023131723131984473
1790943546121183200,2.859183349609375,0.3002022592365742,-0.036350831797719,0.08909764873161911
1790943546131213300,2.86921337890625,0.2637254629716277,-0.08906769198477267,0.16667290971279144
1790943546141243100,2.8792431640625,0.26100451357513665,-0.09798340436816215,0.17809103337116539
1790943546151273200,2.889273193359375,0.31595804677307604,-0.04036649717986583,0.20311792259998618
1790943546161303300,2.89930322265625,0.24465865119099617,-0.02041150438785553,0.1594033571012318
1790943546171333400,2.90933349609375,0.30031770230978727,0.09096914169192313,0.29256292346455154
1790943546181363200,2.91936328125,0.34130233138799665,0.22422493497133253,0.34958449510820205
1790943546191393000,2.92939306640625,0.34721798517256974,0.24882103156745433,0.4061537929397076
1790943546201423000,2.939423095703125,0.3594745324164629,0.139573305863142,0.4196013765990734
1790943546211453200,2.949453125,0.36497897505164145,-0.03612637539207935,0.47914749828428027
1790943546221483300,2.959483154296875,0.45163609876334665,-0.06446516564786434,0.6426663278803229
1790943546231513300,2.969513427734375,0.49638826368153094,-0.023307810351252553,0.6179433900341391
1790943546241543200,2.979543212890625,0.5422217940956354,-0.05143792629241943,0.545133882150054
1790943546251573200,2.9895732421875,0.383913392624259,0.03031096711158752,0.355135845625028
1790943546261603000,2.99960302734375,0.31598318121433255,0.046778702309727666,0.02776917367428541
1790943546271633200,3.009633056640625,0.22148411183059213,0.06244564251899719,-0.2603838974587619
1790943546281663200,3.019663330078125,0.1041162080347538,0.1507400120437145,-0.3154411832921207
1790943546291693300,3.029693359375,0.06882686798870563,0.2875567126750946,-0.1741588084887713
1790943546301723100,3.03972314453125,0.005313011716306209,0.3708627723932266,-0.014495996733754872
1790943546311753200,3.049753173828125,-0.0563192685931921,0.28473522551357744,0.16521350468471646
1790943546321783300,3.059783203125,-0.024250059637427327,0.16263853963017463,0.2772372709736228
1790943546331813400,3.0698134765625,0.024721184280514716,0.09932020592987537,0.35285657558143135
1790943546341843200,3.07984326171875,0.11623100872039795,0.039324879172444344,0.44466983994729814
1790943546351873300,3.089873291015625,0.1562351023286581,-0.05468611443340778,0.4858437810525298
1790943546361903000,3.099903076171875,0.20026129105985163,-0.10533668974041938,0.5505722738116979
1790943546371933200,3.10993310546875,0.24806875189542768,-0.12467968811392784,0.5487480540592223
1790943546381963300,3.11996337890625,0.27775486510694025,-0.16300854198634623,0.49522901064381003
1790943546391993300,3.129993408203125,0.28812428342998025,-0.19056173482239244,0.4194150602467358
1790943546402023400,3.1400234375,0.31786884883046146,-0.14483283382654188,0.34800855102837086
1790943546412053000,3.150052978515625,0.24967267996072767,-0.08162146763205527,0.22862974580153822
1790943546422083000,3.1600830078125,0.21162439659535884,0.012711597535014153,0.15114786219224333
1790943546432113200,3.170113037109375,0.1830672874137759,0.04361000914573669,0.08990684622265398
1790943546442143700,3.180143798828125,0.13213760290443896,0.05640110165774822,0.06438844714984297
1790943546452173800,3.190173828125,0.10409165811538695,0.04453238468766212,0.08537870127372443
1790943546462203600,3.20020361328125,0.05029080208390951,0.007368482941389084,0.11153868618570267
1790943546472232700,3.210232666015625,0.04066927951872348,-0.011695698490738869,0.19330190037600695
1790943546482262500,3.220262451171875,0.08194879989027977,-0.006837152543663978,0.3225282920088619
1790943546492292600,3.230292724609375,0.10149112022817135,-0.004051321217417717,0.40979872531332073
1790943546502322700,3.24032275390625,0.11756050375849007,-0.07012392206192017,0.43275107329040763
1790943546512352800,3.250352783203125,0.1724675674661994,-0.1521907953739166,0.41749015659876165
1790943546522382800,3.2603828125,0.15510580603778362,-0.13739829991161823,0.35906646307222545
1790943546532412700,3.27041259765625,0.15538403845727441,-0.13209493280649184,0.3389092987716198
1790943546542442800,3.28044287109375,0.18318623761832714,-0.2691553790658712,0.41057540877424176
1790943546552472800,3.290472900390625,0.18548983838558195,-0.3885919058293104,0.48845593631230294
1790943546562502700,3.300502685546875,0.2048947960793972,-0.4237742783695459,0.505350299424678
1790943546572532700,3.31053271484375,0.22066811927258967,-0.35113340505063534,0.44097164301648734
1790943546582562600,3.3205625,0.19493863473236558,-0.3154945209145546,0.3105756961476058
1790943546592592600,3.330592529296875,0.11199907023906708,-0.253047709351778,0.18037176471948624
1790943546602622700,3.340622802734375,0.03420826681107282,-0.23228081565499303,0.12145473471805453
1790943546612652800,3.35065283203125,0.051344110529124735,-0.2939303393602371,0.1160214576229453
1790943546622683000,3.360682861328125,0.05218932918161154,-0.34577275480031966,0.09609634851254523
1790943546632712700,3.370712646484375,0.08325754440128803,-0.21811901931166647,0.00034691374152898786
1790943546642742500,3.380742431640625,0.2373456978291273,-0.29188159013688564,-0.10430318197421728
1790943546652772600,3.390772705078125,0.2544923552021384,-0.33147768746614453,-0.1865999915845692
1790943546662802700,3.400802734375,0.23245734126567838,-0.3067325377881527,-0.2192182127252221
1790943546672832800,3.410832763671875,0.16387626473158598,-0.24139468095898628,-0.18839461991637943
1790943546682862800,3.42086279296875,0.06760580176115036,-0.23128186774551868,-0.15853811857402325
1790943546692892700,3.430892578125,0.05008300455212593,-0.21332243268489837,-0.21692177235111593
1790943546702922800,3.4409228515625,0.057310617718100546,-0.18986147759854793,-0.34827465461865065
1790943546712952600,3.45095263671875,0.12183540459871292,-0.20332360123991966,-0.5304717350691557
1790943546722982700,3.460982666015625,0.19199965867102145,-0.25747721623182296,-0.6637183221288026
1790943546733012700,3.4710126953125,0.21040917558670041,-0.26694939345419405,-0.7073946745090186
1790943546743042800,3.481042724609375,0.17568389916419982,-0.20305296760499475,-0.6307410584174096
1790943546753072600,3.49107275390625,0.0636567718744278,-0.0713292061984539,-0.5635331699326634
1790943546763102700,3.501102783203125,-0.08198679381310939,0.03890110080242157,-0.4477892140768468
1790943546773132800,3.5111328125,-0.195879714974761,0.11585925279855727,-0.2643566004820168
1790943546783163000,3.521162841796875,-0.26718495577573775,0.20675708281993865,-0.04910232295170426
1790943546793192700,3.531192626953125,-0.32228140457570553,0.24695406865179537,0.10553513492196798
1790943546803222800,3.541222900390625,-0.2664519653260708,0.24663784230947494,0.13808277504444122
1790943546813252600,3.551252685546875,-0.18521394405364988,0.20184242277145384,0.11076032222434877
1790943546823282700,3.56128271484375,-0.1297580142915249,0.1769353605300188,0.04504603329822421
1790943546833312800,3.571312744140625,-0.09836217455267905,0.22705577448308467,0.04823138533607125
1790943546843342800,3.5813427734375,-0.13219897770285605,0.2864104652494192,0.11507935446724295
1790943546853373000,3.591373046875,-0.2190986779987812,0.3507622336506843,0.2087976487368345
1790943546863402500,3.601402587890625,-0.323576705083251,0.42736616538167,0.2879647089540958
1790943546873432600,3.6114326171875,-0.42476036679744716,0.4851783028811216,0.3418205100432038
1790943546883462700,3.621462646484375,-0.45488662499189375,0.4845096098393202,0.42017961487844585
1790943546893492700,3.63149267578125,-0.4166086245238781,0.4632505487114191,0.5022596399329602
1790943546903522800,3.641522705078125,-0.35792847201824185,0.4495218830883503,0.513741111151129
1790943546913552600,3.651552734375,-0.269109201836586,0.46815234927833077,0.5157112421803176
1790943546923582700,3.661582763671875,-0.2235468895792961,0.47414077603816984,0.4541086263567209
1790943546933612800,3.67161279296875,-0.2251110701560974,0.46166240273714065,0.41379064449369907
1790943546943642600,3.681642578125,-0.3888935191243887,0.5833113448530435,0.3556374384716153
1790943546953671700,3.691671630859375,-0.4178174157917499,0.6472662228912115,0.3099247579582035
1790943546963701800,3.70170166015625,-0.44348026483654973,0.6447352431088685,0.3261982857584953
1790943546973731800,3.71173193359375,-0.4182674976468086,0.6288298179686069,0.33647505736202
1790943546983761700,3.72176171875,-0.38866321749985216,0.6255494811236858,0.37751550828069447
1790943546993791700,3.731791748046875,-0.3479267179638147,0.6173509770989418,0.40692309681177136
1790943547003821600,3.741821533203125,-0.3016302462130785,0.604101619425416,0.2973940699480474
1790943547013851600,3.7518515625,-0.23711831881403922,0.6317395679354667,0.23788185053244232
1790943547023881700,3.7618818359375,-0.1548667365849018,0.6446604243069887,0.2956289599716663
1790943547033911800,3.771911865234375,-0.12936229297220705,0.6190583655387163,0.295886003472656
1790943547043941600,3.781941650390625,-0.10796119302511215,0.5460282006412744,0.3168516346119344
1790943547053971700,3.7919716796875,0.03032499563694,0.46398295463919637,0.3770920221716165
1790943547064001800,3.802001708984375,0.12162146958708762,0.4287830464422703,0.3134424106903374
1790943547074031900,3.812031982421875,0.19876549954414366,0.42925826273858547,0.19618731961920857
1790943547084061700,3.822061767578125,0.22310440650880337,0.431299413177371,0.11135025094151496
1790943547094091800,3.832091796875,0.24651275462508201,0.41453181824982166,0.06645546268224715
1790943547104121600,3.84212158203125,0.2363397356569767,0.39417408987581726,0.018526713554561137
1790943547114151700,3.852151611328125,0.2502420042812824,0.3738566935122013,-0.058589990004152055
1790943547124181800,3.862181640625,0.21920915263593196,0.3255173177570104,-0.15757672619596122
1790943547134211800,3.8722119140625,0.2180962229579687,0.30279812094867226,-0.21525559270456432
1790943547144242000,3.882241943359375,0.21350538803637026,0.3610509879529476,-0.274601661773026
1790943547154271500,3.892271484375,0.21742226921916008,0.41226504236161704,-0.341588016461581
1790943547164301600,3.902301513671875,0.1760989097058773,0.4079962790012359,-0.4189854366578161
1790943547174331600,3.91233154296875,0.09279460355341435,0.35534546978771686,-0.5095725932948291
1790943547184361700,3.92236181640625,0.016834522683918475,0.305745280316472,-0.5157252707056701
1790943547194391800,3.932391845703125,0.030364158603549,0.2530786890119314,-0.500023113052547
1790943547204421600,3.942421630859375,0.13085808448791503,0.08723580038249493,-0.38352512395903465
1790943547214451700,3.95245166015625,0.3028185792148113,-0.27825580036640163,-0.1947584558598697
1790943547224481800,3.962481689453125,0.519171173375845,-0.6818593973666429,-0.1060733334518969
1790943547234511600,3.97251171875,0.7594307128250598,-0.8472627255350351,-0.10790201018378139
1790943547244541700,3.982541748046875,0.9902095994845032,-0.7209878771841526,-0.06531681404113769
1790943547254571800,3.99257177734375,1.0001084776863456,-0.5172001655638218,-0.0686997344776988
1790943547264601600,4.0026015625,0.7892579880729317,-0.3434755837738514,-0.0860657336898148
1790943547274631700,4.012631591796875,0.5925321776628494,-0.2713870836406946,-0.019726736994087696
1790943547284661800,4.022661865234375,0.4720148699253797,-0.24331834249794482,-0.005961538752913474
1790943547294691800,4.03269189453125,0.4685875258252024,-0.2080366012364626,-0.04561287340074777
1790943547304722000,4.042721923828125,0.5705637992218137,-0.14381868834793568,-0.18691095722988246
1790943547314751700,4.052751708984375,0.682351564797759,-0.2384603810727596,-0.3986630718581378
1790943547324781600,4.062781494140625,0.8337146771758794,-0.3942804728597402,-0.48172421690449113
1790943547334811600,4.072811767578125,0.8893105999305844,-0.45848377270102497,-0.4966419461816549
1790943547344841700,4.082841796875,0.9192962806105613,-0.3806856627494096,-0.4413931563641876
1790943547354871800,4.092871826171875,0.7323682261154055,-0.11057225230634211,-0.2755758405674249
1790943547364902000,4.10290185546875,0.43846506702303883,0.1395131001085043,-0.0824175133805722
1790943547374931700,4.112931640625,0.2579442492216825,0.21168109521865844,0.12122764796391129
1790943547384961500,4.12296142578125,0.1523041926205158,0.15540391220152378,0.37553339455276724
1790943547394991600,4.13299169921875,0.12831132261455058,0.04541968891620636,0.5066341286901385
1790943547405021700,4.143021728515625,0.1369984869390726,0.023701778104901313,0.5498768388934433
1790943547415051800,4.1530517578125,0.13631430406719444,0.09633505263924598,0.5582177470635622
1790943547425081900,4.163081787109375,0.20389877077937124,0.19614041173756122,0.590137610676512
1790943547435111700,4.173111572265625,0.23286387623995541,0.20426468148231505,0.5479525197673588
1790943547445142000,4.18314208984375,0.1863832800939679,0.09784837981164454,0.4324835083954036
1790943547455172000,4.193172119140625,0.12204290986955166,-0.05708440774679183,0.3547471385683864
1790943547465202000,4.203201904296875,0.061550154983997345,-0.1560205827951431,0.3284353971607983
1790943547475232000,4.21323193359375,0.030787060190737247,-0.1759936957657337,0.2862092435888946
1790943547485261800,4.22326171875,0.025720716711878776,-0.17046236512362956,0.22730792261324823
1790943547495292000,4.2332919921875,0.024953823992609977,-0.16943068398833275,0.18322328169308602
1790943547505322000,4.243322021484375,0.025146131694316863,-0.15611469081938265,0.17344627630524337
1790943547515352000,4.25335205078125,-0.018040391342341897,-0.15331541548967362,0.13472279709205032
1790943547525382100,4.263382080078125,-0.0829860339835286,-0.13642273287773132,0.07524177653230726
1790943547535412000,4.273411865234375,-0.1305155546605587,-0.08601473415493964,0.0431787050563842
1790943547545441800,4.28344189453125,-0.12648469170928,-0.008592471778392792,-0.007142126839607954
1790943547555472000,4.293471923828125,-0.10306757576465606,0.0073906947731971736,-0.053638139750435944
1790943547565502000,4.303501953125,-0.08802607397735118,0.02022328833937645,-0.0726077747669071
1790943547575532000,4.313531982421875,-0.08155161726623773,0.038920390024781225,-0.1029983829859644
1790943547585562000,4.32356201171875,-0.06709492962956429,0.11161094770431518,-0.11330934912003576
1790943547595592000,4.333592041015625,-0.04907119716107845,0.14650047477781772,-0.09122107062637805
1790943547605620700,4.343620849609375,-0.10688713405281304,0.157337510612607,-0.037604996577277776
1790943547615650800,4.35365087890625,-0.18154723823964594,0.11500994249284267,0.0441096292309463
1790943547625681000,4.363680908203125,-0.22305501440912484,0.05149462491571903,0.14689575770571828
1790943547635711000,4.3737109375,-0.2357660274222493,0.00815466488301754,0.26662111134789884
1790943547645741000,4.383740966796875,-0.26491876440942286,-0.006023498073220252,0.29602300079055127
1790943547655771100,4.393771240234375,-0.2578700149416923,0.03240121738910675,0.33762291222289204
1790943547665801000,4.403801025390625,-0.19045242922902106,0.09728139357864857,0.38844804037921127
1790943547675831000,4.4138310546875,-0.1811053396910429,0.07082885546088219,0.34818208096437153
1790943547685860900,4.42386083984375,-0.1636252125799656,0.03536591241359711,0.3599634849771857
1790943547695891000,4.433890869140625,-0.14604308639913796,0.0014168810606002807,0.39826121305897827
1790943547705921000,4.443921142578125,-0.15977145976126192,-0.03412321887612343,0.4344211253944784
1790943547715950800,4.453950927734375,-0.16388737064749,-0.04795125322043895,0.5100271321292966
1790943547725981000,4.46398095703125,-0.1390136261537671,-0.017995675417780875,0.5800363417703658
1790943547736011000,4.474010986328125,-0.11465747579336166,-0.06021686055362224,0.5543472623057664
1790943547746041000,4.484041015625,-0.06334580622911452,-0.13073416584730146,0.5428348114274442
1790943547756071000,4.49407080078125,-0.0010305120915174483,-0.2060398744612932,0.46977330154366786
1790943547766101000,4.50410107421875,0.06302373466789722,-0.22686931200027463,0.5032012316320091
1790943547776130800,4.514130859375,-0.003604454232752323,-0.09079553869068623,0.42738289732076223
1790943547786161000,4.524160888671875,0.008923895689845085,0.008415361645817757,0.34835480718277395
1790943547796191000,4.53419091796875,0.0017415829703211784,-0.014975450813770294,0.2818517059665173
1790943547806221000,4.544220947265625,0.054928106495738024,-0.034814708271622655,0.2681506590027362
1790943547816251100,4.554251220703125,0.09974135395139455,-0.047614568611979484,0.253453878999874
1790943547826281000,4.564281005859375,0.07347381701171397,-0.020392215165495872,0.24216186593919992
1790943547836310800,4.574310791015625,0.08247136245965957,-0.005877367600798607,0.23523089763224123
1790943547846340900,4.5843408203125,0.08920680819451808,0.005910100826621055,0.19341639360114932
1790943547856371000,4.594370849609375,0.07817454204857349,0.012450900772213934,0.17203187946267426
1790943547866401000,4.604401123046875,0.08154986370056867,-0.007288403442502022,0.132545526118204
1790943547876431000,4.61443115234375,0.05002455236315727,-0.027213585618138313,0.12463000375330448
1790943547886461000,4.6244609375,0.07465425896793604,-0.017490648505091667,0.11714498176015913
1790943547896491000,4.634490966796875,0.13675386452823876,-0.02014554692804813,0.13385573193393646
1790943547906521000,4.64452099609375,0.18518471795916555,-0.05229425086081028,0.10338117175847292
1790943547916551000,4.654551025390625,0.17516309016048906,-0.09272796805799007,0.037095366554707285
1790943547926581000,4.6645810546875,0.2072124253720045,-0.06581131955981254,-0.003237739812210202
1790943547936610800,4.67461083984375,0.20827450164556502,-0.012924948024749755,-0.05300510254390538
1790943547946641000,4.684640869140625,0.1760895573556423,0.01868774933516979,-0.0872545781482011
1790943547956671000,4.6946708984375,0.18651041360497472,0.06413023460507393,-0.051667058873176575
1790943547966701000,4.704701171875,0.18418693909347056,0.0751677614480257,-0.03636274143122136
1790943547976731100,4.714731201171875,0.1476703953400254,0.056095981231331825,-0.0760636143092066
1790943547986761000,4.724760986328125,0.12331015332639217,0.050778585600852966,-0.07037906586676836
1790943547996790800,4.734790771484375,0.1471566005989909,0.08713526261746883,-0.02424494507089257
1790943548006820900,4.74482080078125,0.15122779556065796,0.11780044999420643,-0.024288126625493168
1790943548016851000,4.754850830078125,0.15207476777881382,0.12946166169345377,-0.020684914501756427
1790943548026881000,4.764881103515625,0.15988456474691629,0.09898702845275402,-0.0016212445262819527
1790943548036911000,4.7749111328125,0.20134148751199243,0.1265852294743061,0.08649586873538792
1790943548046941000,4.78494091796875,0.20845950282365083,0.12314648719727993,0.10915946289896965
1790943548056971000,4.794970947265625,0.2108423063069582,0.0903559782296419,0.04804777239747345
1790943548067000800,4.805000732421875,0.260740894202888,0.09509177457988262,0.014938260608538985
1790943548077031000,4.815031005859375,0.32371231416165824,0.15969254930615423,0.011768179205060004
1790943548087061000,4.82506103515625,0.32676468746960163,0.1774134994357824,-0.021573022447898983
1790943548097091000,4.835091064453125,0.297145794275403,0.1584954484760761,-0.07834704907126724
1790943548107121000,4.845120849609375,0.2702759075284004,0.16648118653297422,-0.06634520724080503
1790943548117151000,4.85515087890625,0.3108101624906063,0.18143501003682613,-0.04878719258792698
1790943548127181000,4.86518115234375,0.2925906151890755,0.16863456517457961,-0.07832607934847474
1790943548137211100,4.875211181640625,0.27971359795928,0.15143150143921374,-0.0756147014979273
1790943548147241000,4.885240966796875,0.3327788331925869,0.1589887849509716,-0.040910540928691626
1790943548157270800,4.895270751953125,0.35431612673997875,0.10578852516114712,-0.04610255661383271
1790943548167300900,4.90530078125,0.3472182774335146,0.039354689788818356,-0.050372415952756995
1790943548177331000,4.9153310546875,0.34108167437464,0.04978022221326828,-0.04002762061432004
1790943548187360000,4.925360107421875,0.37079964402914045,0.03421089715957641,-0.03713628308698535
1790943548197390000,4.93539013671875,0.27591186758875846,0.006055646777153015,-0.017883593345433473
1790943548207420000,4.945419921875,0.2313286294966936,0.06258592777252196,0.017630130041018127
1790943548217450000,4.955449951171875,0.24464433040469882,0.08029752555191516,0.04416282072290778
1790943548227479800,4.965479736328125,0.2005345550432801,0.07774784106910228,0.04470028860047459
1790943548237510000,4.975510009765625,0.16851882984042166,0.11037000773251056,0.051463791386038064
1790943548247540000,4.9855400390625,0.1657423508644104,0.13742284983098507,0.06544095187745988
1790943548257570000,4.995570068359375,0.15052432346642017,0.1335042150825262,0.11850859826356172
1790943548267600100,5.00560009765625,0.14337912788689136,0.13256956458091734,0.1456692846506834
1790943548277630000,5.0156298828125,0.13513912280797957,0.12603402533233166,0.13460297010466454
1790943548287659800,5.02565966796875,0.14093465734422206,0.10138999794125557,0.13108721706867218
1790943548297689900,5.03568994140625,0.15383330188393593,0.07666939818263054,0.17048450389020145
1790943548307720000,5.045719970703125,0.15356880572885273,0.06410860729515552,0.21013445029854774
1790943548317750000,5.05575,0.1363645729497075,0.030856910556554793,0.216938431224972
1790943548327780000,5.065780029296875,0.1273582596734166,-0.0012310030996799469,0.19037468781769273
1790943548337810000,5.075809814453125,0.0885135652333498,-0.0009814122527837753,0.19661679707765578
1790943548347840000,5.085840087890625,0.035405075380206104,0.04439326847791671,0.19171302374936638
1790943548357869800,5.095869873046875,-0.008477320966124535,0.0620662878125906,0.19324052557758986
1790943548367900000,5.10589990234375,-0.002142272725701332,0.05130231721401214,0.2022209006950259
1790943548377930000,5.115929931640625,-0.0016109423279762267,0.03041910366117954,0.21074257225953041
1790943548387960000,5.1259599609375,0.01499649360179901,0.02133329540789127,0.19929602622427045
1790943548397990000,5.135989990234375,0.023279168778657912,0.035165421405434605,0.20173859707079828
1790943548408020000,5.14602001953125,0.07141922256946563,0.035677462580800054,0.16881584002561867
1790943548418050000,5.156050048828125,0.10444061768352984,0.013935586372017859,0.15410941541157663
1790943548428080000,5.166080078125,0.09692951140105724,0.012075053197145462,0.13292458856366574
1790943548438109200,5.176109130859375,0.08169570191204548,0.033460955575108524,0.09834303146079182
1790943548448139300,5.18613916015625,0.0763809366300702,0.031439678880572315,0.07803308775126934
1790943548458169300,5.19616943359375,0.0540098226070404,0.03625613925158977,0.09546667230688034
1790943548468199200,5.20619921875,0.0586456657141447,0.03201835555136204,0.10687317859269678
1790943548478229200,5.216229248046875,0.051044835321605204,-0.011140402695536613,0.0898557005573064
1790943548488259300,5.22625927734375,0.03815349730551243,-0.07943418672084808,0.06234430103637278
1790943548498289200,5.2362890625,0.02794511476308107,-0.051044543060660356,0.08292560903318226
1790943548508319200,5.2463193359375,0.018223054432868955,0.004630582410097122,0.09184738583117723
1790943548518349000,5.25634912109375,0.018947277054190633,0.026301146948337552,0.09913776203505695
1790943548528379100,5.266379150390625,0.005362988337874412,-0.02175122855901718,0.0994588106829673
1790943548538409200,5.2764091796875,0.0031499884635210035,-0.0974672715395689,0.12538783638328313
1790943548548439300,5.286439208984375,0.019823475366830826,-0.08813654861450194,0.14119710767269134
1790943548558469400,5.296469482421875,-0.010047931283712386,-0.022165070056915284,0.1024427218645811
1790943548568499200,5.306499267578125,-0.02491173841655254,0.06202361771464347,0.08537431735955178
1790943548578529000,5.316529052734375,-0.017200433386862276,0.10050094014704226,0.08548764154091477
1790943548588559000,5.32655908203125,-0.02575578802525997,0.09194120159447193,0.10402743377275764
1790943548598589200,5.336589111328125,-0.04921323598027229,0.05377250671982765,0.12318272755444049
1790943548608619300,5.346619384765625,-0.014180208782851695,-0.016780454409122465,0.1404091721653938
1790943548618649300,5.3566494140625,-0.021520926934480666,-0.08818506393134594,0.20448424251712857
1790943548628679200,5.36667919921875,-0.08326923483908176,-0.0010404489636421203,0.20196685286872088
1790943548638709200,5.376709228515625,0.005007014507055282,0.04203355360925198,0.15293891032747922
1790943548648739300,5.3867392578125,0.0027010756522417067,0.020043840119242668,0.10818915656208991
1790943548658769200,5.39676904296875,0.0036421558946371077,0.011804419562220572,0.05961743335574865
1790943548668799200,5.40679931640625,-0.014119126245379447,0.06648994947373867,0.028702655132114886
1790943548678829300,5.416829345703125,-0.038036008405685426,0.13417349264621733,0.0253907541051507
1790943548688859100,5.426859130859375,-0.023049451676011082,0.1413859082430601,0.047966450789570805
1790943548698889200,5.43688916015625,-0.006882745251059532,0.1056844802647829,0.07427760767526924
1790943548708919300,5.446919189453125,-0.007033844159543514,0.04392740453183651,0.05720993382260203
1790943548718949400,5.456949462890625,0.02732815190851688,0.012973463341593742,0.03017586948983371
1790943548728979200,5.466979248046875,0.06232172387838363,0.021286533656716344,-0.006033581075817346
1790943548739009000,5.477009033203125,0.08052782717645168,-0.0026169045001268386,-0.03253039672672749
1790943548749039000,5.4870390625,0.10734715277999639,-0.02724281171262264,-0.029602015124633906
1790943548759069200,5.497069091796875,0.135904846483469,-0.06046352879106998,0.012133943777531384
1790943548769098200,5.50709814453125,0.13821955316662787,-0.09011106355786323,0.030028131582215428
1790943548779128300,5.51712841796875,0.13363164085447787,-0.09738894560635089,0.05457132894732058
1790943548789158100,5.527158203125,0.13732552693635225,-0.0868751503765583,0.07450695945173502
1790943548799188200,5.537188232421875,0.13109335454851387,-0.09145663294792175,0.09185045457109808
1790943548809218000,5.547218017578125,0.12199644037932157,-0.08697393457591533,0.08964936433024703
1790943548819248000,5.557248046875,0.10956365978568791,-0.08159691771268844,0.08807736577317118
1790943548829278200,5.5672783203125,0.09887187764048576,-0.027896307185292242,0.08563800979703665
1790943548839308300,5.577308349609375,0.0737561410844326,0.007195464462041855,0.06188289406970143
1790943548849338400,5.58733837890625,0.08351765664219855,0.013310147950053215,0.05358684795461595
1790943548859368400,5.597368408203125,0.07361176417768,0.03827975403368473,0.08023322814404964
1790943548869398000,5.60739794921875,0.06939356196075677,0.07389993346929549,0.08816277903430163
1790943548879428000,5.617427978515625,0.0489554618269205,0.09337678735554218,0.07936945092156529
1790943548889458200,5.627458251953125,0.04632628236711025,0.07114741989076137,0.06758132490701974
1790943548899488300,5.63748828125,0.06532908900082111,0.04452303233742714,0.06707980512566863
1790943548909518300,5.647518310546875,0.07344312961250543,0.04228139089047909,0.06873327142111957
1790943548919548200,5.657548095703125,0.07993132258802652,0.04414601571857929,0.04850552610233426
1790943548929578200,5.667578125,0.07691109798401594,0.06112345400452614,0.03976246687211096
1790943548939608300,5.6776083984375,0.06652443626523018,0.05231821625828743,0.027466099074482917
1790943548949638100,5.68763818359375,0.08057108179628848,0.0335883813470602,0.033025121441110965
1790943548959668200,5.697668212890625,0.09351765713095664,0.00861994430720806,0.05039923089444637
1790943548969698300,5.7076982421875,0.07974632140994072,-0.003234744137525558,0.05895772733800113
1790943548979728100,5.71772802734375,0.06389759489297867,-0.004592003965377807,0.045717648949474096
1790943548989758200,5.72775830078125,0.07393968095779418,0.008577858731150627,0.03786189394779503
1790943548999788300,5.737788330078125,0.0706844785541296,0.0442851319283247,0.03532251166328788
1790943549009818400,5.747818359375,0.08327508005797862,0.04430909732580185,0.03458265308141708
1790943549019848200,5.75784814453125,0.10120645806789398,0.03590776420533657,0.0353557563457638
1790943549029878000,5.7678779296875,0.09873860664963721,0.01930909610390663,0.012778379160910845
1790943549039908000,5.777908203125,0.1777361555188894,-0.059463411837816234,0.026577333541214464
1790943549049938200,5.787938232421875,0.1051356142103672,-0.10236848758459091,0.07678747160434722
1790943549059968300,5.79796826171875,0.07459142286479473,0.011389409020543098,0.08691445947363972
1790943549069998300,5.807998291015625,0.10843436349481343,0.01845394057929516,0.03413965855427086
1790943549080028400,5.8180283203125,0.0687543872743845,-0.016468904241919515,0.022325082924216984
1790943549090058200,5.828058349609375,0.05592120918631553,0.048402504119277,-0.01270611764229834
1790943549100088000,5.838088134765625,0.04020633818209171,0.10522212345004081,-0.019306538820639253
1790943549110118100,5.8481181640625,0.023936171382665634,0.14257190315723417,-0.00972680957056582
1790943549120148200,5.858148193359375,0.030397476351261138,0.11085399185717106,0.032142493387684226
1790943549130178300,5.86817822265625,0.054530047088861465,0.07019932538568974,0.05580386641696095
1790943549140208000,5.8782080078125,0.07316928110718726,0.045991935846209524,0.04655015425086021
1790943549150238200,5.88823828125,0.08320961360633372,0.01786649608016014,0.02958805966451764
1790943549160268300,5.898268310546875,0.0891299435660243,0.01132569613456726,0.0066708560660481446
1790943549170298400,5.90829833984375,0.10104746811389922,0.05704524478018284,-0.002464271221682429
1790943549180328200,5.918328125,0.11682692878693342,0.030847558206319806,0.011579817026108503
1790943549190358300,5.928358154296875,0.07757131545841693,0.005616086316108704,0.048601679953187704
1790943549200388000,5.93838818359375,0.08102028686851262,-0.030385785913467404,0.039882732250913974
1790943549210418200,5.948418212890625,0.05629530319571495,-0.03695522743165493,0.019701748683303592
1790943549220448300,5.9584482421875,0.0653229515209794,-0.04574351404309272,0.0364743851121515
1790943549230477300,5.968477294921875,0.0757476071625948,-0.05472060122489929,0.04048493592776358
1790943549240507100,5.978507080078125,0.08922551289498805,-0.04541851987242698,0.05356441692709923
1790943549250537200,5.988537109375,0.08662789761722087,-0.03458557569086552,0.058207931884005665
1790943549260567300,5.9985673828125,0.08108399975448846,-0.028902269357442854,0.061848626473918554
1790943549270597000,6.00859716796875,0.07799918548166751,-0.02730652459859848,0.05168042981140315
1790943549280627200,6.018627197265625,0.06780833859592676,0.0017167407900094986,0.050260991467535494
1790943549290657300,6.0286572265625,0.050691491839289664,0.0032727380603551864,0.03084975016340613
1790943549300687400,6.038687255859375,0.02949497455358505,0.01989654060304165,0.03424311892874539
1790943549310717200,6.04871728515625,0.01973871969282627,0.0353401934504509,0.02878558417521417
1790943549320747300,6.058747314453125,0.007914426386356354,0.050696752536296845,0.029070903922617432
1790943549330777000,6.068777099609375,-0.0035261282995343204,0.04227729923725128,0.023705577497184275
1790943549340807200,6.07880712890625,0.0066147419646382325,0.039919337934255596,0.04916289403252303
1790943549350837200,6.088837158203125,0.00924655177295208,0.042055765441060065,0.028697321369871496
1790943549360867300,6.098867431640625,0.01286065061688423,0.0379021528929472,0.02627235924527049
1790943549370897400,6.1088974609375,0.014277823938429355,0.02491758363544941,0.04181954553239047
1790943549380927200,6.11892724609375,0.019516601374745368,0.040565234622359274,0.06465235878303646
1790943549390957000,6.12895703125,0.009940963777899742,0.02694879720211029,0.07527180634438992
1790943549400987100,6.138987060546875,0.006850012025237083,0.008332944059371948,0.07741546730957925
1790943549411017200,6.149017333984375,0.017042320215702057,0.013234160104393959,0.08026581523939967
1790943549421047300,6.15904736328125,0.021935352954268454,-0.008754968863725662,0.058239276870340105
1790943549431077000,6.1690771484375,0.03458995960503816,-0.005811901149153709,0.03681063132919371
1790943549441107000,6.17910693359375,0.06451338870376348,-0.013934417328238486,0.01466894214786589
1790943549451137000,6.189136962890625,0.0812672473669052,-0.04687924007475376,0.007323547821119427
1790943549461167000,6.1991669921875,0.09316285234391689,-0.04050678243339061,0.016721125437319278
1790943549471197200,6.209197265625,0.1117190842539072,-0.019191022682189942,-0.016100436255708336
1790943549481227300,6.219227294921875,0.17378829467594623,-0.08324936109483241,0.015041209526360034
1790943549491257000,6.229257080078125,0.01823562165349722,-0.048587797558307645,0.03974420056305825
1790943549501287200,6.239287109375,0.03479658809304237,0.03867079917788505,0.04812288346029818
1790943549511317200,6.249317138671875,0.00042260932624340057,0.012765958070755003,0.03920293329320848
1790943549521347000,6.25934716796875,-0.013401333364844321,0.009364625194668769,0.04074680173434317
1790943549531377200,6.269377197265625,0.01941197195649147,0.024224340674281118,0.02835866400003433
1790943549541407200,6.2794072265625,0.03545125260949135,0.05040390706956386,0.03569404838941991
1790943549551437000,6.28943701171875,0.041459845374524594,0.03517535827755928,0.03492825164869427
1790943549561467100,6.299467041015625,0.05382949760407209,0.017296002715826035,0.04798939327374101
1790943549571497200,6.309497314453125,0.06487491549253463,0.03490823177397251,0.05763875369392335
1790943549581527300,6.31952734375,0.06762655228823423,0.04354571173787117,0.04031389020979404
1790943549591557000,6.32955712890625,0.04979337395578622,0.06198679283559322,0.04634009169675409
1790943549601587000,6.3395869140625,0.04994388834238052,0.07235504211485386,0.03390519221127033
1790943549611617000,6.349616943359375,0.03709288233667612,0.05885141741931438,0.027196196091920137
1790943549621647000,6.359647216796875,0.025424071852862832,0.02873334253132343,0.049086906186863774
1790943549631677200,6.36967724609375,0.023890870936214923,0.0028559739530086515,0.05985774491764605
1790943549641707300,6.379707275390625,0.0280418531358242,-0.04632745141088962,0.08002097363285719
1790943549651737000,6.389737060546875,0.05300064556449651,-0.08008885123729706,0.10487930136173963
1790943549661767200,6.39976708984375,0.07747077769339084,-0.09103460814356804,0.09069025168530642
1790943549671797000,6.409796875,0.08986731792986392,-0.07300327689051628,0.07456716520637273
1790943549681827000,6.4198271484375,0.08610475052595139,-0.062166825577616686,0.0739006641216576
1790943549691856100,6.429856201171875,0.08087094152569771,-0.02228898869752884,0.05723346082866192
1790943549701886200,6.43988623046875,0.02393763268738985,-0.00033317747712135315,0.061783963739871973
1790943549711916300,6.449916259765625,-0.0017073884397745133,-0.0011187748968601225,0.08828443265259266
1790943549721946000,6.459946044921875,-0.0029267011016607283,0.00881692818403244,0.10493599998503923
1790943549731976000,6.469975830078125,-0.023841478836536405,0.019743980389833448,0.10548420845232903
1790943549742006000,6.480006103515625,-0.015114859284460543,0.006149170279502869,0.09401033601872623
1790943549752036000,6.4900361328125,-0.009682020580768584,0.007355623459815978,0.06672010496780276
1790943549762066200,6.500066162109375,-0.009406126248836516,0.009729366853833198,0.05998407471105456
1790943549772096300,6.51009619140625,0.01643003353625536,0.00684182871878147,0.05870455629453063
1790943549782126000,6.5201259765625,0.046913726866245266,0.0038812253475189206,0.06278298471458256
1790943549792156200,6.53015625,0.03825958802849054,0.019721184036135674,0.06658339991085231
1790943549802186200,6.540186279296875,0.03660451429784298,0.010926467683911322,0.03399389340803027
1790943549812216000,6.550216064453125,0.02566343356668949,0.01962766053378582,0.03288600523136556
1790943549822246100,6.56024609375,0.011030804841220378,0.03982055373489857,0.02177088310755789
1790943549832276200,6.570276123046875,-0.004604863446950912,0.05295300703048706,0.04575103976242244
1790943549842306000,6.58030615234375,-0.007546177595853805,0.05169686948955059,0.05748626654595136
1790943549852336000,6.590336181640625,-0.015345745430886744,0.04119418017566204,0.051111324686557054
1790943549862366200,6.6003662109375,-0.014413140755891798,0.006718494600057602,0.028462781961634754
1790943549872396300,6.610396240234375,0.02264262444078922,-0.005369418078660965,0.034407223449274896
1790943549882426000,6.620426025390625,0.045345746897161004,0.00023556232154369353,0.021863675957545636
1790943549892456000,6.6304560546875,0.06518471209406852,-0.019075287348031995,0.022110928716883062
1790943549902486000,6.640486083984375,0.07100304298400878,0.00393792397081852,0.013802096185460687
1790943549912516000,6.65051611328125,0.07451192788779736,0.02427402503490448,-0.011518588358163833
1790943549922546200,6.660546142578125,0.1491191328436136,-0.06009644904434681,-0.00328194428011775
1790943549932576300,6.670576171875,0.025613164684176442,-0.09073942458927631,0.04348090287335217
1790943549942606300,6.6806064453125,0.0031178397595882416,-0.0005804302364587784,0.03201894007325172
1790943549952636200,6.69063623046875,0.027371406528353688,-0.007718027031421661,0.0042779695801436896
1790943549962666000,6.700666015625,0.032764205482602116,-0.018438743010163305,-0.011389482085779308
1790943549972696000,6.710696044921875,0.06731529438197613,-0.02480418638885021,-0.039682679634168744
1790943549982726100,6.72072607421875,0.0944543534591794,-0.0037274960905313488,-0.028091318300738927
1790943549992756200,6.730756103515625,0.08913052808791398,0.024239538243412972,-0.0029869799215346575
1790943550002786000,6.7407861328125,0.09068857118487357,0.029079964011907575,0.005318126282840967
1790943550012816100,6.750816162109375,0.053983519122004504,0.03434592171609401,-0.011648644478619097
1790943550022846200,6.76084619140625,0.05267828174233436,0.04025134636759758,-0.012766104201227426
1790943550032876300,6.770876220703125,0.02966886981576681,0.06841068840324878,-0.01741911763884127
1790943550042906000,6.780906005859375,0.017108955711126327,0.06972644717693328,-0.006859656636416912
1790943550052936200,6.790936279296875,0.03566869475245476,0.018693594554066658,0.020719182097539306
1790943550062966000,6.800966064453125,0.05361527033150196,-0.01746960571706295,0.04443630390204489
1790943550072996000,6.81099609375,0.04160509906411171,-0.038844986701011656,0.04828991059027612
1790943550083026200,6.821026123046875,0.0380891998976469,-0.046137481796741486,0.07378339441753924
1790943550093056300,6.83105615234375,0.038629882645606996,-0.04776420621573925,0.08406462300047278
1790943550103086300,6.84108642578125,0.028114333850145338,-0.043212534260749814,0.08053506063483655
1790943550113116000,6.851115966796875,0.042055180919170376,-0.04487257642745971,0.06846840993985533
1790943550123146000,6.86114599609375,0.06298457170128823,-0.04003331970274448,0.08361461421065032
1790943550133176000,6.871176025390625,0.04118190521597862,-0.03731295482814312,0.0913164938248694
1790943550143206100,6.8812060546875,0.023044190979003905,-0.008071078252792357,0.06608458354324102
1790943550153236200,6.891236328125,0.006525602376461028,0.015179448953270912,0.03940919645503163
1790943550163266300,6.901266357421875,0.00031038112342357635,0.019576807129383086,0.016863821843639014
1790943550173296000,6.911296142578125,0.0014566285490989685,0.003710544955730438,0.02195975674316287
1790943550183326200,6.921326171875,0.0021498715102672575,0.014016250392794609,0.050418227855861183
1790943550193356000,6.93135595703125,0.007195464462041855,0.019583821392059324,0.05762487129904329
1790943550203386000,6.94138623046875,0.022164485535025594,0.01470890883207321,0.04358282887786626
1790943550213416200,6.951416259765625,0.028412440013885498,0.039293314990401264,0.02774272405877709
1790943550223446000,6.961446044921875,0.013380290576815605,0.05859539683163166,-0.0048961745437234635
1790943550233476000,6.97147607421875,0.023618191474676132,0.06777122145593166,-0.012331219915300607
1790943550243506200,6.981506103515625,0.02136076793670654,0.0503501310557127,-0.004868044427782297
1790943550253535000,6.991534912109375,0.003971826240420341,0.0455441920787096,0.014281988656893372
1790943550263565000,7.00156494140625,-0.01617079807817936,0.01768354072868824,0.0464387297656387
1790943550273595100,7.01159521484375,-0.00916939488351345,0.0055406829923391335,0.07689728865437209
1790943550283625200,7.021625244140625,-0.00988835680782795,-0.007030044767260551,0.08154774480871856
1790943550293655000,7.031655029296875,-0.008358663022518158,0.012881693404912948,0.06737199300527572
1790943550303685000,7.04168505859375,0.03296995718777179,0.017530980515480042,0.049657618746906516
1790943550313715200,7.051715087890625,0.055634793460369106,0.03894493994414806,0.032869711683690545
1790943550323745300,7.061745361328125,0.06605828005820512,0.03409633086919785,0.0061895022898912425
1790943550333775000,7.071775146484375,0.07596329573988914,-0.01637070456445217,-0.012299144276604055
1790943550343805200,7.08180517578125,0.09375731110572814,-0.06805939074754715,-0.0024123949039727447
1790943550353835000,7.0918349609375,0.09792378313541412,-0.06004559563994407,-0.0019364479552954434
1790943550363865000,7.101864990234375,0.1426759480535984,-0.079715926271677,-0.004708177690953016
1790943550373895200,7.111895263671875,0.14055939429104328,-0.13758417787253857,0.031795725776627655
1790943550383925200,7.12192529296875,0.013421207109093666,-0.0468687186807394,0.03900346519835293
1790943550393955300,7.131955322265625,0.045996319760382175,-0.02441781741976738,-0.003948299234360456
1790943550403985000,7.14198486328125,0.017526888862252236,-0.030189386558532712,-0.017145342198759315
1790943550414015000,7.152014892578125,0.05083645326793194,0.009760346513986587,-0.03584536649361252
1790943550424045000,7.162045166015625,0.06950345207601785,0.0816162069350481,-0.046697672962769866
1790943550434075100,7.1720751953125,0.05105331088900566,0.11122867038846015,-0.03868928468264639
1790943550444105700,7.182105712890625,0.05442717123627663,0.06866495542526245,-0.03497325983420014
1790943550454135600,7.192135498046875,0.04562836323082447,0.029013328516483305,-0.023429975426197052
1790943550464165600,7.20216552734375,0.038564416193962094,0.00893149447441101,-0.010700476908311248
1790943550474195500,7.212195556640625,0.02737783626914024,0.04289747696220875,0.00798515353500843
1790943550484225500,7.2222255859375,0.04489508052021265,0.027479543077945708,-0.007062412666901946
1790943550494255600,7.232255615234375,0.06818360164910554,-0.014161796343326568,0.000301028773188591
1790943550504285700,7.24228564453125,0.0897948372155428,-0.08099953634142876,0.0005176671985536814
1790943550514315500,7.2523154296875,0.09115297382622957,-0.09167582865655421,0.007308057991042733
1790943550524345600,7.262345703125,0.05227671520411968,-0.07484276727735996,0.0008052519682794809
1790943550534375700,7.272375732421875,0.05094868147075176,-0.07203355507552624,0.0024508272182196377
1790943550544405800,7.28240576171875,0.06468640718311071,-0.06939619230926036,0.013249503803998232
1790943550554435600,7.292435546875,0.049208852066099644,-0.04267243603467941,0.003374810195341706
1790943550564465400,7.30246533203125,0.016838322076201437,-0.01082066922187805,-0.024177944249287247
1790943550574495500,7.31249560546875,-0.018809914410114287,0.01799509089589119,-0.0029184447299689053
1790943550584525600,7.322525634765625,-0.031114684709906575,0.024365210449695585,0.012185820095241068
1790943550594555600,7.3325556640625,-0.06775076318979263,0.030366496691107747,0.023750001160800456
1790943550604585700,7.342585693359375,-0.06660802289545535,0.023288521128892896,0.041677652843669054
1790943550614615600,7.352615478515625,-0.05056757319867611,0.022968203133344647,0.04298749333322048
1790943550624645600,7.362645751953125,-0.05475158088505268,0.010602058035135269,0.03270933349020779
1790943550634675500,7.372675537109375,-0.04331804046183824,0.002852466821670532,0.01366831373795867
1790943550644705500,7.38270556640625,-0.035729192768037314,0.008454524612426757,0.01998385356031358
1790943550654735600,7.392735595703125,-0.02829816598445177,0.017031798821687698,0.01927190589867532
1790943550664765700,7.402765625,-0.015873860958218574,0.026886253359913823,0.022657968140393493
1790943550674795500,7.41279541015625,-0.01685118155777454,0.0018710545688867567,0.027329174821823832
1790943550684825600,7.42282568359375,-0.010446575212478637,-0.023524667972326278,0.007894844903051852
1790943550694855700,7.432855712890625,0.005128595060110092,-0.026350246787071225,-0.00613156155757606
1790943550704885500,7.442885498046875,0.018058511520922183,-0.015797873112559317,0.003545417521893978
1790943550714915600,7.45291552734375,0.004796002104878425,-0.019828736063838004,0.028427491452544924
1790943550724945700,7.462945556640625,0.00246259072124958,-0.04654489355385303,0.043268648362159726
1790943550734975500,7.4729755859375,0.00557224717438221,-0.05756722282767295,0.057973027149587866
1790943550745005600,7.483005615234375,-0.005974398234486579,-0.02728255920112133,0.050737303742393845
1790943550755035600,7.49303564453125,-0.027123569247126576,0.006501052457094192,0.01829780016951263
1790943550765065700,7.503065673828125,-0.016449615019559858,0.043373277780413624,-0.007423354933783412
1790943550775095800,7.513095703125,0.017982231414318085,0.02638064192533493,-0.029654841290414333
1790943550785125400,7.52312548828125,0.026025252616405484,-0.03807575589418411,-0.021526187631487847
1790943550795155500,7.533155517578125,0.03612111469507217,-0.03480243331193924,-0.021217413943260908
1790943550805186600,7.5431865234375,0.039489714345335956,-0.02160568260848522,-0.052809579971805215
1790943550815216600,7.553216552734375,0.13299509651660918,-0.11582184339761734,-0.05527998867332935
1790943550825246500,7.56324658203125,0.024283377385139464,-0.10278583621382713,-0.004393193457648158
1790943550835276500,7.573276611328125,0.046640170621871944,0.010713701716065406,0.0018155249893665312
1790943550845306600,7.583306640625,0.055530748564004896,-0.029220249265432357,-0.01077354214452207
1790943550855336700,7.593336669921875,0.016387947960197925,-0.03677928634285926,-0.001306917880102992
1790943550865366800,7.60336669921875,0.011333294919133185,0.0068003276646137235,-0.02666311212852597
1790943550875396600,7.613396728515625,-0.011613865426182746,0.05388005874752998,0.005400836130231619
1790943550885426400,7.623426513671875,-0.014520108261704445,0.061978025007247924,0.01701682044826448
1790943550895456500,7.63345654296875,-0.0009814122527837753,0.04303717769384384,0.0323347280241549
1790943550905486600,7.643486572265625,0.017397417263686654,0.02678746916055679,0.0348177039463073
1790943550915516700,7.6535166015625,0.0406990901350975,-0.00011398176848888397,0.022324206141382454
1790943550925546800,7.663546630859375,0.04634323350191116,0.000730067840218544,0.02798025914169848
1790943550935576600,7.67357666015625,0.040653205166757106,-0.015253098711371421,0.03323766821324825
1790943550945606700,7.683606689453125,0.026222236493229866,-0.02227846730351448,0.04173362081460655
1790943550955636500,7.693636474609375,0.022272622084617614,-0.028575521621108053,0.029385376699268818
1790943550965666600,7.70366650390625,-0.003612929800152778,-0.02879705541729927,0.02767521178051829
1790943550975696600,7.713696533203125,-0.0010033318236470222,-0.04316869511902332,0.02020480283461511
1790943550985726700,7.723726806640625,0.007945990568399428,-0.06326455768644809,0.013624328465759753
1790943550995756500,7.733756591796875,0.03148030315190554,-0.07225801148116588,-0.006488119910284877
1790943551005786600,7.74378662109375,0.02942132479548454,-0.0554389786273241,-0.00024732582457363605
1790943551015816700,7.753816650390625,0.041938861063122744,-0.02988543517589569,0.0020308482404798266
1790943551025846500,7.763846435546875,0.020257775130867958,-0.008234744381904602,0.02297266011275351
1790943551035876600,7.773876708984375,0.005003799636662006,0.016579963400959966,0.03214665810614824
1790943551045906400,7.783906494140625,-0.013480828341841698,0.03911445129215717,0.046292380097508426
1790943551055936500,7.7939365234375,-0.01689092904627323,0.04479951119124889,0.033823286081478
1790943551065966600,7.803966552734375,-0.016381810480356217,0.052940147548913956,0.0344011590346694
1790943551075996700,7.81399658203125,0.002141395942866802,0.08160860815048217,0.024186858208104966
1790943551086026800,7.82402685546875,0.003738602006435394,0.07217734746038913,0.0310939341828227
1790943551096056600,7.834056640625,-0.0007575403690338134,0.04279518563151359,0.034149010904505846
1790943551106086400,7.84408642578125,0.017794015365839005,0.01417524034678936,0.04956183022223413
1790943551116116500,7.854116455078125,0.0351309346139431,0.004638181194663048,0.05686616188623011
1790943551126146600,7.864146484375,0.05537789608985185,0.019157704934477805,0.056602396383509036
1790943551136176600,7.8741767578125,0.0715749976530671,0.021475334227085113,0.06126132810525596
1790943551146206700,7.884206787109375,0.09052958123087883,0.005344868159294128,0.05005575121901929
1790943551156236500,7.894236572265625,0.08812076652348041,0.005232639956474304,0.04118533928208053
1790943551166266600,7.9042666015625,0.07982493960410356,0.019450550401210784,0.041194545501843094
1790943551176296700,7.914296630859375,0.06556523584425449,0.021019991675019264,0.021615108023956418
1790943551186326500,7.924326416015625,0.04883154318630695,0.03515782262086868,0.00783602738790214
1790943551196357400,7.934357421875,0.06429799238741397,0.04344049779772758,0.004233326720818877
1790943551206387500,7.944387451171875,0.08809270947277545,0.023870704931020736,-0.024756547854840754
1790943551216417500,7.95441748046875,0.11603490162640809,-0.017373159605264664,-0.0326776962429285
1790943551226447600,7.964447509765625,0.11565993083417415,-0.03426584221720695,-0.017952932254597542
1790943551236477700,7.974477783203125,0.1314566349029541,0.0008563245683908462,-0.041732817097008226
1790943551246507500,7.984507568359375,0.17480536276400088,-0.012661913174390792,-0.05228124524876475
1790943551256537600,7.99453759765625,0.1552326472878456,-0.06957037983238697,-0.007639335772022604
1790943551266567700,8.004567626953126,0.06145020174086094,0.014818798947334288,0.02451572483628988
1790943551276597500,8.014597412109374,0.09693564888089895,0.008925649255514144,0.01096972230374813
1790943551286627600,8.024627685546875,0.05979746609777212,-0.037002573704719544,-0.015587226036563515
1790943551296657700,8.03465771484375,0.05686521203815937,-0.03989712610244751,-0.042044878720864653
1790943551306687500,8.0446875,0.07124298921972513,-0.0015764555364847182,-0.027972221965715287
1790943551316717600,8.054717529296875,0.07465045957565307,0.03083177611529827,0.0050256461422890425
1790943551326747600,8.06474755859375,0.07185673720389604,0.013902268624305724,-0.002045169026777148
1790943551336777700,8.07477783203125,0.0762593560770154,0.013043605968356131,0.007891337771713733
1790943551346807600,8.0848076171875,0.09421323817968368,0.01991290721595287,0.03829889712557196
1790943551356837600,8.094837646484375,0.08302373564541339,0.026230419799685475,0.03443338080383837
1790943551366867500,8.104867431640624,0.07352759302556515,0.0177244572609663,0.033047260207682845
1790943551376897500,8.1148974609375,0.06317571035921574,-0.006523264288902282,0.062124886132031674
1790943551386927600,8.124927734375,0.06066314301639795,-0.039055999103188514,0.06360759897045791
1790943551396957700,8.134957763671874,0.04712240118086338,-0.0766799195766449,0.0596366495128721
1790943551406987800,8.14498779296875,0.008299334050714969,-0.09883213015198707,0.046649303776398296
1790943551417017600,8.155017578125,-0.030007307989895343,-0.09279051190018653,0.01798442337140441
1790943551427048700,8.165048583984374,-0.04661912783384323,-0.06293547186255455,-0.00396188936829567
1790943551437078800,8.175078857421875,-0.04700608132481575,-0.03618424305915832,0.004084858160838484
1790943551447108000,8.185108154296875,-0.07166238367557526,-0.041788638937473296,0.027799788008257744
1790943551457138200,8.19513818359375,-0.07974573688805103,-0.05708206965923309,0.031397154913097615
1790943551467168000,8.20516796875,-0.09184797035306691,-0.060029813548922534,0.021858269130066037
1790943551477198000,8.215197998046875,-0.0845528449088335,-0.047264440000057216,0.0350195831939578
1790943551487228200,8.225228271484376,-0.08911737634539604,-0.021122867527604103,0.044152080133184786
1790943551497258200,8.23525830078125,-0.10077917256653308,-0.012145195823907851,0.05809519222453236
1790943551507288000,8.2452880859375,-0.09141571641564368,-0.02738309696614742,0.0557670415379107
1790943551517318000,8.25531787109375,-0.06362403864860534,-0.026975100687146186,0.051647038998454804
1790943551527348000,8.265347900390625,-0.06254705706685781,-0.024281623819470403,0.038888168255612254
1790943551537378000,8.2753779296875,-0.06700491325855255,-0.02099310366809368,0.04387859695404768
1790943551547408100,8.285408203125,-0.053406303755939,0.004303250151872635,0.03732413380928337
1790943551557438200,8.295438232421875,-0.0424117392718792,0.0056903205960989,0.06567717178612947
1790943551567468300,8.30546826171875,-0.010477554872632026,-0.006043371817469597,0.07688537902086973
1790943551577498000,8.315498046875,-0.005666939720511436,-0.02532616443634033,0.0948736017845571
1790943551587528000,8.32552783203125,0.009025017976760863,-0.03655307637155056,0.08709734175987541
1790943551597558000,8.33555810546875,0.022146949878334998,-0.021437340304255485,0.0633685295175761
1790943551607588000,8.345588134765626,0.03776420572698116,-0.03285889802873134,0.026537293791770934
1790943551617619000,8.355618896484375,0.09257014714777469,-0.03515782262086868,0.0018625790014863014
1790943551627649000,8.36564892578125,0.1210603285729885,-0.024812369695305824,-0.001803250029683113
1790943551637679000,8.37567919921875,0.15460983921438454,-0.048123687177896494,0.022578327032923697
1790943551647709200,8.385709228515625,0.1809635931327939,-0.12248714650571346,0.08348397356830536
1790943551657739300,8.3957392578125,0.24626374830007552,-0.22524375662505625,0.14568798935115337
1790943551667769000,8.40576904296875,0.3116606418401003,-0.3200952927082777,0.21238719766139982
1790943551677799000,8.415798828125,0.32810207355320453,-0.3284767520844936,0.2900268291156739
1790943551687829000,8.4258291015625,0.33311610232293604,-0.3421814523100853,0.3538700634729117
1790943551697859000,8.435859130859376,0.2581593532770872,-0.3790536776334047,0.4126980269514024
1790943551707889200,8.44588916015625,0.3155675861507654,-0.43294308873116966,0.4048034743092954
1790943551717919200,8.455919189453125,0.3676958327949047,-0.49411681161820886,0.3549257830709219
1790943551727949000,8.465948974609375,0.3613093466281891,-0.49085634851753707,0.28807291856892403
1790943551737979100,8.475979248046874,0.37365123406797646,-0.41786885371804233,0.18469985705167055
1790943551748009200,8.48600927734375,0.40978316241800783,-0.33399697681069374,0.07172478138729929
1790943551758039000,8.4960390625,0.42152942205220456,-0.29366730450987816,-0.028808088267967102
1790943551768070000,8.50606982421875,0.556499033512175,-0.3558493276566267,-0.16256554745920002
1790943551778100000,8.516099853515625,0.7886153062552214,-0.4789548983216285,-0.28028504117168485
1790943551788130000,8.526130126953126,1.0211930590301752,-0.5723240868926048,-0.37846447956860063
1790943551798160100,8.53616015625,1.1411059711337088,-0.683888272845745,-0.3874311914868653
1790943551808190200,8.546190185546875,1.1402987464040517,-0.5400543869286776,-0.26817623183541
1790943551818220000,8.556219970703125,1.1890209839969872,-0.4359007694929838,-0.32890308773778376
1790943551828250000,8.56625,1.0716355445444583,-0.3741922090768814,-0.5062574043322354
1790943551838280200,8.5762802734375,0.9124930303364992,-0.2726408830940723,-0.6822294727880507
1790943551848310000,8.58631005859375,0.7618132240474224,-0.28658289920687674,-0.8603725286073982
1790943551858340000,8.596340087890624,0.5692307970523834,-0.33927696304023264,-0.9470753180917352
1790943551868370200,8.6063701171875,0.48453649784624575,-0.4250310004323721,-0.9234978239536284
1790943551878400000,8.61639990234375,0.568750320059061,-0.5617606073021888,-0.8202624173413962
1790943551888430000,8.62643017578125,0.6976327205598354,-0.7056494382768869,-0.6779143130026757
1790943551898460200,8.636460205078125,0.8348118247628211,-0.7745365120202302,-0.5242339366581291
1790943551908491000,8.646490966796875,0.8765665614306927,-0.7561047832727432,-0.37330417419597506
1790943551918521000,8.65652099609375,0.8221160093188286,-0.7024725618064404,-0.24172588567472994
1790943551928551200,8.66655126953125,0.7452361832559108,-0.6705038906157016,-0.1523459128703922
1790943551938581000,8.6765810546875,0.6003425591528415,-0.6516612429797649,-0.09031213908791541
1790943551948611000,8.686611083984374,0.31662849338054655,-0.5901426521778106,-0.0848222364347428
1790943551958641200,8.69664111328125,0.05532675042450428,-0.5570177966892719,-0.09412504843957721
1790943551968671000,8.7066708984375,-0.0851192466199398,-0.5646674346596002,-0.06868716725707054
1790943551978701000,8.716701171875,-0.06465981143712997,-0.6079834292948245,-0.07365852592885494
1790943551988731100,8.726731201171875,0.035578093859553336,-0.6630243485152721,-0.13337708157151937
1790943551998761200,8.73676123046875,0.08267711416482924,-0.7336796009749174,-0.33174839416630564
1790943552008791300,8.746791259765626,0.06741641666889191,-0.7851596128433942,-0.5126975203823297
1790943552018821000,8.756821044921875,-0.024406126981973645,-0.7418313432484864,-0.5397177753854543
1790943552028851000,8.766850830078125,-0.08018821995854378,-0.5662351223677397,-0.36532450055368243
1790943552038882000,8.776882080078124,0.02157353390455246,-0.5732072994679213,-0.24012948332875966
1790943552048912100,8.786912109375,0.03774199389517307,-0.6641431234121322,-0.08399396891705692
1790943552058942000,8.79694189453125,-0.08344809853732585,-0.7106395016491412,0.0964364671871066
1790943552068972000,8.806971923828126,-0.18805062878429887,-0.7857271835982799,0.2370223841588944
1790943552079002000,8.817002197265625,-0.1700432629287243,-0.7806956191718578,0.30465690055787564
1790943552089032200,8.8270322265625,-0.10104571454823016,-0.739420774975419,0.32287513268515466
1790943552099062300,8.837062255859376,0.008781272348761558,-0.7161071194052696,0.3014944910041988
1790943552109092000,8.847092041015625,0.14604980840086937,-0.7868903821587562,0.21954247624352574
1790943552119122000,8.857121826171875,0.2233767937093973,-0.8317015837877988,0.12416954663470386
1790943552129152000,8.867152099609376,-0.06014847149252891,-0.7494780586093663,-0.026572949627041816
1790943552139182000,8.87718212890625,-0.45934243535697455,-0.573043633338809,-0.11280483366400003
1790943552149213200,8.887213134765625,-0.5573761086076497,-0.5373667552798986,-0.10930398593619466
1790943552159243000,8.897242919921876,-0.44554830328226086,-0.5373936432868242,-0.047975364748388524
1790943552169273000,8.907273193359375,-0.434205071491003,-0.5744260276079177,0.05998845862522721
1790943552179303200,8.91730322265625,-0.5490823275148868,-0.6158358963608741,0.16591113156005738
1790943552189333200,8.927333251953126,-0.5070674786061048,-0.6059037004113197,0.2510753863655031
1790943552199363000,8.937363037109375,-0.5145879372388125,-0.5068047360166907,0.15686185592487453
1790943552209393200,8.94739306640625,-0.5693108765512704,-0.3556131808131933,0.107834644035995
1790943552219423000,8.957423095703126,-0.571059181523323,-0.24061697458475828,0.06080971188023686
1790943552229453000,8.967453125,-0.5616214910924434,-0.19550971261858938,0.010877221714705228
1790943552239483100,8.977483154296875,-0.4980944830775261,-0.0992448026061058,0.039527854398638006
1790943552249513200,8.98751318359375,-0.38580373641550536,-0.0656739569157362,0.010496405703574418
1790943552259544000,8.9975439453125,-0.35035949806869027,-0.1255766369536519,-0.04378843445256352
1790943552269574100,9.00757421875,-0.4274520900994539,-0.1777671351790428,-0.09152589879184961
1790943552279604200,9.017604248046876,-0.5970441021293401,-0.17204700396656988,-0.00976779916808009
1790943552289634000,9.027634033203125,-0.849001093634963,-0.09996522583514451,0.01465469442680478
1790943552299664100,9.0376640625,-0.9778905083984136,0.10573884080052375,0.14419599722772836
1790943552309694000,9.04769384765625,-0.9178624484151601,0.3144374130770564,0.250238058758527
1790943552319724000,9.05772412109375,-0.9109650901168584,0.46329497237503525,0.2934890253335237
1790943552329754000,9.067754150390625,-0.9232172534465789,0.5357438302531838,0.22318419374674558
1790943552339784200,9.0777841796875,-0.9428940138190984,0.5264473018586635,0.16654796815887093
1790943552349814300,9.087814208984375,-0.8811094655573367,0.4769862285971641,0.15406798742264508
1790943552359845000,9.09784521484375,-0.9260282192140817,0.33902854123711584,0.08605652747005224
1790943552369875200,9.107875244140626,-1.1753104385524988,0.30197949804216623,-0.0531362546429038
1790943552379905000,9.117905029296875,-1.5979261945366858,0.3815723824560642,-0.17654928382188081
1790943552389935000,9.12793505859375,-1.9695961916595697,0.5874661264449358,-0.18235007905513048
1790943552399965000,9.13796484375,-1.6758429624319076,0.8454618135929107,0.11165127971470355
1790943552409995000,9.1479951171875,-0.9674766664117574,0.785650611230731,0.32952275400608777
1790943552420025000,9.158025146484375,-0.562657263880968,0.5008610251814126,0.263939397983253
1790943552430055200,9.16805517578125,-0.7020265716046095,0.39585897422283883,-0.17717121511250733
1790943552440085200,9.178085205078125,-1.106118244382739,0.34900369954556226,-0.7156488542437554
1790943552450115600,9.188115478515625,-1.0978887606978416,0.3843319102972746,-0.80877838883996
1790943552460146700,9.198146728515624,-0.8237485789567232,0.44252661737352605,-0.7202005261987448
1790943552470176800,9.2081767578125,-0.6791846251994371,0.48424496755376456,-0.908390271192789
1790943552480206600,9.21820654296875,-0.8143494669705629,0.7011940663032233,-1.0554749755993484
1790943552490236400,9.228236328125,-0.931505189320445,0.9464335861220955,-0.8924211331665516
1790943552500266500,9.2382666015625,-0.9085720575004815,0.8670672039404511,-0.6234732593715191
1790943552510296600,9.248296630859375,-0.8552437874168157,0.7592161932915449,-0.4422121445968747
1790943552520326700,9.25832666015625,-0.9183043469637632,0.6907035058185458,-0.3442144194424152
1790943552530356700,9.268356689453125,-0.9531552955925464,0.6715791186317801,-0.336601898612082
1790943552540386600,9.278386474609375,-0.8241121515721083,0.666433864697814,-0.45941520833224053
1790943552550416600,9.288416748046876,-0.5593237355440854,0.6385881186559796,-0.6436454020455479
1790943552560447700,9.29844775390625,-0.30105683023929597,0.5398673399239778,-0.6701505471333861
1790943552570477600,9.3084775390625,-0.2602285607665777,0.38004298093169925,-0.6065370298787951
1790943552580507400,9.31850732421875,-0.2716308292686939,0.2541194302365184,-0.35419995301440355
1790943552590537500,9.328537353515625,-0.11882862399816513,0.1890729575693607,-0.07846651073247193
1790943552600567600,9.338567626953125,0.23117373119592666,0.08999386691898106,-0.013783464550226925
1790943552610597600,9.34859765625,0.5526765526145696,-0.07956716545075178,-0.30193989668413995
1790943552620627700,9.358627685546875,0.09928338105082511,-0.08483429219871759,-0.40570992162972686
1790943552630657800,9.36865771484375,-0.669410250160098,-0.030713410432636735,-0.21098229929953813
1790943552640687600,9.3786875,-0.7011082877159118,0.17959288930147885,0.014050006531924009
1790943552650718700,9.38871875,-0.35641572936773297,0.5838911905676126,0.18640914518758653
1790943552660748500,9.39874853515625,-0.10376374133527279,0.7216849195376038,-0.20444091483205556
1790943552670778600,9.408778564453126,0.24648469757437705,0.4171893470212817,-0.8957426788046956
1790943552680808400,9.418808349609375,0.7462824774384498,-0.3784446058243513,-0.2127522315815091
1790943552690838500,9.428838623046875,1.4654606748521326,-1.5534113455057144,1.6867667997673153
1790943552700868600,9.43886865234375,2.259703173339367,-2.0216525421112777,2.9527216781020162
1790943552710898700,9.448898681640625,2.682878316771984,-1.7255808068081735,3.3322774600386618
1790943552720928800,9.4589287109375,2.0381354748785494,-0.9279051190018653,2.3338544512212276
1790943552730959600,9.468959716796874,0.9860440042376518,-0.069644906373322,0.6685664928123355
1790943552740989700,9.47898974609375,0.7305091542452573,-0.06748918964415788,-0.21044380850866437
1790943552751019500,9.48901953125,0.9049357468247413,-0.6025058746665716,-0.49221726160719986
1790943552761049600,9.499049560546876,1.1718810486257076,-1.0814911681264638,-0.5131774859189987
1790943552771079400,9.509079345703125,1.298572076562047,-1.1710294002324342,-0.15418299210444092
1790943552781109500,9.519109619140625,1.0468424640715122,-0.7695821044832467,0.22534078725874424
1790943552791139600,9.5291396484375,0.2826239324480295,-0.15567396131455896,0.28955957693010564
1790943552801169700,9.539169677734375,-0.6784212396115065,0.48838089831471443,0.02801774160787463
1790943552811199700,9.54919970703125,-1.1247592319667339,0.9253568958237767,-0.17806626425608993
1790943552821230600,9.559230712890624,-0.8654887025773524,1.0065984242275356,-0.03279123962000012
1790943552831260700,9.5692607421875,-0.4370867644071579,0.7235214873149991,0.08646686183661222
1790943552841290800,9.579290771484375,-0.3914630773514509,0.39915012472271916,0.0623788608931005
1790943552851320600,9.589320556640626,-0.8029360925525426,0.35870559387058015,0.05867883733138442
1790943552861350700,9.5993505859375,-1.2512410010665656,0.4785752513542771,0.1161173192128539
1790943552871380500,9.60938037109375,-1.5323101052880286,0.5115644977644086,0.1506973419457674
1790943552881410600,9.61941064453125,-1.550838280147314,0.5171005045816301,0.05722308556511998
1790943552891440600,9.629440673828125,-1.3088438797295092,0.5013344879120588,-0.023143559700250626
1790943552901471500,9.639471435546875,-0.9424643902301788,0.4163555265456438,-0.10076792052015661
1790943552911501600,9.64950146484375,-0.49048809972703455,0.29586539907604453,-0.04435922007784247
1790943552921531600,9.65953173828125,-0.03603577449917793,0.10986965699493885,0.13108838611245155
1790943552931561700,9.669561767578125,0.2853822912454605,-0.1251777007639408,0.19846490916237233
1790943552941591600,9.679591552734376,0.38909985535144803,-0.3632473289534449,0.14033756823390722
1790943552951621600,9.68962158203125,0.37302667242884635,-0.474478045168519,0.10883476098924874
1790943552961651500,9.6996513671875,0.3027536972850561,-0.4458475784897804,0.029471593677997586
1790943552971681500,9.709681640625,0.1994260092794895,-0.33804975933283565,-0.09299451003968714
1790943552981712600,9.719712646484375,0.18179156838953495,-0.22513035937845705,-0.12757277920693158
1790943552991742700,9.72974267578125,0.22777356736361978,-0.19363427413552997,-0.0733064976207912
1790943553001772500,9.7397724609375,0.30063772804439065,-0.24623539898842572,0.052014264875650404
1790943553011802600,9.749802734375,0.4496528159916401,-0.32574235868453977,0.14903262360394
1790943553021832700,9.759832763671875,0.5903712002366781,-0.4124991433784365,0.21267069077789783
1790943553031862500,9.769862548828126,0.6833902601957321,-0.44591333720237014,0.2142711117118597
1790943553041892600,9.779892578125,0.7226303836941719,-0.46504356960803267,0.19630173977911472
1790943553051922400,9.78992236328125,0.6865349879622459,-0.3436047631114721,0.008625058873742819
1790943553061953500,9.79995361328125,0.6008645372003316,-0.06958733096718787,-0.21011822981610892
1790943553071983600,9.809983642578125,0.45190322526693344,0.07300853758752346,-0.27877748615294695
1790943553082013700,9.820013671875,0.3026256869912147,0.14562018481194972,-0.3374349884353578
1790943553092043500,9.83004345703125,0.1080722521841526,0.17609511031359434,-0.3794238261200487
1790943553102073600,9.840073486328125,-0.014114450070261955,0.22330811238735912,-0.3961481664277613
1790943553112103700,9.850103759765625,-0.06472586241066455,0.27503946866840123,-0.3468779395632446
1790943553122133500,9.860133544921876,-0.0668541066110134,0.2461947747170925,-0.3168275230839848
1790943553132164400,9.870164306640625,-0.07001344742476939,0.1669219160377979,-0.28859350837692616
1790943553142194400,9.8801943359375,-0.036299978393316265,0.20562311035394668,-0.3195972800582647
1790943553152224500,9.890224609375,0.005270633879303932,0.29819267297983165,-0.3933724181041121
1790943553162254600,9.900254638671875,0.05837970825433731,0.24552725071907042,-0.32330241818651556
1790943553172284700,9.91028466796875,0.09949673154056071,0.19285013802051543,-0.22888664317205548
1790943553182314800,9.920314697265624,0.16173428426682948,0.15122253486365078,-0.16844328038617967
1790943553192344600,9.930344482421875,0.1767348695218563,0.04379734841138124,-0.11038564369305967
1790943553202374700,9.940374755859375,0.1797457417756319,-0.0460822444781661,-0.04961962482407689
1790943553212405800,9.95040576171875,0.16672785477042198,-0.08557838856428861,0.009533844281733036
1790943553222435800,9.960435791015625,0.13393383867144584,-0.10924684892147779,0.027514175999909636
1790943553232465400,9.97046533203125,0.1415641874194145,-0.12071136900484561,0.04916647422909736
1790943553242495500,9.98049560546875,0.15772212601602076,-0.13613690167367457,0.09433496486321091
1790943553252525600,9.990525634765625,0.1840074908733368,-0.17643004135638474,0.11161343192234635
1790943553262555600,10.0005556640625,0.22919629364311694,-0.21562895606160162,0.15565774083212017
1790943553272585700,10.010585693359374,0.242081494179368,-0.1980541364043951,0.1958431823566556
1790943553282616600,10.020616455078125,0.23199615349471567,-0.17640432239323853,0.2305401094675064
1790943553292646700,10.030646728515626,0.21088614544868467,-0.13227116615623236,0.26528788998275993
1790943553302676700,10.0406767578125,0.1560439636707306,-0.0783244719132781,0.26304785597100855
1790943553312706800,10.050706787109375,0.11283961271643637,0.009082885643839836,0.2237576097205281
1790943553322736400,10.060736328125,0.07977262489497661,0.05221329457908869,0.17943229191228746
1790943553332766500,10.070766357421874,0.03206570182442665,0.07946253603249788,0.13362535724416374
1790943553342796500,10.080796630859375,-0.016810849547386167,0.1117494793921709,0.13115268352031706
1790943553352827600,10.09082763671875,-0.07620821041166782,0.12019260582774877,0.1254004036039114
1790943553362857500,10.100857421875,-0.13922668438255786,0.12597703444808722,0.11917217673882842
1790943553372887600,10.110887451171875,-0.1510842954367399,0.18267215061634778,0.13084814761579036
1790943553382917600,10.120917724609376,-0.1611754813402891,0.2403101005926728,0.13476575945094227
1790943553392947700,10.13094775390625,-0.1370557700842619,0.2595280112817883,0.1308849724948406
1790943553402977800,10.140977783203125,-0.09442074345052241,0.2617854348197579,0.11488967711403965
1790943553413007600,10.151007568359375,-0.032956513184309005,0.23845599715858695,0.08451470485553145
1790943553423038500,10.16103857421875,0.022207740154862404,0.15525778172910212,0.1024744321770966
1790943553433068500,10.171068603515625,0.04182897094786167,0.08497107032090424,0.06377031525149941
1790943553443098600,10.1810986328125,0.054330725124478334,0.0708417149424553,0.06312851021662354
1790943553453128200,10.191128173828124,0.08491232587099075,0.09427578202188014,0.036657413528859616
1790943553463158000,10.201157958984375,0.06831073516011238,0.0678194445118308,0.012841507524996996
1790943553473188000,10.21118798828125,0.04061082732975483,0.029451719933748243,0.039837504869699475
1790943553483218200,10.22121826171875,0.006844166806340217,0.02467354574650526,0.09666633042022585
1790943553493249300,10.231249267578125,0.013373860836029051,-0.0036620296388864514,0.15537190962806344
1790943553503279000,10.241279052734376,0.041756490233540534,-0.06252718332260847,0.21452815521284938
1790943553513309000,10.251308837890624,0.05608019914031028,-0.07908961106687784,0.2638803612723946
1790943553523339000,10.261339111328125,0.0848228940218687,-0.07154226442724466,0.3026592969998717
1790943553533369000,10.271369140625,0.09789689512848854,-0.10210837534368038,0.29333631898984314
1790943553543399200,10.281399169921874,0.11464110918045044,-0.236495803001523,0.3036129444628954
1790943553553430000,10.291429931640625,0.1264022741228342,-0.11764146004021167,0.20110256418958306
1790943553563460000,10.301460205078126,0.10567746600210666,-0.06343786842674017,0.17377952684760092
1790943553573490200,10.311490234375,0.10835866791009903,-0.12621435033529996,0.14681231720596552
1790943553583520300,10.321520263671875,0.0715600923448801,-0.1572147610157728,0.07808262598142027
1790943553593550000,10.331550048828126,0.07008008292019367,-0.2027723970979452,0.023634265826642513
1790943553603580000,10.341579833984374,0.07509586525559425,-0.20655513050705193,0.01635141534209251
1790943553613610000,10.35160986328125,0.052366731575131414,-0.19804975249022244,0.01884454733207822
1790943553623641000,10.36164111328125,0.03370528572499752,-0.17356413053125141,0.05194660646691918
1790943553633671200,10.371671142578125,0.022611644780635834,-0.10384849700927734,0.09176759859323501
1790943553643701000,10.381700927734375,-0.01274608432650566,-0.07522387554943562,0.05720847251787781
1790943553653731000,10.39173095703125,-0.029973113459348676,-0.06311959625780582,0.05141790641769767
1790943553663761200,10.40176123046875,-0.03006312983036041,-0.009597557167708872,0.011472703389823436
1790943553673791200,10.411791259765625,0.009895955592393875,0.04533960941731929,0.02311009582206607
1790943553683821300,10.4218212890625,0.051176645007729525,0.06256985342055559,0.044048692823946474
1790943553693852200,10.43185205078125,0.05979951192438602,0.02150456032156944,0.0319371070086956
1790943553703882000,10.441882080078125,0.08605681973099708,0.027416122452914714,0.020107406874746082
1790943553713912000,10.451912109375,0.11172492947280406,0.031820494891703126,0.013154665127396582
1790943553723942100,10.461942138671875,0.09578794015049934,0.02671440392434597,0.006690729810297489
1790943553733972000,10.471971923828125,0.07354805129170418,0.037384266498684884,0.026251754848659038
1790943553744002000,10.482001953125,0.028838556471467016,0.060001464237272734,0.0328531989403069
1790943553754033200,10.492033203125,0.008056465205550194,0.07844955959767103,-0.00818316032513976
1790943553764063200,10.502063232421875,0.010225041416287422,0.10984423029273747,-0.03137479695081711
1790943553774093000,10.512093017578126,0.038725159713625903,0.1211325170263648,-0.057630643452703946
1790943553784123100,10.522123046875,0.061792147046327586,0.12243453953564166,-0.042571606008708476
1790943553794153200,10.5321533203125,0.10868424660265445,0.10850187577307224,-0.05294540824592113
1790943553804183000,10.54218310546875,0.1482137084364891,0.06443623181432485,-0.07404898655116558
1790943553814214000,10.5522138671875,0.16876842068731784,0.0587003185108304,-0.07452960967496038
1790943553824244000,10.562243896484375,0.13618015629351138,0.024605448946356773,-0.09143427498564123
1790943553834274000,10.572274169921876,0.1816319939136505,-0.00367079746723175,-0.0698980043515563
1790943553844304100,10.58230419921875,0.16671031911373138,-0.08750847984403372,-0.06959098422899841
1790943553854334200,10.592334228515625,0.1564233183771372,-0.1293234222665429,-0.034359365719556806
1790943553864364000,10.602364013671876,0.1424964998334646,-0.09489888235628605,-0.015307751508057117
1790943553874395100,10.61239501953125,0.10742226384282111,-0.05942687921971082,-0.012707505881786346
1790943553884425200,10.62242529296875,0.08851999497413635,-0.015695289520919323,-0.027411154016852377
1790943553894455300,10.632455322265624,0.05370820931196212,0.04220394174009561,0.012221475930511951
1790943553904484900,10.64248486328125,0.033520576807856556,0.1045104680493474,0.05168284096419811
1790943553914515000,10.652514892578125,0.03992576767504215,0.09831716636717319,0.05586743317246437
1790943553924545000,10.662544921875,0.03652852645218372,0.08161708371788264,0.0415652054451406
1790943553934576000,10.672576171875,0.017580080354213712,0.09245295050889253,0.011309475652128457
1790943553944606000,10.68260595703125,0.007855974197387695,0.08086948022097348,-0.015619886197149753
1790943553954636000,10.692635986328124,0.012394202148914336,0.07486234876066446,-0.013599047894030809
1790943553964666000,10.702666015625,0.03685702775418758,0.06126695412844419,-0.03700169692188501
1790943553974696200,10.7126962890625,0.07007073056995869,0.0348866044640541,-0.020641806012392044
1790943553984726300,10.722726318359374,0.09194353968203067,0.027037936790287494,-0.044826253067702056
1790943553994757000,10.732757080078125,0.12236615047454834,0.008909574903547763,-0.04828720717653632
1790943554004787200,10.742787109375,0.1326063894599676,-0.015073942752182483,-0.0758449300572276
1790943554014817000,10.752817138671874,0.1321796884804964,-0.02646773568689823,-0.09235241274386644
1790943554024847000,10.76284716796875,0.13128069381415844,-0.032494448630511756,-0.09172405171245336
1790943554034877200,10.772877197265625,0.14186463167071342,-0.02017185041308403,-0.0951949426934123
1790943554044907000,10.782906982421874,0.16047347055077552,-0.022118308305740356,-0.08071078252792357
1790943554054938000,10.792938232421875,0.1538122590959072,0.0011532616883516312,-0.07006093982830643
1790943554064968200,10.80296826171875,0.12258242357373236,0.02106938377469778,-0.08437412734106182
1790943554074998000,10.812998046875,0.08450549863576888,0.00608545739352703,-0.09579290858656167
1790943554085028000,10.823028076171875,0.07209376083016396,-0.02304272967427969,-0.10236673401892185
1790943554095058200,10.83305810546875,0.06997779158949852,-0.03737286832183599,-0.06085194358676672
1790943554105088000,10.843087890625,0.05235504113733768,-0.10700608425736427,-0.02781067472845316
1790943554115119000,10.853119140625,0.06118716689050197,-0.14354717793017624,0.011920739418268203
1790943554125149000,10.86314892578125,0.04976385560035705,-0.15908055488765238,0.07033245024606585
1790943554135179000,10.873178955078124,0.04806406594514846,-0.16874270172417163,0.11733867770135402
1790943554145209000,10.883208984375,0.04403144942820072,-0.18422201040685177,0.18167510240301488
1790943554155239200,10.8932392578125,0.056305824589729304,-0.16955080323666333,0.20261063066497445
1790943554165270000,10.90327001953125,0.03879764042794704,-0.1544993645772338,0.21119798787683247
1790943554175300000,10.913300048828125,0.056068508702516555,-0.14094751682579518,0.2135245311282575
1790943554185330200,10.923330078125,0.04565817384719848,-0.10812953532934189,0.21599778937399386
1790943554195360300,10.9333603515625,0.03115501672029495,-0.05734627355337143,0.2142306335709989
1790943554205390300,10.943390380859375,-0.002703413739800453,-0.020497136844694612,0.18665829764306544
1790943554215420000,10.953419921875,-0.005722469300031662,0.03965893343240023,0.15221213042289017
1790943554225451000,10.963450927734375,-0.0037187282621860504,0.08836538893431424,0.1161078207321465
1790943554235481000,10.973481201171875,-0.015002923342585562,0.12145692667514085,0.09834536954835056
1790943554245511200,10.98351123046875,-0.041622634720802305,0.1847068713143468,0.06198679283559322
1790943554255541000,10.993541015625,-0.008901099336147307,0.17034283039718864,0.03177665574997663
1790943554265571000,11.003571044921875,0.021031682112812995,0.09466653490513563,0.03891381415352225
1790943554275601200,11.01360107421875,0.05241875402331352,0.07729542112648487,0.005449497577548027
1790943554285632300,11.02363232421875,0.04689677573144436,0.0805786805808544,-0.02322320080772042
1790943554295662000,11.033662109375,0.029078794968128204,0.113679570671916,-0.045747897957265374
1790943554305692200,11.043692138671876,0.01853869625329971,0.1256271980971098,-0.04252104486525059
1790943554315722000,11.053721923828125,0.01087912141084671,0.14550766434818505,-0.0375477864973247
1790943554325752000,11.063751953125,0.030272973188757896,0.16915186704695223,-0.03684694475159049
1790943554335783000,11.073782958984374,0.06236147136688232,0.16451047098189592,-0.050062400155514476
1790943554345813000,11.08381298828125,0.08201368182003498,0.14348492634892462,-0.06372589158788323
1790943554355843000,11.093843017578125,0.1085427923053503,0.10576251393705606,-0.05815057567358017
1790943554365873200,11.103873046875,0.12007131753563881,0.06013327392339706,-0.09790990074053406
1790943554375903200,11.1139033203125,0.13726619796454906,0.020894903990626334,-0.10307765876725315
1790943554385933000,11.12393310546875,0.15076923813819884,0.007149579493701458,-0.09823737912923097
1790943554395964200,11.133964111328124,0.14727029010653495,-0.00003828618377447128,-0.05322612488344312
1790943554405994200,11.143994140625,0.1429021580249071,-0.04052022643685341,-0.04133139668926596
1790943554416024300,11.1540244140625,0.15120879859924316,-0.06025923839062452,-0.003895107742398977
1790943554426054000,11.164053955078124,0.11771569432020186,-0.11363047083318233,-0.016841683077067137
1790943554436084000,11.174083984375,0.11244915209412575,-0.1338479139536619,-0.0071093936137855045
1790943554446115600,11.184115478515626,0.12901157983839512,-0.1326537357330322,0.009756108730286359
1790943554456145400,11.1941455078125,0.10194704730212688,-0.13992927969396113,-0.02394932312518358
1790943554466175500,11.204175537109375,0.12219430103898048,-0.1419713069155812,0.013246581194549798
1790943554476205600,11.21420556640625,0.13564064258933067,-0.10709960775971412,0.02222176868021488
1790943554486235600,11.224235595703124,0.11377835487127304,-0.08127543067336082,0.034657179622352124
1790943554496265500,11.234265380859375,0.06525193211138249,-0.0610530191168189,0.04059899076148867
1790943554506296300,11.24429638671875,0.07167232054769992,-0.06910539266914129,0.03951382587328553
1790943554516326400,11.254326416015624,0.05546294402480125,-0.06945055284500122,0.046453415878117084
1790943554526356500,11.2643564453125,0.02286006658375263,-0.041110301284492015,0.033075609519332645
1790943554536386600,11.274386474609376,-0.014734043273329734,-0.026035481749475002,0.019070026651024818
1790943554546416600,11.284416748046874,-0.031330957809090614,-0.0036170214533805846,0.02236556106507778
1790943554556447500,11.294447509765625,-0.022363807499408722,0.018796762667596337,0.02065203514546156
1790943554566477600,11.3044775390625,-0.0011176058530807495,0.003982055373489856,0.05858677513375878
1790943554576507600,11.314507568359375,0.05529343267679214,-0.006780161659419536,0.06639964084178208
1790943554586537500,11.324537353515625,0.05988485212028026,0.00006225158125162124,0.0555469690464437
1790943554596567600,11.334567626953126,0.05961421848535537,0.016539046868681906,0.055831631206721063
1790943554606598700,11.3445986328125,0.06760755532681942,0.04215396511852741,0.04387070590853691
1790943554616628500,11.35462841796875,0.04189852905273437,0.06960223627537489,0.02734393399953842
1790943554626658600,11.364658447265626,0.030083588096499442,0.07694792286306619,0.02411371990665793
1790943554636688400,11.3746884765625,0.01106558389365673,0.08655424785912036,0.057715691387653346
1790943554646718500,11.384718505859375,0.02530921330153942,0.10400894826799631,0.05722498526126146
1790943554656749600,11.39474951171875,0.033602994394302366,0.10221095893532037,0.03371843746751547
1790943554666779400,11.404779296875,0.03031681233048439,0.11302227580696343,0.03432327149286866
1790943554676809500,11.4148095703125,0.04743395134806633,0.10739859070628881,-0.003041705783456564
1790943554686839600,11.424839599609374,0.11839315519034861,0.025908932760357856,0.005438830053061247
1790943554696869600,11.43486962890625,0.14759294618964194,-0.043755555096268654,0.034099399609118695
1790943554706900500,11.444900390625,0.15538228489160535,-0.059196577595174306,0.023493688312172887
1790943554716930600,11.4549306640625,0.1671539712280035,-0.014595803846418856,0.024686112967133522
1790943554726960400,11.46496044921875,0.1649625986635685,-0.005517594377696514,-0.014162234734743833
1790943554736990500,11.474990478515625,0.10813362698256969,0.006405483128130436,-0.03151303637772798
1790943554747020500,11.4850205078125,0.06390110202431679,0.039807401992380614,-0.0037939854554831978
1790943554757051400,11.495051513671875,0.046581718432903284,0.06048077218681574,0.008140051835775375
1790943554767081500,11.50508154296875,0.013888240098953246,0.05996113222688436,0.026440409288555382
1790943554777111600,11.515111572265624,0.02291501164138317,0.04128565785139799,0.047968204355239866
1790943554787141600,11.5251416015625,0.013116086682677268,0.02460954059958458,0.0764646693907678
1790943554797171700,11.535171630859375,0.002483048987388611,0.04207388561964035,0.07511252412945031
1790943554807202600,11.54520263671875,0.018287936362624168,0.04455371973663568,0.06329013051912188
1790943554817232600,11.555232666015625,0.024690204620361325,0.0647302463248372,0.04313581576272845
1790943554827262500,11.565262451171876,0.04028875576853752,0.0710065501153469,0.02844926489293575
1790943554837292500,11.57529248046875,0.07234802785217762,0.07151712998598814,0.00046864042505621905
1790943554847322400,11.585322265625,0.11687807445228099,0.07524228798896074,-0.004290682931244373
1790943554857353500,11.595353515625,0.12962357425689697,0.040110184331238266,-0.04593187622204423
1790943554867383600,11.605383544921875,0.13780921880006788,-0.004313771545886993,-0.05408727175742387
1790943554877413600,11.61541357421875,0.1346188983261585,-0.031328619721531864,-0.05498728933706879
1790943554887443500,11.625443359375,0.13121288927495478,-0.05350947186946869,-0.020061375775933265
1790943554897473500,11.6354736328125,0.1352951901525259,-0.06687982557415961,0.015182371562719343
1790943554907504600,11.645504638671875,0.10202478871345519,-0.08362491640895604,0.03839548936784267
1790943554917534500,11.655534423828126,0.08725041342973709,-0.09413900389969349,0.07875292645841836
1790943554927564500,11.665564453125,0.08966624239981173,-0.08217471760064363,0.11040288708880543
1790943554937594400,11.675594482421875,0.07730301991105079,-0.07281067692786455,0.11687734379991889
1790943554947624400,11.68562451171875,0.06776771432459354,-0.07158347322046757,0.14229907756522298
1790943554957655600,11.695655517578125,0.05746025532186031,-0.07686608979851008,0.15614786243662238
1790943554967685400,11.705685302734375,0.03682780165970325,-0.06277969677895308,0.17265432220995425
1790943554977715500,11.715715576171876,-0.0005471124887466431,-0.04879442604631185,0.14483867904543876
1790943554987745500,11.72574560546875,-0.012565467062592506,-0.02986410012692213,0.12504121490269898
1790943554997775600,11.735775634765625,-0.030095278534293172,0.008828326360881327,0.10630991868674755
1790943555007806500,11.745806396484374,-0.03093231388032436,0.007719488336145878,0.10832681146711111
1790943555017836500,11.75583642578125,-0.015602058279514311,0.0032119477838277815,0.07740604189410805
1790943555027866600,11.76586669921875,-0.015543021568655967,-0.013329729433357715,0.05953077798560261
1790943555037896400,11.775896484375,0.008937924215197563,-0.021590777300298212,0.056819034808874125
1790943555047926500,11.785926513671875,0.011308744999766349,-0.031073475916683673,0.05037321967035532
1790943555057957400,11.795957275390625,-0.004517769685387611,-0.016265490624308584,0.036187165668606754
1790943555067987500,11.805987548828124,0.007665420061349868,-0.026834523172676563,0.04717120875865221
1790943555078017500,11.816017578125,0.0503238275706768,-0.03345627939999103,0.06423983245939016
1790943555088047600,11.826047607421875,0.06417758087813853,-0.020661679756641387,0.06339432154595852
1790943555098078500,11.836078369140624,0.08627250830829143,-0.02139700829386711,0.06284647840484976
1790943555108108500,11.846108642578125,0.10285831692814826,-0.004418108703196049,0.030462212150543927
1790943555118138600,11.856138671875,0.10897066232860088,-0.03472732224911451,-0.008883271418511867
1790943555128168700,11.866168701171874,0.13770283581614493,-0.10620996544361114,0.005477700758725405
1790943555138198500,11.876198486328125,0.15411270334720611,-0.10104016159027815,0.01206774667352438
1790943555148229600,11.886229736328126,0.11646423295438289,-0.06809387753903866,-0.008091244257986544
1790943555158259700,11.896259765625,0.055037996610999104,-0.03060731970965862,-0.035034196241199966
1790943555168289500,11.90628955078125,0.042886955568194385,-0.03172843269407749,-0.06149272570833563
1790943555178319400,11.9163193359375,-0.0030780922710895537,0.026817279776930807,-0.02498582656607032
1790943555188349400,11.926349365234374,-0.02605330966711044,0.06896013897955418,-0.007362783852964639
1790943555198380500,11.936380615234375,-0.02657879484593868,0.05853256072849035,-0.01061287169009447
1790943555208410600,11.94641064453125,-0.008185060021281242,0.05889233395159244,-0.0023828034833073613
1790943555218440400,11.9564404296875,0.011437924337387084,0.02598579738885164,-0.02261135251969099
1790943555228470500,11.966470458984375,0.015853402692079542,0.012279343597590923,-0.03412818731218576
1790943555238501600,11.976501708984374,0.045395723518729204,0.0207177938580513,-0.03586524023786187
1790943555248531500,11.986531494140625,0.06760287915170192,0.020015783068537712,-0.02981178541779518
1790943555258561500,11.9965615234375,0.08256839309334754,0.01465367151349783,-0.059473933231830596
1790943555268591400,12.00659130859375,0.0848141261935234,-0.006189794550836086,-0.06922171252518892
1790943555278621400,12.016621337890625,0.09448211824893951,-0.011297346822917461,-0.07146525366827845
1790943555288652500,12.026652587890625,0.10830138476490973,-0.03659603873044252,-0.08019158095940947
1790943555298682400,12.036682373046874,0.10798866555392742,-0.06782733555734158,-0.0877541251681745
1790943555308712400,12.04671240234375,0.12206453717947005,-0.100693540109694,-0.07391849203929304
1790943555318742500,12.056742431640625,0.1349596745878458,-0.10169278028011322,-0.0810289085663855
1790943555328772600,12.066772705078124,0.13395195885002611,-0.08653817350715398,-0.06401800640225411
1790943555338803500,12.076803466796875,0.12843056508004663,-0.06331833370029925,-0.061468906441330906
1790943555348833500,12.08683349609375,0.11809154189527034,-0.05521861387491226,-0.0598797375537455
1790943555358863600,12.096863525390624,0.1090180086016655,-0.013694471092522144,-0.06110153443366289
1790943555368893700,12.106893798828125,0.10410042594373226,0.016153262421488762,-0.0689224373176694
1790943555378924500,12.116924560546876,0.08157938205599784,0.03402881859093904,-0.08731485696807503
1790943555388954400,12.126954345703124,0.09439385544359684,0.02731120077371597,-0.08850494353547692
1790943555398984400,12.136984375,0.09992343252003193,0.006536123770475387,-0.07810454555228352
1790943555409014500,12.1470146484375,0.09480594337582587,0.0031838907331228255,-0.052081338762491936
1790943555419044600,12.157044677734374,0.08539572547376155,-0.0027981062859296795,-0.03220657159984112
1790943555429075500,12.167075439453125,0.08406886078417301,-0.036981530916690826,-0.021228081467747687
1790943555439105500,12.17710546875,0.04092822271585464,-0.05880991636514663,-0.0045043256819248196
1790943555449136000,12.18713623046875,0.04759294130206108,-0.09405395596474408,-0.001419219148159027
1790943555459166000,12.197166015625,0.04608721291422844,-0.08864157552719115,0.020616087049245835
1790943555469197000,12.207197021484374,0.02841828523278236,-0.06984305929392576,0.028277999979257583
1790943555479227100,12.21722705078125,0.032092589831352235,-0.06418196479231118,0.041107963196933266
1790943555489257200,12.22725732421875,0.024327801048755645,-0.046021454201638695,0.025861878748238084
1790943555499287000,12.237287109375,0.023847324055433272,-0.017184359034895895,0.0013749416150152683
1790943555509318100,12.247318115234375,0.05650690011978149,0.025348668529093264,-0.0276597219504416
1790943555519348200,12.25734814453125,0.07216799511015415,0.04055500548928976,-0.037787002080678936
1790943555529378000,12.2673779296875,0.08240355792045592,0.03326338717639446,-0.026805004817247388
1790943555539408100,12.277408203125,0.09754325938522815,0.0382134107992053,-0.031006986551731824
1790943555549438000,12.28743798828125,0.11587737297713756,0.02013122614175081,-0.02200710301622748
1790943555559469000,12.297468994140624,0.15642916359603404,-0.06676379797905684,0.013682050002366303
1790943555569499100,12.3074990234375,0.163549809256196,-0.0856619751945138,0.027398440665751693
1790943555579529000,12.317529052734375,0.1373299108505249,-0.04721650920510292,0.01749444789737463
1790943555589559000,12.32755908203125,0.09588789339363575,0.007768880435824394,0.012754706024378537
1790943555599590100,12.337590087890625,0.05985153437256813,0.017814181371033192,-0.0031967502146959302
1790943555609620000,12.347619873046876,0.04014320981800556,0.052445057508349414,0.02335354918912053
