time,seconds_elapsed,z,y,x
1790943543313411800,0.051411865234375,8.516845167261362,4.825656069386005,-0.5888736551553011
1790943543323442000,0.06144189453125,8.514355104011297,4.830580081784725,-0.5845032580513507
1790943543333471700,0.0714716796875,8.512163731446861,4.834994098834693,-0.57990610298682
1790943543343501800,0.081501708984375,8.509138246145843,4.840474283811449,-0.5785830742221325
1790943543353532000,0.091531982421875,8.506065414571761,4.84595709913671,-0.5778657562656327
1790943543363562000,0.10156201171875,8.505108552238344,4.848176236490905,-0.5733210985733196
1790943543373591800,0.111591796875,8.507067869612573,4.845839610236883,-0.5639320695897564
1790943543383622000,0.121621826171875,8.511053139856458,4.840594695320725,-0.5486394060529768
1790943543393652000,0.13165185546875,8.516211545532942,4.833699967370927,-0.529022486108914
1790943543403682000,0.14168212890625,8.522272453007101,4.825148412124812,-0.5091135609483346
1790943543413712000,0.1517119140625,8.528842479047178,4.815302725414932,-0.49202612294927234
1790943543423741700,0.16174169921875,8.53510738466084,4.805692016504705,-0.47712698877472426
1790943543433771800,0.171771728515625,8.540773155337572,4.79709399176836,-0.46202349113449453
1790943543443802400,0.18180224609375,8.546119777062534,4.7890857496187085,-0.44595527664795515
1790943543453832400,0.19183251953125,8.551172384276986,4.781479950790107,-0.4304391430862248
1790943543463862500,0.201862548828125,8.555651575517654,4.7745782085776325,-0.41787440667599435
1790943543473892400,0.211892333984375,8.559244047051667,4.768968552002311,-0.4082478791421279
1790943543483922400,0.22192236328125,8.561206871557236,4.765889290687442,-0.40301246270667757
1790943543493952500,0.231952392578125,8.559197869822382,4.769075227247178,-0.40796847767885774
1790943543503982600,0.241982666015625,8.55497060751617,4.775840483598411,-0.41738709808308627
1790943543514012700,0.2520126953125,8.551975517353416,4.77998240570873,-0.43112011108770965
1790943543524042200,0.262042236328125,8.554000885701178,4.77414361655265,-0.45498449587579815
1790943543534072300,0.272072265625,8.56136469246745,4.757609830380976,-0.488430655740574
1790943543544102400,0.282102294921875,8.571692609736322,4.734379469180107,-0.531144556296803
1790943543554132500,0.292132568359375,8.582835350519419,4.706868654181063,-0.5922095215797424
1790943543564162600,0.30216259765625,8.592688051491976,4.6783755501464,-0.6700017863124609
1790943543574192600,0.312192626953125,8.59967425711751,4.65212671790719,-0.7574290176138282
1790943543584222500,0.322222412109375,8.606445358687639,4.624240055333078,-0.8461024495840073
1790943543594252500,0.33225244140625,8.61701994419396,4.588825919863582,-0.9273743731260299
1790943543604282400,0.342282470703125,8.634552093753218,4.54105674521178,-0.9968418040405959
1790943543614312400,0.3523125,8.658096050947904,4.481232683368027,-1.0612803008772431
1790943543624342500,0.362342529296875,8.684374986064434,4.412272836649418,-1.1330775629788636
1790943543634372400,0.372372314453125,8.708280177786946,4.340415807184577,-1.2235327637992799
1790943543644402400,0.38240234375,8.72196149713695,4.276145871847867,-1.3462363295346498
1790943543654432500,0.3924326171875,8.718009544640779,4.233036505700648,-1.4993660131938755
1790943543664462600,0.402462646484375,8.697145035788417,4.212711510552466,-1.668265659045428
1790943543674492400,0.412492431640625,8.664396027874947,4.208367928390205,-1.8407231435090303
1790943543684522500,0.4225224609375,8.622243231800198,4.214841216057539,-2.01554531127736
1790943543694552300,0.43255224609375,8.572155551072955,4.227614480651915,-2.1944943497173486
1790943543704582400,0.44258251953125,8.513719144195317,4.247035220436752,-2.376902150309086
1790943543714613500,0.452613525390625,8.443426295307278,4.278995123799145,-2.563032916946709
1790943543724643600,0.4626435546875,8.354939618080854,4.33120637255162,-2.7579022858351467
1790943543734672600,0.472672607421875,8.24276636031866,4.41086150854677,-2.9616710004940625
1790943543744703500,0.482703369140625,8.105715266409517,4.518478125917912,-3.1703505758091803
1790943543754733600,0.492733642578125,7.951342450821399,4.643088840448856,-3.3746494518220422
1790943543764763400,0.502763427734375,7.797949293920397,4.765580663129687,-3.556910099028051
1790943543774793500,0.51279345703125,7.666309703665971,4.855186407513917,-3.7182314185798164
1790943543784823300,0.5228232421875,7.590853188404441,4.876504213091731,-3.8430510996863245
1790943543794853400,0.532853271484375,7.57373312677741,4.8271261419385665,-3.937995867010951
1790943543804883500,0.542883544921875,7.5835490028709165,4.707141041381657,-4.062387385833263
1790943543814913500,0.55291357421875,7.570529946821927,4.522151261472702,-4.2904084982171655
1790943543824943600,0.562943603515625,7.532598567834496,4.268746116985381,-4.605229942175746
1790943543834973700,0.5729736328125,7.5259455396860835,3.980566596236825,-4.866787413458526
1790943543845003300,0.583003173828125,7.62020904674828,3.6727570768669247,-4.96121429438889
1790943543855033300,0.593033447265625,7.739036501702666,3.320046631757915,-5.025433960843086
1790943543865063400,0.6030634765625,7.850046560904383,2.922670823231339,-5.0995244484484195
1790943543875093500,0.613093505859375,7.963587599888443,2.511081780435145,-5.142579746320844
1790943543885123600,0.62312353515625,8.045185686644912,2.1225651317991314,-5.190384284546971
1790943543895153400,0.6331533203125,8.088668270018696,1.7739916403643785,-5.253263642308116
1790943543905183500,0.64318359375,8.10080294444859,1.4563669755533337,-5.331638090842962
1790943543915213600,0.653213623046875,8.092619637992978,1.1503184014413506,-5.41817831017673
1790943543925243400,0.663243408203125,8.070095671495794,0.8334929241839796,-5.509013011834025
1790943543935273500,0.6732734375,8.025768453991413,0.49156782125514,-5.61389143641293
1790943543945303600,0.683303466796875,7.969634478837251,0.11841006979253142,-5.713255481484532
1790943543955333400,0.69333349609375,7.898772890150546,-0.28499031451949847,-5.805045876431465
1790943543965363500,0.703363525390625,7.782425561574101,-0.695410733661428,-5.926266948524117
1790943543975393500,0.7133935546875,7.64089235381484,-1.109395731683448,-6.046188043934107
1790943543985423600,0.723423583984375,7.496956176567077,-1.5227173704259096,-6.135744980740546
1790943543995453400,0.733453369140625,7.339131759220361,-1.908269470167905,-6.2182028991967435
1790943544005483300,0.743483154296875,7.170659106609225,-2.2527160909309982,-6.298992007657885
1790943544015513300,0.753513427734375,6.996558677244186,-2.5562904569491742,-6.37839579924047
1790943544025543400,0.76354345703125,6.820201408863067,-2.8182059478893873,-6.458557131192088
1790943544035573500,0.773573486328125,6.6453580521762365,-3.0432252481088042,-6.538224542146921
1790943544045603600,0.783603515625,6.471269313248992,-3.2441637077778576,-6.61577306125164
1790943544055633700,0.793633544921875,6.290585413840413,-3.4212536743476987,-6.70029434197843
1790943544065663500,0.80366357421875,6.099811497572064,-3.578029167163372,-6.794144007542729
1790943544075693300,0.813693359375,5.900700545591116,-3.720334236077964,-6.89283877505064
1790943544085723400,0.823723388671875,5.690590645211935,-3.8527866040199994,-6.995969479179382
1790943544095753500,0.83375341796875,5.457789020553231,-3.9714138602271674,-7.114125318482518
1790943544105783600,0.843783447265625,5.204875166714191,-4.067525040982663,-7.248096566554904
1790943544115813400,0.8538134765625,4.950988668450713,-4.134097700303792,-7.386970199716091
1790943544125843500,0.863843505859375,4.704452240689099,-4.168812747593224,-7.527252530631422
1790943544135873500,0.87387353515625,4.45985321073085,-4.177663870307803,-7.669891653805971
1790943544145903600,0.883903564453125,4.213889906682073,-4.168010199038684,-7.812888504377007
1790943544155933400,0.893933349609375,3.97562417139858,-4.146724542164803,-7.947922413244843
1790943544165963500,0.903963623046875,3.752456052003801,-4.117906443959474,-8.07045865958929
1790943544175993300,0.913993408203125,3.53969709842056,-4.079530243813991,-8.185253498026729
1790943544186023400,0.9240234375,3.3748297768250106,-4.0466406583860515,-8.270769635009765
1790943544196053500,0.934053466796875,3.2815514814078806,-4.029702383066714,-8.316447682601213
1790943544206083600,0.94408349609375,3.1723221681430935,-4.056257212515175,-8.345869591918587
1790943544216113700,0.95411376953125,2.9684476550221444,-4.19705626078099,-8.3512530385226
1790943544226143500,0.9641435546875,2.6754733012124894,-4.359422997732461,-8.367058510419726
1790943544236173300,0.97417333984375,2.424136487431824,-4.508485431952774,-8.364658463540673
1790943544246203400,0.984203369140625,2.3042482713781296,-4.613947793899476,-8.341003447186946
1790943544256233500,0.9942333984375,2.272828904633224,-4.657171141815185,-8.325586097824573
1790943544266262500,1.004262451171875,2.1985084076642987,-4.696293776413798,-8.323565990173817
1790943544276292600,1.014292724609375,2.0741196653209624,-4.790768003617226,-8.301624207478762
1790943544286323500,1.024323486328125,1.9447515271298585,-4.934036949127912,-8.248854740321637
1790943544296352500,1.0343525390625,1.8423010603502392,-5.102444135287404,-8.169539211544395
1790943544306382300,1.04438232421875,1.7705755483105778,-5.293408021169901,-8.06320532746017
1790943544316412400,1.054412353515625,1.7236111141704022,-5.520685913971066,-7.919697020235657
1790943544326442500,1.0644423828125,1.7073203429743646,-5.790857776603103,-7.727962734502554
1790943544336472600,1.07447265625,1.7346911649808288,-6.0897097902745,-7.488436185503006
1790943544346502700,1.084502685546875,1.8234595817580819,-6.371240082266926,-7.228601007968187
1790943544356532500,1.094532470703125,1.9676823208622634,-6.581840981033444,-6.998426224681735
1790943544366562300,1.104562255859375,2.1375246543914077,-6.714820295459032,-6.820012023770809
1790943544376592400,1.11459228515625,2.3147939230509103,-6.869222921663522,-6.604990385952592
1790943544386622500,1.12462255859375,2.479111355678737,-7.037690898099541,-6.363592782384157
1790943544396652500,1.134652587890625,2.615396725912392,-7.17939595529437,-6.147060740002989
1790943544406682400,1.144682373046875,2.7284122797176242,-7.309236387172341,-5.941483806878328
1790943544416712400,1.15471240234375,2.867088344480097,-7.428947639223932,-5.7237166697442525
1790943544426742500,1.164742431640625,3.001912117728591,-7.517359497648477,-5.53608455863297
1790943544436772600,1.174772705078125,3.072397566579282,-7.589599388951063,-5.39710454248786
1790943544446802000,1.184802001953125,3.1370103240042924,-7.652617862921953,-5.269437947517633
1790943544456832000,1.19483203125,3.264324160014093,-7.687076012840866,-5.140373760709166
1790943544466862000,1.204862060546875,3.461242862647772,-7.682690929624438,-5.016615279093385
1790943544476891600,1.2148916015625,3.651713119794428,-7.660895277401805,-4.913865098714828
1790943544486921700,1.224921630859375,3.7430373585343357,-7.6766019650995725,-4.819734570382535
1790943544496951800,1.234951904296875,3.767103586037457,-7.7147040244787926,-4.739477961362898
1790943544506982000,1.24498193359375,3.770691381396353,-7.7438693286865945,-4.688790561176837
1790943544517012000,1.255011962890625,3.793086168555915,-7.751966710424423,-4.657241284441947
1790943544527041800,1.265041748046875,3.837214356356859,-7.747550647547841,-4.628351874566078
1790943544537071900,1.27507177734375,3.865510768775642,-7.748081393423676,-4.60385076277703
1790943544547101700,1.285101806640625,3.8690100090682504,-7.762661122918129,-4.576269220629334
1790943544557131800,1.2951318359375,3.8777962498530743,-7.784033581292629,-4.532316097134352
1790943544567161900,1.305161865234375,3.894911927565932,-7.803779315248131,-4.483424055932462
1790943544577192000,1.31519189453125,3.9545074413508177,-7.820034869000315,-4.402193341183662
1790943544587221800,1.3252216796875,4.068903343598544,-7.839068655294179,-4.261854311645031
1790943544597251800,1.335251953125,4.17494584352076,-7.866959701782465,-4.105017151769996
1790943544607282000,1.345281982421875,4.220714784266054,-7.908675860005617,-3.9760274915024634
1790943544617312000,1.35531201171875,4.221772476625442,-7.949261552894115,-3.8931054626658557
1790943544627341800,1.365341796875,4.211268326006829,-7.9724033590286965,-3.8569910699725147
1790943544637372000,1.375371826171875,4.194083966971934,-7.991468709504604,-3.8362063483580946
1790943544647401700,1.385401611328125,4.159153815627098,-8.016030903831124,-3.8229663430348038
1790943544657431800,1.395431884765625,4.125384524755179,-8.03413003962338,-3.821561444672942
1790943544667462000,1.4054619140625,4.1001512992992994,-8.050719939896464,-3.813795194585621
1790943544677492000,1.415491943359375,4.075219102616608,-8.066247179374098,-3.807708568148315
1790943544687522000,1.42552197265625,4.0512154189556835,-8.077547156545519,-3.809364810922742
1790943544697551600,1.435551513671875,4.029341733060777,-8.084268573755025,-3.818297766701877
1790943544707581700,1.445581787109375,4.022477107988298,-8.078804463130234,-3.837052151532471
1790943544717611800,1.45561181640625,4.060964075031876,-8.048109465137124,-3.860942730207741
1790943544727641900,1.465641845703125,4.1605630979031325,-7.981102798312902,-3.8938539429455994
1790943544737672000,1.475671875,4.235585605661571,-7.936486826995015,-3.9041485424667592
1790943544747701800,1.48570166015625,4.212211452075839,-7.949937260198593,-3.902071736192703
1790943544757731800,1.49573193359375,4.149663518226147,-7.977943457499146,-3.9119159615978596
1790943544767762000,1.505761962890625,4.093809529057145,-7.980383251866698,-3.9654233876407146
1790943544777791700,1.515791748046875,4.062995288598537,-7.94373139129579,-4.069345534408092
1790943544787821800,1.52582177734375,4.079816659539937,-7.875708825427293,-4.183143763023614
1790943544797852000,1.535851806640625,4.133839926150441,-7.799568419554829,-4.27182479377836
1790943544807881700,1.5458818359375,4.213106062828004,-7.73199768910706,-4.3169837859317655
1790943544817911800,1.555911865234375,4.294911947116256,-7.701171758210658,-4.2913948789060115
1790943544827942000,1.56594189453125,4.354258454576135,-7.737687425181269,-4.164011777052283
1790943544837972000,1.575971923828125,4.3624449759021395,-7.8155720443725585,-4.007032578358054
1790943544848002000,1.586001953125,4.335912650546431,-7.891896574640273,-3.884356046760082
1790943544858031900,1.596031982421875,4.3307641817420715,-7.930579064255952,-3.8106165645495054
1790943544868061700,1.606061767578125,4.44000138605237,-7.9109274383246895,-3.7247833244413133
1790943544878091800,1.616091796875,4.612435928031802,-7.89000038563013,-3.55580155326426
1790943544888121900,1.626121826171875,4.735291907849907,-7.940888861346244,-3.269508284653723
1790943544898152000,1.63615185546875,4.717773494555056,-8.076103387477993,-2.9478055567488073
1790943544908182000,1.64618212890625,4.594170203500986,-8.247489297187327,-2.65384745259881
1790943544918211800,1.6562119140625,4.418007873170078,-8.427078387096524,-2.3740109589122236
1790943544928241700,1.66624169921875,4.253822104097902,-8.586889594346284,-2.0834327064588667
1790943544938271700,1.676271728515625,4.118360909728706,-8.726799000295996,-1.747128329488635
1790943544948301800,1.6863017578125,4.022258496801555,-8.836616050320863,-1.3805936494275928
1790943544958332000,1.696331787109375,3.9593247785046692,-8.916230854305624,-0.9974825861621648
1790943544968361700,1.70636181640625,3.9199247882694004,-8.966529547435044,-0.6371164386682212
1790943544978391800,1.716391845703125,3.9143800136238336,-8.985080518648028,-0.34109745646566153
1790943544988422000,1.726421875,3.9248800725892186,-8.986749328643082,-0.06358825038259383
1790943544998452000,1.736451904296875,3.939509778705239,-8.978158025908469,0.2081609582684934
1790943545008481800,1.746481689453125,3.969439053022861,-8.956082387700677,0.4500141601173207
1790943545018512000,1.756511962890625,4.0224595723316074,-8.921004644578694,0.6371000720553099
1790943545028541700,1.766541748046875,4.093841677761078,-8.879373242029548,0.7533690016333013
1790943545038571800,1.77657177734375,4.139119035597146,-8.855126105001569,0.7904505588583648
1790943545048601900,1.786601806640625,4.120709226420521,-8.86452170985639,0.7812758302126079
1790943545058632000,1.7966318359375,4.083598808427155,-8.884044740971923,0.7539008434876799
1790943545068662000,1.806662109375,4.068262415346503,-8.892935318914056,0.73166972245723
1790943545078691800,1.81669189453125,4.074868681743741,-8.892201743942499,0.7032668539892881
1790943545088721700,1.8267216796875,4.076306313331425,-8.89331993431747,0.6804183317128568
1790943545098751700,1.836751708984375,4.076597697493434,-8.8922356462121,0.6927359614942222
1790943545108781800,1.84678173828125,4.078800175973773,-8.890122599580883,0.7067628063462674
1790943545118812000,1.85681201171875,4.081596528694034,-8.888806840807199,0.707154289881885
1790943545128841000,1.866841064453125,4.079559177647531,-8.88992444666028,0.7048640600528567
1790943545138871000,1.87687109375,4.0768119247660035,-8.892129847750066,0.6928434404566883
1790943545148900900,1.88690087890625,4.079807307189703,-8.891485704627632,0.6833961054146289
1790943545158930700,1.8969306640625,4.083644108873606,-8.889654982069134,0.6843059868011623
1790943545168960800,1.906960693359375,4.0812797178298235,-8.890340626245736,0.689485362200439
1790943545178990800,1.916990966796875,4.077610673928261,-8.891924096044898,0.6907796397946775
1790943545189021000,1.92702099609375,4.073165677218139,-8.894107285302876,0.6888883461553603
1790943545199051000,1.937051025390625,4.069933855690062,-8.895791877388953,0.6862379047118127
1790943545209080800,1.947080810546875,4.068042635115981,-8.896791994342207,0.6844627117328346
1790943545219110700,1.957110595703125,4.066748503652215,-8.897464779037236,0.6834115221794694
1790943545229140700,1.967140625,4.065286614406109,-8.89818491000533,0.682736253266409
1790943545239170800,1.9771708984375,4.063777378886938,-8.898916146889329,0.6821938900180161
1790943545249201000,1.987200927734375,4.062703319914639,-8.899446892765164,0.681676807341352
1790943545259231000,1.99723095703125,4.061822737687826,-8.89990106627345,0.6809896287947893
1790943545269260800,2.0072607421875,4.06114352325201,-8.900318999424575,0.6795796158663928
1790943545279291000,2.017290771484375,4.060893055622279,-8.900592555668949,0.6774824243914336
1790943545289321000,2.027321044921875,4.061494236385822,-8.900478573900461,0.675371277456358
1790943545299350800,2.037350830078125,4.063329050597548,-8.899806373727321,0.6731967098962515
1790943545309380900,2.047380859375,4.066041524426639,-8.89874429745376,0.6708507312919945
1790943545319410700,2.05741064453125,4.06966643692553,-8.897266626116632,0.6684797643769532
1790943545329440800,2.067440673828125,4.073930231849849,-8.895488510528207,0.6661519790165126
1790943545339470800,2.077470947265625,4.078561983303725,-8.893515164628624,0.6641600745469332
1790943545349501000,2.0875009765625,4.083507038490474,-8.89136061694324,0.6626232203684747
1790943545359531000,2.097531005859375,4.08871746661514,-8.889031297212838,0.6617438071854412
1790943545369560800,2.107560791015625,4.094586358648538,-8.886344834607838,0.6615365941755473
1790943545379590700,2.117590576171875,4.100930759239197,-8.883394168108701,0.6618632688466459
1790943545389620700,2.127620849609375,4.107112370483577,-8.880459283700585,0.6629120472472161
1790943545399650800,2.13765087890625,4.113076831845939,-8.877564146780967,0.6647144204940646
1790943545409681000,2.147680908203125,4.118656970065832,-8.874805203461646,0.6670068422801793
1790943545419711000,2.1577109375,4.123664861355722,-8.872281822463869,0.669611252624914
1790943545429740800,2.16774072265625,4.128170648342371,-8.8699846514374,0.6722710464186966
1790943545439771100,2.177771240234375,4.132005696460604,-8.86801013649404,0.6747611096687615
1790943545449801200,2.18780126953125,4.13509986308366,-8.866413807213306,0.6767788792319596
1790943545469234200,2.207234130859375,4.13827206337899,-8.864762532874941,0.679012702698633
1790943545479264300,2.21726416015625,4.138227055193483,-8.864754349568486,0.679409519996494
1790943545489294300,2.22729443359375,4.137330398614704,-8.86517637437284,0.6793662653766572
1790943545499324400,2.237324462890625,4.136099687775969,-8.865783692616224,0.6789267779808491
1790943545509354200,2.247354248046875,4.134948471914232,-8.866405039384961,0.6778323338076472
1790943545519384000,2.257384033203125,4.133994824451208,-8.86696501135528,0.6763196642223746
1790943545529414100,2.2674140625,4.1333933514267205,-8.867378268331288,0.6745588650949299
1790943545539444200,2.2774443359375,4.133059881688654,-8.867676374495028,0.672685691634193
1790943545549474300,2.287474365234375,4.133180585458875,-8.867754115906358,0.6709226274844259
1790943545559504400,2.29750439453125,4.133841387455165,-8.867551871332525,0.6695340957354754
1790943545569534200,2.3075341796875,4.135005462798476,-8.867067302685976,0.6687584351878613
1790943545579564300,2.317564208984375,4.1366921007111666,-8.866337234845757,0.6680125852566212
1790943545589594000,2.327593994140625,4.139051231057942,-8.865293278750777,0.6672484690163284
1790943545599624200,2.337624267578125,4.141910419881343,-8.863976935455202,0.6669948595814407
1790943545609654300,2.347654296875,4.145262945179641,-8.862411585834622,0.666971405640617
1790943545619684000,2.35768408203125,4.148716885025799,-8.860761480540036,0.6674097239926458
1790943545629714200,2.367714111328125,4.152278376899659,-8.859047662359476,0.668019088062644
1790943545639744300,2.377744140625,4.156064032918215,-8.857186544662714,0.6691483112882822
1790943545649774300,2.3877744140625,4.1595387232914565,-8.85551305849254,0.669715224456042
1790943545659804200,2.39780419921875,4.1626127239093185,-8.854030710980295,0.6702108990184963
1790943545669834200,2.407834228515625,4.165111554987728,-8.85282951849699,0.670557374368608
1790943545679864000,2.417864013671875,4.1668557683065535,-8.85201060332954,0.6705350894715637
1790943545689894100,2.42789404296875,4.167990909816324,-8.851519604942203,0.6699515174299479
1790943545699924200,2.43792431640625,4.1687940428927535,-8.851139081192017,0.6699854927647858
1790943545709954300,2.447954345703125,4.169515635165572,-8.850759141963719,0.6705160194449127
1790943545719984400,2.457984375,4.169915448138117,-8.850550467649102,0.6707797118823975
1790943545730014200,2.46801416015625,4.170193096035718,-8.850400830045341,0.6710183429438621
1790943545740044000,2.4780439453125,4.170019785295427,-8.850449929884075,0.6714523504469543
1790943545750074000,2.48807421875,4.169360736864805,-8.850717056387662,0.6720216747675091
1790943545760104200,2.498104248046875,4.168230563791096,-8.851195779815315,0.6727180595338345
1790943545770134300,2.50813427734375,4.167022941567003,-8.851725356647371,0.6732555274114013
1790943545780164400,2.518164306640625,4.16605000488162,-8.852167839717865,0.6734495886787771
1790943545790194200,2.528194091796875,4.16542661228627,-8.852513876676559,0.672747724019736
1790943545800224300,2.538224365234375,4.164919247286021,-8.852863420766592,0.6712979636028409
1790943545810254300,2.54825439453125,4.163939296337962,-8.853470154488086,0.6693643651917577
1790943545820284200,2.5582841796875,4.162489097529649,-8.854315957662463,0.6671919165235012
1790943545830314200,2.568314208984375,4.160934561564028,-8.855203261891006,0.6651292118400335
1790943545840344000,2.578343994140625,4.159670240716636,-8.85590527268052,0.6636762365527451
1790943545850374100,2.5883740234375,4.1588504487663505,-8.856310346350073,0.6634090369839221
1790943545860404200,2.598404296875,4.158519609376788,-8.85641029959321,0.664148237978667
1790943545870434300,2.608434326171875,4.1584141031757,-8.85635360096991,0.6655569357328116
1790943545880464400,2.61846435546875,4.158677430287003,-8.856097580382228,0.6673251144491136
1790943545890494200,2.628494140625,4.158993656629324,-8.855818763440848,0.6690536918073893
1790943545900524000,2.63852392578125,4.159203792248666,-8.855636392611265,0.6701541273299604
1790943545910554000,2.64855419921875,4.159459520575404,-8.855506628751755,0.6702743196435272
1790943545920584200,2.658584228515625,4.1597213863819835,-8.855433563515543,0.6696348526962101
1790943545930614300,2.6686142578125,4.159897619731724,-8.855435317081213,0.6685127898637205
1790943545940644400,2.678644287109375,4.160111847004294,-8.855382125589252,0.6678800449181348
1790943545950674200,2.688674072265625,4.160939822261035,-8.854941396084428,0.6685763566192239
1790943545960704300,2.698704345703125,4.162742780029774,-8.853943617218732,0.6705673843059688
1790943545970734000,2.708734130859375,4.165196310661733,-8.852619675138593,0.6727935359228402
1790943545980764200,2.71876416015625,4.1681998763918875,-8.851060170736908,0.674713471134752
1790943545990794200,2.728794189453125,4.17103802242726,-8.849604711231589,0.6762523711398244
1790943546000823300,2.7388232421875,4.173834082886576,-8.84818666112721,0.6775538821924477
1790943546010853400,2.748853271484375,4.176320054483414,-8.846973193684219,0.6780762255661189
1790943546020883200,2.75888330078125,4.178789367206394,-8.845845650959014,0.6775785051770508
1790943546030913000,2.7689130859375,4.181311286899447,-8.84469531188011,0.6770357035372406
1790943546040943000,2.778943115234375,4.183803688237071,-8.843619791603087,0.6756784437093883
1790943546050973200,2.78897314453125,4.185921118782461,-8.842799122869968,0.6733103994037956
1790943546061003300,2.799003173828125,4.187816723270714,-8.842113478693365,0.6705226683814078
1790943546071033300,2.809033447265625,4.189909019374848,-8.841330219361186,0.667768182041496
1790943546081063200,2.819063232421875,4.191930880591273,-8.84052007202208,0.6658182900827377
1790943546091093200,2.82909326171875,4.194551876744628,-8.839338168761133,0.6650019321985542
1790943546101123300,2.839123291015625,4.1963884445220225,-8.838435666963457,0.6654124126955866
1790943546111153200,2.849153076171875,4.197806202365458,-8.83768572537899,0.6664172788891941
1790943546121183200,2.859183349609375,4.199550415684283,-8.836709573823214,0.6683679745655506
1790943546131213300,2.86921337890625,4.201160773490369,-8.835767324537038,0.6706990478616207
1790943546141243100,2.8792431640625,4.201936434037983,-8.835231317964196,0.6728979461453855
1790943546151273200,2.889273193359375,4.202948241429031,-8.834639781811832,0.6743569858472794
1790943546161303300,2.89930322265625,4.204066724064946,-8.834093838366865,0.6745269355867057
1790943546171333400,2.90933349609375,4.206616993069648,-8.8329470064193,0.673647084012255
1790943546181363200,2.91936328125,4.210823212587833,-8.831080628025532,0.671841788155958
1790943546191393000,2.92939306640625,4.216130086824298,-8.828741955944896,0.6692916652817279
1790943546201423000,2.939423095703125,4.221081571751832,-8.826633585488796,0.6658698010742664
1790943546211453200,2.949453125,4.225903000558913,-8.82466491576433,0.661390244507417
1790943546221483300,2.959483154296875,4.231422348502278,-8.822363068562746,0.6567866231694817
1790943546231513300,2.969513427734375,4.237546968862414,-8.819676021435857,0.6533776915088295
1790943546241543200,2.979543212890625,4.245134062990546,-8.81608647251129,0.6525655714083463
1790943546251573200,2.9895732421875,4.252608052133024,-8.812242656564711,0.6558158053759485
1790943546261603000,2.99960302734375,4.259485828948021,-8.808509315255284,0.6613119916394352
1790943546271633200,3.009633056640625,4.267045450547338,-8.804423507246375,0.6669493399392813
1790943546281663200,3.019663330078125,4.275177903598546,-8.800092200043798,0.672027519986406
1790943546291693300,3.029693359375,4.283532474967837,-8.795651587247848,0.6769411571215838
1790943546301723100,3.03972314453125,4.291381142641604,-8.791419064244627,0.6821789847098291
1790943546311753200,3.049753173828125,4.298096422371268,-8.787742421558498,0.6872719239346683
1790943546321783300,3.059783203125,4.303586251959205,-8.78475726826787,0.6910676629558206
1790943546331813400,3.0698134765625,4.308184977926314,-8.782342023819684,0.6931102746993303
1790943546341843200,3.07984326171875,4.312144529207051,-8.780405502799153,0.6930247883729637
1790943546351873300,3.089873291015625,4.315535048428178,-8.778870548316835,0.6913552477255464
1790943546361903000,3.099903076171875,4.318794634746014,-8.777450744646787,0.6890255626689642
1790943546371933200,3.10993310546875,4.322013304531574,-8.77606425872445,0.6865102919124066
1790943546381963300,3.11996337890625,4.32524746414721,-8.774695892980695,0.6836161048408598
1790943546391993300,3.129993408203125,4.328195792558789,-8.773478918406367,0.6805710380565375
1790943546402023400,3.1400234375,4.3313714999854565,-8.77207197421789,0.6785053376983851
1790943546412053000,3.150052978515625,4.334625241084397,-8.770490257984399,0.6781740599174052
1790943546422083000,3.1600830078125,4.3378079627737405,-8.7687559815377,0.6802387373622506
1790943546432113200,3.170113037109375,4.340926094794273,-8.766882588881254,0.6844677532341331
1790943546442143700,3.180143798828125,4.34412167596519,-8.764860727664828,0.690084277941659
1790943546452173800,3.190173828125,4.347626761476695,-8.762568817335367,0.6970764018513261
1790943546462203600,3.20020361328125,4.351299020248652,-8.76012025513947,0.7048840799275785
1790943546472232700,3.210232666015625,4.3550858453109855,-8.757517963686585,0.7138012536156922
1790943546482262500,3.220262451171875,4.359295279699563,-8.754594185194373,0.7238875441484153
1790943546492292600,3.230292724609375,4.364293526378273,-8.751095237162708,0.7359764797404408
1790943546502322700,3.24032275390625,4.370220578339696,-8.74697201975286,0.749685198554024
1790943546512352800,3.250352783203125,4.377413120192289,-8.742118149980902,0.7641980002921074
1790943546522382800,3.2603828125,4.386694451017678,-8.736111603042483,0.7795259908705949
1790943546532412700,3.27041259765625,4.398088536213338,-8.7288448269099,0.7965408385574817
1790943546542442800,3.28044287109375,4.4118855908975005,-8.720024391594528,0.816602579659596
1790943546552472800,3.290472900390625,4.428435743682086,-8.709374402764439,0.8403259120091795
1790943546562502700,3.300502685546875,4.44778692536205,-8.696787308391928,0.8680236278824508
1790943546572532700,3.31053271484375,4.470321413253248,-8.682039821115136,0.8993323738597333
1790943546582562600,3.3205625,4.496349880740047,-8.665006853249668,0.9332121393688022
1790943546592592600,3.330592529296875,4.525719183087348,-8.645750948637723,0.9691443073630333
1790943546602622700,3.340622802734375,4.558169500315189,-8.624319453552365,1.0072617835070938
1790943546612652800,3.35065283203125,4.593406817913055,-8.600827518805861,1.0472612009402364
1790943546622683000,3.360682861328125,4.631467376238107,-8.575171684023738,1.0891831839337944
1790943546632712700,3.370712646484375,4.6696810792982575,-8.548549050036073,1.1343549625035374
1790943546642742500,3.380742431640625,4.708925294449926,-8.52087544569075,1.179449291922897
1790943546652772600,3.390772705078125,4.7489399094522,-8.492351946517825,1.2238878608472645
1790943546662802700,3.400802734375,4.789380056390166,-8.4632275588423,1.267279843328148
1790943546672832800,3.410832763671875,4.829829263417422,-8.433695174887776,1.309928167834878
1790943546682862800,3.42086279296875,4.869986209499836,-8.403855916941165,1.3523469213694332
1790943546692892700,3.430892578125,4.909805594190955,-8.373780512151122,1.3942705848634243
1790943546702922800,3.4409228515625,4.949563604083657,-8.343371929883956,1.4353916998028755
1790943546712952600,3.45095263671875,4.989485864627361,-8.312551844206451,1.4754332028120756
1790943546722982700,3.460982666015625,5.0296045245259995,-8.281443004715442,1.5136599114842713
1790943546733012700,3.4710126953125,5.0694040354728696,-8.250423597073555,1.549854383676499
1790943546743042800,3.481042724609375,5.108169527196884,-8.219898110428453,1.584381507178396
1790943546753072600,3.49107275390625,5.144629664587974,-8.190611225667595,1.6177299422897398
1790943546763102700,3.501102783203125,5.177745167726278,-8.163174937209487,1.650426635494083
1790943546773132800,3.5111328125,5.207690808656811,-8.137481693026423,1.6827711542598902
1790943546783163000,3.521162841796875,5.234853540870547,-8.113158568152786,1.715616316024214
1790943546793192700,3.531192626953125,5.259274865421652,-8.090059432116151,1.7496718764916062
1790943546803222800,3.541222900390625,5.281406617730855,-8.068045753228663,1.7843115204572677
1790943546813252600,3.551252685546875,5.301772529411315,-8.047192934814095,1.8177689689010381
1790943546823282700,3.56128271484375,5.3203872135102745,-8.027821294867993,1.8487674798853695
1790943546833312800,3.571312744140625,5.336875406974554,-8.010306096443534,1.8770058785066008
1790943546843342800,3.5813427734375,5.350810408824682,-7.994841985329985,1.903083007440716
1790943546853373000,3.591373046875,5.362292756825685,-7.981232562172412,1.9277279116146266
1790943546863402500,3.601402587890625,5.371451045793295,-7.969100810351967,1.9522597108028827
1790943546873432600,3.6114326171875,5.378363017138838,-7.958378925329447,1.976814014083892
1790943546883462700,3.621462646484375,5.383201104819774,-7.949031835791468,2.001106597688794
1790943546893492700,3.63149267578125,5.386223667511343,-7.941089936876296,2.0243712995506824
1790943546903522800,3.641522705078125,5.387547609591484,-7.934694098359346,2.045810101159662
1790943546913552600,3.651552734375,5.387313800835609,-7.9301307359665625,2.0640410466380414
1790943546923582700,3.661582763671875,5.385595306479931,-7.927440181708335,2.0788070924848316
1790943546933612800,3.67161279296875,5.382969634151459,-7.926334266293049,2.089795957880467
1790943546943642600,3.681642578125,5.378858107179403,-7.926926386967301,2.098119841850549
1790943546953671700,3.691671630859375,5.372917026692629,-7.929230572256445,2.1046276163093744
1790943546963701800,3.70170166015625,5.364312279954552,-7.933732559850811,2.109602774373442
1790943546973731800,3.71173193359375,5.352866756832599,-7.940572050482034,2.1129428785815834
1790943546983761700,3.72176171875,5.338974425080418,-7.949412359541654,2.1148482738114893
1790943546993791700,3.731791748046875,5.323077183246612,-7.9597683338612315,2.115966902577877
1790943547003821600,3.741821533203125,5.3056613535434005,-7.971509040537476,2.1155121445477008
1790943547013851600,3.7518515625,5.286938532894849,-7.984781779086589,2.112326500248909
1790943547023881700,3.7618818359375,5.267384522119164,-7.999348064577579,2.1060545803725716
1790943547033911800,3.771911865234375,5.246519428744912,-8.015195622050761,2.097866890002787
1790943547043941600,3.781941650390625,5.22347173063457,-8.032696791949867,2.088423208222538
1790943547053971700,3.7919716796875,5.19861143014431,-8.051656928485631,2.0774134461693463
1790943547064001800,3.802001708984375,5.17255695143342,-8.071822933679819,2.064149621579051
1790943547074031900,3.812031982421875,5.1456911563396455,-8.093097776898741,2.047927970096469
1790943547084061700,3.822061767578125,5.118060222092271,-8.115489641448855,2.0284676289536057
1790943547094091800,3.832091796875,5.08971383305192,-8.138824924328922,2.0061749869942664
1790943547104121600,3.84212158203125,5.0605321622312065,-8.16305920187533,1.9813800068251788
1790943547114151700,3.852151611328125,5.030169172671437,-8.188231052532792,1.9546479211136698
1790943547124181800,3.862181640625,4.998205762177705,-8.214412957015632,1.926592770104855
1790943547134211800,3.8722119140625,4.964602183261514,-8.241520744171739,1.897481388041377
1790943547144242000,3.882241943359375,4.929688106268644,-8.269248124530911,1.8676434452690183
1790943547154271500,3.892271484375,4.893600017060339,-8.297417987960577,1.837365503644198
1790943547164301600,3.902301513671875,4.8565129799425595,-8.325920444345474,1.8065749363221226
1790943547174331600,3.91233154296875,4.818610827049612,-8.354672491577267,1.775057808291167
1790943547184361700,3.92236181640625,4.7799482111781835,-8.3836320440799,1.7427534754052758
1790943547194391800,3.932391845703125,4.7402319946005935,-8.41281722203195,1.7102920522615312
1790943547204421600,3.942421630859375,4.699145366452634,-8.442102937749027,1.6790876434415578
1790943547214451700,3.95245166015625,4.656770452059805,-8.471503219756483,1.6487869054630397
1790943547224481800,3.962481689453125,4.613099652637541,-8.501250707766413,1.6181613194443285
1790943547234511600,3.97251171875,4.569613269871473,-8.530825761818885,1.5855733473114668
1790943547244541700,3.982541748046875,4.528574864779412,-8.559086810663342,1.5506195228300987
1790943547254571800,3.99257177734375,4.4909927376210685,-8.58555454635024,1.5131513774402439
1790943547264601600,4.0026015625,4.456587194672227,-8.610239490273594,1.4741041461654008
1790943547274631700,4.012631591796875,4.425115659348666,-8.632948750209808,1.4355975976385176
1790943547284661800,4.022661865234375,4.397342101760208,-8.653086113831401,1.399237267360091
1790943547294691800,4.03269189453125,4.373535401976108,-8.67056039572358,1.3652667548276483
1790943547304722000,4.042721923828125,4.353710173043608,-8.685547536975145,1.332985218295455
1790943547314751700,4.052751708984375,4.337242145584524,-8.698496450397371,1.3018757942825554
1790943547324781600,4.062781494140625,4.323545044143498,-8.70982097748816,1.2713618519447742
1790943547334811600,4.072811767578125,4.312092214497923,-8.71983792911172,1.2412385163597761
1790943547344841700,4.082841796875,4.303206020469963,-8.728353828522563,1.2118771050579846
1790943547354871800,4.092871826171875,4.297699239747226,-8.734805781140922,1.184624283408001
1790943547364902000,4.10290185546875,4.294123427087069,-8.739635100993514,1.1617535492997615
1790943547374931700,4.112931640625,4.2914878178864715,-8.743119435977935,1.1451553926549851
1790943547384961500,4.12296142578125,4.289239162176847,-8.745500193634628,1.1353575636748223
1790943547394991600,4.13299169921875,4.287793347282707,-8.746696709942817,1.1315983572717756
1790943547405021700,4.143021728515625,4.287635818633437,-8.746676251676679,1.1323491025738417
1790943547415051800,4.1530517578125,4.2889185519203545,-8.745537603035569,1.1362784779120236
1790943547425081900,4.163081787109375,4.291962741921842,-8.743289531847834,1.1420672173812985
1790943547435111700,4.173111572265625,4.296965372514724,-8.739892290624976,1.1492371820759026
1790943547445142000,4.18314208984375,4.303941641268134,-8.735379781636595,1.1574158854216337
1790943547455172000,4.193172119140625,4.312616822893918,-8.729934960234164,1.1661694660458712
1790943547465202000,4.203201904296875,4.3226822898343205,-8.723774684038757,1.1749736808788032
1790943547475232000,4.21323193359375,4.3338425662741065,-8.717118148759006,1.1832320253320037
1790943547485261800,4.22326171875,4.34534361897558,-8.7103797804147,1.1906578644838184
1790943547495292000,4.2332919921875,4.356884419165551,-8.70377994375825,1.196734554049
1790943547505322000,4.243322021484375,4.368513189899921,-8.69734377323091,1.2011246787667273
1790943547515352000,4.25335205078125,4.380275816147029,-8.691014570209383,1.2040848437465728
1790943547525382100,4.263382080078125,4.391651196642219,-8.685012699446082,1.2059553137935697
1790943547535412000,4.273411865234375,4.402070591586828,-8.67960645648837,1.2068938367526978
1790943547545441800,4.28344189453125,4.411207545505464,-8.674877674400806,1.2075349111352116
1790943547555472000,4.293471923828125,4.418915051142871,-8.670959039652347,1.2074936292767524
1790943547565502000,4.303501953125,4.4252714344322674,-8.667928878176212,1.2059629125781357
1790943547575532000,4.313531982421875,4.430319365471601,-8.665826352939009,1.202535495412722
1790943547585562000,4.32356201171875,4.434268103097379,-8.664597103404999,1.1968352379444986
1790943547595592000,4.333592041015625,4.437044289812445,-8.664321209073066,1.1885136189967394
1790943547605620700,4.343620849609375,4.438596195429564,-8.664982887852192,1.1778433910962194
1790943547615650800,4.35365087890625,4.438587135340273,-8.666649359759688,1.1655606864977628
1790943547625681000,4.363680908203125,4.437148919230699,-8.66912364091873,1.152557047213614
1790943547635711000,4.3737109375,4.434596604399383,-8.672171922573447,1.1393736674483865
1790943547645741000,4.383740966796875,4.431428203496337,-8.675501359257101,1.1262824229460209
1790943547655771100,4.393771240234375,4.427671481311321,-8.679060513043403,1.113562569039315
1790943547665801000,4.403801025390625,4.423550601989031,-8.68273949381709,1.1011942319840191
1790943547675831000,4.4138310546875,4.418842278167605,-8.686662804740667,1.0890871031481772
1790943547685860900,4.42386083984375,4.413782072168589,-8.69070418908596,1.0773056991353631
1790943547695891000,4.433890869140625,4.408469937235116,-8.694762524566054,1.0662420149378478
1790943547705921000,4.443921142578125,4.402895351973176,-8.698876974147558,1.0556701328452676
1790943547715950800,4.453950927734375,4.3971348887503146,-8.703004867732524,1.0456053965572267
1790943547725981000,4.46398095703125,4.391564102880657,-8.706923502480983,1.0363490540426223
1790943547736011000,4.474010986328125,4.38636215032339,-8.71049200861752,1.0283697457265109
1790943547746041000,4.484041015625,4.381437845663726,-8.713744872933626,1.021775900419429
1790943547756071000,4.49407080078125,4.376433753766119,-8.716849853211642,1.0167266542058437
1790943547766101000,4.50410107421875,4.372833391186595,-8.719065191173552,1.0132261718042195
1790943547776130800,4.514130859375,4.370328714889288,-8.720464536577463,1.011981140179187
1790943547786161000,4.524160888671875,4.3684255116164685,-8.72136470028758,1.0124496344737708
1790943547796191000,4.53419091796875,4.366628983588517,-8.722064372989534,1.0141595071315765
1790943547806221000,4.544220947265625,4.364767865891754,-8.72272605176866,1.0164881692748515
1790943547816251100,4.554251220703125,4.362900318454206,-8.723393575766682,1.0187650281656533
1790943547826281000,4.564281005859375,4.3608869328051805,-8.724130657869576,1.0210787850007415
1790943547836310800,4.574310791015625,4.3589226469948885,-8.724877676844596,1.023071712383628
1790943547846340900,4.5843408203125,4.357424809652566,-8.725444078555702,1.0246338471338152
1790943547856371000,4.594370849609375,4.356634828318655,-8.725698930099606,1.025816992503777
1790943547866401000,4.604401123046875,4.35640218860656,-8.725711205059289,1.0266969902087002
1790943547876431000,4.61443115234375,4.356503895415366,-8.72553994014561,1.0277291828006505
1790943547886461000,4.6244609375,4.356863376377523,-8.725235404241085,1.0287797147668898
1790943547896491000,4.634490966796875,4.357461634531617,-8.724825069874525,1.0297262018367648
1790943547906521000,4.64452099609375,4.358112499655783,-8.724400706982612,1.0305725895330309
1790943547916551000,4.654551025390625,4.358706958417594,-8.72406928307116,1.0308681384135037
1790943547926581000,4.6645810546875,4.359727241376042,-8.723602250081301,1.030499816557765
1790943547936610800,4.67461083984375,4.361059366762638,-8.723067997074127,1.0293903940111397
1790943547946641000,4.684640869140625,4.362568894542753,-8.722508609625697,1.027726917778328
1790943547956671000,4.6946708984375,4.364118462072312,-8.722012350541354,1.0253590196032076
1790943547966701000,4.704701171875,4.365395057879388,-8.721677419498562,1.0227738254155962
1790943547976731100,4.714731201171875,4.366447197280824,-8.72145939283371,1.0201271833643317
1790943547986761000,4.724760986328125,4.367165282422304,-8.721380482378601,1.0177348083350808
1790943547996790800,4.734790771484375,4.367708887779712,-8.721374052637815,1.0154443593103437
1790943548006820900,4.74482080078125,4.367977183327079,-8.72151316884756,1.013093339204788
1790943548016851000,4.754850830078125,4.367728761523962,-8.721951560264825,1.0103880257688462
1790943548026881000,4.764881103515625,4.367101569536328,-8.722602133128046,1.0074851439341903
1790943548036911000,4.7749111328125,4.366496004858613,-8.723265565472841,1.0043622626733035
1790943548046941000,4.78494091796875,4.365961751851439,-8.723866453975438,1.0014507591407746
1790943548056971000,4.794970947265625,4.3653751841351385,-8.724445130646227,0.9989666141748428
1790943548067000800,4.805000732421875,4.365155696165561,-8.724841436487436,0.9964622301384806
1790943548077031000,4.815031005859375,4.365481567119062,-8.724948988515138,0.9940958663333207
1790943548087061000,4.82506103515625,4.366169549383223,-8.724863063797354,0.9918232452262192
1790943548097091000,4.835091064453125,4.366758747448027,-8.724799350911379,0.9897896205067634
1790943548107121000,4.845120849609375,4.3672930004552,-8.724705242887138,0.9882624840047209
1790943548117151000,4.85515087890625,4.36805872413069,-8.724395446285605,0.9876135185766964
1790943548127181000,4.86518115234375,4.368770379531384,-8.724014922535419,0.9878235080655664
1790943548137211100,4.875211181640625,4.369227475649118,-8.723720908024907,0.9884040113672613
1790943548147241000,4.885240966796875,4.369732502561807,-8.723347398537397,0.9894632380966096
1790943548157270800,4.895270751953125,4.37049121197462,-8.72281899074912,0.9907647491492331
1790943548167300900,4.90530078125,4.370855369111895,-8.722525560760497,0.9917425081402063
1790943548177331000,4.9153310546875,4.3708565381556745,-8.722476460921763,0.9921715472072362
1790943548187360000,4.925360107421875,4.370916743910312,-8.722468862137198,0.9919738326780497
1790943548197390000,4.93539013671875,4.371982035054266,-8.721997152972222,0.9914258434064686
1790943548207420000,4.945419921875,4.373021314974129,-8.721516675978899,0.9910770299687981
1790943548217450000,4.955449951171875,4.374219292587042,-8.720970732533932,0.9905812092758715
1790943548227479800,4.965479736328125,4.375382783408463,-8.720515389981866,0.9894452640485017
1790943548237510000,4.975510009765625,4.376424109154939,-8.720218452861905,0.9874700184527784
1790943548247540000,4.9855400390625,4.377106246200204,-8.72018747320175,0.9847158243738114
1790943548257570000,4.995570068359375,4.377659496168792,-8.720309053754805,0.9811780056364834
1790943548267600100,5.00560009765625,4.378220344921946,-8.720421281957625,0.9776602798391133
1790943548277630000,5.0156298828125,4.37852955700159,-8.72061943487823,0.9745109489627182
1790943548287659800,5.02565966796875,4.378719526615739,-8.720815249711274,0.9718915602445601
1790943548297689900,5.03568994140625,4.378989283467829,-8.72093566122055,0.9696045452859252
1790943548307720000,5.045719970703125,4.379103557497262,-8.721092313086986,0.9676630558293312
1790943548317750000,5.05575,4.379249395708739,-8.721209801986813,0.965946753430739
1790943548327780000,5.065780029296875,4.379426505841314,-8.721293973138929,0.9643786273311823
1790943548337810000,5.075809814453125,4.379515645429492,-8.721394510903954,0.9630745589952915
1790943548347840000,5.085840087890625,4.379652423551678,-8.721428413173555,0.9621426119074225
1790943548357869800,5.095869873046875,4.3796915865182875,-8.721445948830246,0.9618122839745133
1790943548367900000,5.10589990234375,4.379639856331051,-8.721454132136701,0.9619595834907144
1790943548377930000,5.115929931640625,4.379408970184624,-8.721520767632127,0.9624161681517958
1790943548387960000,5.1259599609375,4.379111448542774,-8.721562853208184,0.963388008858636
1790943548397990000,5.135989990234375,4.378759858626127,-8.721628319659828,0.964387175963819
1790943548408020000,5.14602001953125,4.378204562830924,-8.721841085627675,0.9649882105968892
1790943548418050000,5.156050048828125,4.3776548199936745,-8.722095937171577,0.9651797145809977
1790943548428080000,5.166080078125,4.377234256494045,-8.722329745927453,0.9649663640912621
1790943548438109200,5.176109130859375,4.37705597731769,-8.722468277615308,0.9645328680448233
1790943548448139300,5.18613916015625,4.377282771810889,-8.72239112072587,0.9641928955007344
1790943548458169300,5.19616943359375,4.377507812738418,-8.722270124694704,0.9642667644545435
1790943548468199200,5.20619921875,4.377810010555386,-8.72207255629599,0.9646816288657486
1790943548478229200,5.216229248046875,4.378078598363698,-8.721859205806254,0.9653887542217969
1790943548488259300,5.22625927734375,4.378400669924915,-8.721650531491637,0.9658156743969768
1790943548498289200,5.2362890625,4.379031661304832,-8.72130975522995,0.9660339202575385
1790943548508319200,5.2463193359375,4.379925103013218,-8.720871948334574,0.9659407620813697
1790943548518349000,5.25634912109375,4.380996531637012,-8.72039614751637,0.9653841511119157
1790943548528379100,5.266379150390625,4.382160899241268,-8.71992794548273,0.9643149144452065
1790943548538409200,5.2764091796875,4.383326143628358,-8.71947844814956,0.9630760203000157
1790943548548439300,5.286439208984375,4.384759683562815,-8.718935427314042,0.9614824674982577
1790943548558469400,5.296469482421875,4.386349290841817,-8.718317003154754,0.9598345541607588
1790943548568499200,5.306499267578125,4.387745421375334,-8.717810807198285,0.9580486936572938
1790943548578529000,5.316529052734375,4.38901237257123,-8.717381768131256,0.9561397182308137
1790943548588559000,5.32655908203125,4.390086139282584,-8.717052097785473,0.954209773081541
1790943548598589200,5.336589111328125,4.390499396258592,-8.717040991869569,0.952412441335991
1790943548608619300,5.346619384765625,4.389882725664973,-8.717565892526506,0.9504488861780613
1790943548618649300,5.3566494140625,4.389143305474519,-8.71813755493462,0.9486231320556253
1790943548628679200,5.36667919921875,4.388044112060964,-8.718791634929179,0.9476989298827946
1790943548638709200,5.376709228515625,4.386707602760196,-8.71951878015995,0.94719689864479
1790943548648739300,5.3867392578125,4.384972449530661,-8.720423035523295,0.9469055144827813
1790943548658769200,5.39676904296875,4.382984198322892,-8.721461730921268,0.9465458143249154
1790943548668799200,5.40679931640625,4.38084367916286,-8.7225764141649,0.9461861872322856
1790943548678829300,5.416829345703125,4.378424635322392,-8.723820861268043,0.9459070049647241
1790943548688859100,5.426859130859375,4.376007637308538,-8.725047772714495,0.9457768757790327
1790943548698889200,5.43688916015625,4.37345766056478,-8.72630683286488,0.9459515016935766
1790943548708919300,5.446919189453125,4.370915282605588,-8.727547188314794,0.9462596908599138
1790943548718949400,5.456949462890625,4.368725955867767,-8.728616278851032,0.9465089163806288
1790943548728979200,5.466979248046875,4.366801709806919,-8.729595937538146,0.9463562100369483
1790943548739009000,5.477009033203125,4.365055742922425,-8.730532926127314,0.9457686194073408
1790943548749039000,5.4870390625,4.363674225436151,-8.731345411553978,0.9446358159851282
1790943548759069200,5.497069091796875,4.362800072950124,-8.731943377447127,0.9431525186248123
1790943548769098200,5.50709814453125,4.362281309773028,-8.732373585557937,0.9415689026951789
1790943548779128300,5.51712841796875,4.3619305966392155,-8.732725467735529,0.9399201125748455
1790943548789158100,5.527158203125,4.361977650651335,-8.732914268305898,0.9379409214563668
1790943548799188200,5.537188232421875,4.362374248753488,-8.732971551451087,0.9355613328434527
1790943548809218000,5.547218017578125,4.363241094715893,-8.73281548410654,0.9329740197639912
1790943548819248000,5.557248046875,4.364450470505655,-8.732506856548786,0.9302065278120338
1790943548829278200,5.5672783203125,4.366014943343401,-8.732038654515147,0.9272588569875806
1790943548839308300,5.577308349609375,4.36793685131669,-8.731367038863898,0.9245281899146736
1790943548849338400,5.58733837890625,4.3702956894025204,-8.730449339497088,0.9220503285590559
1790943548859368400,5.597368408203125,4.372869631543756,-8.729381418004632,0.9199445153862238
1790943548869398000,5.60739794921875,4.3755911654621364,-8.72819074691534,0.9182995977234095
1790943548879428000,5.617427978515625,4.377923407801985,-8.727167249086499,0.916917641845718
1790943548889458200,5.627458251953125,4.379804399242997,-8.726336058959365,0.9158370070021599
1790943548899488300,5.63748828125,4.381152598981559,-8.72574861446023,0.9149917152844369
1790943548909518300,5.647518310546875,4.382166159938276,-8.725302624258399,0.9143857122153043
1790943548919548200,5.657548095703125,4.383010209546983,-8.724922100508213,0.9139636143457144
1790943548929578200,5.667578125,4.3837855778336525,-8.724542161279917,0.9138779818888753
1790943548939608300,5.6776083984375,4.384596017433703,-8.724116629344225,0.9140536307167262
1790943548949638100,5.68763818359375,4.3855131322786205,-8.723642582091689,0.9141809103582054
1790943548959668200,5.697668212890625,4.3866324916973705,-8.723066243508457,0.9143144736099987
1790943548969698300,5.7076982421875,4.387833684180677,-8.722433206301927,0.9145844496577977
1790943548979728100,5.71772802734375,4.38946742286235,-8.721524274763464,0.9154047530647367
1790943548989758200,5.72775830078125,4.391545105919242,-8.720328927499056,0.9168260180395096
1790943548999788300,5.737788330078125,4.3937528450965875,-8.719075712567568,0.9181682994939386
1790943549009818400,5.747818359375,4.39612688075155,-8.717754693096875,0.9193570708870887
1790943549019848200,5.75784814453125,4.398097011780739,-8.716684433516859,0.9200803436603396
1790943549029878000,5.7678779296875,4.399966312783956,-8.715648076206445,0.9209602683000266
1790943549039908000,5.777908203125,4.400426623772084,-8.71543472571671,0.9207782627966254
1790943549049938200,5.787938232421875,4.400751910203695,-8.715327173689007,0.9202478091817349
1790943549059968300,5.79796826171875,4.400770030382275,-8.715359906914829,0.9198473386220634
1790943549069998300,5.807998291015625,4.401044463409483,-8.715241248971223,0.9196503547452389
1790943549080028400,5.8180283203125,4.401220404498279,-8.715185719391704,0.9193443575359881
1790943549090058200,5.828058349609375,4.4014837316095825,-8.715113238677382,0.9187618814729154
1790943549100088000,5.838088134765625,4.4014869464799755,-8.715220206183195,0.9177306387290358
1790943549110118100,5.8481181640625,4.400997117136418,-8.715608913239835,0.9163810507509856
1790943549120148200,5.858148193359375,4.400371970975399,-8.716063671270012,0.9150636114768683
1790943549130178300,5.86817822265625,4.399582866424322,-8.716559345832467,0.9141470811538398
1790943549140208000,5.8782080078125,4.399050366982817,-8.716893107831478,0.9135246384065597
1790943549150238200,5.88823828125,4.398885531809926,-8.717048590654134,0.9128295688144862
1790943549160268300,5.898268310546875,4.398950413739681,-8.717091845273972,0.9121038848884403
1790943549170298400,5.90829833984375,4.399303172700106,-8.7170222871691,0.9110638012509793
1790943549180328200,5.918328125,4.399834503097832,-8.716860959127544,0.9100380383998155
1790943549190358300,5.928358154296875,4.400184631709754,-8.716769189190863,0.9092285486478358
1790943549200388000,5.93838818359375,4.400476015871763,-8.716679757341742,0.9086700379822402
1790943549210418200,5.948418212890625,4.400810362392663,-8.716545901829004,0.9083505967695266
1790943549220448300,5.9584482421875,4.401059660978615,-8.716435427191852,0.9081877343580126
1790943549230477300,5.968477294921875,4.401409789590537,-8.716287543153761,0.9079181967016309
1790943549240507100,5.978507080078125,4.401997818611562,-8.716012817865609,0.907707549625635
1790943549250537200,5.988537109375,4.402800074905157,-8.715623526287079,0.9075530897162855
1790943549260567300,5.9985673828125,4.403704622529447,-8.715170521822571,0.9075038437470793
1790943549270597000,6.00859716796875,4.404694802610576,-8.71467134012878,0.9074965372234582
1790943549280627200,6.018627197265625,4.405907101009785,-8.714066944494842,0.907419526464492
1790943549290657300,6.0286572265625,4.407012431903183,-8.713528599834442,0.9072282416760921
1790943549300687400,6.038687255859375,4.408158094806969,-8.712943493422866,0.9072766108624637
1790943549310717200,6.04871728515625,4.409234784127771,-8.712375922667979,0.9074969025496393
1790943549320747300,6.058747314453125,4.410136116881668,-8.71187148027718,0.9079597708210349
1790943549330777000,6.068777099609375,4.410951817178726,-8.711381066411732,0.9086862584646791
1790943549340807200,6.07880712890625,4.411584562124312,-8.710968978479505,0.909565160191059
1790943549350837200,6.088837158203125,4.411946673434972,-8.710712957891822,0.9102786422226578
1790943549360867300,6.098867431640625,4.412072930163145,-8.710598391601442,0.9107583154983818
1790943549370897400,6.1088974609375,4.412001910753548,-8.710631709349155,0.9107733669370413
1790943549380927200,6.11892724609375,4.411851396366954,-8.710717634066938,0.9106854694578796
1790943549390957000,6.12895703125,4.411850227323174,-8.710717634066938,0.910690437893942
1790943549400987100,6.138987060546875,4.411948427000642,-8.710658012834191,0.9107912679199128
1790943549411017200,6.149017333984375,4.411931183604896,-8.71062060343325,0.911232874207571
1790943549421047300,6.15904736328125,4.412425104601681,-8.710179289406538,0.9130583360690623
1790943549431077000,6.1690771484375,4.41338751989305,-8.709531054630876,0.9145852533753961
1790943549441107000,6.17910693359375,4.414139799565077,-8.709039471721649,0.915628040426597
1790943549451137000,6.189136962890625,4.414294405604899,-8.708865284198522,0.9165389447264373
1790943549461167000,6.1991669921875,4.414520031054318,-8.708653102752566,0.9174664348348974
1790943549471197200,6.209197265625,4.4142204635858535,-8.70872207633555,0.9182655493233353
1790943549481227300,6.219227294921875,4.414250566463172,-8.708708632332087,0.9182485251232981
1790943549491257000,6.229257080078125,4.4143294769182795,-8.708653102752566,0.9183853032454847
1790943549501287200,6.239287109375,4.414228354631364,-8.708673561018704,0.9186856013663113
1790943549511317200,6.249317138671875,4.413886701586843,-8.708805662965775,0.9190762811843305
1790943549521347000,6.25934716796875,4.413195796713233,-8.709145270183681,0.9191784263845533
1790943549531377200,6.269377197265625,4.412255593253672,-8.709640944746136,0.9189970054030417
1790943549541407200,6.2794072265625,4.411478763662278,-8.71008167425096,0.9185448777213692
1790943549551437000,6.28943701171875,4.410707194767892,-8.71056448933184,0.9176647338859736
1790943549561467100,6.299467041015625,4.4101589132353665,-8.710940921428799,0.9167242381654679
1790943549571497200,6.309497314453125,4.409438782267272,-8.711345410576461,0.916352409178391
1790943549581527300,6.31952734375,4.409231276996434,-8.711452962604165,0.9163193106263875
1790943549591557000,6.32955712890625,4.409107650616765,-8.711488618439436,0.9165778884973377
1790943549601587000,6.3395869140625,4.40895713623017,-8.711531288537383,0.9168920690130442
1790943549611617000,6.349616943359375,4.408939308312535,-8.711495632702112,0.9173162857744842
1790943549621647000,6.359647216796875,4.408936677964031,-8.711454716169834,0.9177215786397457
1790943549631677200,6.36967724609375,4.408823572978377,-8.711464653041958,0.9181735601909458
1790943549641707300,6.379707275390625,4.408862443684042,-8.711362361711263,0.9189595229368657
1790943549651737000,6.389737060546875,4.408893423344194,-8.711270007252693,0.9196892254509031
1790943549661767200,6.39976708984375,4.409113788096606,-8.711098157817124,0.9202613262504339
1790943549671797000,6.409796875,4.4097354271262885,-8.710724648329615,0.9208221019383519
1790943549681827000,6.4198271484375,4.4106548800587655,-8.710188057234882,0.9214886760883033
1790943549691856100,6.429856201171875,4.41184818149656,-8.709512934452295,0.9221445827137679
1790943549701886200,6.43988623046875,4.41296695639342,-8.708874052026868,0.9228313959341495
1790943549711916300,6.449916259765625,4.413772135296464,-8.708388314336538,0.9235651170361786
1790943549721946000,6.459946044921875,4.414392605282366,-8.707999022758006,0.9242713656093925
1790943549731976000,6.469975830078125,4.414807615824044,-8.707704423725605,0.9250700417064129
1790943549742006000,6.480006103515625,4.415208305579424,-8.707425606784224,0.9257699336040764
1790943549752036000,6.4900361328125,4.415611333422363,-8.70713626844883,0.9265742357242852
1790943549762066200,6.500066162109375,4.416084211631119,-8.70681711949706,0.9273249079611152
1790943549772096300,6.51009619140625,4.4168826685324305,-8.706322613978385,0.9281554405011236
1790943549782126000,6.5201259765625,4.417524181306362,-8.705905849871039,0.929015053005144
1790943549792156200,6.53015625,4.417947959676384,-8.70558553187549,0.9300029680639504
1790943549802186200,6.540186279296875,4.418256587234139,-8.705320158937573,0.931018940173462
1790943549812216000,6.550216064453125,4.4182744151517745,-8.705192148643732,0.9321269014153629
1790943549822246100,6.56024609375,4.418092628844082,-8.705184549859165,0.9330665934182703
1790943549832276200,6.570276123046875,4.417717073529959,-8.705298531627655,0.9337767144490032
1790943549842306000,6.58030615234375,4.417067085188627,-8.705539354646206,0.9346109733160585
1790943549852336000,6.590336181640625,4.416786222420632,-8.70551012855172,0.9361975849203765
1790943549862366200,6.6003662109375,4.416900788711011,-8.705301454237103,0.9375976609766483
1790943549872396300,6.610396240234375,4.416806096164882,-8.705185134381056,0.939134953546524
1790943549882426000,6.620426025390625,4.416548029750586,-8.705252938920259,0.9397075658027082
1790943549892456000,6.6304560546875,4.416162245303392,-8.705396146783233,0.9402085010621696
1790943549902486000,6.640486083984375,4.415880505752563,-8.705514220204948,0.9404369029905646
1790943549912516000,6.65051611328125,4.4152144430592655,-8.705798882365226,0.9409177453100681
1790943549922546200,6.660546142578125,4.414378284496069,-8.706271760573983,0.9404621104970574
1790943549932576300,6.670576171875,4.413835555921494,-8.706604353529213,0.9399374290358274
1790943549942606300,6.6806064453125,4.413137052263319,-8.706981370148062,0.93972758567743
1790943549952636200,6.69063623046875,4.412675864492357,-8.707176600459217,0.9400850938782095
1790943549962666000,6.700666015625,4.41222110646218,-8.70738001407683,0.9403397262264043
1790943549972696000,6.710696044921875,4.411786806698143,-8.707597456219792,0.940351416664198
1790943549982726100,6.72072607421875,4.411582516297698,-8.707724297469854,0.9401324401512742
1790943549992756200,6.730756103515625,4.411669317798316,-8.707709099900722,0.9398680901266634
1790943550002786000,6.7407861328125,4.412206201153993,-8.707462431663274,0.9396432683948427
1790943550012816100,6.750816162109375,4.412399970160425,-8.70734143563211,0.9398507736656814
1790943550022846200,6.76084619140625,4.412806797395646,-8.707111134007572,0.9400701885700226
1790943550032876300,6.770876220703125,4.413370861019194,-8.706839331328869,0.9399349448177963
1790943550042906000,6.780906005859375,4.413810421480238,-8.706659298586844,0.939550840871036
1790943550052936200,6.790936279296875,4.414254073594511,-8.706503231242298,0.9389067708138376
1790943550062966000,6.800966064453125,4.414563870196044,-8.706402693477273,0.9383834775920957
1790943550072996000,6.81099609375,4.414901723848283,-8.706275852227211,0.9379714627251029
1790943550083026200,6.821026123046875,4.4154251632004975,-8.70601632450819,0.9379164446022361
1790943550093056300,6.83105615234375,4.41623092662543,-8.70558670091927,0.9381097752172499
1790943550103086300,6.84108642578125,4.417469236248731,-8.704901056742667,0.9386466585729271
1790943550113116000,6.851115966796875,4.418791424763202,-8.704139424720406,0.9394904159206896
1790943550123146000,6.86114599609375,4.420307966805995,-8.70329186798036,0.9402059437789022
1790943550133176000,6.871176025390625,4.421909264522791,-8.702420930364728,0.9407340593062341
1790943550143206100,6.8812060546875,4.423437204742432,-8.701585648584365,0.9412757649675011
1790943550153236200,6.891236328125,4.424693050022423,-8.700894159188866,0.9417645713977515
1790943550163266300,6.901266357421875,4.425670662882924,-8.700353476440906,0.9421635806526988
1790943550173296000,6.911296142578125,4.426469704306125,-8.699899887454508,0.94260416402705
1790943550183326200,6.921326171875,4.426973562175035,-8.69958132302463,0.9431755341742187
1790943550193356000,6.93135595703125,4.427314922958613,-8.699313027477263,0.9440491752035916
1790943550203386000,6.94138623046875,4.427758575072884,-8.69892782755196,0.9455216589089482
1790943550213416200,6.951416259765625,4.427945329816639,-8.698671222442387,0.9469966268323361
1790943550223446000,6.961446044921875,4.428013426616787,-8.698521000316738,0.9480619179762899
1790943550233476000,6.97147607421875,4.427801245170832,-8.698568931111692,0.9486135605096816
1790943550243506200,6.981506103515625,4.427365191841125,-8.698805077955127,0.9484826276063919
1790943550253535000,6.991534912109375,4.42634929279685,-8.699387261757254,0.9478878765836357
1790943550263565000,7.00156494140625,4.425093155255913,-8.700105639159679,0.947154959199205
1790943550273595100,7.01159521484375,4.423777688743174,-8.70083219986856,0.9466239210624248
1790943550283625200,7.021625244140625,4.422700999422371,-8.701429581239818,0.9461633178133517
1790943550293655000,7.031655029296875,4.422069715781509,-8.701739377841353,0.9462731348633766
1790943550303685000,7.04168505859375,4.421741799001396,-8.701899536839127,0.9463301988128572
1790943550313715200,7.051715087890625,4.4216725331574676,-8.701915318930148,0.9465084779892117
1790943550323745300,7.061745361328125,4.421423526832461,-8.702003581735491,0.946852396056056
1790943550333775000,7.071775146484375,4.420796042583882,-8.702264863020181,0.9473844571061432
1790943550343805200,7.08180517578125,4.419912245486676,-8.702650647467374,0.9479724861271679
1790943550353835000,7.0918349609375,4.419036923956871,-8.70303234026134,0.9485439293395728
1790943550363865000,7.101864990234375,4.417679664129018,-8.703712139219045,0.9486222552727908
1790943550373895200,7.111895263671875,4.417103033284842,-8.704052915480732,0.9481809412460773
1790943550383925200,7.12192529296875,4.416449830073118,-8.704386092957854,0.9481556606743484
1790943550393955300,7.131955322265625,4.416047094491124,-8.70454157578051,0.9486103456392884
1790943550403985000,7.14198486328125,4.415786689989268,-8.704606457710266,0.9492379029531032
1790943550414015000,7.152014892578125,4.415696089096367,-8.704602950578927,0.949682139589265
1790943550424045000,7.162045166015625,4.415883720622957,-8.704482539069652,0.9499101761914789
1790943550434075100,7.1720751953125,4.416227419494092,-8.704317703896761,0.9498325809106231
1790943550444105700,7.182105712890625,4.416744136844575,-8.704101430797577,0.9494085833448916
1790943550454135600,7.192135498046875,4.417462806507944,-8.703804493677616,0.9487889170765876
1790943550464165600,7.20216552734375,4.418241681925952,-8.703474823331833,0.9481800644632429
1790943550474195500,7.212195556640625,4.419254073838889,-8.703025325998663,0.9476005840748548
1790943550484225500,7.2222255859375,4.420290431149303,-8.702569983446597,0.9469362018819898
1790943550494255600,7.232255615234375,4.421393131694197,-8.70207840053737,0.9463063064806163
1790943550504285700,7.24228564453125,4.422676741763949,-8.701530703526736,0.9453416992321609
1790943550514315500,7.2523154296875,4.424161719624698,-8.700879546141623,0.9443871019210666
1790943550524345600,7.262345703125,4.425927852514386,-8.700055954799055,0.9437073029633611
1790943550534375700,7.272375732421875,4.427854436662793,-8.699124226906894,0.9432587554782629
1790943550544405800,7.28240576171875,4.429828659345209,-8.698169702661037,0.9427850004866719
1790943550554435600,7.292435546875,4.431838537862896,-8.697210502240061,0.942185134897381
1790943550564465400,7.30246533203125,4.433533359082043,-8.696441855955124,0.9413068907581269
1790943550574495500,7.31249560546875,4.434765238964557,-8.695928061214088,0.9402483946811407
1790943550584525600,7.322525634765625,4.435697843639552,-8.695565073120594,0.9392100646093487
1790943550594555600,7.3325556640625,4.43642060495615,-8.695281580004096,0.9384198640797287
1790943550604585700,7.342585693359375,4.43692329378128,-8.69508576517105,0.9378499552372842
1790943550614615600,7.352615478515625,4.43734327275902,-8.694916253823042,0.9374380134355276
1790943550624645600,7.362645751953125,4.437637287269532,-8.694820976755022,0.9369424119383096
1790943550634675500,7.372675537109375,4.437725257813931,-8.694851371893286,0.9362311949290335
1790943550644705500,7.38270556640625,4.437468652704358,-8.69506647594869,0.9354521733805536
1790943550654735600,7.392735595703125,4.4369212479546665,-8.695413097429276,0.9348175287388265
1790943550664765700,7.402765625,4.436168968282639,-8.695840967452526,0.9344241455070674
1790943550674795500,7.41279541015625,4.435050777907669,-8.696414383426308,0.9343916314769536
1790943550684825600,7.42282568359375,4.43373414235115,-8.697055603939294,0.9346723481144755
1790943550694855700,7.432855712890625,4.432375421218574,-8.697672859054803,0.935381227036193
1790943550704885500,7.442885498046875,4.430816793599725,-8.698347397315501,0.9364779362317174
1790943550714915600,7.45291552734375,4.429116419422626,-8.699106106728316,0.9374833138819784
1790943550724945700,7.462945556640625,4.427558376325667,-8.699773046204447,0.938653234444186
1790943550734975500,7.4729755859375,4.426394008721411,-8.70027281242013,0.9395111664477735
1790943550745005600,7.483005615234375,4.425521025279164,-8.700629955294728,0.9403125459585339
1790943550755035600,7.49303564453125,4.424524123196304,-8.701043796792625,0.9411784420728683
1790943550765065700,7.503065673828125,4.423426975609362,-8.701554668924212,0.9416109882712363
1790943550775095800,7.513095703125,4.422364022552967,-8.702069632709026,0.9418456738099455
1790943550785125400,7.52312548828125,4.421354260988533,-8.702555954921245,0.9420965798310935
1790943550795155500,7.533155517578125,4.420087017531693,-8.703135800635813,0.9426857048306614
1790943550805186600,7.5431865234375,4.418064864054322,-8.704062267830967,0.9436022351536899
1790943550815216600,7.553216552734375,4.416137695384025,-8.705016207554936,0.9438280797988176
1790943550825246500,7.56324658203125,4.414566208283603,-8.705781346708536,0.9441174181342125
1790943550835276500,7.573276611328125,4.413159264095127,-8.706454131403564,0.944492608122155
1790943550845306600,7.583306640625,4.412199479152262,-8.706922333437204,0.9446618272092193
1790943550855336700,7.593336669921875,4.411538092634082,-8.707293504837155,0.9443230967741459
1790943550865366800,7.60336669921875,4.41105644659698,-8.707627851358055,0.9434927103646099
1790943550875396600,7.613396728515625,4.410809778359532,-8.707871596986054,0.9424036730188876
1790943550885426400,7.623426513671875,4.410723269119859,-8.708038770246505,0.9412624670945108
1790943550895456500,7.63345654296875,4.410801595053076,-8.708101898610591,0.9403096233490854
1790943550905486600,7.643486572265625,4.410828190799057,-8.708162104365229,0.9396222986720502
1790943550915516700,7.6535166015625,4.411168967060744,-8.708045784509181,0.9390972518846392
1790943550925546800,7.663546630859375,4.411660257709026,-8.70784295541346,0.9386786611463874
1790943550935576600,7.67357666015625,4.412262315255403,-8.707571152734756,0.9383591468684375
1790943550945606700,7.683606689453125,4.412926916643977,-8.707280060833693,0.9379437710005789
1790943550955636500,7.693636474609375,4.413883778977394,-8.70681828854084,0.9377225294653325
1790943550965666600,7.70366650390625,4.414929488638043,-8.70629747953713,0.9376370431389659
1790943550975696600,7.713696533203125,4.416060830755532,-8.705692499381303,0.9379247740391641
1790943550985726700,7.723726806640625,4.417137227815389,-8.705050109824537,0.9388191655956208
1790943550995756500,7.733756591796875,4.418143482248484,-8.704436361840367,0.9397777814947068
1790943551005786600,7.74378662109375,4.419005359774828,-8.703897432658076,0.9407195923894643
1790943551015816700,7.753816650390625,4.419805570241809,-8.703414033055305,0.9414341703996062
1790943551025846500,7.763846435546875,4.420388046304882,-8.70306916514039,0.9418906089302151
1790943551035876600,7.773876708984375,4.420677676901221,-8.702892639529704,0.9421437069084495
1790943551045906400,7.783906494140625,4.420457604409754,-8.702982071378827,0.9423633410084992
1790943551055936500,7.7939365234375,4.4198280743345615,-8.703280177542567,0.9425620053857564
1790943551065966600,7.803966552734375,4.419019096039236,-8.703639658504724,0.9430316687241196
1790943551075996700,7.81399658203125,4.418153126859664,-8.704026027473807,0.943519452241063
1790943551086026800,7.82402685546875,4.417155055733025,-8.704471433153747,0.9440942564543336
1790943551096056600,7.834056640625,4.4159643846437335,-8.705016792076826,0.944630555288121
1790943551106086400,7.84408642578125,4.414471515737474,-8.705725817129016,0.945079321968928
1790943551116116500,7.854116455078125,4.41284683714509,-8.706514337158202,0.9454064350314437
1790943551126146600,7.864146484375,4.411303991617262,-8.70726603230834,0.9456702005341648
1790943551136176600,7.8741767578125,4.409622029879689,-8.708087870085238,0.9459493097364902
1790943551146206700,7.884206787109375,4.408025700598955,-8.708866453242301,0.9462312684830277
1790943551156236500,7.894236572265625,4.406693282951414,-8.709501828536391,0.9465726292666047
1790943551166266600,7.9042666015625,4.405412303230166,-8.710102717038989,0.947012189727649
1790943551176296700,7.914296630859375,4.403959766334295,-8.710774332690239,0.9475875053975731
1790943551186326500,7.924326416015625,4.402437963594496,-8.711445363819598,0.9484978251755237
1790943551196357400,7.934357421875,4.400888103803992,-8.71209652120471,0.9497064703129231
1790943551206387500,7.944387451171875,4.399389389678835,-8.712727220323682,0.9508636044587939
1790943551216417500,7.95441748046875,4.397932761129737,-8.71338188484013,0.951602147866413
1790943551226447600,7.964447509765625,4.396662010541558,-8.71399738638997,0.9518411442540585
1790943551236477700,7.974477783203125,4.39552949938029,-8.714553851228953,0.9519783607676625
1790943551246507500,7.984507568359375,4.394229230436682,-8.715250601321458,0.9516032438449561
1790943551256537600,7.99453759765625,4.393900144612789,-8.715503699299692,0.9508050792045891
1790943551266567700,8.004567626953126,4.393710174998641,-8.715646907162666,0.9503731175281107
1790943551276597500,8.014597412109374,4.393838185292482,-8.715589039495587,0.9503022442489862
1790943551286627600,8.024627685546875,4.393866242343187,-8.7155995608896,0.9500740615162998
1790943551296657700,8.03465771484375,4.393805744327604,-8.715698345088958,0.9494473079200834
1790943551306687500,8.0446875,4.393943106971681,-8.715711204570532,0.9486923248343169
1790943551316717600,8.054717529296875,4.394576144178211,-8.715499023124575,0.9477170500613749
1790943551326747600,8.06474755859375,4.395723268386721,-8.715029067525267,0.9467074346274137
1790943551336777700,8.07477783203125,4.397006878456473,-8.714469680076837,0.945898675527796
1790943551346807600,8.0848076171875,4.398356539499759,-8.713857101136446,0.9452689993221313
1790943551356837600,8.094837646484375,4.4002682183399795,-8.7129925932616,0.9443461123235524
1790943551366867500,8.104867431640624,4.401983497825265,-8.712267786118387,0.943038756052032
1790943551376897500,8.1148974609375,4.403806037077308,-8.711513168358803,0.9414945953499525
1790943551386927600,8.124927734375,4.406019036951661,-8.710553383415936,0.9400117363810538
1790943551396957700,8.134957763671874,4.4084874728918075,-8.709442791825532,0.9387455158375203
1790943551406987800,8.14498779296875,4.410798087921738,-8.708388314336538,0.9376667806901037
1790943551417017600,8.155017578125,4.41319199732095,-8.70724674308598,0.9370026176929473
1790943551427048700,8.165048583984374,4.415737590150535,-8.70597774606347,0.9368027112066745
1790943551437078800,8.175078857421875,4.418220054616034,-8.70474674296379,0.9365371190730482
1790943551447108000,8.185108154296875,4.4204310086637735,-8.703632059720158,0.9364650036849081
1790943551457138200,8.19513818359375,4.422229290257394,-8.702703254437447,0.9366085038088261
1790943551467168000,8.20516796875,4.423557323990762,-8.701999490082263,0.936869785093516
1790943551477198000,8.215197998046875,4.4246416120961305,-8.70144711689651,0.9368766532257199
1790943551487228200,8.225228271484376,4.425614548781514,-8.700952611377835,0.9368719039853661
1790943551497258200,8.23525830078125,4.4265033143147825,-8.700504867610334,0.936845162108913
1790943551507288000,8.2452880859375,4.427614198166132,-8.699930282592772,0.9369288218043744
1790943551517318000,8.25531787109375,4.4288522155284875,-8.699291400167345,0.9370086090423166
1790943551527348000,8.265347900390625,4.430019505742192,-8.698692265230417,0.9370482104003429
1790943551537378000,8.2753779296875,4.430886351704597,-8.698240429809688,0.9371456063602119
1790943551547408100,8.285408203125,4.431203747090697,-8.698097806468606,0.9369663042705505
1790943551557438200,8.295438232421875,4.431432879671454,-8.697989669919014,0.9368949195347726
1790943551567468300,8.30546826171875,4.431520557954907,-8.697927126076817,0.9370589509900659
1790943551577498000,8.315498046875,4.431947551195323,-8.697648309135436,0.9376258641578257
1790943551587528000,8.32552783203125,4.433266524839401,-8.696896613985299,0.9383690837405622
1790943551597558000,8.33555810546875,4.435108061052858,-8.69585148884654,0.9393529071461408
1790943551607588000,8.345588134765626,4.43699869710505,-8.69475375673771,0.9405705393075943
1790943551617619000,8.355618896484375,4.438905992031097,-8.69365368654132,0.9417522233728319
1790943551627649000,8.36564892578125,4.440941004990041,-8.69247645945549,0.9430237776786088
1790943551637679000,8.37567919921875,4.4434538645938035,-8.691011647599934,0.9446791436702012
1790943551647709200,8.385709228515625,4.447027923688292,-8.688922566366195,0.947070057394728
1790943551657739300,8.3957392578125,4.452656577225029,-8.685675547268985,0.9504073851238936
1790943551667769000,8.40576904296875,4.461628695970774,-8.680605404397845,0.954636400995776
1790943551677799000,8.415798828125,4.474068198566139,-8.673571852499245,0.9603449879009276
1790943551687829000,8.4258291015625,4.489404591646791,-8.664805193197727,0.9678789636023342
1790943551697859000,8.435859130859376,4.508097309418022,-8.653969910928607,0.9778841517228632
1790943551707889200,8.44588916015625,4.531643604700267,-8.640184546682239,0.990866602088511
1790943551717919200,8.455919189453125,4.560767992375791,-8.623003110256791,1.006776338077709
1790943551727949000,8.465948974609375,4.595137879489362,-8.602622001007198,1.024697925345972
1790943551737979100,8.475979248046874,4.634719071510434,-8.579091487815976,1.0435255215432495
1790943551748009200,8.48600927734375,4.679242103847861,-8.552530813148618,1.0626779657807202
1790943551758039000,8.4960390625,4.728248126818239,-8.523129362097382,1.0818078328602014
1790943551768070000,8.50606982421875,4.7807747251302,-8.491473994639515,1.0997457867413758
1790943551778100000,8.516099853515625,4.836561786542832,-8.457851711022853,1.1148138842746615
1790943551788130000,8.526130126953126,4.895478085891902,-8.422392275106906,1.1260538748871534
1790943551798160100,8.53616015625,4.957972535988688,-8.384749065411091,1.1335242107678205
1790943551808190200,8.546190185546875,5.022974292731285,-8.344827389389277,1.141910054058209
1790943551818220000,8.556219970703125,5.091867796215415,-8.3015879671216,1.1519099084164948
1790943551828250000,8.56625,5.1651095580369235,-8.254659627208113,1.1630167741686106
1790943551838280200,8.5762802734375,5.2416526994913815,-8.20477828270793,1.173489652866125
1790943551848310000,8.58631005859375,5.320655509057641,-8.152828315240145,1.1799985233034938
1790943551858340000,8.596340087890624,5.4011593708366155,-8.09953570099175,1.1812581679757683
1790943551868370200,8.6063701171875,5.482861502489447,-8.044906285181641,1.1781808794222772
1790943551878400000,8.61639990234375,5.56624179648757,-7.988232796323299,1.1728086117994039
1790943551888430000,8.62643017578125,5.65163986004889,-7.928889211472868,1.1670796396933496
1790943551898460200,8.636460205078125,5.739516296422481,-7.866286917087435,1.1618396932132542
1790943551908491000,8.646490966796875,5.830191423603892,-7.800023177585006,1.1571058696243912
1790943551918521000,8.65652099609375,5.923696805775165,-7.729905685263872,1.1527195442989469
1790943551928551200,8.66655126953125,6.019580022993684,-7.655930932992696,1.1496804688639939
1790943551938581000,8.6765810546875,6.117188748830556,-7.578406963807344,1.1481003600656985
1790943551948611000,8.686611083984374,6.215502408066391,-7.4980702752888195,1.1475485714018345
1790943551958641200,8.69664111328125,6.31354894079864,-7.415673147109151,1.1477234165120869
1790943551968671000,8.7066708984375,6.411197998645902,-7.331110365328192,1.1496692168176172
1790943551978701000,8.716701171875,6.508952854955196,-7.243501639980077,1.155687965650484
1790943551988731100,8.726731201171875,6.607732378137111,-7.151949145442247,1.1652779240336268
1790943551998761200,8.73676123046875,6.707877344453334,-7.0564540507584805,1.1752554934948682
1790943552008791300,8.746791259765626,6.808432060614228,-6.958286521995067,1.182325797207281
1790943552018821000,8.756821044921875,6.9080351751387115,-6.859010155206918,1.1846558475900442
1790943552028851000,8.766850830078125,7.005715797168016,-6.759273769691586,1.1842911059308796
1790943552038882000,8.776882080078124,7.102522558972239,-6.657282298725843,1.185390226279199
1790943552048912100,8.786912109375,7.199480711945891,-6.551232492280006,1.1913120906088501
1790943552058942000,8.79694189453125,7.296130237361789,-6.4414394076526165,1.2019689475711435
1790943552068972000,8.806971923828126,7.3911559609681365,-6.329390653052926,1.216557371828705
1790943552079002000,8.817002197265625,7.483730199769139,-6.216058872905373,1.234814766922593
1790943552089032200,8.8270322265625,7.573797424185275,-6.101561556109786,1.256549628868699
1790943552099062300,8.837062255859376,7.661791933980584,-5.985562602579593,1.280773531151563
1790943552109092000,8.847092041015625,7.748381253153085,-5.867044944226741,1.3079581829361617
1790943552119122000,8.857121826171875,7.833859980735182,-5.745619873994588,1.3374904207602143
1790943552129152000,8.867152099609376,7.917170132106542,-5.622988935104012,1.367774792125821
1790943552139182000,8.87718212890625,7.996738174340129,-5.501943804100155,1.3968451115265488
1790943552149213200,8.887213134765625,8.072475844630599,-5.382894815349578,1.4247681605882943
1790943552159243000,8.897242919921876,8.14574975515604,-5.263457704064249,1.4536710144676268
1790943552169273000,8.907273193359375,8.217305755847692,-5.141431160807609,1.4872643642507493
1790943552179303200,8.91730322265625,8.286393320599197,-5.016373287031054,1.5303805985301733
1790943552189333200,8.927333251953126,8.352866318938135,-4.8884898344397545,1.5819852596916257
1790943552199363000,8.937363037109375,8.416800154188275,-4.758642972820997,1.638041201173514
1790943552209393200,8.94739306640625,8.477358960047363,-4.629114675632119,1.695897177814692
1790943552219423000,8.957423095703126,8.53417331868112,-4.501249050958454,1.7541447841219604
1790943552229453000,8.967453125,8.587135093539953,-4.37591908224225,1.8118585758134722
1790943552239483100,8.977483154296875,8.636883167049287,-4.252515697674453,1.8683515935383737
1790943552249513200,8.98751318359375,8.683957052913307,-4.129715539696813,1.924766577591002
1790943552259544000,8.9975439453125,8.728568932577968,-4.006665790872276,1.9821940996870397
1790943552269574100,9.00757421875,8.770496687725187,-3.885342719709873,2.0378623570255936
1790943552279604200,9.017604248046876,8.809604709276556,-3.7676118278205393,2.0895808538250624
1790943552289634000,9.027634033203125,8.845335363349317,-3.6545921823620793,2.1387802074104547
1790943552299664100,9.0376640625,8.87755888608396,-3.5457577136337757,2.1879063496291637
1790943552309694000,9.04769384765625,8.906265925130247,-3.4402173180148004,2.239133117388934
1790943552319724000,9.05772412109375,8.931540651640296,-3.337683702996373,2.292996955654025
1790943552329754000,9.067754150390625,8.95396817202568,-3.238049316550791,2.3477394764497874
1790943552339784200,9.0777841796875,8.97379457000196,-3.142411890786886,2.401382803831994
1790943552349814300,9.087814208984375,8.991467004814744,-3.050752721004188,2.4529183452799916
1790943552359845000,9.09784521484375,9.007505700945854,-2.9633725437149403,2.500728436464071
1790943552369875200,9.107875244140626,9.022455432796479,-2.8817314945995807,2.5419088803753254
1790943552379905000,9.117905029296875,9.036261839830875,-2.807796489816904,2.5753897096946834
1790943552389935000,9.12793505859375,9.048053399911522,-2.7435943590193985,2.603037595076859
1790943552399965000,9.13796484375,9.057166680693626,-2.6882486116334796,2.628961433145404
1790943552409995000,9.1479951171875,9.063768855437635,-2.637714940704405,2.657243524777889
1790943552420025000,9.158025146484375,9.069404815497993,-2.5890537856489417,2.6857170473292467
1790943552430055200,9.16805517578125,9.075597240397334,-2.5437571385905144,2.707992007501423
1790943552440085200,9.178085205078125,9.081952162382006,-2.506179395346343,2.721690570247173
1790943552450115600,9.188115478515625,9.087040425431727,-2.4779116245001553,2.73057413392663
1790943552460146700,9.198146728515624,9.090627636268735,-2.45739695199877,2.7371657872766253
1790943552470176800,9.2081767578125,9.093755997422337,-2.444347939202934,2.7384581651747224
1790943552480206600,9.21820654296875,9.09723916336298,-2.4404317886725067,2.730368674482405
1790943552490236400,9.228236328125,9.10037161616981,-2.4465505638137457,2.7144085965454576
1790943552500266500,9.2382666015625,9.102427379655838,-2.4602584789097306,2.6950559535607694
1790943552510296600,9.248296630859375,9.103268506655096,-2.478851827959716,2.675104467900097
1790943552520326700,9.25832666015625,9.103032359811664,-2.50131851131171,2.6549185889616607
1790943552530356700,9.268356689453125,9.101970283538103,-2.5285817812904714,2.6326412907019257
1790943552540386600,9.278386474609375,9.100418377920985,-2.5621923744693396,2.6053680838510394
1790943552550416600,9.288416748046876,9.09869286930263,-2.603329563760757,2.57037918805629
1790943552560447700,9.29844775390625,9.097204092049598,-2.65185247938931,2.52565683375448
1790943552570477600,9.3084775390625,9.095431237158179,-2.706608444188535,2.473415482124686
1790943552580507400,9.31850732421875,9.092318073573708,-2.766085592290759,2.4184505507498977
1790943552590537500,9.328537353515625,9.087059130132198,-2.8286802878916264,2.3652285175196823
1790943552600567600,9.338567626953125,9.080325437963008,-2.8919579973205924,2.3140125634148716
1790943552610597600,9.34859765625,9.073958825540542,-2.952539307272434,2.26189323072955
1790943552620627700,9.358627685546875,9.068563688498735,-3.012364538159966,2.2039050060108303
1790943552630657800,9.36865771484375,9.061835257026553,-3.0769603444501756,2.141457025404274
1790943552640687600,9.3786875,9.050736939907074,-3.1458594008922574,2.087610138273984
1790943552650718700,9.38871875,9.035396747434138,-3.2167645364597437,2.0455853524930774
1790943552660748500,9.39874853515625,9.018872313612698,-3.2896155453979965,2.002186794140935
1790943552670778600,9.408778564453126,9.0057573959738,-3.3598122404351827,1.943804163277149
1790943552680808400,9.418808349609375,8.999614655435085,-3.418160676768422,1.8690908675983546
1790943552690838500,9.428838623046875,8.999295506483316,-3.458550554823875,1.7948513269111512
1790943552700868600,9.43886865234375,9.000077596771716,-3.4808214233428236,1.747245818388462
1790943552710898700,9.448898681640625,8.998581220734119,-3.4846506262421606,1.7473206371903418
1790943552720928800,9.4589287109375,8.99449541272521,-3.476977022874355,1.7832745786249637
1790943552730959600,9.468959716796874,8.988649024784564,-3.469733335356414,1.8263412746742367
1790943552740989700,9.47898974609375,8.983664806631207,-3.4654546351239084,1.8587018677920102
1790943552751019500,9.48901953125,8.982518559205532,-3.458658691373467,1.8768138630658386
1790943552761049600,9.499049560546876,8.98641732020974,-3.4429514191538093,1.8870003260374069
1790943552771079400,9.509079345703125,8.99469941086471,-3.417458081457019,1.893869773415476
1790943552781109500,9.519109619140625,9.005512481302022,-3.384357775887847,1.9019075339205562
1790943552791139600,9.5291396484375,9.016006402787566,-3.3477915477737783,1.916846744377166
1790943552801169700,9.539169677734375,9.023261488482355,-3.3147359581291673,1.9400160230405628
1790943552811199700,9.54919970703125,9.025923401167988,-3.290529153111577,1.9686299769759177
1790943552821230600,9.559230712890624,9.024927960389851,-3.274805222018063,1.99917899062708
1790943552831260700,9.5692607421875,9.02239464251995,-3.263170898325741,2.0294088553264737
1790943552841290800,9.579290771484375,9.020165276032685,-3.2527389361605046,2.0558910579301415
1790943552851320600,9.589320556640626,9.018639089378715,-3.243868231962621,2.076499984586239
1790943552861350700,9.5993505859375,9.016834085783362,-3.2381919398918746,2.093132262696326
1790943552871380500,9.60938037109375,9.01404065567255,-3.2364652622297405,2.107783011600375
1790943552881410600,9.61941064453125,9.01027282757163,-3.239756704990566,2.1188069483093916
1790943552891440600,9.629440673828125,9.006351854735613,-3.2486808929413553,2.121811098561436
1790943552901471500,9.639471435546875,9.002693916749953,-3.262911662867665,2.115488763672113
1790943552911501600,9.64950146484375,8.999181524714826,-3.2803876983255145,2.1033727939426896
1790943552921531600,9.65953173828125,8.995587299615144,-3.2978988050967453,2.091329304927587
1790943552931561700,9.669561767578125,8.991400369319319,-3.3139433464467523,2.0839574609853324
1790943552941591600,9.679591552734376,8.986443623694777,-3.328910613954067,2.0814812801301477
1790943552951621600,9.68962158203125,8.980969576197863,-3.34397432757318,2.080961786300689
1790943552961651500,9.6996513671875,8.975675561442971,-3.3598855979323385,2.0781740552783012
1790943552971681500,9.709681640625,8.970964899533987,-3.3770030292108655,2.070754572802037
1790943552981712600,9.719712646484375,8.967051525482535,-3.394752913174033,2.058646055726707
1790943552991742700,9.72974267578125,8.964165156391262,-3.4118837884560227,2.0428366383068264
1790943553001772500,9.7397724609375,8.96222921989262,-3.4266195852950214,2.0266016889512537
1790943553011802600,9.749802734375,8.96090586233437,-3.4379423588201403,2.013230750724673
1790943553021832700,9.759832763671875,8.960099222126603,-3.445307919152081,2.0042102627925575
1790943553031862500,9.769862548828126,8.959406563687324,-3.449602401475608,1.9999165111213921
1790943553041892600,9.779892578125,8.958772941958904,-3.452019984011352,1.9985826321691273
1790943553051922400,9.78992236328125,8.958056902644037,-3.453598777635395,1.99906252464056
1790943553061953500,9.79995361328125,8.957237402954696,-3.454527875179052,2.0011305630862712
1790943553071983600,9.809983642578125,8.956710748732089,-3.454519107350707,2.003500360957533
1790943553082013700,9.820013671875,8.956799011537433,-3.4535084690034386,2.004846807130426
1790943553092043500,9.83004345703125,8.957572333997488,-3.4513629814073443,2.00508660723567
1790943553102073600,9.840073486328125,8.95885185241401,-3.448148111014068,2.0049020444490013
1790943553112103700,9.850103759765625,8.960531768324971,-3.4440646410927176,2.0044136764101683
1790943553122133500,9.860133544921876,8.9623607373178,-3.4394612389504906,2.0041409969486295
1790943553132164400,9.870164306640625,8.964172755175829,-3.4347076146826145,2.0041884893521664
1790943553142194400,9.8801943359375,8.96562412302792,-3.4304628167197104,2.0049654650740325
1790943553152224500,9.890224609375,8.966401537141204,-3.427114967596531,2.007213828522712
1790943553162254600,9.900254638671875,8.966413812100887,-3.42517669301033,2.0104665467083453
1790943553172284700,9.91028466796875,8.9656989418298,-3.4250223792314527,2.013913764552772
1790943553182314800,9.920314697265624,8.964213671708107,-3.426789388903975,2.0175151500456034
1790943553192344600,9.930344482421875,8.962082504898309,-3.4302459590986367,2.021108206101507
1790943553202374700,9.940374755859375,8.959670183059572,-3.4347876941815016,2.024087806434184
1790943553212405800,9.95040576171875,8.957275396877527,-3.4397339184120295,2.0262859010003504
1790943553222435800,9.960435791015625,8.955054213696718,-3.4446462403729554,2.0277581655099985
1790943553232465400,9.97046533203125,8.953259731495379,-3.4491926516309377,2.027953103560209
1790943553242495500,9.98049560546875,8.9519153311491,-3.453369645054638,2.0267779223009943
1790943553252525600,9.990525634765625,8.951068943452835,-3.456920615534484,2.0244632156178355
1790943553262555600,10.0005556640625,8.950771421810984,-3.459470592278242,2.0214196101382376
1790943553272585700,10.010585693359374,8.951053745883703,-3.460884258468449,2.017745890061557
1790943553282616600,10.020616455078125,8.95186213965714,-3.461135895141959,2.0137245255909857
1790943553292646700,10.030646728515626,8.953070346403122,-3.4603780625119804,2.0096525999769566
1790943553302676700,10.0406767578125,8.95449190363884,-3.4589588433638214,2.0057574922345576
1790943553312706800,10.050706787109375,8.955947363144158,-3.457481172026694,2.001802470998466
1790943553322736400,10.060736328125,8.95729059444666,-3.456318850249052,1.9977945505313575
1790943553332766500,10.070766357421874,8.95846080726981,-3.45543651445657,1.994071584485471
1790943553342796500,10.080796630859375,8.9594533254385,-3.4548031849890943,1.9907083916626869
1790943553352827600,10.09082763671875,8.960342383232712,-3.4542680551990865,1.9876320529572664
1790943553362857500,10.100857421875,8.96111161403954,-3.453767704461515,1.9850318073309956
1790943553372887600,10.110887451171875,8.9618960424155,-3.4528523431822657,1.9830822806984185
1790943553382917600,10.120917724609376,8.962560059282183,-3.4518323524847623,1.98185799960047
1790943553392947700,10.13094775390625,8.963130552646517,-3.45069954906255,1.9812499507047234
1790943553402977800,10.140977783203125,8.96344151829183,-3.4498145829215643,1.9813836600869892
1790943553413007600,10.151007568359375,8.963328705567122,-3.4496789738431572,1.9821302406705914
1790943553423038500,10.16103857421875,8.962931815204024,-3.4496789738431572,1.9839226770453153
1790943553433068500,10.171068603515625,8.962164337962866,-3.449722228462994,1.987312027222663
1790943553443098600,10.1810986328125,8.96088540406823,-3.4502570659920573,1.9921439774237573
1790943553453128200,10.191128173828124,8.959184445369242,-3.4513957146331666,1.9978155933193862
1790943553463158000,10.201157958984375,8.95708133561015,-3.453369937315583,2.0038246244758366
1790943553473188000,10.21118798828125,8.954853722688556,-3.4557039332211015,2.00974875382781
1790943553483218200,10.22121826171875,8.952707358309626,-3.4581083640143273,2.015169317571819
1790943553493249300,10.231249267578125,8.95081642999649,-3.460149222192168,2.0200594277009367
1790943553503279000,10.241279052734376,8.949367984753847,-3.4617373681664465,2.023751121825725
1790943553513309000,10.251308837890624,8.948362607103586,-3.4628321776658293,2.0263233104012905
1790943553523339000,10.261339111328125,8.947602144125103,-3.463496486793458,2.0285450781039893
1790943553533369000,10.271369140625,8.946948064130543,-3.463755722251534,2.0309847263410687
1790943553543399200,10.281399169921874,8.946514348888396,-3.4634435875624416,2.0334272971875964
1790943553553430000,10.291429931640625,8.946275279435515,-3.462737777380645,2.0356803368113936
1790943553563460000,10.301460205078126,8.946050823029875,-3.462472988964617,2.037116068702936
1790943553573490200,10.311490234375,8.94576382278204,-3.4628435758426783,2.037747060082853
1790943553583520300,10.321520263671875,8.945152997407316,-3.46386590462774,2.038690916804224
1790943553593550000,10.331550048828126,8.944238805171846,-3.465443821468949,2.040017927624285
1790943553603580000,10.341579833984374,8.943263238137959,-3.4671976793989536,2.041315420088917
1790943553613610000,10.35160986328125,8.94234904590249,-3.468819727642834,2.0425630820624527
1790943553623641000,10.36164111328125,8.941558187785745,-3.470261158622801,2.0435783965848384
1790943553633671200,10.371671142578125,8.940980095636844,-3.471143494415283,2.0446084702849388
1790943553643701000,10.381700927734375,8.940574437445402,-3.471486608764529,2.045798410721868
1790943553653731000,10.39173095703125,8.940293866938353,-3.4716198797553774,2.0468005735017356
1790943553663761200,10.40176123046875,8.940084608101845,-3.4717212943032383,2.047540578214079
1790943553673791200,10.411791259765625,8.939929125279187,-3.4721903731197115,2.047425427401811
1790943553683821300,10.4218212890625,8.939798776897787,-3.4729604807093737,2.046687906907499
1790943553693852200,10.43185205078125,8.939555615791678,-3.473943354266882,2.0460801502726973
1790943553703882000,10.441882080078125,8.939186197957396,-3.4750665130779144,2.0457892045021056
1790943553713912000,10.451912109375,8.9388062587291,-3.476178858233988,2.0455593412689863
1790943553723942100,10.461942138671875,8.938282527115941,-3.477506891967356,2.045588713493943
1790943553733972000,10.471971923828125,8.937628447121382,-3.4788995153695343,2.046079419620335
1790943553744002000,10.482001953125,8.93669847279489,-3.48041810323894,2.0475584061317145
1790943553754033200,10.492033203125,8.935483836308121,-3.4821064947173,2.049988117496669
1790943553764063200,10.502063232421875,8.934063448116182,-3.483723282264173,2.0534275904260575
1790943553774093000,10.512093017578126,8.932498098495602,-3.4851357794106006,2.057836492909491
1790943553784123100,10.522123046875,8.930978926104306,-3.4859885968476534,2.062978531973064
1790943553794153200,10.5321533203125,8.929576658090948,-3.4862715054422613,2.068563930889964
1790943553804183000,10.54218310546875,8.928354422819615,-3.4861993169888854,2.073955560800433
1790943553814214000,10.5522138671875,8.927252599057555,-3.486149632628262,2.0787755283027884
1790943553824244000,10.562243896484375,8.926022765001655,-3.4866210495322942,2.083260272501409
1790943553834274000,10.572274169921876,8.924863658094406,-3.48752413585186,2.0867136278256773
1790943553844304100,10.58230419921875,8.92392374689579,-3.487783079048991,2.0902973315313456
1790943553854334200,10.592334228515625,8.92328661803603,-3.4871181853994724,2.0941208353422582
1790943553864364000,10.602364013671876,8.922848811140655,-3.4859289756149052,2.0979637745060025
1790943553874395100,10.61239501953125,8.922458350518346,-3.484889111173153,2.10134888689965
1790943553884425200,10.62242529296875,8.92205795302391,-3.4846275376275178,2.103483414710313
1790943553894455300,10.632455322265624,8.921704901802539,-3.485065929044783,2.104252791647613
1790943553904484900,10.64248486328125,8.921392182591557,-3.486021037812531,2.1039964787989853
1790943553914515000,10.652514892578125,8.921122133478521,-3.487159978714585,2.1032535514771937
1790943553924545000,10.662544921875,8.920928072211145,-3.4884164085164664,2.101993614543974
1790943553934576000,10.672576171875,8.920722905027866,-3.4898248140096664,2.100526026209444
1790943553944606000,10.68260595703125,8.920421291732788,-3.4914097451135513,2.0991738809481264
1790943553954636000,10.692635986328124,8.920072916686534,-3.4928844938412307,2.0982005058713256
1790943553964666000,10.702666015625,8.919851382890343,-3.4939535843774676,2.0973617169596253
1790943553974696200,10.7126962890625,8.91985664358735,-3.4945077111288905,2.096414499237388
1790943553984726300,10.722726318359374,8.920130784353614,-3.4947397663190958,2.094861424576491
1790943553994757000,10.732757080078125,8.920532935413718,-3.494866899830103,2.0929352788195015
1790943554004787200,10.742787109375,8.920917550817132,-3.4951249662443993,2.0908649022862313
1790943554014817000,10.752817138671874,8.921194614192842,-3.495552544006705,2.0889669597104192
1790943554024847000,10.76284716796875,8.921344836318493,-3.496259523232281,2.0871414978489278
1790943554034877200,10.772877197265625,8.921385752850771,-3.4972096635639667,2.085375072698295
1790943554044907000,10.782906982421874,8.92148161444068,-3.4981063201427456,2.0834603251181543
1790943554054938000,10.792938232421875,8.921558771330117,-3.4990818871766325,2.0814894634366032
1790943554064968200,10.80296826171875,8.921514347666502,-3.500293308793008,2.079641789743304
1790943554074998000,10.812998046875,8.921284046041965,-3.5019191564291714,2.0778924618579446
1790943554085028000,10.823028076171875,8.92082694992423,-3.5040652285471556,2.07623636521399
1790943554095058200,10.83305810546875,8.92039907990098,-3.5063448639169335,2.074225902174413
1790943554105088000,10.843087890625,8.920214955505728,-3.508388060182333,2.0715609207488597
1790943554115119000,10.853119140625,8.92036050145626,-3.510004555468261,2.068191590446234
1790943554125149000,10.86314892578125,8.920860852193831,-3.511230297870934,2.0639488383099436
1790943554135179000,10.873178955078124,8.921662231704593,-3.5121927131623027,2.058840993776917
1790943554145209000,10.883208984375,8.922702680668234,-3.5128742656856775,2.0531625097490847
1790943554155239200,10.8932392578125,8.923895689845084,-3.513329900498688,2.0471907418631017
1790943554165270000,10.90327001953125,8.925093375197052,-3.5137168539896604,2.041296715388447
1790943554175300000,10.913300048828125,8.926376985266804,-3.5138010251417753,2.0355286533810197
1790943554185330200,10.923330078125,8.927510373210906,-3.5139980090185996,2.03021242679432
1790943554195360300,10.9333603515625,8.928396508395672,-3.5143536905884742,2.0256946571089327
1790943554205390300,10.943390380859375,8.929034806299208,-3.5146909597188234,2.0222920090585945
1790943554215420000,10.953419921875,8.929510607117415,-3.514842643149197,2.0199271796233953
1790943554225451000,10.963450927734375,8.929751430135966,-3.515066515032947,2.0184724507704375
1790943554235481000,10.973481201171875,8.929812804934382,-3.5155370551541445,2.0173808561414477
1790943554245511200,10.98351123046875,8.929647385239601,-3.516388411286473,2.016629160991311
1790943554255541000,10.993541015625,8.929246987745165,-3.517586096638441,2.016313080779463
1790943554265571000,11.003571044921875,8.928942451840639,-3.5180753414601087,2.0168074401676654
1790943554275601200,11.01360107421875,8.928680586034059,-3.5179131366357206,2.0182496017999947
1790943554285632300,11.02363232421875,8.928366697779298,-3.517455163735151,2.020436298189312
1790943554295662000,11.033662109375,8.927928306362032,-3.5168873007193207,2.0233583231158554
1790943554305692200,11.043692138671876,8.927395806920527,-3.5165646446362135,2.026266904038936
1790943554315722000,11.053721923828125,8.926825313556193,-3.516393964244425,2.0290746549360454
1790943554325752000,11.063751953125,8.926285215330124,-3.51609556581974,2.0319651156805456
1790943554335783000,11.073782958984374,8.9257708360672,-3.515644607181847,2.035005067898333
1790943554345813000,11.08381298828125,8.925122601291537,-3.5152690518677234,2.03849334840551
1790943554355843000,11.093843017578125,8.924331158652901,-3.5149560403957962,2.042494839131832
1790943554365873200,11.103873046875,8.923426318767666,-3.5146667020604014,2.0469395435810087
1790943554375903200,11.1139033203125,8.92254252167046,-3.5143344013661144,2.051359113588929
1790943554385933000,11.12393310546875,8.92175867781639,-3.5139068236038087,2.055497236306965
1790943554395964200,11.133964111328124,8.92106777294278,-3.5134523578345775,2.0592679870173334
1790943554405994200,11.143994140625,8.920497864100337,-3.5129242423072453,2.0626361482761797
1790943554416024300,11.1540244140625,8.920122016525267,-3.5124881889775392,2.0650034619294106
1790943554426054000,11.164053955078124,8.919796437832712,-3.512387943473458,2.066577433247864
1790943554436084000,11.174083984375,8.919526973241567,-3.512371576860547,2.06776898111999
1790943554446115600,11.184115478515626,8.919275044307112,-3.5123686542510986,2.068859698966145
1790943554456145400,11.1941455078125,8.918955895355344,-3.5122760075315833,2.070393046013266
1790943554466175500,11.204175537109375,8.918760080522299,-3.5120296315550803,2.0716541519902645
1790943554476205600,11.21420556640625,8.918781123310326,-3.5118858391702172,2.0718070044644175
1790943554486235600,11.224235595703124,8.918945958483219,-3.5122716236174103,2.0704446300700305
1790943554496265500,11.234265380859375,8.919139435228704,-3.5133404218927025,2.0677947000831365
1790943554506296300,11.24429638671875,8.919303101357817,-3.515014492584765,2.064241245385259
1790943554516326400,11.254326416015624,8.91950125427842,-3.5169136042043565,2.0601447698518633
1790943554526356500,11.2643564453125,8.91978182478547,-3.518618654556572,2.056014976570755
1790943554536386600,11.274386474609376,8.92011675582826,-3.5200764521494508,2.052064046987891
1790943554546416600,11.284416748046874,8.920402587032317,-3.5210964428469538,2.0490676416508853
1790943554556447500,11.294447509765625,8.92071296815574,-3.5216634290799496,2.0467408061385153
1790943554566477600,11.3044775390625,8.92101516597271,-3.5218124821618195,2.0451681499943137
1790943554576507600,11.314507568359375,8.921316779267787,-3.521674534995854,2.04408897645548
1790943554586537500,11.324537353515625,8.921663400748372,-3.5211847056522965,2.0434195527613164
1790943554596567600,11.334567626953126,8.921933449861406,-3.520752159453928,2.042985106866807
1790943554606598700,11.3445986328125,8.92217076574862,-3.5203304269105193,2.0426760409176348
1790943554616628500,11.35462841796875,8.922291761779785,-3.52024537897557,2.04229376360178
1790943554626658600,11.364658447265626,8.922285332038998,-3.5205580981865525,2.0417831837311384
1790943554636688400,11.3746884765625,8.92214972296059,-3.521036529353261,2.041550105627626
1790943554646718500,11.384718505859375,8.921822390702367,-3.5215821805372833,2.0420409578844905
1790943554656749600,11.39474951171875,8.92130976500511,-3.522178100603819,2.0432513565875587
1790943554666779400,11.404779296875,8.920555147245526,-3.5229636980235575,2.045190215695649
1790943554676809500,11.4148095703125,8.91944981635213,-3.524223927217722,2.0478395611606537
1790943554686839600,11.424839599609374,8.918371373465657,-3.525184004421532,2.0508812669441103
1790943554696869600,11.43486962890625,8.91745308957696,-3.525550207385421,2.05424299846217
1790943554706900500,11.444900390625,8.916546496126054,-3.5256714956775306,2.057965379986167
1790943554716930600,11.4549306640625,8.91554930178225,-3.5258301933705805,2.0620104175932705
1790943554726960400,11.46496044921875,8.91459770014584,-3.526079199695587,2.0656937822811305
1790943554736990500,11.474990478515625,8.91381677890122,-3.526480181711912,2.0683800987556578
1790943554747020500,11.4850205078125,8.913158022731542,-3.5271114653527733,2.070139509643614
1790943554757051400,11.495051513671875,8.912670531475543,-3.5278836187690494,2.0709249609328806
1790943554767081500,11.50508154296875,8.912294099378585,-3.5288600625857707,2.070880391138792
1790943554777111600,11.515111572265624,8.912095946457981,-3.5297871143028137,2.07015193073377
1790943554787141600,11.5251416015625,8.912168427172302,-3.530169391618669,2.0691889309205114
1790943554797171700,11.535171630859375,8.912476470208167,-3.529827154052257,2.068446149729192
1790943554807202600,11.54520263671875,8.912832444038987,-3.529014960886538,2.0682975350387394
1790943554817232600,11.555232666015625,8.91316386795044,-3.527942947740853,2.0686996860988436
1790943554827262500,11.565262451171876,8.913426902800797,-3.526737371343374,2.069619577422738
1790943554837292500,11.57529248046875,8.913539715525507,-3.5257515751764177,2.0708150708176194
1790943554847322400,11.585322265625,8.913452037242054,-3.525286588013172,2.0719829455532133
1790943554857353500,11.595353515625,8.913126458549499,-3.525469251103699,2.073072494355589
1790943554867383600,11.605383544921875,8.912572331798076,-3.526385489165783,2.07389564730674
1790943554877413600,11.61541357421875,8.911872074574232,-3.527801785704493,2.0744963896788655
1790943554887443500,11.625443359375,8.911237868323921,-3.5292636749505997,2.074735313001275
1790943554897473500,11.6354736328125,8.910896507540345,-3.5302588234677907,2.0745069110728798
1790943554907504600,11.645504638671875,8.910797723340988,-3.530871402408182,2.073888779174536
1790943554917534500,11.655534423828126,8.911057251060008,-3.5309812925234434,2.0725867566652596
1790943554927564500,11.665564453125,8.91148453656137,-3.530825225178897,2.0710141005210576
1790943554937594400,11.675594482421875,8.911876750749348,-3.530911734418571,2.069178409526497
1790943554947624400,11.68562451171875,8.9121345249027,-3.531390750107169,2.067249779551476
1790943554957655600,11.695655517578125,8.91226662684977,-3.532243275283277,2.0652223653770982
1790943554967685400,11.705685302734375,8.91239872879684,-3.5331615591719743,2.063081261695176
1790943554977715500,11.715715576171876,8.912513879609108,-3.534277995981276,2.0606698166392743
1790943554987745500,11.72574560546875,8.912561225882172,-3.535700722260773,2.0580217863485215
1790943554997775600,11.735775634765625,8.91258343771398,-3.5372830230161547,2.055205121492594
1790943555007806500,11.745806396484374,8.912522647437452,-3.538867661859095,2.0527393159009515
1790943555017836500,11.75583642578125,8.912455427420138,-3.5401959878534077,2.050739812646806
1790943555027866600,11.76586669921875,8.91224675310552,-3.541461185483634,2.0494614632740618
1790943555037896400,11.775896484375,8.911857461526989,-3.542776944257319,2.04888147142902
1790943555047926500,11.785926513671875,8.911281707465648,-3.544217498454451,2.0488925773449242
1790943555057957400,11.795957275390625,8.910498448133469,-3.545857082355022,2.049461609404534
1790943555067987500,11.805987548828124,8.909688300794363,-3.5474092802330848,2.0502990831419825
1790943555078017500,11.816017578125,8.908927837815881,-3.5487183170050383,2.0513366094961762
1790943555088047600,11.826047607421875,8.908242193639278,-3.5496912536904213,2.052630740959942
1790943555098078500,11.836078369140624,8.907546028068662,-3.550602231055498,2.0540767019845543
1790943555108108500,11.846108642578125,8.90667216784358,-3.551719544647634,2.055934897071868
1790943555118138600,11.856138671875,8.905497863367199,-3.5532825561806556,2.0583197463817893
1790943555128168700,11.866168701171874,8.904299008971453,-3.554374735331535,2.0616163037091493
1790943555138198500,11.876198486328125,8.903152177023888,-3.5549057734683154,2.0656503815308214
1790943555148229600,11.886229736328126,8.901894870439172,-3.555380697503686,2.070246915540844
1790943555158259700,11.896259765625,8.900473313203454,-3.5560564048081633,2.0751932859018445
1790943555168289500,11.90628955078125,8.89900733230412,-3.557030218276381,2.0798047252200544
1790943555178319400,11.9163193359375,8.897686897355317,-3.5579654532998797,2.0838497628271577
1790943555188349400,11.926349365234374,8.896570460546016,-3.5588083338648078,2.087175838509947
1790943555198380500,11.936380615234375,8.895749207291006,-3.559304008427262,2.08982752206251
1790943555208410600,11.94641064453125,8.89516234731376,-3.5593645064428445,2.0922217237226666
1790943555218440400,11.9564404296875,8.894692976236342,-3.559378534968197,2.0941943389698863
1790943555228470500,11.966470458984375,8.894317713183163,-3.5594387407228347,2.095685308180004
1790943555238501600,11.976501708984374,8.893954725089669,-3.5594974851727486,2.097123232028633
1790943555248531500,11.986531494140625,8.893444437479973,-3.5598426453486085,2.0987011488698424
1790943555258561500,11.9965615234375,8.892844718021154,-3.5606159678086637,2.099932444230467
1790943555268591400,12.00659130859375,8.892094776436686,-3.5617689372360704,2.101150733979046
1790943555278621400,12.016621337890625,8.891255987524985,-3.5632457317903636,2.1021971742920575
1790943555288652500,12.026652587890625,8.890305554932356,-3.5648815162986516,2.1034416213952003
1790943555298682400,12.036682373046874,8.88942117331326,-3.566421146956086,2.1045697486422954
1790943555308712400,12.04671240234375,8.888663048422336,-3.56782195366472,2.1053987468123436
1790943555318742500,12.056742431640625,8.888038194522261,-3.569067277550697,2.1059251087740063
1790943555328772600,12.066772705078124,8.887699171826243,-3.569707036758959,2.1062718763850627
1790943555338803500,12.076803466796875,8.887534336653351,-3.5700323231905697,2.10641654555276
1790943555348833500,12.08683349609375,8.887548365178704,-3.570051612412929,2.1063236065723
1790943555358863600,12.096863525390624,8.887643642246722,-3.5699765013501046,2.10604902741462
1790943555368893700,12.106893798828125,8.887772821584344,-3.5698964218512175,2.1056400082223115
1790943555378924500,12.116924560546876,8.887699171826243,-3.5702646706417203,2.1053277274027464
1790943555388954400,12.126954345703124,8.887453672632574,-3.5708792954087256,2.105320567009598
1790943555398984400,12.136984375,8.887160827165841,-3.5716517410859465,2.1052451636858285
1790943555409014500,12.1470146484375,8.886891947096586,-3.572489653214812,2.1049596247427163
1790943555419044600,12.157044677734374,8.886725358358024,-3.573241056104004,2.104387962334603
1790943555429075500,12.167075439453125,8.886555847010015,-3.5742227606177326,2.1034354839153586
1790943555439105500,12.17710546875,8.886451217591762,-3.574989653337002,2.102573314128071
1790943555449136000,12.18713623046875,8.886370553570986,-3.575509001035988,2.1020319007277486
1790943555459166000,12.197166015625,8.88637990592122,-3.5756837730810043,2.10169404707551
1790943555469197000,12.207197021484374,8.886540649440883,-3.5754786058977244,2.1013643767297268
1790943555479227100,12.21722705078125,8.886757507061958,-3.5750045586451886,2.1012537559621034
1790943555489257200,12.22725732421875,8.887040415656566,-3.5743107311621305,2.10123665869683
1790943555499287000,12.237287109375,8.887371255046128,-3.5735195807844398,2.1011830288134514
1790943555509318100,12.247318115234375,8.88763195180893,-3.5729569784656166,2.101038359645754
1790943555519348200,12.25734814453125,8.887832442817091,-3.572750642238557,2.1005412237785754
1790943555529378000,12.2673779296875,8.887921874666214,-3.5730905417174097,2.0995850920975205
1790943555539408100,12.277408203125,8.887895571181177,-3.5738507124349472,2.098400266227126
1790943555549438000,12.28743798828125,8.8876676076442,-3.5752214162662623,2.0970317543528973
1790943555559469000,12.297468994140624,8.88751797004044,-3.576163373291492,2.0960586715370417
1790943555569499100,12.3074990234375,8.887579929360747,-3.5764191016182303,2.095360606270283
1790943555579529000,12.317529052734375,8.887613247108458,-3.5764077034413813,2.095238733456284
1790943555589559000,12.32755908203125,8.887456010720133,-3.5764760925024746,2.095788768554479
1790943555599590100,12.337590087890625,8.887129847505689,-3.576794656932354,2.0966266806833445
1790943555609620000,12.347619873046876,8.886786733156443,-3.5771585218086837,2.0974600627675652
1790943555619650000,12.357650146484374,8.886572798144817,-3.577246200092137,2.0982167263537645
1790943555629680000,12.36768017578125,8.886573382666706,-3.5768025479778647,2.098970613460988
1790943555639710200,12.377710205078126,8.886670413300395,-3.5762171493053434,2.0995568889163434
1790943555649741000,12.387740966796875,8.886852199608088,-3.575518645647168,2.0999790598511696
1790943555659771100,12.397771240234375,8.887075486969946,-3.5747830248489976,2.10028564158231
1790943555669801000,12.407801025390626,8.887358980086445,-3.5738188559919593,2.1007254943042994
1790943555679831000,12.4178310546875,8.88761266258657,-3.5730393960520623,2.1009806381091476
1790943555689862000,12.42786181640625,8.887773406106232,-3.5724817621693012,2.101248056873679
1790943555699892000,12.43789208984375,8.887763469234109,-3.5722371397584674,2.1017063220351933
1790943555709922000,12.447922119140625,8.887626691111922,-3.5723806398823856,2.1020408146865663
1790943555719952100,12.4579521484375,8.887613831630349,-3.5724683181658383,2.101944368574768
1790943555729982200,12.467982177734376,8.887699756348132,-3.5725112805247305,2.1015094842888415
1790943555740013000,12.478012939453125,8.887732489573954,-3.5726828376993534,2.101078107134253
1790943555750043100,12.488043212890625,8.887709108698367,-3.5729917575180528,2.1006524290680884
1790943555760073200,12.4980732421875,8.887811400029063,-3.5729923420399423,2.1002195906087753
1790943555770103000,12.50810302734375,8.888032349303364,-3.5727617481544613,2.099677300425619
1790943555780134100,12.518134033203125,8.88824628431499,-3.572561257146299,2.099111629366875
1790943555790164000,12.5281640625,8.888511657252907,-3.572408404672146,2.0982469753615556
1790943555800194000,12.538194091796875,8.888729683917761,-3.5723654423132536,2.097396934403479
1790943555810224000,12.54822412109375,8.888777614712714,-3.572648058646917,2.09671392057538
1790943555820255000,12.5582548828125,8.888826714551449,-3.572683129960298,2.096444455984235
1790943555830285000,12.56828515625,8.888823791942,-3.5726340301215647,2.096541048226505
1790943555840315100,12.578315185546876,8.888741374355554,-3.572538168531656,2.097053820054233
1790943555850345200,12.58834521484375,8.888429824188352,-3.5726752389147878,2.098138984942436
1790943555860376000,12.5983759765625,8.888177310732006,-3.5727094334453344,2.099150353942066
1790943555870406100,12.60840625,8.88807618844509,-3.572815524168312,2.0993986296147105
1790943555880436200,12.618436279296875,8.887882711699605,-3.5731206445947286,2.0996999506488443
1790943555890466300,12.62846630859375,8.887752947840093,-3.5733284421265123,2.0998944503076373
1790943555900497200,12.6384970703125,8.887506864124536,-3.573784369200468,2.1001592387236654
1790943555910527000,12.64852685546875,8.887381776440144,-3.5738895831406112,2.100511559292674
1790943555920557000,12.65855712890625,8.887196483001112,-3.5741716149523852,2.1008146338924765
1790943555930587100,12.668587158203126,8.886897792315482,-3.5746295878529546,2.1012990564085543
1790943555940617000,12.678616943359375,8.886540064918995,-3.5751439671158787,2.101937792703509
1790943555950648000,12.68864794921875,8.88624780397415,-3.5755250753879544,2.1025239220283924
1790943555960678100,12.69867822265625,8.885848575523495,-3.576341360206902,2.102822174322605
1790943555970708200,12.708708251953125,8.88539147940576,-3.577471241019666,2.102833572499454
1790943555980738000,12.718738037109375,8.884686546006797,-3.5792516946956514,2.102780673268437
1790943555990769200,12.72876904296875,8.884092087244987,-3.5806972173288463,2.1028302114985884
1790943556000799200,12.73879931640625,8.883576538938284,-3.5814220244720576,2.1037739220894873
1790943556010829300,12.748829345703125,8.883101907163859,-3.581540682415664,2.1055776105105877
1790943556020859000,12.75885888671875,8.88265124078691,-3.58132382479459,2.1078461399644612
1790943556030890000,12.768889892578125,8.88214562935233,-3.581150806315243,2.1102673757620156
1790943556040920000,12.778920166015626,8.88171600576341,-3.5810192888900634,2.112299173850566
1790943556050950100,12.7889501953125,8.881394518724083,-3.5808348722338676,2.113961992496252
1790943556060980000,12.79897998046875,8.88132496061921,-3.5801243858769536,2.115458806925267
1790943556071011000,12.809010986328126,8.881399779421091,-3.579251986956596,2.1166196673981843
1790943556081041200,12.819041259765624,8.881655215486884,-3.5780484563857313,2.117582959472388
1790943556091071200,12.8290712890625,8.882047429674863,-3.576523731036484,2.118512787668407
1790943556101101000,12.83910107421875,8.882437890297174,-3.5749215565368533,2.119578078812361
1790943556111132200,12.849132080078125,8.882609739732741,-3.573703997440636,2.1209129806779323
1790943556121162200,12.859162353515625,8.882529660233855,-3.5729338898509737,2.122545550315827
1790943556131192300,12.8691923828125,8.88222161719799,-3.5727594100669022,2.124126974288374
1790943556141222000,12.879221923828124,8.881880840936303,-3.5729812361240385,2.125178383037448
1790943556151253000,12.8892529296875,8.881527789714932,-3.5735701419278976,2.125664705249667
1790943556161283000,12.899282958984376,8.881291058349609,-3.574198795220256,2.125595001014322
1790943556171313200,12.909313232421875,8.881003473579883,-3.5749788396820423,2.1254845263771713
1790943556181343000,12.919343017578125,8.880772002911566,-3.575634673242271,2.125350378603488
1790943556191374000,12.9293740234375,8.880713550722598,-3.5759836328104138,2.1250060952104626
1790943556201404200,12.939404052734375,8.880807074224949,-3.576076279529929,2.1244591288521883
1790943556211434200,12.949434326171875,8.881012241408229,-3.575966389414668,2.123787367070466
1790943556221464000,12.959464111328124,8.881296903568506,-3.575764144840836,2.1229360109381377
1790943556231495200,12.9694951171875,8.881576889553665,-3.5756294125452635,2.1219933232605457
1790943556241525200,12.979525146484375,8.881874411195517,-3.575472176156938,2.1210117648772893
