time,seconds_elapsed,z,y,x
1789040123376692700,0.060692626953125,0.3385264369338751,-0.6999877592533826,-2.111589710406959
1789040123386636800,0.07063671875,-0.12363690106272697,-1.1556430305302143,-2.311717145954072
1789040123396580900,0.080580810546875,-0.23325813625454903,-1.3184610183805225,-2.517973878036439
1789040123406525000,0.09052490234375,-0.1527063436806202,-1.0906529642254112,-2.46465203769356
1789040123416468000,0.100468017578125,0.005818330889940261,-0.8670072904467582,-1.855796501739323
1789040123426411800,0.110411865234375,0.20739596524536608,-0.7617357748970389,-0.995491631540656
1789040123436355800,0.12035595703125,0.27086919724643227,-0.43371611893028017,-0.3964329747185111
1789040123446300000,0.1302998046875,0.28516134197115894,0.10052870493680238,0.07584025388211012
1789040123456244000,0.140243896484375,0.2982528787344694,0.4583554701462388,0.5389435030773282
1789040123466188000,0.15018798828125,0.003512392035126686,0.7857093556806445,0.8909586593985557
1789040123476131800,0.1601318359375,-0.3091623952835798,1.0441808436468243,0.9470838667243718
1789040123486075000,0.170074951171875,-0.3757213183403015,0.8583978675335645,0.5721382089316844
1789040123496019000,0.18001904296875,-0.41535540959239003,0.47375732967853545,0.2254527232006192
1789040123505962800,0.189962646484375,-0.49744098760485644,0.250235282279551,0.14486147539913655
1789040123515907000,0.199906982421875,-0.7002922951579094,0.20277999588251114,-0.1654325542628765
1789040123525851100,0.20985107421875,-1.0693056402921677,0.11125088222026824,-1.0087018262475729
1789040123535795000,0.219794921875,-0.945317441573739,0.5439522711500525,-1.5938409710496664
1789040123545739000,0.229739013671875,-0.27716742060780525,1.7560533942222594,-1.236004853489995
1789040123555682000,0.23968212890625,-0.1191740764349699,0.7319426941797137,-1.1073600611373782
1789040123565625900,0.2496259765625,-0.039008068308234216,-0.46324879514575,-0.5236281527847051
1789040123575570000,0.25956982421875,0.3399766357421875,0.15025573565810918,-0.8940414278447627
1789040123585513700,0.269513671875,0.19321137254834175,0.8696110432043671,-1.266620648767054
1789040123595458000,0.2794580078125,-0.31669279078841206,1.6678665767252445,-1.2149854463368654
1789040123605402000,0.289402099609375,-1.1269453438341617,2.734972076624632,-1.461886615757644
1789040123615346000,0.299345947265625,-1.3538573259323834,3.1250463299661875,-1.614112190183997
1789040123625289000,0.3092890625,-1.0818635085701942,2.943535332083702,-1.3131103050023316
1789040123635233000,0.31923291015625,-0.6065548577964306,2.6366169163346287,-0.8751187007099389
1789040123645176800,0.3291767578125,0.18926701883673666,2.400679916259646,-0.6104495271474123
1789040123655121000,0.339120849609375,1.975311646696925,1.6264999625921248,-0.5723924759536981
1789040123665065000,0.34906494140625,3.945414034312963,1.3731342733323573,-0.68811261254251
1789040123675009000,0.359009033203125,4.04765977230072,0.86821608171463,-0.5017503752365708
1789040123684953000,0.368953125,3.2117630749106407,-0.15336451532840728,-0.1508466872885823
1789040123694897000,0.37889697265625,1.9294599961042402,-0.7037853979706764,0.29198388146758075
1789040123704840000,0.38883984375,0.8652969793975352,-0.8403320494890213,0.4945779993891716
1789040123714784000,0.398783935546875,0.20338789864778517,-0.39916298420429225,0.6718854081019758
1789040123724727800,0.408727783203125,-0.3144961575269699,0.24774258868098256,1.1726885656163095
1789040123734672000,0.418671875,-0.4073316776126623,0.4695382506787777,1.6578981404185293
1789040123744616000,0.428615966796875,0.25076456685066223,0.7683394109457731,2.6689097049131987
1789040123754560000,0.43856005859375,1.4994108752489088,1.0146522590845823,3.8144980821579693
1789040123764504000,0.448504150390625,2.365308743149042,1.1487491793632507,3.8013787806048986
1789040123774446800,0.45844677734375,2.2368840232878924,0.6002145488590002,3.4236394004404542
1789040123784391000,0.468390869140625,0.8265952005594969,-0.039383331361413,2.871473719957471
1789040123794335000,0.4783349609375,-2.0889134759575128,0.3714443716734648,1.986703832196444
1789040123804278800,0.48827880859375,-2.3722639691144227,1.2358008553504942,0.3588730593919754
1789040123814223000,0.49822314453125,-1.8438450749218462,1.6056670179218053,-0.7521827875234186
1789040123824167000,0.5081669921875,-1.8481997630000113,0.7670026093840598,-0.48506037558987736
1789040123834111000,0.518111083984375,-1.357530461487174,-0.015225041660666464,-0.02984744125306606
1789040123844054000,0.528053955078125,-0.7302572253108024,-0.359673854380846,0.08431647886969149
1789040123853997800,0.537997802734375,0.17724574165344237,-0.5625047036677598,-0.005179667660221457
1789040123863942000,0.54794189453125,0.06763210524618625,-0.8475660923957824,-0.1778859027205035
1789040123873886000,0.557885986328125,-0.9579822773575782,-1.0454688376307486,-0.9670382749944925
1789040123883829800,0.567829833984375,-1.9664619852870702,-0.6744967596441507,-1.7748972109019756
1789040123893774000,0.577774169921875,-1.8976374553859232,-0.6398860495120287,-2.633190741278231
1789040123903718000,0.5877177734375,-0.9564987608015537,-0.9453922603756189,-4.004696828886867
1789040123913662000,0.597661865234375,-0.10393091459572315,-0.6809352682590484,-4.8452685323506595
1789040123923605000,0.60760498046875,0.7701999441206455,-0.3898807765960693,-5.092727627915144
1789040123933548800,0.617548828125,1.7726520623236894,-0.08899345770478248,-2.716901582404971
1789040123943492900,0.627492919921875,1.5317676689743995,-0.5259674093872309,1.871932228504121
1789040123953437000,0.63743701171875,2.3542875829190013,-0.22366028682589528,1.3491205066688359
1789040123963381000,0.647381103515625,3.856429928958416,0.8977233312278985,-1.0939107969775794
1789040123973325000,0.657324951171875,4.155677663949132,1.1743968308389185,-1.5018239277400076
1789040123983268900,0.667268798828125,4.3394396556288,0.7977560595661402,-1.0168170359030366
1789040123993212000,0.6772119140625,4.148038547372818,0.8118798619866371,-0.6227041746951639
1789040124003156000,0.687156005859375,3.625526831397414,0.8246452355355024,-0.4165101325854659
1789040124013100000,0.69710009765625,3.301235840564966,0.787509975361824,-0.08900178714171052
1789040124023043800,0.7070439453125,3.269911312496662,0.9485492631018161,0.5434508974991739
1789040124032988000,0.71698779296875,3.1447482247799634,1.1430448302417993,1.0949141288012265
1789040124042932000,0.726931884765625,2.7354017002135516,1.1367027677386998,1.5261889920592306
1789040124052876000,0.7368759765625,2.3212211796194313,1.0228741439849138,1.71247641056329
1789040124062819000,0.746819091796875,1.6949229259550571,1.1487345663160085,1.7553215728163718
1789040124072763000,0.756762939453125,0.6866916398286819,1.3572867158591746,1.9480342020623385
1789040124082707000,0.76670703125,-0.262937819725275,1.4477356330692768,2.302225825639814
1789040124092651000,0.776651123046875,-1.0119693036109207,1.5289640097305177,2.5791291884839533
1789040124102594800,0.7865947265625,-1.2849474558353424,1.518952318803966,2.2013883470147846
1789040124112539100,0.7965390625,-1.675695078393817,1.107798744815588,1.647962145076692
1789040124122483000,0.80648291015625,-1.8078274206012486,0.23502485366612672,1.0649737485677002
1789040124132426000,0.816426025390625,-1.2658271603018045,0.18681173463910816,0.04446165753901005
1789040124142370000,0.8263701171875,-0.8276882564932108,0.52920478387326,-0.15411767178326843
1789040124152313900,0.83631396484375,-0.5257692564666271,0.4577028514564037,0.14626082080304623
1789040124162258000,0.8462578125,-0.12989303884804249,0.4114432045847177,0.4351619338244199
1789040124172202000,0.856201904296875,0.1370072547674179,0.49477030709087844,0.32061814753860235
1789040124182145800,0.866145751953125,0.10509294411242008,0.346307300068438,0.04693067800104618
1789040124192090000,0.876090087890625,-0.1534977863192558,-0.09139175101816653,-0.23280133239775894
1789040124202033200,0.886033203125,-0.5174152696192265,-0.48334436545223,-0.7586737569779157
1789040124211977000,0.89597705078125,-1.0809317806780339,-0.6062400927588343,-1.2168366271615028
1789040124221921000,0.905921142578125,-1.3927227708995342,-0.4381064628437161,-1.0659040151551364
1789040124231864800,0.91586474609375,-1.2373387324422598,0.2827054732516408,-0.738074328802526
1789040124241809000,0.925808837890625,-0.9008598756879568,0.8613760065615177,0.17871522968411443
1789040124251753000,0.9357529296875,-0.35856618539988994,1.4026558436319232,1.6141466769754886
1789040124261697000,0.945697021484375,0.36099136672019955,2.0697312211036683,2.3297855943471193
1789040124271641000,0.95564111328125,1.0607213518202305,2.20207779058367,2.648734931890666
1789040124281584000,0.965584228515625,1.6646300790220498,1.9627239678025246,2.770960504850745
1789040124291528000,0.97552783203125,2.0684172158956526,1.8405384345918894,2.9329014176055788
1789040124301472000,0.985471923828125,2.205685167425871,1.8370330568194388,3.621209260459244
1789040124311415800,0.995415771484375,1.7628823634594677,2.2854157067447898,3.971730378830433
1789040124321360000,1.00535986328125,0.7890607119351625,2.924933215205371,4.146002365370094
1789040124331304000,1.015303955078125,0.09090601332783699,3.1152561728358266,4.064829226027429
1789040124341248000,1.025248046875,-0.22434300839304921,3.5697125897169113,2.921513762150705
1789040124351191000,1.03519091796875,-0.49235623168647286,3.572379763099551,1.7557295690953731
1789040124361135000,1.045135009765625,-0.5715566096514463,2.8177959057837723,1.16381026263386
1789040124371079000,1.055078857421875,0.053065819755196565,2.3830332004100083,-0.4910279056921601
1789040124381023000,1.06502294921875,1.2266378902077675,2.2164513299815356,-1.4912310759246348
1789040124390966300,1.07496630859375,1.9907424400627611,1.265936173634231,-1.3037681839004158
1789040124400910000,1.08491015625,2.617027834245562,0.4117611844927072,-1.612251072487235
1789040124410854400,1.0948544921875,2.6400983287096023,0.19633973370194435,-2.745655967724323
1789040124420797400,1.10479736328125,1.481163270896673,-0.06081117318496108,-3.753559337070584
1789040124430741200,1.1147412109375,0.22179858460724353,-0.8560979200281202,-4.269854662749171
1789040124440685300,1.124685302734375,-0.2713677944183349,-1.4588095463998614,-5.528749393439292
1789040124450629000,1.134629150390625,-0.4725836097240448,-1.3440471489273011,-6.203963361442089
1789040124460573200,1.1445732421875,-1.36982821752429,-0.7745071397952735,-5.84916208153367
1789040124470517200,1.154517333984375,-1.9575059408932922,-0.8657453076869249,-4.904807932034134
1789040124480461000,1.1644609375,-1.5796142927765846,-1.7224940928392112,-3.6407495349705217
1789040124490404000,1.174404052734375,-1.2057944241434335,-1.155956188132614,-2.2633406530588864
1789040124500348400,1.184348388671875,-0.5073650002479553,-0.5029102858614176,-1.9587533106058834
1789040124510292200,1.194292236328125,0.4740507596671581,-1.08234449702017,-2.4419003999203444
1789040124520236300,1.204236328125,0.8151356489121914,-1.1285314439818261,-2.440988545772433
1789040124530180000,1.21418017578125,0.9459089777261018,-1.1652233443021773,-2.243855031344294
1789040124540124200,1.224124267578125,1.413783094584942,-1.0334514329049735,-1.895353143841028
1789040124550068200,1.234068115234375,1.2951333342850206,-0.7165630464792251,-0.5856874263346195
1789040124560011300,1.24401123046875,0.0362111310660839,-0.12054302670061588,1.3105050909399985
1789040124569955300,1.253955322265625,-1.194655775013566,0.7377802412267774,2.237632795828581
1789040124579899400,1.2638994140625,-1.6972499075978993,1.4650012406468391,2.744287017458677
1789040124589843200,1.27384326171875,-2.1882722603321074,1.8905980582684276,3.6353766097605225
1789040124599787300,1.283787353515625,-2.583202721533179,2.1264432884067297,4.363914756193757
1789040124609731000,1.29373095703125,-2.325876311948895,2.467296706983447,4.468097015202045
1789040124619675100,1.303675048828125,-2.063472160708904,2.54025029951334,4.222284517800808
1789040124629618200,1.3136181640625,-1.7019395267188548,2.1405261742949486,3.833777367645502
1789040124639562200,1.323562255859375,-1.628062389603257,1.8776349701903758,3.5468361565202473
1789040124649506300,1.33350634765625,-2.2973598270386457,1.5311292249403894,3.0553935325473547
1789040124659450400,1.343450439453125,-2.9945979953229425,1.173832694150135,2.403124971324205
1789040124669394200,1.353394287109375,-3.619504502367973,0.9126227211307734,1.7195991020500658
1789040124679338200,1.363338134765625,-4.460432764184475,0.4182931070121005,1.1752841350674628
1789040124689282300,1.3732822265625,-5.1755847748219965,0.1584123002372682,0.5890688854664564
1789040124699226000,1.38322607421875,-5.4594706900298595,-0.24578878773208707,-0.23220658137500286
1789040124709169200,1.393169189453125,-5.114512758743762,-0.6640132864873856,-1.025525535276532
1789040124719113500,1.403113525390625,-4.335239865851402,-1.4597192085906863,-1.1980541852802038
1789040124729057300,1.413057373046875,-3.3946453611463308,-2.5284900113537905,-1.7720757237404583
1789040124739001300,1.42300146484375,-2.4095307467132807,-3.2015450477570293,-2.621487736263871
1789040124748945200,1.432945068359375,-1.5879086583912372,-3.6010996616274116,-2.96713072720468
1789040124758889200,1.44288916015625,-1.153989418104291,-3.91421868558228,-3.0726714150846
1789040124768832300,1.452832275390625,-0.8011334270447492,-4.1152845710232855,-3.604954583489895
1789040124778776000,1.462776123046875,-0.3034247284144163,-4.33352780123651,-3.959625515016913
1789040124788720000,1.47272021484375,0.1695133938357234,-4.233126229810715,-3.543682660925388
1789040124798664400,1.48266455078125,0.6851131384655833,-3.673720661202073,-2.904341970336437
1789040124808608300,1.492608154296875,1.0152411648884414,-2.7816590089976785,-2.1386849303424356
1789040124818552300,1.50255224609375,1.0378712221086024,-2.4618928021132946,-1.477761353498697
1789040124828496100,1.51249609375,1.2938362802118062,-1.9680426786072551,-1.205177753549814
1789040124838440200,1.522440185546875,1.3286793377950787,-1.7537407333657145,-1.1089648659855127
1789040124848383200,1.53238330078125,1.2841022371828554,-1.3373701553814112,-1.087712234598398
1789040124858327000,1.5423271484375,0.9433177921891212,-0.7355699447661638,-0.952027752867341
1789040124868271400,1.552271240234375,0.21264847894608974,-0.20826040005497634,-0.15658815355002878
1789040124878215400,1.56221533203125,-0.5531552760422229,0.052270248930715024,0.8453770579189062
1789040124888159200,1.5721591796875,-1.0850579206973314,-0.07230263150760438,0.9829787714481353
1789040124898103300,1.582103271484375,-1.1969035539403556,-0.09662999873152002,0.793368053740263
1789040124908047000,1.592047119140625,-1.5834408653274177,-0.2957711449213326,0.4273953914761543
1789040124917990100,1.601990234375,-1.7689572994589804,-0.24832153934640808,-0.7241548167824745
1789040124927934200,1.611934326171875,-1.3819614306494592,0.11837468795189633,-1.910073743110895
1789040124937878000,1.6218779296875,-1.0766446048781275,0.6943897931158542,-1.9587778605252504
1789040124947822300,1.631822265625,-1.1049109144195914,1.031439727756381,-1.3139379879981279
1789040124957766400,1.641766357421875,-1.4100319253578781,1.3376172620102762,-0.4787988309770822
1789040124967710200,1.651710205078125,-2.240790383076668,1.4801476641133426,0.46801264854669566
1789040124977654300,1.661654296875,-3.0849931365191936,1.5640927523873744,1.4117670785874128
1789040124987597300,1.671597412109375,-3.210611566787958,1.8928215795367955,2.253732866758108
1789040124997541000,1.681541015625,-2.7131425221323964,2.3154919883176683,3.099737116664648
1789040125007485200,1.691485107421875,-1.4231389519512652,2.7282489058494566,3.863669232562184
1789040125017429200,1.70142919921875,-0.10152969867289066,3.141287855193019,4.509217545619607
1789040125027373300,1.711373291015625,0.7826432461082935,3.261706963253021,4.6822751879334445
1789040125037317400,1.7213173828125,1.8206266964197158,3.3559733929246662,4.334387048414349
1789040125047261200,1.73126123046875,2.7566403030753133,3.1009672429814934,3.516433419471979
1789040125057204200,1.741204345703125,3.33293387812078,2.530110598292947,2.521445645800233
1789040125067148300,1.751148193359375,3.4474382091790434,1.9993410493209958,1.1210574548393488
1789040125077092000,1.761092041015625,3.5224504878044125,1.2081345575287938,-0.12272621595859527
1789040125087036200,1.7710361328125,3.518139054346084,0.7100144285533577,-0.9139140030503272
1789040125096980200,1.780980224609375,2.9981229545786974,0.6488958699196576,-1.232884675642848
1789040125106924300,1.79092431640625,2.2566969772607086,0.4450633327769115,-1.3541682915776967
1789040125116867300,1.800867431640625,1.4658660407826303,0.31266105105429887,-1.7171914563864468
1789040125126811400,1.810811279296875,0.5555930245831608,0.38855577507000416,-2.0041870280474425
1789040125136755200,1.820755126953125,-0.1607394280105829,0.018904150298517195,-2.328420735734701
1789040125146699300,1.83069921875,-0.5894897412270307,-0.6534721648592502,-3.1258342654734848
1789040125156643000,1.84064306640625,-0.726953215329349,-1.319107499590516,-3.939966874822974
1789040125166587400,1.85058740234375,-0.5101894100189208,-1.4726445950068532,-4.241362727758288
1789040125176531200,1.86053125,-0.859038503524661,-1.312480044274777,-3.2693875808835027
1789040125186474200,1.87047412109375,-1.7340578355133534,-0.7552429788116365,-2.366651389929652
1789040125196418300,1.880418212890625,-2.499300449487567,-1.3031433300003408,-1.663358159390092
1789040125206362400,1.8903623046875,-2.1274510041445494,-1.5324471756711602,-0.8814403049468994
1789040125216306200,1.90030615234375,-2.0274001458525657,-1.820591771236807,-0.5027262345314025
1789040125226250200,1.910250244140625,-1.813313743057847,-0.9621987260088324,1.4894249032855034
1789040125236194000,1.920194091796875,-1.0710814177930355,-0.8623713742744177,2.9805659628391266
1789040125246138400,1.930138427734375,0.17770692942440508,-1.8025567867219447,3.1161791328996418
1789040125256081400,1.940081298828125,0.972639748263359,-1.8056927466601131,2.2388415870964526
1789040125266025200,1.950025146484375,0.9212246183246373,-0.6164281631655991,2.489240243244171
1789040125275969300,1.95996923828125,0.2570078451544046,-0.4978947227217257,2.286950661227107
1789040125285913300,1.969913330078125,-0.09977613300383091,-0.14342940590255893,1.4343103343069552
1789040125295857200,1.979857177734375,0.09977467169910668,1.2070660515144467,1.2694774995028972
1789040125305801200,1.98980126953125,-0.4318409727081656,-0.5719214974410831,-0.3948743470996618
1789040125315745300,1.999745361328125,1.917084206394851,-0.36057949798367916,-1.671010135447979
1789040125325688000,2.00968798828125,1.8990449840962886,0.21964158923644572,-0.04209083675444126
1789040125335632400,2.01963232421875,1.3774585662722587,-0.1640337568482384,0.08104162191748619
1789040125345576200,2.029576171875,1.9010326507821678,-0.41783129818663,-0.6291571502268314
1789040125355520300,2.039520263671875,1.334023913693428,-0.9868389540076256,-1.5409025770664213
1789040125365464300,2.04946435546875,-0.37662235883325335,-1.6257365770041943,-3.173464616176486
1789040125375408000,2.059408203125,-1.6814742463171481,-2.358666382525116,-4.996875974878669
1789040125385352200,2.069352294921875,-2.6165941190034148,-2.727932971768081,-5.540702866083383
1789040125395295700,2.079295654296875,-2.8598978484541178,-2.778513696709275,-5.020239314809441
1789040125405239600,2.089239501953125,-2.3941835399776696,-2.245361344254017,-3.8674756391078233
1789040125415183600,2.09918359375,-1.8234210033133624,-1.2560225362546742,-2.6932453970074652
1789040125425127400,2.10912744140625,-1.3928244777083396,-0.0712299836076796,-1.2036585811585188
1789040125435071500,2.119071533203125,-0.7506161227285861,0.9170432409867644,0.650031011429429
1789040125445015600,2.129015625,-0.12107084996700286,1.6040546142891048,2.4961206504076716
1789040125454959600,2.138959716796875,0.2127940248966217,2.274204723031074,3.651305415776372
1789040125464902700,2.148902587890625,0.3870937762260437,2.7136846661850806,4.208207477131486
1789040125474846700,2.1588466796875,0.20770064728036522,2.8439097134664655,4.663169505447149
1789040125484790500,2.16879052734375,0.01454465818107128,2.710658011840284,4.687442945960163
1789040125494734600,2.178734619140625,0.03681508830860257,2.691796367242932,3.806172736883163
1789040125504678400,2.188678466796875,0.37418183381333947,2.364718083779514,2.9796202064216137
1789040125514622500,2.19862255859375,0.8270845915116369,2.0436951548323035,2.5657570812135932
1789040125524565500,2.2085654296875,1.2166102710597215,1.8756700998581946,2.4543185674667356
1789040125534509600,2.218509521484375,1.4371850129604338,1.7112813555598259,2.2382219938933847
1789040125544453600,2.22845361328125,1.7133436949171126,1.5072522363990544,1.6585452061504125
1789040125554397700,2.238397705078125,1.5659043318539856,1.5024518503800033,1.3619903635054826
1789040125564341500,2.248341552734375,0.7870341745436191,1.4491805711805819,1.0953139417737723
1789040125574285600,2.25828564453125,-0.3729910165935755,1.3763143646731972,0.14168869058191774
1789040125584229400,2.2682294921875,-1.0160895984113216,1.0268579529240727,-0.9959995810627936
1789040125594172400,2.27817236328125,-0.6743979754447936,0.3462437333129346,-1.745461273059249
1789040125604116700,2.28811669921875,0.4003834659099579,-0.19817542469650506,-2.275704460069537
1789040125614060500,2.298060546875,1.6536695629380642,-0.3227771522033959,-2.9926825170904396
1789040125624004600,2.308004638671875,2.348194965132326,-0.5330334387833252,-3.396197851285338
1789040125633948700,2.31794873046875,2.2467454920887944,-0.5142732087338343,-3.7504233771324156
1789040125643892500,2.327892578125,1.632818059697747,-0.9334842343084514,-4.274811992895603
1789040125653836500,2.33783642578125,1.218812895670533,-1.250645811652392,-4.727849775150418
1789040125663779600,2.347779541015625,1.305627255770564,-1.174185599241033,-4.555196621984243
1789040125673723400,2.357723388671875,1.3028338256597518,-0.9182527629069983,-3.605742518997192
1789040125683667700,2.367667724609375,0.9884036460410803,-1.1210010484769939,-2.5026240409523246
1789040125693611500,2.377611572265625,0.7978940067321062,-1.189785830889642,-1.915131611022353
1789040125703555600,2.3875556640625,0.8331037787359208,-0.2532689874196425,-1.126480064409971
1789040125713499600,2.397499755859375,0.04280103085041046,-0.19743224164638667,-0.5346738629341126
1789040125723443500,2.407443359375,-1.084122758739069,0.21148294229805467,-0.4028817124664783
1789040125733386500,2.417386474609375,-2.123112682679295,-0.2020769621796906,-1.0123743772804736
1789040125743330600,2.42733056640625,-3.250731395730376,-0.4030517352711409,-1.593235406371951
1789040125753274600,2.437274658203125,-4.099049183276295,-0.6856138545293361,-2.0430928050249815
1789040125763218700,2.44721875,-4.094931811085343,-0.7687650890119373,-1.3195973289340734
1789040125773162500,2.45716259765625,-3.478941600945592,-0.6288457461901009,-0.21215864960253236
1789040125783106600,2.4671064453125,-2.6634067235827446,-0.36694614693876354,0.7573252649784088
1789040125793049600,2.477049560546875,-1.810140958240628,-0.1173706254758872,1.3558341789633035
1789040125802993400,2.486993408203125,-1.399938693627715,0.10417829521922393,1.7410393649637699
1789040125812937500,2.4969375,-1.0397153886705637,0.25757585430070756,1.6806477323651312
1789040125822881500,2.506881591796875,-0.8164893285434692,0.5775245781451464,1.565655910050869
1789040125832825600,2.51682568359375,-0.5192342286746948,0.9337687503382563,1.6801631637185812
1789040125842769700,2.526769775390625,-0.255251904865168,1.1451274817347525,1.6649924825936555
1789040125852713500,2.53671337890625,0.022028328467346727,1.4057960413537918,1.6480138752639293
1789040125862656500,2.546656494140625,0.6795552120774984,1.8715318310096858,1.8155232358008622
1789040125872600600,2.5566005859375,1.0011959806621074,2.140548093865812,2.285837147027254
1789040125882544600,2.566544677734375,1.0390192230999469,2.0335811725750563,2.448448798650503
1789040125892488400,2.576488525390625,0.8889180934816598,1.5703510821297764,2.1978993358552454
1789040125902432800,2.586432861328125,1.0337269619107246,0.8873766361933201,1.138125494018197
1789040125912376600,2.59637646484375,0.9114590111136436,0.9381344712670892,-0.002325228077173233
1789040125922320600,2.606320556640625,1.0409843856930732,0.9598007980216294,-0.2590355515897274
1789040125932263700,2.616263671875,1.5628063658386468,0.6418297309257089,0.30214228738844395
1789040125942207500,2.62620751953125,1.6631640981227158,0.47765799037888645,0.5983972703039646
1789040125952151600,2.636151611328125,1.3601754230380056,0.44924226242937143,0.7618979797214269
1789040125962095600,2.646095703125,0.5874742732187733,0.5618509889993816,0.740310417291522
1789040125972039400,2.656039306640625,-0.06385368268601596,0.9317783802386372,0.3977893577635288
1789040125981983700,2.665983642578125,-0.43936468274388457,1.13817788179256,-0.06264262639582156
1789040125991926800,2.6759267578125,-0.33261052742097524,1.3400170166283845,-0.046566520863771436
1789040126001870600,2.68587060546875,-0.5245218502214178,1.5073999743066728,0.21604045947194098
1789040126011814700,2.695814697265625,0.3765957630872726,1.4403724108248948,1.1773013201087712
1789040126021758500,2.705758544921875,1.2771996181875467,1.234032238242775,1.9249504097253083
1789040126031702500,2.71570263671875,-0.3451912285853177,0.9585327508471906,1.706634991058707
1789040126041646600,2.725646484375,-0.8053460763037205,0.7249887833885849,1.449824129781127
1789040126051590700,2.735590576171875,-0.12362864469103514,0.33978133236579594,0.7165022562026977
1789040126061533400,2.745533447265625,0.35812494443841275,-0.6100509928165003,0.09565116202831268
1789040126071477800,2.755477783203125,0.12739303872585295,-1.3928260851435363,-0.1082815110206604
1789040126081421600,2.765421630859375,0.700699049327895,-1.13641795944795,-0.35578210763931273
1789040126091365600,2.77536572265625,3.0040123048782346,-0.5497670949086546,0.42859950656890866
1789040126101309400,2.785309326171875,2.7062738054066893,-0.7374757053222507,0.8684031287193298
1789040126111253500,2.79525341796875,1.5175485894858836,-1.073914449261874,0.21822131064236164
1789040126121196500,2.805196533203125,-0.38016784942038356,-0.8628368728943169,-0.15567513035833835
1789040126131140400,2.815140380859375,-0.4162847993969917,-0.4867709058348089,0.6665180358499289
1789040126141084700,2.825084716796875,0.38739546258635815,-0.24885323507031423,1.588022640159726
1789040126151028700,2.83502880859375,-0.36173129836730655,-0.44674624436255544,1.6931337044507264
1789040126160972500,2.84497265625,-1.2279594942003489,-0.6879986307740211,1.0704489651083946
1789040126170916600,2.85491650390625,-1.9832108755141495,-0.7538963134430349,0.5189315194010734
1789040126180860400,2.8648603515625,-2.037682470414042,-0.692646821906045,0.37037878826856613
1789040126190803500,2.874803466796875,-1.0108347466230392,-1.0640322299338876,-0.32972061466574665
1789040126200747500,2.88474755859375,4.557673825752735,-3.013072394168377,-3.0657366473853584
1789040126210691300,2.89469140625,5.159771119618416,-3.6794060133621094,-3.3832822556108235
1789040126220635600,2.9046357421875,3.2151328436046835,-3.4744212009117006,-1.56876848911345
1789040126230579700,2.914579833984375,4.720711593833565,-2.8510525709584353,-2.609323835739493
1789040126240523500,2.9245234375,2.7936989908814427,-2.0023359933532774,-2.8964655378729103
1789040126250467600,2.934467529296875,-0.4313643681723624,-1.7706040437527,-1.8409756569653748
1789040126260410600,2.94441064453125,-2.5405823079466816,-1.519157193726301,-1.5187901139795779
1789040126270354400,2.9543544921875,-2.7775562498539683,-1.0956626090809702,-2.037601221871376
1789040126280298500,2.964298583984375,-2.5332027190893887,-0.7456390649683773,-2.2442057444781063
1789040126290242600,2.97424267578125,-1.7927958556860684,-0.5709718320334329,-2.5108009176671504
1789040126300186600,2.9841865234375,-0.723368634840846,-0.5673257671486586,-2.3788982925623654
1789040126310130700,2.994130615234375,-0.20554306738767772,-0.6946232365455478,-2.106472513523698
1789040126320073700,3.00407373046875,0.050624819811247286,-0.4684807409824803,-1.9209119479894636
1789040126330017500,3.014017578125,-0.14811901589035986,-0.22269615450147537,-1.685506862834096
1789040126339961600,3.023961669921875,-0.5298415839394555,0.06599573621600865,-1.0624942067116498
1789040126349905400,3.033905517578125,-0.538434676772356,0.5066362475819886,-0.14595043967962265
1789040126359849500,3.043849365234375,-0.6663286507576703,1.0511175841074436,0.8405909926861524
1789040126369793500,3.05379345703125,-1.468421862745285,1.383687231528759,1.6896464468568562
1789040126379736600,3.063736572265625,-2.362099133452773,1.5646531627491116,2.133205037626624
1789040126389680600,3.0736806640625,-2.8430045813202858,1.7249729040428996,2.366099601265788
1789040126399624700,3.083624755859375,-1.7224457236528397,1.9535661172263323,2.6015929492264984
1789040126409568500,3.093568603515625,-0.13352642691433428,1.8267596462167799,2.962408959379792
1789040126419512600,3.1035126953125,0.7009405299335718,1.5486990761615336,3.1631963201403615
1789040126429456400,3.113456298828125,1.289308573654294,1.2843404298529029,3.0403415093660353
1789040126439400400,3.123400390625,1.7875404193758964,1.1367103665232658,2.8210709819316864
1789040126449343500,3.133343505859375,1.9774591801196335,1.0818515258714556,2.4725246707648036
1789040126459287300,3.143287353515625,2.080558320066333,0.9962719682633876,2.039106365737319
1789040126469231400,3.1532314453125,1.925505120998621,0.7565459511689842,1.502025441661477
1789040126479175700,3.16317578125,1.31846627907753,0.5231864003665745,0.631188948315382
1789040126489119500,3.173119384765625,0.20112346084713933,0.47872956513315434,0.2311281384885311
1789040126499063600,3.1830634765625,-0.6112982529312372,0.3393945250052959,-0.13693711214065551
1789040126509006600,3.193006591796875,-1.2007079146593809,0.23628073547873646,-0.35810207501947877
1789040126518950400,3.202950439453125,-1.8029881638765335,0.24241036080755293,-0.5595516990810633
1789040126528894500,3.21289453125,-2.398218494582176,0.2697177621889859,-0.6087409696638584
1789040126538838300,3.22283837890625,-2.746825011503696,0.44797717439699913,-0.21041151367425917
1789040126548782600,3.232782470703125,-3.0049492934674022,0.5294622657656669,0.4390981042295694
1789040126558726700,3.2427265625,-3.1311727038919925,0.43137452424019573,0.6395990492641925
1789040126568670500,3.25267041015625,-2.7403438327908516,0.2547130122154951,0.3493348311960697
1789040126578613500,3.262613525390625,-1.7670085034787655,0.00922273250594735,0.1873655691295862
1789040126588557600,3.2725576171875,-0.6578127513468265,-0.11938158170580863,0.49879824743270873
1789040126598501400,3.28250146484375,0.5112742826461791,-0.06125789403915405,1.2233762580633163
1789040126608445400,3.292445556640625,1.4193126716613769,0.01869841685965657,2.0012281782418486
1789040126618389200,3.30238916015625,1.589324370408058,0.06015468203760683,2.6546692903757094
1789040126628333600,3.31233349609375,1.1726245604693888,0.08539009945057333,3.009386983653903
1789040126638276600,3.322276611328125,0.6131202076613903,0.151820793017745,2.697818696272373
1789040126648220400,3.332220458984375,0.10853636256456374,-0.027250264366716143,1.7717811247080564
1789040126658164500,3.34216455078125,-0.2919137388408184,-0.4511986571941525,0.4251403060257435
1789040126668108500,3.352108642578125,-0.5369616816103459,-0.9769234169319272,-0.9170411951601505
1789040126678052400,3.36205224609375,-0.6864964095175266,-1.3808189826160668,-1.584214480048418
1789040126687996400,3.371996337890625,-0.9958183792769908,-1.582666081562638,-1.8770453337341546
1789040126697940500,3.3819404296875,-1.383239487761259,-1.7041668473795055,-2.563437698355317
1789040126707883500,3.391883544921875,-1.812683043938875,-1.4247469716697931,-7.607608508372306
1789040126717827600,3.40182763671875,-2.458499068021774,-3.0057173552304506,-7.390311326837539
1789040126727771600,3.411771728515625,-0.9848889889836311,-3.6807469065770504,-4.337471570426225
1789040126737715500,3.421715576171875,0.552836127090454,-2.4447584196999665,-2.7527959026068447
1789040126747659500,3.431659423828125,-0.022826748836040495,-1.1023102304019032,-1.559096405404806
1789040126757603300,3.441603271484375,-1.2051976272940634,-0.41207916440069675,-1.0063315899848937
1789040126767546400,3.45154638671875,-2.1644167529702187,0.1274838222818449,-1.490274213591218
1789040126777490400,3.461490478515625,-2.8898738845229146,0.8309684472076594,-0.9890022695213556
1789040126787434500,3.4714345703125,-2.5468285088598726,0.9272948781490326,-1.282542148259282
1789040126797378600,3.481378662109375,-0.8206780854701995,0.8989948124684393,-1.6431664352327584
1789040126807322600,3.491322509765625,0.3776631731230765,0.892433408126235,-0.7677133880019188
1789040126817266400,3.501266357421875,1.0973709473688156,1.513495222441852,0.8312421495825052
1789040126827209500,3.51120947265625,0.9403729709088802,2.4236866978377103,1.4293904135614632
1789040126837153500,3.521153564453125,0.43913953221850094,3.111525754135847,2.3643039500206706
1789040126847097300,3.531097412109375,-0.10268646749258041,2.993233428971469,3.407621162575483
1789040126857041700,3.541041748046875,-0.45609775434732436,2.45738789190948,4.091362135905027
1789040126866985500,3.5509853515625,-0.2958275512836873,2.816768316301703,3.3320576798081394
1789040126876929500,3.560929443359375,0.03539740353040397,2.6569758137524127,2.465571198365092
1789040126886872600,3.57087255859375,0.4087374527573585,2.0398298577062786,1.8213789760917425
1789040126896816400,3.58081640625,1.10995796867609,2.075795197317749,1.8485224190831184
1789040126906760400,3.590760498046875,0.8016108352981507,2.191448406150192,1.389987208455801
1789040126916704500,3.60070458984375,0.28939810275807976,2.065520617671311,1.45761405300498
1789040126926648300,3.6106484375,0.22209975951090455,1.8054697515591978,1.384690271091461
1789040126936592600,3.620592529296875,0.3391686803601682,1.213379618575424,1.082428741237521
1789040126946536400,3.630536376953125,0.6107178226947784,0.9431192008771002,0.4119283577531576
1789040126956479500,3.6404794921875,0.8103868469499051,0.8947697421193123,0.4743558800935745
1789040126966423600,3.650423583984375,1.1530043525896965,0.7710444321207701,-0.06798924812078476
1789040126976367400,3.660367431640625,1.3817127165853977,0.3386035938233137,-1.0793623394042253
1789040126986311400,3.6703115234375,0.7304116852201521,-0.29364494654759765,-1.684780886647105
1789040126996255500,3.68025537109375,-0.5746610054075718,-1.1330402997083961,-1.799011076939106
1789040127006199600,3.690199462890625,-0.9468857138037681,-1.8133662038974463,-1.3391869955450295
1789040127016142300,3.700142333984375,-0.6171184835173189,-1.836562078306824,-1.0251076021254062
1789040127026086700,3.710086669921875,-0.1109292490504682,-1.3670128678426146,-0.8677455415934324
1789040127036030500,3.720030517578125,0.6678196199677884,-1.3360600956961513,-0.2627472655892372
1789040127045974500,3.729974609375,1.0381773654483257,-1.6750808920182287,0.7501309695601462
1789040127055918300,3.73991845703125,0.9076816845320165,-1.4894623126864432,1.652477284413576
1789040127065862400,3.7498623046875,-0.6692084439776838,-0.9318068026155233,0.9952671751350164
1789040127075805400,3.759805419921875,-2.093820683351904,-1.3164774433478712,0.5081418298393487
1789040127085749500,3.76974951171875,-1.7329424216173588,-1.4530103586018084,0.244164730194211
1789040127095693600,3.779693603515625,-0.9343781144082546,-1.5765908533021806,0.12628303165733815
1789040127105637600,3.7896376953125,-0.7934418496288359,-1.4859623417414725,0.36728432938456534
1789040127115581400,3.79958154296875,-0.6826164993442595,-1.460773393818736,-0.05214402873516082
1789040127125525500,3.809525390625,0.2107188260577619,-1.310004155680537,0.17156126627624033
1789040127135468500,3.819468505859375,0.67281494403705,-0.9787226483736187,0.6681073508679867
1789040127145412400,3.829412353515625,0.604089490596205,-0.8244606727488338,0.0014729951620101928
1789040127155356400,3.8393564453125,0.41382863841652867,-0.7085276240617037,-0.8490992933124303
1789040127165300500,3.849300537109375,0.22244097416400907,-0.5305521068289876,-1.0109826306611298
1789040127175244500,3.85924462890625,-0.10197364304810762,-0.741840184142068,-1.0758283200591803
1789040127185188600,3.869188720703125,-0.3416881158351898,-0.7313808955784886,-1.085267764055729
1789040127195131600,3.879131591796875,-0.5663794992744923,-0.7720781590826808,-1.7381974195361136
1789040127205075500,3.889075439453125,-0.5893360119700431,-0.774902057396993,-2.037223036208749
1789040127215019500,3.89901953125,-0.40978140885233877,-0.5107418562699109,-1.2210557061612606
1789040127224963300,3.90896337890625,0.052687634092569345,-0.14091953284032643,-0.5699538506299257
1789040127234907400,3.918907470703125,-0.06709463736861944,-0.07853029668368398,-0.6350462082654237
1789040127244851700,3.928851806640625,-0.3856625743791461,0.07111329842545092,0.10353402423262595
1789040127254795500,3.93879541015625,-0.6106535252869129,0.7004518696337938,-0.23076339682936667
1789040127264738600,3.948738525390625,-0.7458730198547243,0.5280216385032981,-0.46762686409950255
1789040127274682600,3.9586826171875,-0.8141445920482278,0.4811471842015162,-0.2979635403990745
1789040127284626400,3.96862646484375,-0.7510074601337313,0.49686300505381076,-0.34833296067714686
1789040127294570500,3.978570556640625,-0.5817988944634794,0.023636713512055575,-0.19804419953227043
1789040127304514300,3.988514404296875,-0.743362352208048,0.20550806913953273,-0.2029074216544628
1789040127314458400,3.998458251953125,-1.1871955221354962,0.33097835964187977,-0.2983054857045412
1789040127324401400,4.0084013671875,-1.2707412358283996,0.35543618027847257,-0.6147428404271602
1789040127334345500,4.018345458984375,-1.1066340849503875,0.45304107019044454,-1.2051175477951763
1789040127344289500,4.02828955078125,-1.1231538425967096,0.4823109307512641,-1.5633575699806213
1789040127354233600,4.038233642578125,-0.7998495247140527,0.4985153753707185,-1.8207114520937204
1789040127364177400,4.048177490234375,-0.41408904291838405,0.45829727368559686,-1.7349924860149621
1789040127374121500,4.05812158203125,-0.4773872106134891,0.6376124054916202,-1.2136176651149988
1789040127384064500,4.068064453125,-0.42573710287511346,0.8635414409670978,-0.39110242734551426
1789040127394008600,4.078008544921875,-0.5374307604268193,0.9044469403944909,0.44664661991298193
1789040127403952600,4.08795263671875,-1.062932013607025,1.2289815307244658,1.2379770303457975
1789040127413896400,4.097896484375,-2.1939137733504177,1.9894545922093092,1.967808723720908
1789040127423840500,4.107840576171875,-3.195520088379085,2.2415739346697925,3.214546568149328
1789040127433784600,4.11778466796875,-3.5145953903898595,2.848709222702682,4.772417231151461
1789040127443727600,4.1277275390625,-2.761877619206905,2.770177245518565,5.626204390019178
1789040127453671400,4.13767138671875,-1.176339489339292,0.5992501973388716,3.419315107500553
1789040127463615700,4.14761572265625,0.047134383879601956,-0.2657068460471928,2.3278414745420215
1789040127473559600,4.1575595703125,0.7206055998682975,0.3571430207289755,2.7477158228635785
1789040127483503600,4.167503662109375,1.1023273276671766,0.09867246434455737,2.0061510215967893
1789040127493447400,4.177447509765625,1.2054402038782834,-0.5255157566295936,0.9008703970819711
1789040127503390500,4.187390380859375,0.3888672156393528,-0.9797497994642704,0.39624972710609435
1789040127513334500,4.19733447265625,-0.8376099310487508,-1.4551958859473466,0.5026099146753549
1789040127523278600,4.207278564453125,-1.188482639336586,-1.692513526725769,0.628167554667592
1789040127533222700,4.21722265625,-1.4836249848350882,-1.5736454475000499,-0.07870528792440891
1789040127543166700,4.227166748046875,-1.5839444309353827,-1.660573497107625,-0.7054758352756499
1789040127553110500,4.237110595703125,-0.4932441204369068,-2.321271302371472,-1.250501580876112
1789040127563053600,4.247053466796875,1.254061611445248,-2.8910549110010266,-1.4826958872914313
1789040127572997600,4.25699755859375,2.0877114066913722,-3.27756153498888,-2.092874196282029
1789040127582941400,4.26694140625,1.0912976918697357,-2.248703055897355,-3.4372722044736146
1789040127592885500,4.276885498046875,0.6713175450861454,-2.1048634708918628,-4.893090606233478
1789040127602829600,4.28682958984375,0.9680401455134153,-2.4651325146868825,-5.9805474047660825
1789040127612773600,4.296773681640625,0.7722536617800593,-2.6137007356494664,-7.103859360533952
1789040127622716700,4.306716552734375,0.6511901183366775,-2.6640035204321144,-7.00817020458281
1789040127632660700,4.31666064453125,0.6080290220022201,-3.105001320803165,-6.483056781676411
1789040127642604500,4.3266044921875,0.2584174196913838,-3.573675940389931,-5.770677158361673
1789040127652548600,4.336548583984375,-0.06153641871958971,-3.2623253874123095,-4.651643902826309
1789040127662492400,4.346492431640625,-1.413956113064289,-2.2214998455427586,-2.4067688807845116
1789040127672436500,4.3564365234375,-2.544075410759449,-0.02717186536826193,0.49665188305377955
1789040127682380800,4.366380859375,-2.7947669123739,1.773815699275583,3.891793503284454
1789040127692323600,4.376323486328125,-3.1635598927557464,3.3907574137970804,5.74250144971311
1789040127702267600,4.386267578125,-3.715476274652779,4.103190520864725,5.792188148424029
1789040127712211700,4.396211669921875,-3.4576983219087123,4.014735407820344,5.574283648645878
1789040127722155500,4.406155517578125,-2.437070787806809,3.948984001754224,4.796231821981072
1789040127732099600,4.416099609375,-1.5314207552328705,3.354420318263769,4.041587758910656
1789040127742043400,4.42604345703125,-0.622596768797934,3.317692762108147,4.33658660428524
1789040127751986400,4.435986328125,-0.8805120841860771,4.18031701516509,5.576283882552385
1789040127761930500,4.445930419921875,-2.2937910286411642,4.752668574586511,6.254099557486176
1789040127771874600,4.45587451171875,-1.6303776808083057,4.297457539945841,5.294872248503565
1789040127781818600,4.465818603515625,-0.9735130239665508,3.110117056381702,3.3136709592461586
1789040127791762700,4.4757626953125,0.23075199865251778,2.4886574749201533,2.1234651493787764
1789040127801706500,4.48570654296875,1.3675328000634908,1.5129036862894891,-0.38724984357059
1789040127811649500,4.4956494140625,2.3034131357282397,0.12697817431464792,-3.750075586608052
1789040127821593600,4.505593505859375,3.3703783503741023,-0.9638114219024777,-5.993413316079974
1789040127831537400,4.515537353515625,2.741842254655063,-2.007025320213288,-7.3454948645114895
1789040127841481700,4.525481689453125,2.2019629320323464,-2.8765789341419934,-9.176213331356644
1789040127851425500,4.535425537109375,1.654485701626539,-2.3801946159832177,-8.601941617527604
1789040127861369600,4.54536962890625,0.10928221249580383,-1.715701217828691,-5.526928607752919
1789040127871312600,4.555312744140625,-0.9600330724075437,-0.26445830729082226,-4.0534681663185355
1789040127881256700,4.565256591796875,-0.5670213043093681,0.4237669718459248,-2.5996318782866
1789040127891200500,4.575200439453125,0.31481910587102174,0.26038674700297415,-1.1739572703778742
1789040127901144600,4.58514453125,0.9669435824483632,-0.09068747520633041,-1.0811971536159515
1789040127911088400,4.59508837890625,0.8743640829503536,-0.025247327046468853,-1.2026093643665312
1789040127921032700,4.60503271484375,1.3469020999670027,0.3179524354606867,2.6229998943924904
1789040127930975700,4.614975830078125,0.7336275785267352,0.5912367310248315,2.4714643480569123
1789040127940919600,4.62491943359375,-1.5985808590531347,0.23198395160026847,0.5465367346853017
1789040127950863600,4.634863525390625,-1.7901514786571264,-0.48848918099477884,2.693731134697795
1789040127960807700,4.6448076171875,1.6620681195795535,-0.4038435432359576,4.66587116562128
1789040127970751500,4.65475146484375,1.4341843698397279,-0.9777925279166549,2.677973009073734
1789040127980695600,4.664695556640625,0.9341887293159962,-1.2158478353198616,2.1012901424497366
1789040127990638600,4.674638671875,0.8180275709614158,-0.877677445282042,3.1398166135966776
1789040128000582400,4.68458251953125,0.24368191511332987,-0.7674948498804122,4.077639900022745
1789040128010526700,4.694526611328125,-0.5063301042422652,-0.32857685145810245,3.8424873283237218
1789040128020470500,4.704470458984375,-1.56056238630414,-0.44477249660417434,1.7819488829791545
1789040128030414600,4.71441455078125,-1.2411118212401866,-2.11158795684129,-0.5651093332082033
1789040128040358700,4.724358642578125,0.5302288662239909,-3.0169290695965287,-2.4830378814727068
1789040128050301400,4.734301513671875,1.6627189847037196,-3.8621509369537232,-3.9782822846919297
1789040128060245500,4.74424560546875,0.6499252129673957,-3.1344045254200696,-2.1659891168534755
1789040128070189600,4.754189453125,0.001507189692556858,-1.0657032318860291,1.3438181624770165
1789040128080133600,4.764133544921875,-0.18904753086715936,0.16002839366439728,2.335246197840571
1789040128090077700,4.77407763671875,-1.3048045412108302,0.46251865424029526,2.881765981391072
1789040128100021500,4.784021484375,-1.9757509148970245,0.77535988416709,2.8740292496591806
1789040128109964500,4.793964599609375,-2.136599356240034,1.3279764502227305,2.0533114167004825
1789040128119908600,4.80390869140625,-2.2219427670046685,1.3213644847370682,0.5916910506635904
1789040128129852400,4.813852294921875,-2.105244725294411,0.2743939373064786,0.8294494209468364
1789040128139796500,4.82379638671875,3.3782395852684974,-0.032721316188946366,2.388897124007344
1789040128149740500,4.833740478515625,1.0096411529242992,-0.2505718207575381,4.028806603270769
1789040128159684600,4.8436845703125,-0.49765375357270236,0.3164175540436059,4.561405998018384
1789040128169627600,4.853627685546875,0.05643441940546035,1.598237744703889,4.55950980900824
1789040128179571700,4.86357177734375,0.9360575919277966,1.7683653249152003,3.0878876889169216
1789040128189515500,4.873515625,2.1767463654503225,1.4624132699802517,1.0644190372943878
1789040128199459600,4.88345947265625,1.994032421518862,2.003045310666412,0.5059107097864151
1789040128209403400,4.8934033203125,0.023280045561492442,1.0675085277423262,-3.31262291149795
1789040128219346400,4.903346435546875,-0.4688122744917869,-0.6156164083912968,-7.599405912694334
1789040128229290500,4.91329052734375,-2.436824119569361,-2.0921938128024338,-10.000138435924052
1789040128239234600,4.923234619140625,-2.9268942861452696,-1.879817721056938,-8.796631245934963
1789040128249178600,4.9331787109375,0.4573699662402272,0.993979181151092,-0.8579238202810286
1789040128259122700,4.943122802734375,0.9831611422777176,0.6218082487687469,6.018176585936546
1789040128269066500,4.95306640625,-4.817296529580652,2.2854048930898307,7.059425760045647
1789040128279009500,4.963009521484375,-1.2567124182149767,0.05628858119398355,-12.018872460240125
1789040128288953600,4.97295361328125,-1.9825559187367556,-1.4804130370512605,-7.5636758431434625
1789040128298897400,4.9828974609375,2.3978151744782923,0.10125351208001375,-0.9793214179843663
1789040128308841500,4.992841552734375,2.7114368872582912,0.5440922641426325,-0.8841782054781914
1789040128318785800,5.002785888671875,-0.41915655544102187,-0.033764030174911024,-0.0688496643424034
1789040128328729600,5.0127294921875,-0.48065702606439586,-0.17597586784809827,-0.43200902275145053
1789040128338672600,5.022672607421875,-0.6265373231172561,-0.7772291121050715,-0.6939923182308674
1789040128348616700,5.03261669921875,-1.1206927131801843,-0.8344234099671244,-0.4633674530893564
1789040128358560500,5.042560546875,-2.2809017364516855,-1.45434102268368,0.12591244477927685
1789040128368504600,5.052504638671875,-1.4983631197616456,-1.4562585467427969,0.9359949019551277
1789040128378448400,5.062448486328125,-0.07772270662784576,-1.3859297497585414,1.818248276850581
1789040128388392700,5.072392822265625,0.24605419720262287,-0.9658028879806398,1.7558721924364566
1789040128398336000,5.0823359375,-0.3233817670330405,-0.6838663532748818,2.1464923892229795
1789040128408279800,5.09227978515625,-0.7243088383004069,-0.48718613557219503,1.4958967296481132
1789040128418223900,5.102223876953125,0.5149854121237993,-0.8961755172640085,0.8378706278115511
1789040128428168000,5.11216796875,1.044657228986919,-0.1457058172687888,-0.9951251363158226
1789040128438111700,5.12211181640625,-0.6838909031942486,0.8788520420193672,-0.6783703862071037
1789040128448055800,5.132055908203125,-2.2215599051669237,1.3725620264023541,-0.6224918471187353
1789040128457998800,5.141998779296875,-1.6913094116330145,1.0043433387771248,-0.6932417921245098
1789040128467943000,5.15194287109375,-0.11287234594225883,0.48118689515739677,-1.3472621654510497
1789040128477887000,5.161886962890625,1.5500310554176568,1.0840125032976269,-1.5450918454498053
1789040128487830800,5.171830810546875,2.6007144128262993,2.089047623731196,-2.157775999781489
1789040128497774800,5.18177490234375,1.8608546619117259,1.1378352788999675,-2.9476562114059925
1789040128507719000,5.191718994140625,2.248119410790503,1.7381319530844688,-2.3796698614567515
1789040128517661700,5.20166162109375,1.9003890921816229,2.5885338534280655,-2.5524153690814972
1789040128527605800,5.211605712890625,-0.18639087887853384,2.002606188596785,-2.3453280313938856
1789040128537550000,5.221550048828125,-1.0037477109715343,2.176769454064965,-1.707830922845006
1789040128547494000,5.231493896484375,-0.9798378430739044,2.4328785968139766,-0.5091320099204778
1789040128557438000,5.24143798828125,-1.330700614489615,1.7064257322221994,0.40318566384911536
1789040128567381800,5.2513818359375,-0.9803756032124161,0.5513260147884488,1.7017577404111623
1789040128577324800,5.26132470703125,0.4278346596762538,0.9480006893083452,2.9557202753961085
1789040128587268900,5.271268798828125,0.48940410388261074,3.1567002361193297,6.121486738285422
1789040128597212700,5.281212646484375,-0.24475012886673211,2.936733250853419,9.52557329699397
1789040128607156700,5.29115673828125,-3.251169494886696,1.7812684994995593,10.686741228425502
1789040128617101000,5.30110107421875,-5.460418784534931,-2.7365076156288386,-1.1721838309645651
1789040128627043800,5.3110439453125,-0.7885939712062477,-5.355393060439825,-3.7644010490804907
1789040128636988000,5.32098779296875,-0.6304001360252499,-2.5448990021020172,5.383273585534096
1789040128646932000,5.330931884765625,-6.990673710858822,0.3925812677264213,13.425644799280166
1789040128656875800,5.340875732421875,6.64190118972063,-5.3608922423779966,-13.65415544874668
1789040128666819800,5.35081982421875,3.41774420492202,-12.595254298090934,-15.75806717187166
1789040128676763600,5.360763671875,1.6654340888813137,-5.330350973641872,-7.791160656693577
1789040128686708000,5.3707080078125,-0.5619836024031043,-4.81093079394102,-0.7435878315269947
1789040128696650800,5.380650634765625,0.12963292660713194,-5.045316472920775,0.30985271563529965
1789040128706595000,5.390594970703125,-1.8276459275320172,-3.412577908200025,-0.18307517845928667
1789040128716539000,5.400538818359375,-1.495002118895948,-1.4587527016460895,-0.08412965106070042
1789040128726483000,5.41048291015625,-2.1612682258114218,-0.7845879504352807,0.12303367447257041
1789040128736426800,5.4204267578125,-1.3156713876619934,-0.4116764288187027,2.1179215437769887
1789040128746369800,5.430369873046875,-0.9603627427533268,2.057547446835041,3.8432764328747986
1789040128756313900,5.44031396484375,-0.8643392402812838,3.784854054522514,3.333259456813335
1789040128766257700,5.450257568359375,-0.6539537378311157,3.9866643285900354,3.244167214909196
1789040128776202000,5.460201904296875,-1.6766998715221881,4.57008556355834,1.8481302048951387
1789040128786146000,5.47014599609375,-1.9463339740157126,6.18795856758058,0.9875807122856378
1789040128796089900,5.48008984375,-1.3496139892742036,4.163777091513574,0.010415595552325248
1789040128806033000,5.490032958984375,-0.7263961659684777,2.2244205552950502,0.51231706969738
1789040128815977000,5.49997705078125,-0.3947261708006263,2.5346488262444735,0.26263620643019675
1789040128825920800,5.509920654296875,-0.5178294033780694,2.9307728811442852,0.962389572405815
1789040128835864800,5.51986474609375,1.2797381967544554,2.335603048454225,-1.7009288883715867
1789040128845808600,5.52980859375,1.263431497336924,0.41864509878754613,-3.7317262754470106
1789040128855753000,5.5397529296875,-0.5197346524775028,-1.8248969210848212,-4.3536628267705435
1789040128865696000,5.549696044921875,0.021470365791022777,-2.3501252025425434,-5.073985518044233
1789040128875639800,5.559639892578125,0.6792994837507605,1.9583499905019996,1.4356617489159107
1789040128885584000,5.569583984375,-3.0471675559937954,0.10997720902264117,-1.8942811306953429
1789040128895528000,5.57952783203125,3.4914810567840933,-0.4583595617994666,-9.763876441678404
1789040128905471700,5.5894716796875,1.9041501982808111,2.2715765664845704,5.66980446229279
1789040128915415800,5.599415771484375,-1.0584946156814694,0.2617556242033839,8.800827528581022
1789040128925358800,5.60935888671875,0.47898733928650616,-2.0012386996358633,4.617686103644967
1789040128935303000,5.619302978515625,1.1873346383452414,0.2599006439864635,2.8446652080088852
1789040128945247000,5.6292470703125,1.294096100191772,0.7988464851513505,1.0007365464568136
1789040128955190800,5.639190673828125,1.4321233456566929,-1.4756979912281036,1.1850047340929508
1789040128965134800,5.649134765625,2.9790029513061045,-3.0196961962223052,0.5336474424958229
1789040128975078000,5.659077880859375,2.4892554408133027,-4.233811289465427,-1.144737021112442
1789040128985022000,5.66902197265625,1.497314195230603,-4.1950756083577865,-3.518391567802429
1789040128994965800,5.6789658203125,1.5088891899511216,-2.4059338912650943,-3.209541307207942
1789040129004909800,5.688909912109375,2.306046991363168,-1.5266443346112966,-2.1958143462747333
1789040129014854000,5.69885400390625,2.590562436646223,-1.3784031536459922,-1.2651327482968568
1789040129024798000,5.7087978515625,1.654402114996314,-0.708021428105235,-1.1134294441789387
1789040129034741000,5.718740966796875,0.676060940220952,-0.12791969294846056,-1.2881903832793236
1789040129044684800,5.728684814453125,0.25600012941658495,0.2672393163114786,-2.1063503484487534
1789040129054628900,5.73862890625,0.38107729241549965,2.110472981336713,-2.9985815120011567
1789040129064573000,5.748572998046875,3.455581768146157,3.6447172695577144,-1.4050474149435759
1789040129074516700,5.758516845703125,2.292576099893451,5.769103625434637,-1.1834463987350463
1789040129084459800,5.768459716796875,0.6646651014596223,0.4613713108360767,-0.11398001492321491
1789040129094403800,5.77840380859375,-1.3181158582046628,0.08253332177996635,-2.061058669826388
1789040129104348000,5.788347900390625,-2.4996055699139834,1.8171072901219127,-0.6996054819375276
1789040129114292000,5.7982919921875,-3.0000647362962365,2.41454886713624,0.04598725967109203
1789040129124235800,5.80823583984375,-3.480997948953509,1.512598273602128,0.3874894975453615
1789040129134179800,5.818179931640625,-2.805421577379107,0.9019897565007209,1.5208996534794568
1789040129144123000,5.828122802734375,-1.803783405907452,-0.1270551850736141,3.0464988629519936
1789040129154066700,5.838066650390625,-2.172127765738964,-0.6868243262976408,2.624554138097167
1789040129164010800,5.8480107421875,-1.8912603215694426,-1.8965104971826074,2.2660072419196364
1789040129173955000,5.857955078125,-2.7507193885937333,-2.4630308662325144,0.1538385625809431
1789040129183899000,5.86789892578125,-2.3535089997619387,-1.6533727719485758,0.708635176089406
1789040129193843000,5.877843017578125,-2.796755163581669,-2.4304005162626505,1.116338609623909
1789040129203786000,5.887785888671875,-2.1392583463162183,-4.268139091002941,4.359581110903621
1789040129213729800,5.897729736328125,0.8363850654289126,-8.646943957814575,6.463645978763699
1789040129223673900,5.907673828125,-0.8180193876549601,-16.364244428527353,5.812423711723089
1789040129233617700,5.91761767578125,-0.929323169106245,-9.196728296118975,7.95678668770194
1789040129243561700,5.927561767578125,-2.7624904904082417,-4.939426240950823,1.5701099668502807
1789040129253504800,5.9375048828125,-0.14104600876420736,-0.33097558316290376,0.6188210496515035
1789040129263448800,5.94744873046875,0.05507657505571842,7.186819967815279,-0.5596551594555378
1789040129273393000,5.957392822265625,0.009489128357172012,7.637859269729256,-4.124723722758889
1789040129283337000,5.9673369140625,2.283499059468508,0.29644261444211006,-3.6251042220711707
1789040129293280800,5.97728076171875,5.486470925158262,-21.97629754359722,-5.201369788941741
1789040129303224800,5.987224853515625,-5.211309583675861,7.573596933177113,-1.0964806474655866
1789040129313168000,5.99716796875,1.6550868823900817,19.09597825388312,-3.0518805559903384
1789040129323111700,6.007111572265625,3.3527412791356443,-12.397415850263833,-10.052834253323077
1789040129333056000,6.017055908203125,-3.101254827751219,-16.023098749005793,-9.213675339266658
1789040129342999800,6.026999755859375,4.411548029506206,12.963389691346883,2.66692086918354
1789040129352943900,6.03694384765625,3.061933455710113,16.216294923985004,3.07888196016252
1789040129362888000,6.046887939453125,1.5886322964906692,10.803521687722206,-1.6493576910883188
1789040129372831000,6.0568310546875,1.000913072067499,5.532545863112807,-4.466868350189924
1789040129382774800,6.06677490234375,-0.6101768476858734,5.511912824928761,-5.204831327572465
1789040129392718800,6.07671875,-0.4941138890087604,6.702283469969034,-5.303838814291358
1789040129402662100,6.086662109375,0.042032676826417446,2.5684014582425356,-2.1389023724853993
1789040129412606000,6.09660595703125,1.4390025837764142,1.610324488338828,0.4151613483250141
1789040129422549000,6.106549072265625,-0.46643882335871456,0.9905085824310779,-0.3354962754577398
1789040129432493000,6.1164931640625,-0.5648246710479259,-1.330388772061467,-0.5686164645463228
1789040129442437000,6.12643701171875,0.12039748075008391,-2.388179623387754,-1.2256693374365568
1789040129452381200,6.136381103515625,0.41425241678655145,-0.6531123185709119,0.48334290414750575
1789040129462325000,6.146324951171875,0.4514566505432129,-2.8212998222514987,1.7900608777642248
1789040129472269000,6.15626904296875,0.7202452421233058,-6.248090087938309,6.920851402091979
1789040129482212000,6.166212158203125,2.192383495043218,-10.42014547071457,10.661672253620624
1789040129492156000,6.176156005859375,0.7356019473396241,-35.14749295003414,26.69855169069767
1789040129502100000,6.186099853515625,3.946861310511827,3.723475164452195,7.4110495789617294
1789040129512044000,6.1960439453125,6.004402912127971,22.532696916127204,-1.8699013071984052
1789040129521988000,6.205988037109375,-7.29051356652379,17.607723563420773,-2.1900568056613205
1789040129531932200,6.21593212890625,-4.216531945623458,14.35361070855856,-3.1062650571286676
1789040129541875200,6.225875244140625,0.27343378703743215,6.459692272701859,2.6675369552552697
1789040129551819000,6.235819091796875,-3.825235164749622,-1.1654092222630976,2.8353754016160964
1789040129561763000,6.24576318359375,-5.981362228280306,-3.3210680837601423,-1.4415353171244263
1789040129571707100,6.25570703125,-5.300545033442973,-4.471264539322257,-6.896265242367982
1789040129581651000,6.26565087890625,6.441012122151255,-9.22023776652217,-7.110816340065002
1789040129591594000,6.275593994140625,8.739556190538407,-4.339740099880099,-6.310380247634649
1789040129601538300,6.285538330078125,-2.501032387846708,0.9293675927698611,-1.9104484216421842
1789040129611482000,6.295482177734375,-6.2417778360515825,1.9477906025648115,-1.1466545451715588
1789040129621426200,6.30542626953125,-4.33335945893228,4.805033552595972,-1.2594053105607628
1789040129631370000,6.315369873046875,-1.8810291426733134,8.457422087433933,-2.0729969449013472
1789040129641314000,6.32531396484375,-1.7173004697188734,11.827042897439002,-0.41400487176626916
1789040129651257000,6.335257080078125,0.9562383562996983,9.291246070203185,-0.09242810832858085
1789040129661201000,6.345200927734375,2.0832348457992076,2.0699188526302574,3.111554980230331
1789040129671145000,6.35514501953125,-1.1475856885418296,-0.24811083747148513,3.1411352949798106
1789040129681089300,6.36508935546875,-5.2145045803248875,1.237383156105876,1.5528946281552314
1789040129691033000,6.375033203125,-0.25592121896147724,2.7656390175670382,1.5601158115804195
1789040129700977200,6.38497705078125,0.16772826398462057,2.2131752309203145,3.8905671763598915
1789040129710920200,6.394920166015625,1.652474800195545,0.407587698200345,3.7463743940025567
1789040129720864000,6.404864013671875,-3.2621900705948472,3.895928995653987,1.5233002848803996
1789040129730808000,6.41480810546875,0.795348706163466,6.238355460387468,-2.45684720916152
1789040129740752000,6.424751953125,4.324460113161802,-2.2144605945557356,6.7427318002134555
1789040129750696200,6.4346962890625,-1.7220811281241475,-3.3530379239946604,5.446660308295488
1789040129760639000,6.444638916015625,-0.7626550816990435,1.4138994144409893,3.0146921043246984
1789040129770583000,6.4545830078125,0.8483996206104755,5.529503426676988,0.12359773809611796
1789040129780527000,6.464527099609375,1.0509330943860113,-0.7035188559889793,-1.6850877606391905
1789040129790471200,6.47447119140625,4.467207372885942,2.7941677774369715,0.8534516433030367
1789040129800415000,6.4844150390625,3.6360394575834274,1.5379595093518494,1.6277134300351142
1789040129810359000,6.494359130859375,1.8163418587073683,-2.852696538773179,2.941086769887805
1789040129820302000,6.504302001953125,0.0029001053556799885,-4.2772266528218985,5.4210833839684724
1789040129830246000,6.514245849609375,-0.976806220293045,-4.670200719258189,5.288361259174347
1789040129840190200,6.524190185546875,-1.2598131607092917,-4.241163405793905,3.6347055786311624
1789040129850134000,6.534134033203125,-0.897750511495769,-3.259160785901546,1.7599258517414331
1789040129860078000,6.544078125,-0.34267157391458747,-3.7996880510389803,0.2480512162387371
1789040129870021000,6.554021240234375,-0.8084542714521289,-4.580459658056498,0.05029577051997185
1789040129879965200,6.563965087890625,-2.0936805442288517,-3.3022295277774334,0.9880483297973871
1789040129889909000,6.573908935546875,-2.527209616154432,-0.9517565347105265,0.8032382903695106
1789040129899853000,6.58385302734375,-1.5243229059264063,0.696436204251647,-0.16494097135365007
1789040129909796900,6.593796875,-0.6590797025427222,0.8391039689987897,-0.8761229093164205
1789040129919741200,6.6037412109375,0.6020613457694649,0.6276075826972722,-2.18203891890049
1789040129929684200,6.613684326171875,1.119306665649265,1.803022650668025,-3.7290249075338244
1789040129939628000,6.6236279296875,0.24216844181045888,2.179589187660813,-4.1910476680159565
1789040129949572000,6.633572021484375,-0.4672973398841917,1.728811751553416,-4.5177410438150165
1789040129959516200,6.64351611328125,-0.1492296074807644,1.196906768810749,-4.57500110038966
1789040129969460000,6.6534599609375,0.19532251948341725,0.8743903864353895,-4.15692912531495
1789040129979404000,6.663404052734375,0.7410369780004024,1.1396879210293291,-2.352096794876456
1789040129989347000,6.67334716796875,0.7805811990119517,1.6786241175830363,-0.4162140722483396
1789040129999291100,6.683291015625,0.7312216864287853,1.3639847521930932,-0.49309945126920934
1789040130009235200,6.693235107421875,0.31455329454168673,0.9451794944077729,-2.550485277801752
1789040130019179000,6.703178955078125,-0.017163900768756866,0.47479719412028787,-2.488089904165268
1789040130029123000,6.713123046875,-1.345817081209272,1.0747229891657828,-1.5146306562125682
1789040130039066000,6.723066162109375,-1.0779868132673203,1.4158710067749023,-0.3263739345863461
1789040130049010000,6.733010009765625,0.42506548722386356,1.3005518522024153,0.17571487882435322
1789040130058954000,6.7429541015625,1.6629731055952608,0.8384709317922592,-0.21684008541703223
1789040130068898000,6.75289794921875,0.18640768388286233,0.8668325184017419,0.19719167435616253
1789040130078842000,6.762842041015625,2.6784125695347782,1.2331330974459647,-0.7730892358213662
1789040130088785200,6.77278515625,3.190368404704332,1.6351900495260954,-3.453079429936409
1789040130098729200,6.782729248046875,0.5980370586894452,1.9101924010545015,-3.4748335811048743
1789040130108673000,6.792673095703125,-2.8401532835423944,0.8501590314984321,0.8403563071474432
1789040130118617000,6.8026171875,-0.6014147184289992,-0.5478992552101611,1.6856363344326615
1789040130128561000,6.812560791015625,1.8638754710376262,-0.944036169591546,0.005251344656944275
1789040130138505000,6.8225048828125,1.5665926063790916,-0.820934690579772,-0.6036904082760215
1789040130148448000,6.832447998046875,0.3787080790661275,-0.5166822791695594,-0.2291974626868963
1789040130158392000,6.84239208984375,-0.6523815200783312,-0.660740036970377,0.5591200296655296
1789040130168336100,6.852336181640625,-2.4194880771040914,-0.2683124985009432,2.0259347494751214
1789040130178280200,6.8622802734375,-0.9800772047877311,1.1117536199212075,1.0992799227952956
1789040130188224000,6.87222412109375,-0.5291640134714544,1.04002050909698,-0.6012447686895728
1789040130198168000,6.88216796875,-0.6180136787913739,0.3873533039450645,-1.2669386286750435
1789040130208111000,6.892111083984375,-1.3853252079941332,-0.43361002820730205,-0.3887254690811038
1789040130218055000,6.902054931640625,-2.132998701399565,-0.7870552173316478,1.055391681230068
1789040130227999000,6.9119990234375,-1.7356806144095955,-0.3945815016329288,1.9494787017822264
1789040130237943300,6.921943359375,-0.7901520143032074,0.24787293706238267,2.2303204269886017
1789040130247887000,6.93188720703125,-0.40073637100085613,0.15624503920078275,1.8698744191914796
1789040130257830100,6.941830078125,-0.32138650156259535,-0.20660978330373764,1.4515125212594866
1789040130267774200,6.951774169921875,-0.16388108703717588,-0.18831717076599597,1.44167735594362
1789040130277718000,6.961718017578125,-0.8512100018560886,0.41194297080039977,1.8627479283124206
1789040130287662000,6.971662109375,-1.036990786012262,0.5142775561153888,1.4388196284249424
1789040130297606000,6.98160595703125,0.6928316038884222,-0.8282102345407009,0.330479031817615
1789040130307550000,6.991550048828125,2.1446809558868405,-2.290299387133121,-0.12549801875948904
1789040130317493000,7.001492919921875,1.5645428342424332,-2.253378646492958,0.5947010461345315
1789040130327437000,7.01143701171875,0.16785466684326528,-2.1578706923276183,1.7723863971248268
1789040130337381000,7.021381103515625,-0.9041304217912256,-2.3377356765687463,2.29206435097903
1789040130347325200,7.0313251953125,-0.8781799879767,-1.5976222431540488,2.156660439755022
1789040130357269000,7.04126904296875,0.23232407027482985,-0.5405301877468824,0.7545368033036589
1789040130367212000,7.0512119140625,1.2168578160800039,-0.15205401725172996,-0.5333800237312912
1789040130377156000,7.061156005859375,1.2193139770604668,-0.6355424673497676,-0.512785271731019
1789040130387100000,7.071099853515625,0.07501870836615562,-0.6308738910168409,-0.3320703926622867
1789040130397044700,7.081044677734375,-0.7814810704611241,-0.06610299598276614,-2.227210186013579
1789040130406988500,7.090988525390625,0.9889012933649122,1.1183762529313563,-4.619793305057287
1789040130416932600,7.1009326171875,2.5604385165393353,2.541341017359495,-5.674105958878994
1789040130426875600,7.110875732421875,1.4486252753853797,3.1572751133978363,-4.4307983811602
1789040130436819500,7.1208193359375,0.6667733257852494,2.276159218099713,-3.003924626594782
1789040130446763500,7.130763427734375,0.766747903970629,2.2803683602273463,-2.962694790583849
1789040130456707600,7.14070751953125,1.8138288529731332,3.47504693159461,-4.049619674196839
1789040130466651600,7.150651611328125,1.3969979640007018,4.734250289842486,-3.334453635033965
1789040130476595700,7.160595703125,1.2351954368032514,4.287198011738061,-1.3752137099549173
1789040130486538800,7.170538818359375,1.6547580888271332,3.8585149185389276,-0.39550504621863364
1789040130496482600,7.180482666015625,1.8153719907619057,3.1378678176164625,0.1912196142092347
1789040130506426600,7.190426513671875,1.1738450421750546,2.851217113870382,0.04594692766070366
1789040130516370400,7.200370361328125,0.007144172666221857,3.3456220947802064,-0.9989210214674472
1789040130526314500,7.210314453125,-0.747991473313421,2.8279584033578633,-1.4824281762659548
1789040130536257500,7.220257568359375,-1.4655261413037777,1.1789181076556443,0.07190496025979519
1789040130546201300,7.230201416015625,-0.6580994593337178,-0.5430629210948944,2.531311206254363
1789040130556145700,7.240145751953125,2.0226548510216174,-0.4724941778749227,5.07732898325324
1789040130566089700,7.25008984375,0.395427889329195,2.3006220437049865,0.8802204077631235
1789040130576033500,7.260033447265625,0.2008572111263871,-0.23354689006805418,1.8366051867961883
1789040130585976600,7.2699765625,-1.0591608245052397,-2.5598709457844495,4.028791990223526
1789040130595920600,7.279920654296875,-1.977517193917185,-2.757873059740662,3.0635329998612404
1789040130605864400,7.289864501953125,-2.2421204626366493,-1.283939155575633,2.567641579785943
1789040130615808500,7.29980859375,-1.2267480725839732,0.4268190528929233,1.3357277950018644
1789040130625752600,7.309752685546875,-0.16692103925496338,0.8641869723290204,0.6644207713097333
1789040130635696600,7.319696533203125,-0.5152417249724268,0.06270341667234897,2.7669997845262286
1789040130645639700,7.3296396484375,-1.839170068848133,-1.4062860168278217,4.212138386839628
1789040130655583700,7.339583740234375,-2.3564652192190287,-1.5550468377530573,4.829270752751827
1789040130665527600,7.349527587890625,-1.3886954150795936,-0.9399223045319318,4.635526880761981
1789040130675471600,7.3594716796875,-1.1401932402029633,-0.38489948105216026,4.74757797344923
1789040130685415400,7.36941552734375,0.043747079528868194,-1.3269915308386087,3.5280882014304398
1789040130695358500,7.3793583984375,-0.8842726057633757,-2.5386340964883565,3.8425714994758366
1789040130705302500,7.389302490234375,-1.168713524505496,-2.3010791398227215,3.1518706240057943
1789040130715246600,7.39924658203125,-1.271105977487564,-0.5798287634342909,1.777544510540366
1789040130725190700,7.409190673828125,-0.6381175785347819,-0.1827566140294075,1.2390396911412476
1789040130735134700,7.419134765625,0.021736761642247436,-0.8539157536834477,1.2374305023789405
1789040130745078500,7.42907861328125,0.46267479465007777,-1.193764379131794,1.6552216146856547
1789040130755021600,7.439021484375,0.5940213933072984,-0.9680845691770315,1.0547434464544057
1789040130764965600,7.448965576171875,-0.21156302179694175,-0.28133447715938087,1.1378490151643752
1789040130774909400,7.458909423828125,-0.702008743686974,0.141246207511425,1.0203718057751654
1789040130784853500,7.468853515625,-0.7339721541807055,0.05770166286230087,1.159696105313301
1789040130794797600,7.478797607421875,-0.8060534939207136,0.07441314368844032,0.9750947402000427
1789040130804740600,7.48874072265625,-0.4103343665599823,0.13052081535756588,0.039490298867225646
1789040130814684700,7.4986845703125,0.6874725610733032,-0.1616471905052662,0.38189270045161244
1789040130824628500,7.50862841796875,1.6430723272085188,-0.053420624542236325,0.4918149644166231
1789040130834572500,7.518572509765625,1.0945112470887601,0.3747492584377527,1.061647234493494
1789040130844516600,7.5285166015625,0.033724428816884755,0.3244306915640831,0.9859200855970383
1789040130854460400,7.53846044921875,-0.8847709106743336,0.28132921646237374,0.8993839579164982
1789040130864403500,7.548403564453125,0.45600320793166754,0.01575169588327408,0.45469373276829717
1789040130874347800,7.55834765625,2.4292682973623276,-0.5033540110409259,-0.2559811324551701
1789040130884291600,7.56829150390625,1.8798492852389812,-0.6376309640616178,-0.225598561412096
1789040130894235600,7.578235595703125,0.11308175090923905,-0.5925222407907247,-0.23395430182516574
1789040130904179500,7.588179443359375,0.19127879705056547,-0.8320271624803542,-0.4295014238446951
1789040130914122500,7.59812255859375,1.676810784550756,-1.1069570332944392,-0.8874719863265752
1789040130924066600,7.608066650390625,2.2233495650626716,-1.1924059502601623,-1.360057349616289
1789040130934010600,7.6180107421875,0.26068390331864355,-1.5960463721394538,-1.7044477101475
1789040130943954400,7.627954345703125,0.12990414476394652,-1.9318845929026602,-1.5894614407911896
1789040130953898800,7.637898681640625,2.0063130802907048,-1.4515069683015345,-1.5919956354439257
1789040130963842600,7.647842529296875,3.0516859102010727,-0.4633487483888864,-1.5548901858866213
1789040130973785600,7.65778564453125,0.7646995931386947,0.3216495364129543,-1.4607017898872494
1789040130983729700,7.667729736328125,0.7655003881275654,1.0398971749782562,-1.3734136747956276
1789040130993673500,7.677673583984375,2.1502654780209065,0.7538304085999726,-1.0253253365293145
1789040131003617500,7.687617431640625,0.6270191152848303,1.0014812273442744,-0.07531067705005406
1789040131013561600,7.6975615234375,0.4150947128295898,0.6689636754363775,0.377824135838449
1789040131023504400,7.70750439453125,1.3005939377784728,1.7466642191082238,-0.600196136419475
1789040131033448400,7.717448486328125,2.6694565251410007,-0.005546528211235999,-1.9348612706258892
1789040131043392800,7.727392822265625,2.333779486288875,-1.3559756332606077,-1.618823144353926
1789040131053336600,7.737336669921875,0.6892997765004635,0.4097521827578544,0.6187804253801703
1789040131063280600,7.74728076171875,1.4880806490696965,1.8817676860809325,1.6493611982196568
1789040131073224400,7.757224365234375,2.427760230886936,2.282829197382927,0.006834522195160389
1789040131083167500,7.76716748046875,1.9208193012699484,3.1806472211569545,-2.0463994453549383
1789040131093111600,7.777111572265625,-0.27004779786095023,3.229644184038043,-2.871602314773202
1789040131103055400,7.787055419921875,-1.410554195666313,2.057656752428412,-1.9064817099682985
1789040131112999700,7.796999755859375,-0.5784906466983258,1.11122638117671,-0.23509748051092028
1789040131122943700,7.80694384765625,1.115605619174242,0.884001679867506,-0.29672260042726994
1789040131132886500,7.816886474609375,0.42504897448047996,1.1411696840196848,-0.5899057746820151
1789040131142830600,7.82683056640625,-1.0029435549817978,0.4068254816561937,0.7588913452513516
1789040131152774700,7.836774658203125,0.16886121353730557,-0.58081894351542,0.6402183502063155
1789040131162718500,7.846718505859375,2.1543533318564294,-1.2990677511245012,-1.7008887024916708
1789040131172662500,7.85666259765625,1.6085690229736267,-0.9359124843686819,-2.312422663874924
1789040131182605600,7.86660546875,-0.6834945973530411,-0.3663531860142946,-0.3163299488253891
1789040131192549400,7.87654931640625,-2.472240008604526,-0.24785306331813334,2.330878504150361
1789040131202493700,7.88649365234375,-0.42264907373189925,0.27618717739880083,1.7479902070149778
1789040131212437500,7.8964375,1.8695934102930127,0.37742169251739976,-0.5623115191832184
1789040131222381600,7.906381591796875,1.2188637490749359,0.5013835877507925,0.2093795402780175
1789040131232325600,7.91632568359375,-0.5775356840610504,0.7403086637258529,1.7590571060828863
1789040131242268700,7.9262685546875,-2.473072660036385,1.225213994884491,2.592610016825795
1789040131252212500,7.93621240234375,-3.018508447742462,1.3313649236172438,3.1855148271933196
1789040131262156500,7.946156494140625,-0.814120772781223,0.007371990072727203,2.0149699956074354
1789040131272100600,7.9561005859375,1.5578291619479656,-1.7435966482311487,0.5445201341658831
1789040131282044700,7.966044677734375,1.681139753665775,-1.881479516789317,0.7019961764663457
1789040131291987700,7.97598779296875,0.917681831151247,-1.1910510285198688,0.6692579822078347
1789040131301931500,7.985931640625,-1.2209256500408052,-0.21091712510883806,0.762675686095655
1789040131311875600,7.99587548828125,0.08837371837124228,0.1679156032502651,-1.1125754576981066
1789040131321819600,8.005819580078125,1.542349707134813,0.3542208496719599,-1.9506103361606597
1789040131331763500,8.015763427734376,1.1346645399093627,1.0026204605072737,-1.0854928049832582
1789040131341707500,8.02570751953125,-1.8980686864100396,1.4154635950177907,1.034806281580031
1789040131351650600,8.035650634765625,-0.36616774644479155,0.8998007220238446,0.054231356403231616
1789040131361594600,8.0455947265625,3.660122928482294,0.5179986224651336,-2.7038988929688927
1789040131371538700,8.05553857421875,5.505057552206516,1.029061892709136,-4.484672010166943
1789040131381482500,8.065482421875,0.9839023160338402,0.5779086090266704,-3.8558895384714007
1789040131391426600,8.075426513671875,-5.108785613268614,-0.41253450695276256,-2.8004358979210258
1789040131401369900,8.085369873046876,-4.523268867325783,-1.9581249495744704,-3.5400171241551637
1789040131411313700,8.095313720703125,1.2743582572817802,-3.07039645588994,-4.922531220251321
1789040131421257700,8.1052578125,3.681527535560727,-1.7201783632427452,-4.130657204461097
1789040131431202000,8.1152021484375,2.2836871293865144,-0.22137071458399293,-2.9691341759815812
1789040131441145900,8.125145751953125,-0.21128625068217516,-0.11294307309091091,-2.3946382980078456
1789040131451090000,8.13508984375,-1.4337272737219928,0.1471019478023052,-1.1826678155779837
1789040131461033000,8.145032958984375,-0.2949962150260806,1.2098270406603813,-1.2763546917960047
1789040131470976800,8.154976806640626,1.0900491531133651,2.437728667193651,-2.1929235932692883
1789040131480920800,8.1649208984375,0.4709899107918143,3.2873014232367277,-2.1042922468751666
1789040131490864600,8.17486474609375,-0.4380976950153708,3.137117291510105,-0.7602841147840023
1789040131500808700,8.18480859375,-1.0544196213275194,2.7500544949442145,0.9007678134903311
1789040131510751700,8.194751708984375,-0.42863720823079343,1.4348212064385413,2.189865959264338
1789040131520695800,8.20469580078125,0.30593232732117176,-0.9113684102207422,2.4312708693563936
1789040131530640000,8.214639892578125,0.38520343243479727,-3.0314263815045357,2.0251549972742793
1789040131540584000,8.224583984375,-0.6268140942320227,-0.725276514288783,0.42288872770667074
1789040131550527700,8.23452783203125,-1.6927718854010103,1.8603999038815497,-0.35163258674442766
1789040131560471800,8.244471923828126,-1.8488015282854438,3.0997423773616553,-1.5039309830218552
1789040131570414800,8.254414794921875,-1.1300044391438364,3.2850036676883696,-3.4549861403405666
1789040131580358700,8.264358642578125,-0.5236915734097362,3.6391982138752934,-2.150616775676608
1789040131590302700,8.274302734375,-1.026763844899833,3.8393671504765745,1.1391764643758535
1789040131600246800,8.284246826171875,-0.4718479889258742,4.310239280107617,2.852426489660144
1789040131610190800,8.29419091796875,-0.07036328377574681,4.562994143992662,3.4692426292300222
1789040131620134000,8.3041337890625,-1.1802163307726383,3.781184426099062,2.559689743998647
1789040131630078000,8.314077880859376,-1.9675453966096041,2.893122657185793,1.456599323004484
1789040131640021800,8.324021728515625,-0.5469236881762742,1.5275830767661331,1.3366829037696122
1789040131649965800,8.3339658203125,-0.10107143351137637,-1.3719628914654254,3.753643508222699
1789040131659909600,8.34390966796875,-1.2517843141630292,-2.5742121903479096,7.335691847899556
1789040131669852700,8.353852783203125,-1.7570286689952015,-2.532911042666435,7.846485653552413
1789040131679797000,8.363796875,-1.0805381051853298,-2.8330899210274216,4.347372786715627
1789040131689740800,8.37374072265625,-1.286430972391367,-2.886910358542204,2.523125561711192
1789040131699684900,8.383684814453124,-1.296089612096548,-3.353353565815091,2.913040825098753
1789040131709629000,8.39362890625,-2.38712397685498,-3.003000497487187,4.046283223250508
1789040131719572700,8.40357275390625,-1.8887255423948168,-2.3811083698272704,3.3386241987168788
1789040131729515800,8.413515869140625,-1.1285974949553608,-1.7488292881876228,3.750904438647628
1789040131739459800,8.4234599609375,-0.31238632576614617,-1.983484431758523,3.5658395476758478
1789040131749403600,8.433403564453124,-0.13125029867589472,-2.712019071060419,2.5855016461253166
1789040131759348000,8.443347900390625,-0.4214674627318978,-1.4011673586398363,1.1745704338401555
1789040131769291800,8.453291748046874,-0.5108490429714322,-0.1279354750394821,1.6484586964219807
1789040131779234800,8.46323486328125,0.5325386044710875,0.929272900223732,1.5149398682922124
1789040131789179000,8.473178955078126,0.5170800463154912,1.0031523754268885,0.6630354544311762
1789040131799122700,8.483122802734375,0.09977642526477574,0.6656622958034276,0.4290010731071234
1789040131809066800,8.493066650390626,-0.14164689726680516,-0.002363222000002861,0.21981471731364727
1789040131819010800,8.5030107421875,0.007935176913440227,-0.3764619075745344,0.76825173266232
1789040131828955000,8.512954833984375,0.16497195101380346,-0.7857803750902413,0.890626066443324
1789040131838897700,8.522897705078124,0.4010109501585364,-0.8524784143567085,1.045973864543438
1789040131848842000,8.532842041015625,-0.41543841170072554,-0.4911819272100925,1.5078209761977195
1789040131858785800,8.542785888671874,-0.6863784822262823,-0.12247019537091254,1.4226333405166864
1789040131868729900,8.552729736328125,0.08032382903695107,0.14188099828362463,0.8546791392713785
1789040131878673700,8.562673583984376,0.37937136528044935,0.4491553878635168,0.12545885579288005
1789040131888616700,8.57261669921875,-0.5381789484456181,0.44688218223452564,0.37332507085353134
1789040131898560800,8.582560791015625,0.2742649771645665,-0.10501461817920207,0.24326164387464522
1789040131908504800,8.5925048828125,1.1195230848789215,-1.1517384243071078,0.4881678400859236
1789040131918449000,8.602448974609375,2.091261500388384,-2.167963047274947,0.17879969309717417
1789040131928393000,8.61239306640625,2.1889210796296594,-2.6270786881387234,-1.2082023620679974
1789040131938336000,8.6223359375,0.7975520614266395,-2.2105215015411375,-1.8109271401822566
1789040131948279800,8.63227978515625,0.5261350210390985,-1.145667579960823,-1.848159430989623
1789040131958224000,8.642223876953125,1.9061762972809373,-0.10790332535803318,-1.9222835286036133
1789040131968167700,8.652167724609376,3.1719431056976317,0.6936275765717029,-2.380007422848046
1789040131978111700,8.66211181640625,2.5678920474156737,1.8132377552121877,-2.0110212579816578
1789040131988055800,8.672055908203125,0.5667357653662562,2.649351310223341,-0.9432146240755915
1789040131997998600,8.68199853515625,0.022335604318231343,2.1354501862049102,-0.17698007645457983
1789040132007943000,8.69194287109375,0.8455611823141574,1.015898459753394,0.07093319261819124
1789040132017887000,8.701886962890624,2.435091304427385,0.16395196031630038,-0.5298348984703422
1789040132027830800,8.711830810546875,-0.07962225663885474,-0.24461422752737996,-0.2892822212934494
1789040132037774800,8.72177490234375,0.06324190746322274,-0.28695465512871743,-0.24460312161147593
1789040132047718000,8.7317177734375,-0.2706896028958261,0.27099136232137677,0.022325813576579093
1789040132057661700,8.74166162109375,0.8225428564287721,0.8025099760949611,-0.3074325027510524
1789040132067605800,8.751605712890624,1.4234977022610604,1.2791238642483949,-0.39937808825969695
1789040132077549800,8.7615498046875,1.241028819131851,1.5170365483105182,-0.7000463575728237
1789040132087494000,8.771493896484374,-0.4183493307113647,1.80241650146842,-0.700408615013957
1789040132097438000,8.78143798828125,1.9107704932034015,1.9130179798692464,-2.585815826641023
1789040132107381000,8.791381103515626,1.0713783549129963,2.944268322533369,-3.0466262887239455
1789040132117324800,8.80132470703125,-1.7693967137895523,4.046405972847342,0.4478507350057363
1789040132127268900,8.811268798828126,-1.1245850444436072,4.077825777983665,3.430482398203015
1789040132137212700,8.821212646484375,2.876488333249092,3.137655636170506,1.2452221791684628
1789040132147156700,8.83115673828125,4.313286392718553,2.8734266075909134,-2.2125509615421293
1789040132157099800,8.841099853515624,0.7581566012360155,2.8472201531887054,-2.5813246527016163
1789040132167043800,8.8510439453125,-3.4002667081594464,1.8989362630248068,0.382532313529402
1789040132176988000,8.86098779296875,-1.486931186773628,0.7825824558317661,0.0017575111918151378
1789040132186932000,8.870931884765625,1.2201309925317763,0.24256021760702132,-2.457317164760828
1789040132196875800,8.880875732421876,1.0908696757160126,0.2931593549877405,-2.294788807506859
1789040132206819800,8.89081982421875,0.21607450787201524,-0.08466799572110176,-0.4686709663249552
1789040132216763000,8.900762939453125,0.09891294030323625,-0.32671675667464734,0.8935836010746657
1789040132226706700,8.910706787109374,0.09103212392553686,-0.49946752499639985,0.8785062973216176
1789040132236650800,8.920650634765625,-0.6778653592944145,-0.374924030482769,1.345303140337765
1789040132246594800,8.9305947265625,-1.2248375627875328,-0.5350187308490276,1.6016975297689438
1789040132256539000,8.940538818359375,-0.3618402386344969,-1.4120628466635943,1.2490534278944134
1789040132266482000,8.95048193359375,0.5430978462778031,-1.751022414317727,1.3149810673102735
1789040132276425700,8.96042578125,-0.3715453478299081,-1.2273106749027967,2.5721780541718005
1789040132286369800,8.970369873046875,-0.4989290342055261,-1.2585709055632353,2.464920625501871
1789040132296313900,8.98031396484375,-0.8446646718658506,-1.6617787812441587,2.0769050582557917
1789040132306257700,8.990257568359375,0.038458033210039134,-1.7149954076468943,1.2206792740643024
1789040132316202000,9.000201904296874,1.9201183133937418,-1.128541088593006,-0.2641372586429119
1789040132326145000,9.01014501953125,1.3765864596128463,-0.17341712327599523,-0.46865737619102
1789040132336088800,9.0200888671875,0.07729249851703643,0.8174883495181798,-0.513730735887587
1789040132346033000,9.030032958984375,1.0231541299700737,1.969904819217324,-2.2151956308320164
1789040132355976700,9.039976806640626,3.10622297155261,3.1080799975961444,-4.007488797692955
1789040132365920800,9.049920654296875,0.7780629325807095,3.6631525054365395,-3.8471792855322358
1789040132375863800,9.05986376953125,-0.6711538789570332,2.7942221379727123,-4.177029079535603
1789040132385808000,9.069807861328124,-0.47244449351429935,1.9168764088630674,-5.462449413579702
1789040132395751700,9.079751708984375,-0.1190289688758552,1.5492238306879997,-5.457768562287092
1789040132405696300,9.0896962890625,-1.410783620508015,1.1058341667443514,-4.775846913339198
1789040132415640000,9.09964013671875,-2.196322003535926,0.6998615025252103,-3.7246845402419564
1789040132425584000,9.109584228515626,-1.3948898858055472,0.013793547552824019,-2.8323347187459467
1789040132435527200,9.119527099609375,0.46164486708045005,-1.1027718565642832,-1.8959493561685083
1789040132445471000,9.129470947265625,0.20749226522669195,-1.3588812915742396,-0.07873013010472059
1789040132455415000,9.1394150390625,-0.4788426701188087,-1.2302666020989417,0.8038812644481659
1789040132465359000,9.149359130859375,-0.9106649381265044,-1.1505623662650584,1.0238999799013138
1789040132475303200,9.15930322265625,-1.9957661134436726,-1.039412606331706,1.5701868314787744
1789040132485246200,9.16924609375,-3.154743256832659,-0.5710755481362343,2.497268943659961
1789040132495190000,9.17918994140625,-1.7853733044698834,-0.6396212610960006,2.38627495881021
1789040132505134000,9.189134033203125,-0.3126557903572917,-1.3798726416766642,1.7349547843530773
1789040132515078100,9.199078125,-0.6068482877850532,-1.6115128213405607,2.208824049973488
1789040132525022000,9.20902197265625,-1.6631757885605096,-1.3405202899754047,2.9230156911462544
1789040132534966000,9.218966064453125,-2.623323134997487,-0.8574275611966848,3.8853345364034175
1789040132544909000,9.228908935546874,-1.3588044269457458,-0.20133155063986777,3.686605861738324
1789040132554853000,9.23885302734375,1.1259630547985433,-0.3462415413558483,2.049331991675496
1789040132564797200,9.248797119140624,1.2806935977831482,-0.7220972997307777,0.6639049307420849
1789040132574741200,9.2587412109375,-0.9010369858205318,0.07838964610397815,-0.6910466201677918
1789040132584685000,9.26868505859375,-1.818052462017536,1.5573095219880342,-1.8450217174857855
1789040132594628000,9.278628173828125,-2.0817358394131062,2.3702742566019297,-2.053088129338622
1789040132604572200,9.288572265625,-1.7845114269435405,2.1899071680575606,-1.6787509588330982
1789040132614516000,9.298515869140624,-0.8842331505358219,1.954696144169569,-2.132586028945446
1789040132624460300,9.308460205078125,-1.3013184526607393,2.3299024987250565,-0.45042380036413665
1789040132634404000,9.318404052734374,-1.7612942174851893,1.8392098163366317,1.9654782349467277
1789040132644347100,9.32834716796875,-0.627736762034893,1.0447235722213983,3.456609357628226
1789040132654291200,9.338291259765626,0.14024872090667487,0.43674832623302934,3.8025165524631737
1789040132664235000,9.348235107421875,-0.9244798207283019,0.11529694274067878,2.398836334219575
1789040132674179000,9.358178955078126,-1.3699088815450668,-0.627757220301032,2.5195009414732454
1789040132684123100,9.368123046875,-2.0267478194236754,-1.7878829492032526,4.600433940070867
1789040132694067000,9.37806689453125,-1.48276339956969,-1.2637246350646019,3.882153568279743
1789040132704010000,9.388010009765624,-1.272085051652789,0.17381810529232025,1.4787339979231358
1789040132713954300,9.397954345703125,-0.9338225263521075,-0.8586755154311656,0.4960182613253593
1789040132723898000,9.407898193359374,-1.0083061049282551,-1.6636702940791845,0.8387637772589921
1789040132733842200,9.41784228515625,-1.4827891185328363,-2.6169085917800663,2.2588380809426307
1789040132743786000,9.427785888671876,-0.13416530933976173,-3.7244822956681247,2.9368109922647476
1789040132753729000,9.43772900390625,0.8563736682295798,-4.48364179033637,3.4953707576990127
1789040132763673000,9.447673095703125,1.1351833030864595,-3.627151217728853,1.0974071146607398
1789040132773617200,9.4576171875,0.3735042268127203,-1.5895418125510214,-2.244835274553299
1789040132783561000,9.46756103515625,-0.9344415350332855,-0.9896014044582844,-2.3271517387121916
1789040132793505300,9.47750537109375,-1.851650780236721,-0.8849386684566736,-0.537054620590806
1789040132803449000,9.487448974609375,-1.3734922929897904,-0.8798755398482083,1.0372013600230217
1789040132813392100,9.49739208984375,-0.7938955847457051,-0.8787433209478854,1.5867916370600461
1789040132823336200,9.507336181640625,-0.6337491541922092,-1.4013240105062723,1.0847855334967373
1789040132833280000,9.517280029296876,-0.3633315001055598,-1.2966636125922202,-0.1793143646210432
1789040132843224000,9.52722412109375,0.11266308710575103,-0.2598334239691496,-0.8130921603858471
1789040132853168000,9.537168212890625,-0.08084960647672414,1.8414309995174407,-0.795059660089016
1789040132863111000,9.54711083984375,0.22958602361306546,2.8363860399633642,-0.3499631922274828
1789040132873055200,9.55705517578125,2.7353420789808034,2.3921727846771477,-0.49340135682523245
1789040132882999300,9.566999267578124,3.891077756230533,1.3953911133259533,-1.004952995108068
1789040132892943000,9.576943115234375,1.6922659817054866,0.59592532723248,-0.7916758628696203
1789040132902887200,9.58688720703125,-1.9158289456367492,0.5958452477335929,0.5499111795544624
1789040132912831000,9.5968310546875,-2.0797477343358097,0.3435702763199806,0.7070090361922979
1789040132922774000,9.60677392578125,0.8235140395484865,-0.22809446988105772,-0.20489099668711422
1789040132932718000,9.616718017578124,2.7585817925319076,-0.365513228058815,-1.0374199712097645
1789040132942662000,9.626661865234375,0.6900114319011569,0.39063364078998564,-0.7622276500672102
1789040132952606200,9.636606201171874,-1.40118328686133,1.369350663140416,-0.04146744415909052
1789040132962550300,9.64655029296875,-0.20716639427319167,1.6236095018476246,-0.02537935592830181
1789040132972494000,9.656494140625,2.6532947871521113,0.9696189391374588,-1.0322700411006807
1789040132982437000,9.66643701171875,0.9808873521268368,0.17679390623271465,-1.9948288325935601
1789040132992381200,9.676381103515626,-2.720312267631292,0.11094459275007247,-0.6959975205734372
1789040133002325000,9.686324951171875,-2.4086148009121415,-0.5173293449014424,1.1901672314226626
1789040133012269000,9.69626904296875,1.8080745272301137,-2.000568253028393,1.0176847586482762
1789040133022213000,9.706213134765624,2.410250147029012,-3.2611797245085237,0.46046208703666924
1789040133032156200,9.71615625,-0.6144191614307463,-3.7678392068356272,1.5548700198814271
1789040133042100200,9.726100341796876,-1.5522748888216913,-4.044690401101112,2.3991645432606337
1789040133052044000,9.7360439453125,0.2561046127043664,-3.6159716520667073,1.8753069656342267
1789040133061988000,9.745988037109376,1.7062088746011257,-2.2318255708545447,-0.019995617063343525
1789040133071932200,9.75593212890625,-0.6188720491863787,0.4754752395123243,-1.7047151289120315
1789040133081876000,9.7658759765625,-2.155697878333181,2.620518014448881,-2.2095902120403945
1789040133091819000,9.775819091796874,-0.3580396773077547,3.660907356858253,-2.0897220158614216
1789040133101763000,9.78576318359375,1.1105730318345128,3.4436394014179705,-0.7342727445624768
1789040133111707100,9.79570703125,0.34961554783359167,2.508454062280059,0.363698579852283
1789040133121651200,9.805651123046875,0.18403671696782112,1.599469916847348,0.31454394219145176
1789040133131595000,9.815594970703126,0.6688822807632386,1.0389794756114483,-0.9871446589559316
1789040133141538000,9.8255380859375,1.8643731914266943,1.6717174069344996,-3.79202321549952
1789040133151482000,9.835482177734375,0.9786823894284665,2.9949007776618,-5.177663919183612
1789040133161426200,9.84542626953125,0.197278475856781,3.866857214948535,-4.796912205460667
1789040133171370000,9.855369873046875,-1.1772238709583878,3.4970845758795734,-2.697476166445017
1789040133181314000,9.86531396484375,-1.2899242213346063,2.9555466723948713,-0.06325345177054405
1789040133191257000,9.875257080078125,0.047589434170722957,2.6591017198652027,-0.17318331452012062
1789040133201201200,9.885201171875,1.5154535169027745,2.541730893459916,-0.9254840293347835
1789040133211145200,9.895145263671875,1.2608954029880464,2.3295108690589665,-0.589815612180531
1789040133221089000,9.905089111328126,-1.072629085626453,2.050064982125163,1.327123340524733
1789040133231033000,9.915033203125,-1.873448770546913,1.6156073971778153,2.330038107803464
1789040133240977200,9.92497705078125,-0.9925929874897003,0.8862719628870487,1.8612626581907272
1789040133250920000,9.934919921875,-0.3152199417568743,-0.09408405884206295,1.1531257870122789
1789040133260864000,9.944864013671875,-0.33252748878002164,-0.6319587636440992,1.0378595316708088
1789040133270808300,9.954808349609374,-1.1536812289379537,-0.7880074034899472,1.9835878921329975
1789040133280752000,9.964752197265625,-1.9041126427493988,-0.7228805590629577,3.053613663393259
1789040133290696200,9.9746962890625,0.3847508663617074,-0.6755190884292125,1.61308109357059
1789040133300640000,9.984639892578125,1.7273535155691206,-0.05699906755089759,-0.1332759592846036
1789040133310583000,9.9945830078125,1.428050104868412,0.47544659793972965,-0.6037915305629372
1789040133320527000,10.004527099609374,1.6214648910343645,0.635043870177865,-0.9523229364216327
1789040133330471000,10.014470947265625,0.8969150835849344,0.5152788421124219,-0.13895546622574328
1789040133340415000,10.0244150390625,-1.393132082352787,0.32355449325144287,1.3742717529296875
1789040133350359300,10.034359375,-1.7428734485231339,-0.40908875041306014,1.3936676505342125
1789040133360302300,10.04430224609375,-1.5411432539544998,-2.2038579519987107,-0.11119096872657537
1789040133370246100,10.05424609375,-0.4476877995289862,-3.511141742804646,-1.116679970407486
1789040133380190200,10.064190185546876,0.34463995137810705,-4.0180274351030585,-1.1698255774006248
1789040133390134000,10.074134033203125,0.030662849289178847,-4.264240914520621,-0.49860009451210496
1789040133400077000,10.0840771484375,-0.44275896482467647,-4.484082519841194,0.5281809937834739
1789040133410021400,10.094021484375,-0.8455917235828936,-4.421012607944012,1.5857947349771857
1789040133419964200,10.103964111328125,-1.7674737829029559,-3.6970524369508024,2.0756439522787926
1789040133429908200,10.113908203125,-1.2581987112499773,-2.3959832828760144,1.1782242801725864
1789040133439852300,10.123852294921875,0.8097345205210149,-1.3881746060758828,-0.7825827480927109
1789040133449796000,10.133796142578126,1.623870637001842,-0.6143617321550846,-1.239829964736104
1789040133459740200,10.143740234375,1.056721030137688,0.46293724497854705,-0.6183163149997591
1789040133469683200,10.15368310546875,0.15475085512027142,1.6969272515147924,-0.5162076473951339
1789040133479627000,10.163626953125,-0.08907076072469353,2.6304180616945025,-1.7985101416796445
1789040133489571000,10.173571044921875,0.6416995286747813,3.4638147589623927,-3.020166151821613
1789040133499515400,10.183515380859374,0.8959224192857742,3.755726744237542,-1.6426982331991196
1789040133509459200,10.193459228515625,0.7049747538857162,3.448793130919337,0.6103279465943574
1789040133519403300,10.2034033203125,0.42882513201832767,3.4254870741337538,1.503812325078249
1789040133529346300,10.21334619140625,0.21545944471359252,3.785585291406512,1.2903648047089575
1789040133539290000,10.2232900390625,1.7682205096170305,4.314645406112074,-0.8194967667311429
1789040133549234200,10.233234130859374,3.138893069010973,3.953654623913765,-2.4030279406905173
1789040133559178200,10.24317822265625,1.945123867573589,3.0167899533867835,-1.74488084282279
1789040133569122000,10.2531220703125,-0.23414251787364482,2.0153911436289547,0.23156243825256823
1789040133579065000,10.263065185546875,-1.9904934337377547,1.4619225638538598,1.841751317512989
1789040133589009400,10.273009521484376,-3.6947193178281186,0.9505968432813883,2.65750305249691
1789040133598953200,10.282953125,-1.4928189296379684,0.131757079154253,1.2422563151001929
1789040133608897300,10.292897216796876,0.7826778790302574,-0.7159761865019798,-0.0019856208592653273
1789040133618841000,10.302841064453125,-0.09353402374386786,0.3592436462700367,0.6655261022031307
1789040133628785200,10.31278515625,-0.4961132461324334,1.7584791600644587,1.8299714478701352
1789040133638728200,10.322728271484374,0.42103783914297815,1.1935457679450512,3.456275595629215
1789040133648672000,10.332672119140625,1.4609993115290998,-2.1816887902885673,4.449816677623987
1789040133658616300,10.3426162109375,-1.967771606580913,-3.166431648799777,5.230599390557408
1789040133668560400,10.352560302734375,-3.5009318989574907,-0.9956272406190633,5.29973137897253
1789040133678504200,10.362504150390626,-1.1314105065494775,-0.8065776639252901,4.6996658831954
1789040133688447200,10.372447265625,1.6816282678350805,-3.7987458017528053,3.6362639139890667
1789040133698391300,10.382391357421875,1.1331237402081489,-4.686522908505797,2.3165023344039914
1789040133708335000,10.392335205078124,-0.42203883287906646,-3.2258553131490943,0.9440706563830376
1789040133718279200,10.402279052734375,-2.773295669800043,-2.305798569560051,3.508622453460097
1789040133728223000,10.412222900390624,-3.339289384627342,-3.299336728945374,7.8737395711809395
1789040133738166000,10.422166015625,-0.533729275560379,-4.36161524707973,7.160811666333675
1789040133748110300,10.4321103515625,2.93330941388458,-4.724567684739828,1.7704905003756284
1789040133758054100,10.44205419921875,2.058546979266405,-2.7881401877105234,-3.2260569732010365
1789040133767998200,10.451998291015625,-1.2222750188231468,0.026736615756154058,-2.7783658126711845
1789040133777942300,10.4619423828125,-1.980588564186543,1.657022526627779,0.14405132806003093
1789040133787886000,10.471885986328125,0.5907753971233963,1.0227975716173647,0.5864034656494855
1789040133797829000,10.4818291015625,2.0202363917030395,1.1326321572989224,0.06223112298548221
1789040133807773200,10.491773193359375,2.237739178812504,0.7953782245188951,-1.303520054358244
1789040133817717000,10.501717041015626,2.6995091335773465,-0.3134703216105699,-2.228135484164953
1789040133827661300,10.511661376953125,2.1567104163765904,-0.5024474175900221,-1.5525240412771701
1789040133837605000,10.521605224609376,1.271051178560406,0.22172551937103271,-0.8251835801959038
1789040133847548200,10.531548095703124,0.45219314812421796,1.7585013718962668,-0.44769642122685904
1789040133857492200,10.5414921875,0.42887423185706136,3.3164912773638964,-0.9170888336941599
1789040133867436300,10.551436279296874,0.22283377287387846,3.6674364663660524,-1.6248784988701344
1789040133877380000,10.561380126953125,1.8220973534941671,2.9920062252640722,-2.0853008384183047
1789040133887324200,10.57132421875,3.1724259207785126,2.460193012458086,-1.508857041247189
1789040133897268200,10.581268310546875,1.9492844943843781,1.8652157797306774,-0.19126871404796839
1789040133907211300,10.591211181640626,0.8053576206110418,0.7670429413944483,0.1230693303078413
1789040133917155300,10.6011552734375,2.05575398754701,-0.6722896049886942,-1.0503338133186102
1789040133927099100,10.61109912109375,1.8670165455423295,-1.5219412714868783,-2.083844209869206
1789040133937043200,10.621043212890624,-0.4209050065435469,-1.7832763321906326,-1.5378314990580082
1789040133946987300,10.6309873046875,-0.8752328286089003,-2.1526257774114606,-0.44412499248087406
1789040133956930000,10.640929931640626,1.3027790267325936,-2.3193349274814126,0.23608634541779755
1789040133966874000,10.6508740234375,2.8357588479757307,-2.1568173838824034,0.48939650509804483
1789040133976818200,10.660818115234376,1.3603053330279886,-1.9425427650392055,0.24587854837477205
1789040133986762200,10.67076220703125,-0.11401552462801337,-1.6049474714756011,-0.22526713750064373
1789040133996706300,10.680706298828126,0.1600210506081581,-1.218206746470928,-0.8616191676676273
1789040134006650000,10.690650146484375,0.8608966986119747,-0.9716226801753044,-1.1747352690130473
1789040134016593200,10.70059326171875,1.0596619058951735,-0.5108686244547367,-1.01986940921098
1789040134026537200,10.710537109375,1.3811141661703585,0.6378893227368593,-1.6597648110732435
1789040134036481000,10.72048095703125,-0.3415713575877249,2.2020710685819385,-1.4250433242678642
1789040134046425000,10.730425048828126,-0.7144656358085573,3.528772092041373,-1.8511364009737967
1789040134056369400,10.740369384765625,-1.381626207345724,3.3853386036187407,0.0409279304549098
1789040134066312200,10.750312255859376,0.9017733372710645,2.346712763750553,0.9847468040339649
1789040134076256300,10.76025634765625,1.5739349319659173,1.6648159569829701,-0.7399806008152663
1789040134086200300,10.770200439453125,1.0962706579767167,2.1855022110968827,-1.8757557323150336
1789040134096144100,10.78014404296875,1.2223520295821129,3.311601751756668,-2.7018632954880593
1789040134106088200,10.790088134765625,1.0763866845943033,3.7691052812486885,-4.212495237453282
1789040134116032000,10.800031982421874,-0.7295267190791666,3.7892970054060218,-2.809793216592073
1789040134125975000,10.80997509765625,-0.8685853534184396,2.964958059340715,-1.4438706282041966
1789040134135919000,10.819919189453126,-1.6595849244616925,2.071810949987173,0.18595482554882764
1789040134145863200,10.82986328125,-2.3688204045318066,1.0797609833329915,2.05151181993261
1789040134155807200,10.83980712890625,0.2677262230455875,-0.07802022826969623,0.37008959606364367
1789040134165751300,10.849751220703125,2.0067010566949843,-0.47502515765726566,-1.457537480637431
1789040134175694300,10.8596943359375,1.107904104886204,-0.30916940954625605,-0.26134748179391026
1789040134185638100,10.86963818359375,-0.7514847222566604,0.10531038625538348,1.3608086063750087
1789040134195582200,10.879582275390625,-1.3760441694296897,-0.1278705931097269,1.7434844200283288
1789040134205526000,10.889526123046876,0.01165770456790924,-1.265473524558544,0.35573417684435843
1789040134215470000,10.899469970703125,1.7146717286504805,-1.6518921780019997,-0.889167684328556
1789040134225414400,10.909414306640626,0.37565833610668775,-1.4696189635753631,0.17482757459580897
1789040134235357200,10.919357177734375,-2.2575917341433462,-1.421410520723462,1.877876523861289
1789040134245301200,10.92930126953125,-3.6874586791753767,-1.6412801830947399,2.9622026231527325
1789040134255245300,10.939245361328124,-2.1594249360322952,-1.787763122215867,2.036103384529054
1789040134265189000,10.949189208984375,0.08287482869401573,-1.203714110738039,0.6316463366940617
1789040134275133200,10.95913330078125,2.097546279746294,-0.2717436419934034,0.1564674497798085
1789040134285076200,10.969076171875,1.4631294554255903,0.4275555504739284,0.3958949223190546
1789040134295020000,10.97902001953125,0.3531925295375287,0.9325491454154252,-0.04605447968840599
1789040134304964400,10.98896435546875,0.8256183183513581,1.2558365121632813,-1.7402952685981987
1789040134314908200,10.998908203125,0.11008885270357131,1.2455728923022746,-2.386892213925719
1789040134324852200,11.008852294921875,-0.8539479023873805,0.9322013548910617,-2.5065491054415703
1789040134334796300,11.01879638671875,-1.5112734547391533,0.4873240827381611,-1.7791078143343328
1789040134344739000,11.028739013671874,-0.9387643666684627,-0.1782593026101589,-2.0669316535130142
1789040134354683100,11.03868310546875,0.35056203490346666,-0.28567630575597286,-2.808870548789203
1789040134364627200,11.048627197265626,1.847575493621826,-0.030528409254550932,-3.890590849496424
1789040134374571000,11.058571044921875,0.9926919178195297,0.3715577689200639,-3.5892502338796852
1789040134384515300,11.068515380859376,-2.106094473991543,0.8940162934035062,-2.002455381949246
1789040134394459100,11.078459228515625,-3.1319068633854386,0.9415537051260471,-0.9647627312779427
1789040134404402700,11.088402587890625,-0.19922960992455482,-0.1392956579655409,-1.928572691875696
1789040134414346800,11.0983466796875,2.409544482977688,-0.26702888843119144,-2.4492180294573305
1789040134424290600,11.10829052734375,1.4527379714012145,0.9975491485923528,-1.793992079733312
1789040134434234600,11.118234619140624,-0.8745277490794658,1.3297791157305239,-1.1186340270847082
1789040134444178700,11.1281787109375,-1.4345985035985707,1.0302484721451997,-0.6212602594971657
1789040134454121500,11.13812158203125,-0.10822305883169174,0.5755015478849411,-0.47446693925261496
1789040134464065800,11.148065673828125,0.21617256141901015,0.3005021189659834,-0.10557400562763214
1789040134474009900,11.158009765625,-1.5229855198428033,0.31164369070529935,1.071574462006986
1789040134483953700,11.16795361328125,-3.9391006133824584,0.2180874551296234,2.5662434034258124
1789040134493897700,11.177897705078125,-3.1820483201265333,-0.3915191914528608,3.8077375019818542
1789040134503841500,11.187841552734374,0.11081979732662439,-0.6446610088288783,3.411953346560895
1789040134513784600,11.19778466796875,1.8122490364357828,0.376449632614851,1.53572079051435
1789040134523728600,11.207728759765626,0.4858282912224531,1.7723241455435752,-0.33399054706990716
1789040134533672700,11.217672607421875,-1.780192979222536,2.4520699117571114,-0.13642039479017257
1789040134543616800,11.22761669921875,-2.136554640315473,2.582466808474064,-0.0980289970755577
1789040134553560800,11.237560791015625,-0.644991848218441,2.121123554688692,-0.05434767625927925
1789040134563503600,11.247503662109375,0.3388897172883153,1.051369001585245,0.15372458081245421
1789040134573447700,11.25744775390625,-1.0918395436614752,0.532780012011528,1.0374047736406327
1789040134583391700,11.267391845703125,-3.255477421213686,0.6027572190791368,1.2627876464754342
1789040134593335600,11.27733544921875,-4.063672457207739,0.21904139485359192,2.1328420495331284
1789040134603279600,11.287279541015625,-2.1858453254461288,-0.770799663579464,3.1847914813548326
1789040134613222700,11.29722265625,0.47841158522516486,-0.7952847010165452,3.8850691634654995
1789040134623166700,11.307166748046875,1.4910671175345778,-1.0439385593235493,2.6167460946947334
1789040134633110800,11.31711083984375,-1.7158645916968582,-1.3282786480396984,3.9245366659790277
1789040134643054800,11.327054931640625,-2.2171111090645192,-0.6691296796530485,4.970970549249649
1789040134652998700,11.33699853515625,-0.759836955538392,-1.032006713989377,4.2194934257775545
1789040134662942700,11.346942626953124,0.10811229193359613,-1.4335638998538254,2.4968080481499433
1789040134672885800,11.3568857421875,-0.839952110260725,-0.347366745993495,2.0374901627123356
1789040134682829600,11.36682958984375,-0.5712970819324255,-0.5640753139853477,1.6122726997971535
1789040134692773600,11.376773681640625,-0.9978516386702656,-1.1405617812544107,2.698534735587239
1789040134702717700,11.3867177734375,0.13665741841644047,-2.804611430040002,3.7816888684898613
1789040134712661800,11.396661865234375,1.265544543968141,-3.0303005923449993,3.087335315731168
1789040134722604800,11.406604736328125,0.2027306037828326,-1.5457722289294002,2.2829174601882696
1789040134732548600,11.416548583984374,-1.8517673923537135,-0.5856003325730562,2.002824507522583
1789040134742492700,11.42649267578125,-1.0349828071907161,-1.0884452250480652,3.017342326572537
1789040134752436700,11.436436767578124,0.9692308166027068,-1.8007447688639162,2.8140175562888383
1789040134762380500,11.446380615234375,1.6755024784311652,-1.4458411976248025,0.5504121148139238
1789040134772324900,11.456324951171876,0.9627969841629266,-0.8388596388489007,-1.5787036076724528
1789040134782268000,11.466267822265625,-0.6560755522906779,-0.0675473495721817,-1.06626145029068
1789040134792211700,11.476211669921875,-0.38781390719413755,-0.46733343411087985,1.08931265553236
1789040134802155800,11.48615576171875,0.25091274314969775,-1.1751216379821299,1.8232979614555835
1789040134812099600,11.496099609375,0.32863954143077134,-1.884239629152417,1.9157967969328165
1789040134822043600,11.506043701171874,-0.10287702162861824,-1.8023340838819741,0.4913157827228307
1789040134831986700,11.515986572265625,0.1920715548634529,-1.1548054106622934,-1.07942839037776
1789040134841930800,11.5259306640625,0.6321627617835999,-0.2415250293403864,-0.6388306952401995
1789040134851874600,11.53587451171875,0.19804653761982915,0.3821101425945759,0.601072919254005
1789040134861819000,11.54581884765625,0.4816814006760716,0.31426760946810245,0.518430584141612
1789040134871762700,11.5557626953125,2.328395016771555,-0.18717559951543808,-1.2157745508879423
1789040134881706800,11.565706787109375,3.7381425722301005,-0.5246154102563858,-2.96626417350322
1789040134891649800,11.57564990234375,1.2510463552773,-0.42535774816870686,-3.5609368703261017
1789040134901593600,11.585593505859375,-0.4231248745501041,-0.27673545893132684,-4.017601903167367
1789040134911537700,11.59553759765625,-0.5880126544117927,-0.2611485982209444,-3.8399493342787023
1789040134921481700,11.605481689453125,1.4177730410039424,-0.6147738200873136,-3.720526836040616
1789040134931425800,11.61542578125,2.1640708621419966,-0.40998716055750845,-3.3958126513600346
1789040134941368600,11.62536865234375,-0.10195099282488226,0.33921149658858774,-2.092184752713144
1789040134951313000,11.63531298828125,-1.1883764024831354,0.636550767609477,-0.9216916513144969
1789040134961256700,11.645256591796874,1.2620552405476568,0.46525253618359563,-1.0923778883218764
1789040134971200800,11.65520068359375,2.0530945590794087,1.4553215581536292,-0.38044454746991396
1789040134981144600,11.66514453125,0.3983364702522754,3.2856746988177297,0.2555757665246725
1789040134991088600,11.675088623046875,-2.2188336950734255,4.931310739034414,-1.162321046989411
1789040135001031700,11.68503173828125,-1.9394472832418976,5.80525981144309,-2.4534543518528342
1789040135010975500,11.6949755859375,0.9764895555593073,4.588369408267736,-2.93812061355859
1789040135020919800,11.704919921875,1.1856627596102653,1.3024609006941317,-1.8699797792620956
1789040135030864000,11.71486376953125,0.017606822230666876,-1.3715677546679972,-0.9136423465020954
1789040135040807700,11.7248076171875,0.6242765385784208,-2.4157488905757663,-1.294533907087147
1789040135050750700,11.734750732421874,-0.36404140194058415,-1.7953706746101379,-1.2784171772837638
1789040135060694800,11.74469482421875,-1.8701520670890808,-1.1736299381196498,0.6258145618006586
1789040135070638600,11.754638671875,-1.2260802563250064,-1.1082798063308,1.180493832539767
1789040135080582700,11.764582763671875,0.17214301168695093,-1.1784206795275212,1.154607111611217
1789040135090526500,11.7745263671875,2.111081322493404,-0.8810089277923107,0.10698474920839071
1789040135100470800,11.784470703125,0.6474782582066952,0.1375344935119152,-0.32223902673870325
1789040135110413800,11.794413818359375,-0.7605331211090087,0.2759644745588302,-0.4257229282192886
1789040135120357600,11.804357666015624,-1.1620109581269322,-0.7973176681488752,-0.38304976153224707
1789040135130301700,11.8143017578125,-0.4371909554339945,-1.493537599301338,-1.9010310433469713
1789040135140245800,11.824245849609374,-1.3295689801111816,-0.8121066564798355,-2.2755006080605087
1789040135150189600,11.834189453125,-1.5273741101905702,-0.2567120770782232,-2.1871514396086336
1789040135160132600,11.844132568359376,-2.3039678470015525,-0.2758230202615261,-0.5954615091130137
1789040135170076700,11.85407666015625,-0.6267407367348671,0.044829906329512594,-1.5163931358404457
1789040135180020700,11.864020751953126,0.7519044089734553,1.4405536126106977,-2.106382789413631
1789040135189964800,11.87396484375,2.2201512074127794,4.063376981392502,-3.27043738219738
1789040135199908600,11.88390869140625,0.42690351630598306,6.901087547957896,-1.6706746198832987
1789040135209851600,11.8938515625,2.1564964813649654,7.795250556355715,-2.300660037627816
1789040135219795700,11.903795654296875,-0.1657283223390579,6.748662943828106,0.09176584502756595
1789040135229739800,11.91373974609375,-1.2266601020395755,5.1436166881531475,2.261237543299794
1789040135239683600,11.92368359375,-2.2953134159028528,3.7844343678057193,3.326549437780678
1789040135249627600,11.933627685546876,-1.5768718622006475,2.2048183214634656,2.737068172121048
1789040135259571700,11.94357177734375,-1.1605644125804304,1.318742173409462,1.4364920622602104
1789040135269514800,11.9535146484375,-1.2224622119583188,0.46708735039532184,0.0248635153606534
1789040135279458800,11.963458740234374,-1.4116367302060127,-0.9014344607055187,-1.2864853329271078
1789040135289402600,11.973402587890625,0.3330921369254589,-1.9302882636219263,-1.704729449698329
1789040135299346700,11.9833466796875,-0.9611071313798427,-2.439572833755612,0.047502924931049344
1789040135309290800,11.993290771484375,-2.2213445088505743,-2.727677243441343,1.5734201143115758
1789040135319234600,12.003234619140626,-1.731501136767864,-2.8987177007138727,1.1814110935151576
1789040135329177600,12.013177490234375,0.3084697368443012,-3.0359967581599947,-0.00639876112639904
1789040135339121700,12.02312158203125,1.2096356097415089,-2.726879371061921,-0.7342468794688582
1789040135349065700,12.033065673828125,0.6491454607665539,-2.4458108513623475,-1.4641633285179734
1789040135359009800,12.043009765625,-0.6836845669671893,-2.575060331609845,-1.7069079627811907
1789040135368953600,12.05295361328125,-1.837892303997278,-2.7597639880537983,-1.353628485612571
1789040135378896600,12.062896728515625,-3.901814546561241,-2.6995377751499414,-0.8079840235918759
1789040135388840700,12.0728408203125,-5.445975833162665,-2.377466798454523,-0.002332242339849472
1789040135398784500,12.082784423828125,-4.220279607719183,-2.2998428760260343,0.21792495804429052
1789040135408728600,12.092728515625,-0.7293759124316275,-2.3611919554799794,1.2564683803260326
1789040135418673000,12.1026728515625,3.318678850536048,-2.269729477313161,2.0961580402582882
1789040135428616700,12.11261669921875,5.185575422960519,-0.7528706236571073,1.1755904245376587
1789040135438559700,12.122559814453124,4.775253623621166,2.18647719360888,-0.24431202971041202
1789040135448503800,12.13250390625,3.0827962109968063,5.056263983392715,-1.3378425951987505
1789040135458447600,12.142447509765624,1.6340838418498633,6.423214015132189,-3.0203909004881977
1789040135468391700,12.1523916015625,0.3882350552156567,6.6732397463142865,-4.228795507130027
1789040135478335700,12.162335693359376,-0.8426663376554846,6.533902587294578,-3.7167113694056866
1789040135488278500,12.172278564453125,-0.6668064974024891,6.247131472039222,-2.3706156173855066
1789040135498222600,12.18222265625,-0.7293102998495101,3.6872307156383988,-0.03526128299534321
1789040135508167000,12.1921669921875,0.049988019745051855,-0.6174708040863275,1.2444991255909204
1789040135518110700,12.20211083984375,0.7580532869920135,-0.9859370367318391,0.8170148867875338
1789040135528054800,12.2120546875,0.2925368391752243,2.117781843045354,-1.2912012555330992
1789040135537997800,12.221997802734375,-1.501956468078494,4.127678480911254,-2.013462221392989
1789040135547941600,12.231941650390626,-3.0961124964267013,4.507084625244141,-1.6186755525767802
1789040135557885700,12.2418857421875,-3.169620507968962,4.243638271474838,-1.2561907324284314
1789040135567829500,12.25182958984375,-2.9705563177391885,3.649905485850572,0.8416518999159336
1789040135577773800,12.26177392578125,-4.382759157395363,3.1072651740819213,5.003891991120576
1789040135587718000,12.2717177734375,-2.381166529755294,0.7187760463535785,7.817292292293906
1789040135597660700,12.28166064453125,1.3337202545717357,-2.090693929633498,6.780255767443776
1789040135607604700,12.291604736328125,2.2086834724590183,-5.591110864806175,6.192108088475465
1789040135617548800,12.301548828125,-1.1028446295395493,-4.256582508721947,6.521718228504061
1789040135627492600,12.31149267578125,-2.6648969621405003,-3.1707237930357453,4.910399468430876
1789040135637436700,12.321436767578126,-2.310923365227878,-3.6280589802235363,4.225398850429058
1789040135647379700,12.331379638671875,-1.0302569477126002,-4.313226186963916,4.1170910359233615
1789040135657323500,12.341323486328125,-1.4503601363539695,-4.494790376338362,4.657738712570071
1789040135667267800,12.351267822265624,-1.6861027829006314,-3.9665439161032436,3.095415746334195
1789040135677211600,12.361211669921875,-1.489173851133883,-3.799065535226464,2.046331056293845
1789040135687155700,12.37115576171875,-1.4476035311222075,-3.7026737839639186,3.175728469455242
1789040135697098800,12.3810986328125,-0.7575637499094009,-3.5969969024837014,3.78620430008769
1789040135707042800,12.391042724609376,0.17088292862325904,-3.6927287285327908,2.4472815084367987
1789040135716986600,12.400986572265625,0.6762509098351002,-3.6600598001182076,1.9774036505401134
1789040135726930700,12.4109306640625,1.1367688187122345,-3.470528577387333,1.6512071183472872
1789040135736874500,12.42087451171875,0.673399612057209,-2.686449745517969,0.9927397024840116
1789040135746818800,12.43081884765625,-0.036081367206573484,-1.687653227213025,-0.42932197562456126
1789040135756761900,12.440761962890624,-0.4070306488394737,-0.6525847875654697,-0.9202467132031917
1789040135766705700,12.45070556640625,-0.9224247878946363,0.3710398825258016,-0.41976270464062687
1789040135776649700,12.460649658203126,-0.6104498194083571,0.6922925285756587,-0.8008072638303041
1789040135786593800,12.47059375,-0.5504255588173866,0.8795587289839982,-1.0557301194041966
1789040135796537600,12.48053759765625,0.6717265642784536,1.191565407782793,-0.6647001727730035
1789040135806480600,12.490480712890625,1.7491466835737228,1.7267618332862853,-0.5544672354236245
1789040135816424700,12.5004248046875,1.0187117636084555,2.4236557181775567,-1.2872183233767747
1789040135826368800,12.51036865234375,0.584180382772535,3.140293583458662,-2.7033646399617193
1789040135836312800,12.520312744140625,0.05935249880924821,4.086512357786297,-3.0235411812126634
1789040135846256600,12.530256591796874,0.1507400120437145,4.813772154846787,-2.1798644974708554
1789040135856200700,12.54020068359375,0.22658187336102126,4.657165881118178,-1.4467270405486226
1789040135866143700,12.550143798828126,1.0346727183282374,3.5676176632642744,-1.3137576629951595
1789040135876087600,12.560087646484375,2.241365552616119,2.3134441158771515,-1.434055190502107
