time,seconds_elapsed,z,y,x
1789040123365505800,0.049505859375,-0.81793212890625,-0.383087158203125,0.113555908203125
1789040123375449600,0.05944970703125,-0.87774658203125,-0.43280029296875,0.0750885009765625
1789040123385393700,0.0693935546875,-0.9107513427734375,-0.4760284423828125,0.050537109375
1789040123395338000,0.079337890625,-0.912017822265625,-0.4805450439453125,0.030548095703125
1789040123405282000,0.089281982421875,-0.8988037109375,-0.4572601318359375,0.053192138671875
1789040123415225000,0.09922509765625,-0.879058837890625,-0.4467620849609375,0.1303558349609375
1789040123425169000,0.1091689453125,-0.85919189453125,-0.436553955078125,0.2094879150390625
1789040123435113000,0.119113037109375,-0.8564605712890625,-0.3970947265625,0.2610015869140625
1789040123445057000,0.12905712890625,-0.85028076171875,-0.35150146484375,0.3088226318359375
1789040123455000800,0.139000732421875,-0.8565216064453125,-0.3266754150390625,0.3509674072265625
1789040123464945000,0.14894482421875,-0.890869140625,-0.2964935302734375,0.3791656494140625
1789040123474889000,0.158888916015625,-0.910797119140625,-0.2910003662109375,0.3668975830078125
1789040123484832000,0.16883203125,-0.911376953125,-0.3274078369140625,0.32391357421875
1789040123494776000,0.178776123046875,-0.913787841796875,-0.36688232421875,0.302337646484375
1789040123504720000,0.188719970703125,-0.9230194091796875,-0.3855133056640625,0.2981414794921875
1789040123514664000,0.198663818359375,-0.947021484375,-0.3939361572265625,0.2500457763671875
1789040123524608000,0.20860791015625,-0.9723968505859375,-0.4092864990234375,0.1643524169921875
1789040123534551800,0.2185517578125,-0.9206390380859375,-0.3098907470703125,0.1557769775390625
1789040123544496000,0.22849609375,-0.860260009765625,-0.2704315185546875,0.191680908203125
1789040123554439000,0.23843896484375,-0.8512115478515625,-0.4334869384765625,0.21942138671875
1789040123564383000,0.248383056640625,-0.81854248046875,-0.5008697509765625,0.264068603515625
1789040123574327000,0.2583271484375,-0.7901153564453125,-0.41949462890625,0.2005767822265625
1789040123584270800,0.268270751953125,-0.8119354248046875,-0.371826171875,0.18585205078125
1789040123594215000,0.27821484375,-0.876617431640625,-0.279205322265625,0.1793975830078125
1789040123604159000,0.288158935546875,-0.9397735595703125,-0.203857421875,0.144775390625
1789040123614102800,0.298102783203125,-0.9319000244140625,-0.2048492431640625,0.1388397216796875
1789040123624047000,0.308047119140625,-0.8859405517578125,-0.248626708984375,0.173126220703125
1789040123633990100,0.317990234375,-0.825897216796875,-0.28759765625,0.20452880859375
1789040123643934000,0.327933837890625,-0.70465087890625,-0.3429412841796875,0.218536376953125
1789040123653878000,0.3378779296875,-0.4889068603515625,-0.421875,0.20654296875
1789040123663821800,0.34782177734375,-0.35198974609375,-0.4319305419921875,0.198577880859375
1789040123673766000,0.357765869140625,-0.3978424072265625,-0.515167236328125,0.2215118408203125
1789040123683710000,0.3677099609375,-0.50799560546875,-0.5995635986328125,0.2587738037109375
1789040123693654000,0.377654052734375,-0.6488800048828125,-0.6278076171875,0.3008270263671875
1789040123703596800,0.3875966796875,-0.735748291015625,-0.616455078125,0.32000732421875
1789040123713541000,0.397541015625,-0.7992095947265625,-0.5478973388671875,0.3701324462890625
1789040123723485000,0.40748486328125,-0.8303680419921875,-0.4973907470703125,0.4429168701171875
1789040123733429000,0.417428955078125,-0.811614990234375,-0.4774627685546875,0.513275146484375
1789040123743372800,0.427372802734375,-0.712066650390625,-0.44659423828125,0.63427734375
1789040123753316900,0.43731689453125,-0.599456787109375,-0.4266357421875,0.6928253173828125
1789040123763261000,0.447260986328125,-0.5472564697265625,-0.434417724609375,0.6295318603515625
1789040123773204000,0.457203857421875,-0.6165618896484375,-0.5135498046875,0.5637359619140625
1789040123783148000,0.46714794921875,-0.833343505859375,-0.5468292236328125,0.469482421875
1789040123793092000,0.477092041015625,-1.0879364013671875,-0.47906494140625,0.3329315185546875
1789040123803036000,0.487035888671875,-1.0182342529296875,-0.39849853515625,0.1373138427734375
1789040123812980000,0.49697998046875,-1.01617431640625,-0.4138946533203125,0.0689697265625
1789040123822923800,0.506923828125,-0.987091064453125,-0.521484375,0.0952301025390625
1789040123832867800,0.516867919921875,-0.93597412109375,-0.5852508544921875,0.110870361328125
1789040123842812200,0.526812255859375,-0.8529052734375,-0.6185150146484375,0.086700439453125
1789040123852755000,0.5367548828125,-0.7843170166015625,-0.6425628662109375,0.0540618896484375
1789040123862699000,0.546698974609375,-0.8400421142578125,-0.67877197265625,-0.010589599609375
1789040123872643000,0.55664306640625,-0.958587646484375,-0.6787261962890625,-0.1307830810546875
1789040123882587000,0.5665869140625,-1.0248870849609375,-0.6395263671875,-0.2293701171875
1789040123892531000,0.576531005859375,-0.97442626953125,-0.6632537841796875,-0.3672637939453125
1789040123902475000,0.58647509765625,-0.8701629638671875,-0.6747894287109375,-0.523834228515625
1789040123912418800,0.596418701171875,-0.7862091064453125,-0.64111328125,-0.606414794921875
1789040123922361900,0.60636181640625,-0.6796112060546875,-0.611053466796875,-0.6004791259765625
1789040123932306200,0.61630615234375,-0.6108551025390625,-0.606201171875,-0.2344970703125
1789040123942250000,0.62625,-0.6289215087890625,-0.653839111328125,0.0762481689453125
1789040123952194000,0.636194091796875,-0.4718475341796875,-0.5746917724609375,-0.15240478515625
1789040123962137900,0.646137939453125,-0.367431640625,-0.4796142578125,-0.3372650146484375
1789040123972082000,0.65608203125,-0.3474578857421875,-0.4923248291015625,-0.329376220703125
1789040123982026000,0.66602587890625,-0.340179443359375,-0.5150146484375,-0.281707763671875
1789040123991968800,0.67596875,-0.379852294921875,-0.501953125,-0.25103759765625
1789040124001912800,0.685912841796875,-0.4373779296875,-0.4997711181640625,-0.231842041015625
1789040124011857200,0.695857177734375,-0.4610443115234375,-0.48858642578125,-0.1853485107421875
1789040124021801000,0.705801025390625,-0.46832275390625,-0.4586029052734375,-0.124542236328125
1789040124031745000,0.7157451171875,-0.4988250732421875,-0.4355621337890625,-0.078857421875
1789040124041688800,0.725688720703125,-0.54937744140625,-0.4315185546875,-0.049774169921875
1789040124051633000,0.7356328125,-0.5981292724609375,-0.4246063232421875,-0.0495452880859375
1789040124061576000,0.745575927734375,-0.688232421875,-0.3902587890625,-0.049468994140625
1789040124071519700,0.755519775390625,-0.7976531982421875,-0.3596954345703125,-0.0318145751953125
1789040124081464000,0.765464111328125,-0.8960418701171875,-0.3369140625,-0.00177001953125
1789040124091408100,0.775408203125,-0.959686279296875,-0.3170928955078125,0.0001220703125
1789040124101352000,0.78535205078125,-0.9894866943359375,-0.31243896484375,-0.0649566650390625
1789040124111296000,0.7952958984375,-1.0372314453125,-0.37225341796875,-0.1104278564453125
1789040124121239800,0.80523974609375,-1.0260772705078125,-0.4317626953125,-0.201934814453125
1789040124131183900,0.815183837890625,-0.9673309326171875,-0.396697998046875,-0.2825927734375
1789040124141127000,0.825126953125,-0.93853759765625,-0.3690338134765625,-0.28131103515625
1789040124151070700,0.83507080078125,-0.904266357421875,-0.374664306640625,-0.2460784912109375
1789040124161015000,0.84501513671875,-0.8683624267578125,-0.3625946044921875,-0.2371978759765625
1789040124170959000,0.854958984375,-0.854095458984375,-0.3532562255859375,-0.2620391845703125
1789040124180903000,0.86490283203125,-0.870361328125,-0.37200927734375,-0.2941436767578125
1789040124190847000,0.874846923828125,-0.90374755859375,-0.4123382568359375,-0.3298797607421875
1789040124200790800,0.884790771484375,-0.9534454345703125,-0.4322967529296875,-0.39141845703125
1789040124210733800,0.89473388671875,-1.0120391845703125,-0.42718505859375,-0.411712646484375
1789040124220678000,0.904677978515625,-1.0313873291015625,-0.3818817138671875,-0.3771514892578125
1789040124230622000,0.9146220703125,-1.0104217529296875,-0.294036865234375,-0.3246002197265625
1789040124240566000,0.92456591796875,-0.976806640625,-0.23681640625,-0.18603515625
1789040124250510000,0.934510009765625,-0.920257568359375,-0.1643524169921875,-0.0430450439453125
1789040124260454000,0.944453857421875,-0.8491058349609375,-0.1012725830078125,0.00860595703125
1789040124270398000,0.95439794921875,-0.7841033935546875,-0.10333251953125,0.04425048828125
1789040124280341000,0.964341064453125,-0.73211669921875,-0.12298583984375,0.0467376708984375
1789040124290284800,0.974284912109375,-0.6987152099609375,-0.1201934814453125,0.0741119384765625
1789040124300228900,0.984228759765625,-0.7000732421875,-0.103179931640625,0.128662109375
1789040124310173000,0.9941728515625,-0.770355224609375,-0.0297698974609375,0.1286163330078125
1789040124320117000,1.004116943359375,-0.860870361328125,0.024993896484375,0.1226806640625
1789040124330061000,1.01406103515625,-0.909515380859375,0.0517730712890625,0.0584259033203125
1789040124340004900,1.0240048828125,-0.9275360107421875,0.1133575439453125,-0.119842529296875
1789040124349949000,1.033948974609375,-0.94482421875,0.075439453125,-0.2152862548828125
1789040124359892000,1.04389208984375,-0.9224700927734375,0.0092315673828125,-0.3467559814453125
1789040124369835800,1.053835693359375,-0.8124542236328125,-0.0119476318359375,-0.5444488525390625
1789040124379780000,1.063780029296875,-0.6886749267578125,-0.0469970703125,-0.619110107421875
1789040124389724000,1.073723876953125,-0.605560302734375,-0.1523590087890625,-0.6315765380859375
1789040124399667200,1.083667236328125,-0.534393310546875,-0.201446533203125,-0.7306365966796875
1789040124409611300,1.093611328125,-0.56427001953125,-0.2009735107421875,-0.8885345458984375
1789040124419555000,1.10355517578125,-0.6820068359375,-0.240386962890625,-0.9893646240234375
1789040124429498000,1.113498046875,-0.77099609375,-0.307830810546875,-1.0933685302734375
1789040124439442200,1.123442138671875,-0.777923583984375,-0.3364715576171875,-1.24407958984375
1789040124449386200,1.13338623046875,-0.810028076171875,-0.275726318359375,-1.2884063720703125
1789040124459330300,1.143330322265625,-0.8958892822265625,-0.2223968505859375,-1.240081787109375
1789040124469274400,1.1532744140625,-0.8984222412109375,-0.2620391845703125,-1.1498565673828125
1789040124479218200,1.16321826171875,-0.835601806640625,-0.3102569580078125,-1.0249786376953125
1789040124489162200,1.173162353515625,-0.7782135009765625,-0.195831298828125,-0.9300689697265625
1789040124499105300,1.183105224609375,-0.6699676513671875,-0.1869049072265625,-0.961883544921875
1789040124509049000,1.193049072265625,-0.57598876953125,-0.22418212890625,-1.0121002197265625
1789040124518993200,1.2029931640625,-0.55023193359375,-0.2124786376953125,-1.006256103515625
1789040124528937200,1.212937255859375,-0.51763916015625,-0.205657958984375,-0.9931793212890625
1789040124538881300,1.22288134765625,-0.4725189208984375,-0.17376708984375,-0.9334564208984375
1789040124548825300,1.232825439453125,-0.528045654296875,-0.123809814453125,-0.764190673828125
1789040124558769200,1.24276904296875,-0.6717529296875,-0.039825439453125,-0.598480224609375
1789040124568712200,1.252712158203125,-0.761962890625,0.055694580078125,-0.5425262451171875
1789040124578656300,1.26265625,-0.798858642578125,0.126739501953125,-0.4805755615234375
1789040124588600000,1.27260009765625,-0.84649658203125,0.16571044921875,-0.3927001953125
1789040124598544100,1.282544189453125,-0.8517608642578125,0.198394775390625,-0.34991455078125
1789040124608488400,1.292488525390625,-0.8057861328125,0.2368927001953125,-0.3645782470703125
1789040124618432300,1.302432373046875,-0.7699737548828125,0.22894287109375,-0.40484619140625
1789040124628376300,1.312376220703125,-0.7220306396484375,0.1966094970703125,-0.44921875
1789040124638319400,1.3223193359375,-0.7362213134765625,0.1817779541015625,-0.4881591796875
1789040124648263200,1.33226318359375,-0.805938720703125,0.15191650390625,-0.5523529052734375
1789040124658207200,1.342207275390625,-0.8567962646484375,0.1334381103515625,-0.630218505859375
1789040124668151000,1.352151123046875,-0.9193878173828125,0.1077728271484375,-0.69989013671875
1789040124678095400,1.362095458984375,-0.991851806640625,0.0731201171875,-0.762908935546875
1789040124688039400,1.372039306640625,-1.0397186279296875,0.0546112060546875,-0.835479736328125
1789040124697983200,1.381983154296875,-1.0325164794921875,0.01568603515625,-0.933441162109375
1789040124707926300,1.39192626953125,-0.96624755859375,-0.0264892578125,-0.9964752197265625
1789040124717870300,1.401870361328125,-0.8694305419921875,-0.1250152587890625,-1.018585205078125
1789040124727814100,1.411814208984375,-0.7608795166015625,-0.2169189453125,-1.1047515869140625
1789040124737758200,1.42175830078125,-0.6586761474609375,-0.27227783203125,-1.1789398193359375
1789040124747702000,1.431701904296875,-0.5801544189453125,-0.3010711669921875,-1.1990966796875
1789040124757646300,1.441646240234375,-0.5465240478515625,-0.3373565673828125,-1.222869873046875
1789040124767590400,1.45159033203125,-0.498199462890625,-0.354339599609375,-1.286865234375
1789040124777533200,1.461533203125,-0.4483642578125,-0.3787841796875,-1.2933807373046875
1789040124787477200,1.471477294921875,-0.400177001953125,-0.3557586669921875,-1.2349395751953125
1789040124797421300,1.48142138671875,-0.346038818359375,-0.28515625,-1.16766357421875
1789040124807365000,1.491365234375,-0.333587646484375,-0.2200775146484375,-1.087127685546875
1789040124817309200,1.50130908203125,-0.3239288330078125,-0.195953369140625,-1.035003662109375
1789040124827253200,1.511253173828125,-0.3036956787109375,-0.152801513671875,-1.01416015625
1789040124837197300,1.521197265625,-0.3119659423828125,-0.1418609619140625,-1.00677490234375
1789040124847140400,1.531140380859375,-0.32232666015625,-0.09051513671875,-1.003662109375
1789040124857084200,1.541084228515625,-0.3851165771484375,-0.038299560546875,-0.9666900634765625
1789040124867028200,1.5510283203125,-0.4647216796875,0.0065155029296875,-0.8613128662109375
1789040124876972300,1.56097216796875,-0.546783447265625,0.008941650390625,-0.7843017578125
1789040124886916000,1.570916015625,-0.5850982666015625,-0.005706787109375,-0.79168701171875
1789040124896860200,1.580860107421875,-0.60125732421875,-0.0146636962890625,-0.808441162109375
1789040124906804200,1.59080419921875,-0.64910888671875,-0.037261962890625,-0.8739166259765625
1789040124916747300,1.600747314453125,-0.6438751220703125,-0.022796630859375,-1.0063629150390625
1789040124926691300,1.61069140625,-0.6032867431640625,0.0237579345703125,-1.09051513671875
1789040124936635100,1.62063525390625,-0.587799072265625,0.07073974609375,-1.053741455078125
1789040124946579200,1.6305791015625,-0.607330322265625,0.1002197265625,-0.9784088134765625
1789040124956523300,1.640523193359375,-0.66326904296875,0.127593994140625,-0.8818359375
1789040124966467000,1.650467041015625,-0.7673797607421875,0.132904052734375,-0.7808990478515625
1789040124976411400,1.660411376953125,-0.8389892578125,0.1493988037109375,-0.6825408935546875
1789040124986354400,1.6703544921875,-0.831817626953125,0.1859893798828125,-0.5944671630859375
1789040124996298200,1.68029833984375,-0.7558135986328125,0.223052978515625,-0.506561279296875
1789040125006242300,1.6902421875,-0.6128387451171875,0.264190673828125,-0.4303436279296875
1789040125016186000,1.70018603515625,-0.4953460693359375,0.2894744873046875,-0.3791656494140625
1789040125026130200,1.710130126953125,-0.40411376953125,0.295135498046875,-0.382843017578125
1789040125036074200,1.72007421875,-0.29034423828125,0.29534912109375,-0.4422760009765625
1789040125046018000,1.73001806640625,-0.2035369873046875,0.251129150390625,-0.531829833984375
1789040125055961000,1.739961181640625,-0.1624298095703125,0.1947174072265625,-0.6538848876953125
1789040125065905400,1.749905517578125,-0.152435302734375,0.1337127685546875,-0.79791259765625
1789040125075849200,1.75984912109375,-0.1385498046875,0.0567626953125,-0.91357421875
1789040125085793300,1.769793212890625,-0.1493377685546875,0.0290985107421875,-0.977996826171875
1789040125095737300,1.7797373046875,-0.208770751953125,0.02545166015625,-1.0035400390625
1789040125105681200,1.78968115234375,-0.2751617431640625,0.0042266845703125,-1.027191162109375
1789040125115625200,1.799625244140625,-0.350921630859375,0.0087127685546875,-1.074249267578125
1789040125125568300,1.809568359375,-0.4324493408203125,0.01171875,-1.10064697265625
1789040125135512300,1.81951220703125,-0.4798736572265625,-0.0390167236328125,-1.15985107421875
1789040125145456400,1.829456298828125,-0.5096282958984375,-0.1035003662109375,-1.2500762939453125
1789040125155400200,1.839400146484375,-0.4918365478515625,-0.1573486328125,-1.3298492431640625
1789040125165344300,1.84934423828125,-0.4746551513671875,-0.150360107421875,-1.3165740966796875
1789040125175288300,1.859288330078125,-0.5316925048828125,-0.1163787841796875,-1.194610595703125
1789040125185232100,1.869232177734375,-0.6204376220703125,-0.0878448486328125,-1.138763427734375
1789040125195175200,1.879175048828125,-0.659576416015625,-0.1395721435546875,-1.04107666015625
1789040125205119200,1.889119140625,-0.6062164306640625,-0.181427001953125,-1.0034637451171875
1789040125215063300,1.899063232421875,-0.6035919189453125,-0.1525726318359375,-0.9040069580078125
1789040125225007400,1.90900732421875,-0.5521392822265625,-0.088592529296875,-0.6957855224609375
1789040125234951200,1.918951171875,-0.4493408203125,-0.1211090087890625,-0.600555419921875
1789040125244895200,1.928895263671875,-0.3127288818359375,-0.22552490234375,-0.6452178955078125
1789040125254839300,1.93883935546875,-0.2508087158203125,-0.1437225341796875,-0.70672607421875
1789040125264782000,1.948781982421875,-0.2757720947265625,-0.062103271484375,-0.6770782470703125
1789040125274726100,1.95872607421875,-0.33221435546875,-0.0657806396484375,-0.7404632568359375
1789040125284670500,1.96867041015625,-0.333953857421875,0.0296173095703125,-0.8163299560546875
1789040125294614300,1.9786142578125,-0.3543701171875,0.0990753173828125,-0.827728271484375
1789040125304558300,1.988558349609375,-0.29278564453125,-0.143463134765625,-1.1026458740234375
1789040125314502100,1.998502197265625,-0.0847320556640625,0.02777099609375,-1.04425048828125
1789040125324445200,2.008445068359375,-0.1566162109375,-0.015625,-0.9357757568359375
1789040125334389200,2.01838916015625,-0.1483917236328125,-0.0227203369140625,-0.965118408203125
1789040125344333000,2.0283330078125,-0.1024627685546875,-0.06207275390625,-1.0512237548828125
1789040125354277000,2.038277099609375,-0.218017578125,-0.1126861572265625,-1.16473388671875
1789040125364221400,2.048221435546875,-0.3802490234375,-0.1793975830078125,-1.359100341796875
1789040125374165200,2.058165283203125,-0.490020751953125,-0.238922119140625,-1.50836181640625
1789040125384109300,2.068109375,-0.5606689453125,-0.2662811279296875,-1.5160675048828125
1789040125394052600,2.078052490234375,-0.54437255859375,-0.2521820068359375,-1.43701171875
1789040125403996400,2.087996337890625,-0.4824981689453125,-0.1846923828125,-1.3130035400390625
1789040125413940700,2.097940673828125,-0.419647216796875,-0.0784149169921875,-1.1924591064453125
1789040125423884500,2.107884521484375,-0.3689727783203125,0.0306549072265625,-1.023712158203125
1789040125433828600,2.11782861328125,-0.286224365234375,0.110321044921875,-0.82977294921875
1789040125443772700,2.127772705078125,-0.2288360595703125,0.1748199462890625,-0.6639251708984375
1789040125453716500,2.137716552734375,-0.1908416748046875,0.2309722900390625,-0.5775146484375
1789040125463659500,2.147659423828125,-0.17578125,0.26666259765625,-0.5301513671875
1789040125473603600,2.157603515625,-0.19000244140625,0.26068115234375,-0.4918670654296875
1789040125483547600,2.167547607421875,-0.1956329345703125,0.2559051513671875,-0.5290069580078125
1789040125493491700,2.17749169921875,-0.170562744140625,0.24383544921875,-0.6315155029296875
1789040125503435500,2.187435546875,-0.1240997314453125,0.2071075439453125,-0.69970703125
1789040125513379600,2.197379638671875,-0.072235107421875,0.1839599609375,-0.7298583984375
1789040125523323600,2.20732373046875,-0.0336761474609375,0.1728363037109375,-0.7390289306640625
1789040125533266400,2.217266357421875,-0.01141357421875,0.159637451171875,-0.77825927734375
1789040125543210500,2.22721044921875,0.0107879638671875,0.1504974365234375,-0.8334808349609375
1789040125553154600,2.237154541015625,-0.028961181640625,0.1559906005859375,-0.852447509765625
1789040125563098600,2.2470986328125,-0.12689208984375,0.1560516357421875,-0.902984619140625
1789040125573042700,2.257042724609375,-0.2353515625,0.145233154296875,-1.0185546875
1789040125582986500,2.266986572265625,-0.2574462890625,0.100433349609375,-1.1240386962890625
1789040125592930600,2.2769306640625,-0.1857757568359375,0.0271759033203125,-1.1839447021484375
1789040125602873600,2.28687353515625,-0.05181884765625,0.0007781982421875,-1.249298095703125
1789040125612817400,2.2968173828125,0.071044921875,-0.02117919921875,-1.316253662109375
1789040125622761500,2.306761474609375,0.1203765869140625,-0.0251617431640625,-1.3490142822265625
1789040125632705500,2.31670556640625,0.0960540771484375,-0.0384063720703125,-1.393707275390625
1789040125642649600,2.326649658203125,0.04339599609375,-0.0867919921875,-1.45343017578125
1789040125652593700,2.33659375,0.037933349609375,-0.1031951904296875,-1.478912353515625
1789040125662537500,2.346537353515625,0.0607147216796875,-0.0889434814453125,-1.4344940185546875
1789040125672480500,2.35648046875,0.060516357421875,-0.07476806640625,-1.3183135986328125
1789040125682424600,2.366424560546875,0.0291290283203125,-0.1177978515625,-1.2280120849609375
1789040125692368400,2.376368408203125,0.0355987548828125,-0.0752410888671875,-1.166595458984375
1789040125702312400,2.3863125,0.01318359375,-0.004913330078125,-1.085479736328125
1789040125712256800,2.3962568359375,-0.09539794921875,-0.007781982421875,-1.0438690185546875
1789040125722200600,2.40620068359375,-0.2068023681640625,0.029510498046875,-1.053009033203125
1789040125732143600,2.4161435546875,-0.314727783203125,-0.0263519287109375,-1.12591552734375
1789040125742087700,2.426087646484375,-0.433990478515625,-0.05096435546875,-1.1864166259765625
1789040125752031500,2.436031494140625,-0.4902801513671875,-0.075836181640625,-1.1907806396484375
1789040125761975600,2.4459755859375,-0.45794677734375,-0.0843963623046875,-1.091064453125
1789040125771919600,2.455919677734375,-0.3842010498046875,-0.0682830810546875,-0.9789581298828125
1789040125781863400,2.465863525390625,-0.2887725830078125,-0.0498504638671875,-0.8944244384765625
1789040125791807700,2.475807861328125,-0.219268798828125,-0.0284881591796875,-0.8424835205078125
1789040125801750800,2.485750732421875,-0.1782379150390625,-0.0183868408203125,-0.8172454833984375
1789040125811694600,2.495694580078125,-0.148529052734375,-0.0033721923828125,-0.8344268798828125
1789040125821638700,2.505638671875,-0.1237640380859375,0.027252197265625,-0.8336944580078125
1789040125831582500,2.51558251953125,-0.090576171875,0.052337646484375,-0.8248748779296875
1789040125841526500,2.525526611328125,-0.070343017578125,0.06561279296875,-0.8288116455078125
1789040125851470600,2.535470703125,-0.0265960693359375,0.0958251953125,-0.8258819580078125
1789040125861414700,2.54541455078125,0.03472900390625,0.13751220703125,-0.7945098876953125
1789040125871357700,2.555357666015625,0.047821044921875,0.1458740234375,-0.7504425048828125
1789040125881301800,2.5653017578125,0.046844482421875,0.1195526123046875,-0.750091552734375
1789040125891245600,2.57524560546875,0.04193115234375,0.052978515625,-0.8012237548828125
1789040125901189600,2.585189697265625,0.058135986328125,0.0010833740234375,-0.93145751953125
1789040125911133400,2.595133544921875,0.0510101318359375,0.0173187255859375,-1.0168304443359375
1789040125921077500,2.605077392578125,0.092803955078125,-0.0010833740234375,-1.004730224609375
1789040125931020500,2.6150205078125,0.14031982421875,-0.0337982177734375,-0.948638916015625
1789040125940964400,2.62496435546875,0.1344146728515625,-0.0430755615234375,-0.927459716796875
1789040125950908700,2.63490869140625,0.081085205078125,-0.04302978515625,-0.9151153564453125
1789040125960852700,2.644852783203125,-0.00286865234375,-0.018035888671875,-0.92962646484375
1789040125970796500,2.654796630859375,-0.0596160888671875,0.01947021484375,-0.974761962890625
1789040125980740600,2.66474072265625,-0.0787506103515625,0.036895751953125,-1.0067901611328125
1789040125990684400,2.674684326171875,-0.0805816650390625,0.063568115234375,-0.99444580078125
1789040126000627500,2.68462744140625,-0.0870819091796875,0.0740203857421875,-0.9461212158203125
1789040126010571500,2.694571533203125,0.0509033203125,0.06591796875,-0.835113525390625
1789040126020515600,2.704515625,0.03167724609375,0.04302978515625,-0.802215576171875
1789040126030459600,2.714459716796875,-0.1343994140625,0.0259857177734375,-0.8316192626953125
1789040126040403700,2.72440380859375,-0.1192779541015625,0.006683349609375,-0.8705291748046875
1789040126050347500,2.734347412109375,-0.0592498779296875,-0.0423583984375,-0.952667236328125
1789040126060290600,2.74429052734375,-0.035675048828125,-0.13958740234375,-0.9993133544921875
1789040126070234600,2.754234619140625,-0.058624267578125,-0.181671142578125,-1.0155792236328125
1789040126080178400,2.764178466796875,0.092315673828125,-0.1151885986328125,-1.02301025390625
1789040126090122500,2.77412255859375,0.2545623779296875,-0.0767364501953125,-0.9155120849609375
1789040126100066600,2.784066650390625,0.16729736328125,-0.108795166015625,-0.9295501708984375
1789040126110010600,2.7940107421875,0.0071868896484375,-0.11846923828125,-0.999542236328125
1789040126119954700,2.80395458984375,-0.157135009765625,-0.082427978515625,-0.9938201904296875
1789040126129897500,2.8138974609375,-0.078216552734375,-0.0377349853515625,-0.8859710693359375
1789040126139841500,2.823841552734375,-0.06158447265625,-0.0251617431640625,-0.8189544677734375
1789040126149785600,2.83378564453125,-0.1549072265625,-0.0478363037109375,-0.842620849609375
1789040126159729400,2.8437294921875,-0.2394866943359375,-0.0601043701171875,-0.9134674072265625
1789040126169673700,2.853673828125,-0.2979888916015625,-0.05548095703125,-0.952728271484375
1789040126179617500,2.863617431640625,-0.2627716064453125,-0.0470428466796875,-0.964324951171875
1789040126189560600,2.873560546875,-0.0169677734375,-0.147918701171875,-1.1303863525390625
1789040126199504600,2.883504638671875,0.5581207275390625,-0.3360595703125,-1.375946044921875
1789040126209448400,2.893448486328125,0.3345794677734375,-0.335235595703125,-1.2593231201171875
1789040126219392500,2.903392578125,0.339447021484375,-0.3127288818359375,-1.171630859375
1789040126229336600,2.913336669921875,0.388214111328125,-0.215179443359375,-1.301544189453125
1789040126239280400,2.9232802734375,0.0931396484375,-0.1529083251953125,-1.2563018798828125
1789040126249224700,2.933224609375,-0.2147674560546875,-0.1296844482421875,-1.154693603515625
1789040126259167700,2.943167724609375,-0.3500823974609375,-0.094207763671875,-1.1718597412109375
1789040126269111600,2.953111572265625,-0.3385467529296875,-0.048675537109375,-1.2143096923828125
1789040126279055600,2.9630556640625,-0.2949676513671875,-0.0207061767578125,-1.23681640625
1789040126288999700,2.972999755859375,-0.1901092529296875,-0.0078582763671875,-1.25494384765625
1789040126298943500,2.982943603515625,-0.0912628173828125,-0.018951416015625,-1.2291107177734375
1789040126308887600,2.992887451171875,-0.0492401123046875,-0.0190887451171875,-1.20367431640625
1789040126318831600,3.00283154296875,-0.036834716796875,0.005584716796875,-1.1892852783203125
1789040126328774400,3.0127744140625,-0.0695037841796875,0.0298004150390625,-1.1505584716796875
1789040126338718700,3.02271875,-0.1026458740234375,0.0597991943359375,-1.0738677978515625
1789040126348662500,3.03266259765625,-0.095123291015625,0.111328125,-0.9759521484375
1789040126358606600,3.042606689453125,-0.138214111328125,0.156463623046875,-0.87640380859375
1789040126368550700,3.052550537109375,-0.235260009765625,0.1820068359375,-0.8048095703125
1789040126378494500,3.062494384765625,-0.309326171875,0.194305419921875,-0.771575927734375
1789040126388437500,3.0724375,-0.31475830078125,0.2144012451171875,-0.748260498046875
1789040126398381600,3.082381591796875,-0.142059326171875,0.2265777587890625,-0.722137451171875
1789040126408325400,3.092325439453125,-0.0039215087890625,0.20379638671875,-0.68426513671875
1789040126418269400,3.10226953125,0.0699310302734375,0.17645263671875,-0.6794586181640625
1789040126428213500,3.112213623046875,0.13421630859375,0.153839111328125,-0.6963958740234375
1789040126438157600,3.122157470703125,0.17523193359375,0.146881103515625,-0.7240753173828125
1789040126448100600,3.1321005859375,0.1899566650390625,0.1446533203125,-0.764862060546875
1789040126458044400,3.14204443359375,0.1952362060546875,0.1352386474609375,-0.804290771484375
1789040126467988500,3.151988525390625,0.165740966796875,0.110198974609375,-0.881866455078125
1789040126477932500,3.1619326171875,0.08233642578125,0.0984649658203125,-0.95465087890625
1789040126487876400,3.17187646484375,-0.0282440185546875,0.097412109375,-0.9879913330078125
1789040126497820400,3.1818203125,-0.0941009521484375,0.083251953125,-1.0234375
1789040126507764500,3.191764404296875,-0.1541595458984375,0.0821533203125,-1.041778564453125
1789040126517707500,3.20170751953125,-0.2150421142578125,0.0845947265625,-1.060882568359375
1789040126527651600,3.211651611328125,-0.2699737548828125,0.0939788818359375,-1.0512237548828125
1789040126537595400,3.221595458984375,-0.298370361328125,0.1151123046875,-0.993682861328125
1789040126547539500,3.23153955078125,-0.3225555419921875,0.1166534423828125,-0.9376678466796875
1789040126557483500,3.2414833984375,-0.3174896240234375,0.1059112548828125,-0.9405364990234375
1789040126567427300,3.25142724609375,-0.250396728515625,0.0858306884765625,-0.9727630615234375
1789040126577370400,3.261370361328125,-0.1379547119140625,0.062255859375,-0.9723052978515625
1789040126587314400,3.271314453125,-0.02032470703125,0.0576019287109375,-0.9223785400390625
1789040126597258500,3.281258544921875,0.094482421875,0.064544677734375,-0.84222412109375
1789040126607202600,3.29120263671875,0.162567138671875,0.0719451904296875,-0.76690673828125
1789040126617146400,3.301146484375,0.1490478515625,0.0731658935546875,-0.707794189453125
1789040126627090400,3.31109033203125,0.09686279296875,0.0803375244140625,-0.6939239501953125
1789040126637034500,3.321034423828125,0.04364013671875,0.0814971923828125,-0.751129150390625
1789040126646977500,3.3309775390625,0.0002899169921875,0.0524749755859375,-0.865203857421875
1789040126656921300,3.34092138671875,-0.031463623046875,0.0013275146484375,-1.009002685546875
1789040126666865700,3.35086572265625,-0.0423583984375,-0.05230712890625,-1.126312255859375
1789040126676809500,3.3608095703125,-0.05609130859375,-0.0902557373046875,-1.1711578369140625
1789040126686753500,3.37075341796875,-0.08575439453125,-0.1082305908203125,-1.203704833984375
1789040126696697600,3.380697509765625,-0.122528076171875,-0.115509033203125,-1.3999786376953125
1789040126706640400,3.390640380859375,-0.1860198974609375,-0.1459197998046875,-1.87469482421875
1789040126716584400,3.40058447265625,-0.1854095458984375,-0.341796875,-1.6186065673828125
1789040126726528500,3.410528564453125,0.0140380859375,-0.3295135498046875,-1.36883544921875
1789040126736472300,3.420472412109375,0.095611572265625,-0.198394775390625,-1.233673095703125
1789040126746416600,3.430416748046875,-0.0083465576171875,-0.0902862548828125,-1.1158447265625
1789040126756360400,3.4403603515625,-0.1124267578125,-0.06134033203125,-1.1323394775390625
1789040126766303500,3.450303466796875,-0.2007904052734375,0.007049560546875,-1.1222076416015625
1789040126776247600,3.46024755859375,-0.231292724609375,0.033843994140625,-1.10882568359375
1789040126786191400,3.47019140625,-0.1282958984375,0.027984619140625,-1.1433258056640625
1789040126796135400,3.480135498046875,0.0516815185546875,0.00360107421875,-1.1459503173828125
1789040126806079500,3.49007958984375,0.1553192138671875,0.0105743408203125,-1.00396728515625
1789040126816023600,3.5000234375,0.2074737548828125,0.0896148681640625,-0.8750152587890625
1789040126825967600,3.509967529296875,0.161285400390625,0.1605682373046875,-0.8141021728515625
1789040126835910700,3.51991064453125,0.1156005859375,0.2050933837890625,-0.7076568603515625
1789040126845854500,3.5298544921875,0.0606536865234375,0.1494903564453125,-0.59967041015625
1789040126855798500,3.539798583984375,0.0545501708984375,0.1262359619140625,-0.5885772705078125
1789040126865742300,3.549742431640625,0.081939697265625,0.158416748046875,-0.678009033203125
1789040126875686400,3.559686279296875,0.133056640625,0.1084136962890625,-0.7674102783203125
1789040126885630500,3.56963037109375,0.1850738525390625,0.060791015625,-0.794525146484375
1789040126895573500,3.579573486328125,0.2515106201171875,0.081268310546875,-0.81256103515625
1789040126905517600,3.589517578125,0.18780517578125,0.07293701171875,-0.833343505859375
1789040126915461600,3.599461669921875,0.17364501953125,0.0684661865234375,-0.839752197265625
1789040126925405400,3.609405517578125,0.1710052490234375,0.0157623291015625,-0.836151123046875
1789040126935349500,3.619349609375,0.201385498046875,-0.032928466796875,-0.9009246826171875
1789040126945293300,3.629293212890625,0.2188873291015625,-0.0472869873046875,-0.93646240234375
1789040126955236400,3.639236328125,0.250640869140625,-0.0462646484375,-0.93853759765625
1789040126965180400,3.649180419921875,0.2716827392578125,-0.0658111572265625,-1.0297698974609375
1789040126975124500,3.65912451171875,0.2747955322265625,-0.1114501953125,-1.12091064453125
1789040126985068500,3.669068603515625,0.156463623046875,-0.1825408935546875,-1.1638031005859375
1789040126995012600,3.6790126953125,0.0468292236328125,-0.2587738037109375,-1.1600799560546875
1789040127004956400,3.688956298828125,0.0520477294921875,-0.3112945556640625,-1.097320556640625
1789040127014899500,3.6988994140625,0.0939178466796875,-0.2763671875,-1.088043212890625
1789040127024843500,3.708843505859375,0.1645660400390625,-0.2408294677734375,-1.054931640625
1789040127034787300,3.718787353515625,0.23590087890625,-0.25146484375,-0.9760894775390625
1789040127044731400,3.7287314453125,0.25677490234375,-0.278533935546875,-0.8615264892578125
1789040127054675500,3.738675537109375,0.1913299560546875,-0.221038818359375,-0.8258209228515625
1789040127064619500,3.74861962890625,0.001220703125,-0.1970367431640625,-0.914398193359375
1789040127074563600,3.7585634765625,-0.0708465576171875,-0.2364501953125,-0.9378204345703125
1789040127084506600,3.768506591796875,0.0075836181640625,-0.2404632568359375,-0.9749298095703125
1789040127094450400,3.778450439453125,0.0737152099609375,-0.2459869384765625,-0.9554901123046875
1789040127104394500,3.78839453125,0.072052001953125,-0.2320556640625,-0.961456298828125
1789040127114338300,3.79833837890625,0.115966796875,-0.2271728515625,-0.991485595703125
1789040127124282600,3.80828271484375,0.2111968994140625,-0.1997222900390625,-0.943145751953125
1789040127134226700,3.818226806640625,0.230926513671875,-0.167144775390625,-0.9232940673828125
1789040127144169500,3.82816943359375,0.221160888671875,-0.1583404541015625,-1.0252685546875
1789040127154113500,3.838113525390625,0.2078399658203125,-0.1380157470703125,-1.080078125
1789040127164057600,3.8480576171875,0.1872100830078125,-0.133148193359375,-1.0869903564453125
1789040127174001400,3.85800146484375,0.161895751953125,-0.1521453857421875,-1.088531494140625
1789040127183945500,3.867945556640625,0.1420440673828125,-0.1425323486328125,-1.1071014404296875
1789040127193889300,3.87788916015625,0.1327972412109375,-0.15008544921875,-1.179290771484375
1789040127203832300,3.887832275390625,0.1385040283203125,-0.1350555419921875,-1.1671142578125
1789040127213776600,3.897776611328125,0.1768341064453125,-0.1068878173828125,-1.064788818359375
1789040127223720400,3.907720458984375,0.2108612060546875,-0.064605712890625,-1.04046630859375
1789040127233664500,3.91766455078125,0.183837890625,-0.076171875,-1.01641845703125
1789040127243608600,3.927608642578125,0.1579132080078125,-0.0258331298828125,-0.9622344970703125
1789040127253552400,3.937552490234375,0.142974853515625,0.013214111328125,-1.0210723876953125
1789040127263495400,3.947495361328125,0.1392364501953125,-0.014495849609375,-1.0112152099609375
1789040127273439500,3.957439453125,0.1431121826171875,0.000823974609375,-1.0064849853515625
1789040127283383300,3.96738330078125,0.1648406982421875,-0.0234222412109375,-1.0012054443359375
1789040127293327600,3.97732763671875,0.178009033203125,-0.0515899658203125,-0.9869384765625
1789040127303271400,3.987271484375,0.1524200439453125,-0.021697998046875,-0.99310302734375
1789040127313215500,3.997215576171875,0.1149444580078125,-0.016998291015625,-1.005645751953125
1789040127323158500,4.007158447265625,0.1266326904296875,-0.0095062255859375,-1.0513763427734375
1789040127333102600,4.0171025390625,0.1374969482421875,-0.0009613037109375,-1.107421875
1789040127343046400,4.02704638671875,0.1427459716796875,0.003387451171875,-1.137237548828125
1789040127352990500,4.036990478515625,0.1924896240234375,0.0015716552734375,-1.153594970703125
1789040127362934500,4.0469345703125,0.21502685546875,0.0059967041015625,-1.1276092529296875
1789040127372878600,4.056878662109375,0.2127838134765625,0.032928466796875,-1.0573577880859375
1789040127382821600,4.066821533203125,0.221343994140625,0.052093505859375,-0.9724273681640625
1789040127392765400,4.076765380859375,0.2015228271484375,0.0605621337890625,-0.8833465576171875
1789040127402709500,4.08670947265625,0.12542724609375,0.124114990234375,-0.81146240234375
1789040127412653600,4.096653564453125,0.00494384765625,0.1908111572265625,-0.7195281982421875
1789040127422597600,4.10659765625,-0.072357177734375,0.2192535400390625,-0.575347900390625
1789040127432541700,4.116541748046875,-0.070526123046875,0.3015289306640625,-0.4132232666015625
1789040127442485500,4.126485595703125,0.0534210205078125,0.19549560546875,-0.4538116455078125
1789040127452428500,4.136428466796875,0.208648681640625,-0.0023193359375,-0.6813507080078125
1789040127462372600,4.14637255859375,0.31072998046875,-0.01312255859375,-0.710418701171875
1789040127472316400,4.15631640625,0.36187744140625,0.04376220703125,-0.6929779052734375
1789040127482260500,4.166260498046875,0.3943328857421875,-0.015472412109375,-0.8062744140625
1789040127492204500,4.17620458984375,0.3689422607421875,-0.0626220703125,-0.8977508544921875
1789040127502148600,4.186148681640625,0.2529754638671875,-0.1104278564453125,-0.929534912109375
1789040127512091600,4.196091552734375,0.148284912109375,-0.14794921875,-0.898681640625
1789040127522035700,4.20603564453125,0.1288909912109375,-0.153411865234375,-0.9258270263671875
1789040127531979500,4.2159794921875,0.0886383056640625,-0.13909912109375,-1.0011749267578125
1789040127541923600,4.225923583984375,0.1174163818359375,-0.1700897216796875,-1.0626678466796875
1789040127551867400,4.235867431640625,0.2700653076171875,-0.2447509765625,-1.1025238037109375
1789040127561811700,4.245811767578125,0.436737060546875,-0.3087921142578125,-1.1328887939453125
1789040127571754500,4.25575439453125,0.4485626220703125,-0.292388916015625,-1.2249298095703125
1789040127581698600,4.265698486328125,0.342987060546875,-0.208526611328125,-1.3721160888671875
1789040127591642600,4.275642578125,0.35455322265625,-0.231781005859375,-1.5074005126953125
1789040127601586700,4.285586669921875,0.3784942626953125,-0.2738189697265625,-1.610595703125
1789040127611530500,4.295530517578125,0.3543701171875,-0.282928466796875,-1.702301025390625
1789040127621474600,4.305474609375,0.3583526611328125,-0.3068084716796875,-1.64727783203125
1789040127631417600,4.31541748046875,0.3390350341796875,-0.374664306640625,-1.594207763671875
1789040127641361400,4.325361328125,0.308624267578125,-0.4010467529296875,-1.5117645263671875
1789040127651305700,4.3353056640625,0.2487335205078125,-0.3634490966796875,-1.352386474609375
1789040127661249500,4.34524951171875,0.0941314697265625,-0.219970703125,-1.0953521728515625
1789040127671193600,4.355193603515625,0.0269012451171875,-0.00799560546875,-0.7694854736328125
1789040127681137700,4.3651376953125,0.0066375732421875,0.1461944580078125,-0.4492034912109375
1789040127691080400,4.37508056640625,-0.039764404296875,0.28570556640625,-0.3507843017578125
1789040127701024500,4.3850244140625,-0.0751953125,0.298614501953125,-0.357635498046875
1789040127710968600,4.394968505859375,-0.00238037109375,0.2858428955078125,-0.3964996337890625
1789040127720912400,4.404912353515625,0.10443115234375,0.25384521484375,-0.486328125
1789040127730856700,4.414856689453125,0.20001220703125,0.187591552734375,-0.529571533203125
1789040127740800500,4.424800537109375,0.2718048095703125,0.2260589599609375,-0.451446533203125
1789040127750743600,4.43474365234375,0.1662445068359375,0.3123321533203125,-0.327178955078125
1789040127760687600,4.4446875,0.088836669921875,0.3409423828125,-0.31146240234375
1789040127770631400,4.45463134765625,0.1853485107421875,0.2457427978515625,-0.4781951904296875
1789040127780575500,4.464575439453125,0.25335693359375,0.1415863037109375,-0.647979736328125
1789040127790519600,4.47451953125,0.3887786865234375,0.0781402587890625,-0.7906646728515625
1789040127800463600,4.484463623046875,0.4805145263671875,-0.0483551025390625,-1.10980224609375
1789040127810406700,4.49440673828125,0.5940093994140625,-0.189178466796875,-1.4257965087890625
1789040127820350700,4.504350830078125,0.6389617919921875,-0.28302001953125,-1.6079559326171875
1789040127830294500,4.51429443359375,0.5505828857421875,-0.4053497314453125,-1.7480316162109375
1789040127840238600,4.524238525390625,0.5031890869140625,-0.4250030517578125,-1.92822265625
1789040127850182700,4.5341826171875,0.412872314453125,-0.3654327392578125,-1.68743896484375
1789040127860126500,4.54412646484375,0.2364654541015625,-0.252716064453125,-1.45245361328125
1789040127870069500,4.554069580078125,0.1896209716796875,-0.1090087890625,-1.306976318359375
1789040127880013600,4.564013671875,0.254852294921875,-0.0706634521484375,-1.160736083984375
1789040127889957600,4.57395751953125,0.3485870361328125,-0.10076904296875,-1.0441436767578125
1789040127899901700,4.583901611328125,0.37591552734375,-0.1212310791015625,-1.103118896484375
1789040127909845500,4.593845458984375,0.3799591064453125,-0.0965728759765625,-0.9430694580078125
1789040127919789600,4.60378955078125,0.406036376953125,-0.0617218017578125,-0.638580322265625
1789040127929732600,4.613732666015625,0.28912353515625,-0.04278564453125,-0.7676544189453125
1789040127939676400,4.623676513671875,0.0123138427734375,-0.1182708740234375,-0.911285400390625
1789040127949620500,4.633620361328125,0.2407989501953125,-0.1405181884765625,-0.53753662109375
1789040127959564800,4.643564697265625,0.480194091796875,-0.1562652587890625,-0.5378570556640625
1789040127969508600,4.653508544921875,0.3867340087890625,-0.2123260498046875,-0.7408599853515625
1789040127979452700,4.66345263671875,0.3796539306640625,-0.2074432373046875,-0.7044677734375
1789040127989395700,4.673395751953125,0.3403472900390625,-0.17333984375,-0.5948944091796875
1789040127999339500,4.683339599609375,0.28192138671875,-0.156646728515625,-0.5281219482421875
1789040128009283600,4.69328369140625,0.1829986572265625,-0.0953521728515625,-0.6275177001953125
1789040128019227400,4.703227294921875,0.1074371337890625,-0.1803131103515625,-0.8703765869140625
1789040128029171500,4.71317138671875,0.209014892578125,-0.326934814453125,-1.092071533203125
1789040128039115800,4.72311572265625,0.392852783203125,-0.397979736328125,-1.282684326171875
1789040128049058600,4.73305859375,0.4207916259765625,-0.4595794677734375,-1.358154296875
1789040128059002600,4.743002685546875,0.2877960205078125,-0.27978515625,-1.02520751953125
1789040128068946700,4.75294677734375,0.263763427734375,-0.0864410400390625,-0.7710418701171875
1789040128078890500,4.762890380859375,0.20343017578125,0.0174407958984375,-0.7043609619140625
1789040128088834600,4.77283447265625,0.0901031494140625,0.0489654541015625,-0.664031982421875
1789040128098778400,4.7827783203125,0.0459442138671875,0.112060546875,-0.69091796875
1789040128108721400,4.792721435546875,0.0397491455078125,0.17828369140625,-0.817840576171875
1789040128118665500,4.80266552734375,-0.0622100830078125,0.140472412109375,-0.92071533203125
1789040128128609500,4.812609619140625,0.299041748046875,0.0637664794921875,-0.8423004150390625
1789040128138553600,4.8225537109375,0.5512847900390625,0.0599517822265625,-0.642181396484375
1789040128148497700,4.83249755859375,0.24371337890625,0.06622314453125,-0.5335235595703125
1789040128158441500,4.84244140625,0.1968536376953125,0.1920623779296875,-0.4873809814453125
1789040128168384500,4.852384521484375,0.2824554443359375,0.317840576171875,-0.53314208984375
1789040128178328600,4.86232861328125,0.3797454833984375,0.313751220703125,-0.7353057861328125
1789040128188272400,4.8722724609375,0.5130767822265625,0.352142333984375,-0.857940673828125
1789040128198216700,4.882216796875,0.3756561279296875,0.3938446044921875,-0.988922119140625
1789040128208160500,4.892160400390625,0.23272705078125,0.2707977294921875,-1.4654083251953125
1789040128218104600,4.9021044921875,0.18560791015625,0.1357269287109375,-1.78759765625
1789040128228047600,4.912047607421875,-0.096588134765625,-0.014190673828125,-2.030975341796875
1789040128237991700,4.92199169921875,0.09051513671875,0.2269134521484375,-1.5229644775390625
1789040128247935500,4.931935546875,0.357330322265625,0.40545654296875,-0.7595367431640625
1789040128257879600,4.941879638671875,0.213592529296875,0.4060821533203125,0.051666259765625
1789040128267823400,4.9518232421875,-0.2075653076171875,0.596832275390625,-1.021636962890625
1789040128277767700,4.961767578125,0.128143310546875,0.228912353515625,-2.1778564453125
1789040128287710700,4.971710693359375,0.1768341064453125,0.2760772705078125,-1.3154144287109375
1789040128297654500,4.981654541015625,0.6230316162109375,0.43829345703125,-0.953460693359375
1789040128307598600,4.9915986328125,0.3843994140625,0.417083740234375,-0.947784423828125
1789040128317542700,5.001542724609375,0.1957244873046875,0.40582275390625,-0.886444091796875
1789040128327486500,5.011486572265625,0.20806884765625,0.3809661865234375,-0.9254302978515625
1789040128337430500,5.021430419921875,0.1844482421875,0.3512115478515625,-0.9360198974609375
1789040128347373600,5.03137353515625,0.0886993408203125,0.3485870361328125,-0.8657684326171875
1789040128357317600,5.041317626953125,0.0388031005859375,0.3011016845703125,-0.8271942138671875
1789040128367261700,5.05126171875,0.162506103515625,0.3220672607421875,-0.690277099609375
1789040128377205500,5.06120556640625,0.2873382568359375,0.3488922119140625,-0.6670379638671875
1789040128387149600,5.071149658203125,0.2659912109375,0.392608642578125,-0.6375579833984375
1789040128397094000,5.081093994140625,0.199188232421875,0.4298095703125,-0.62420654296875
1789040128407036700,5.09103662109375,0.2135162353515625,0.41864013671875,-0.7042694091796875
1789040128416980700,5.100980712890625,0.3677215576171875,0.416900634765625,-0.8267364501953125
1789040128426925000,5.110925048828125,0.3080902099609375,0.522613525390625,-0.9353485107421875
1789040128436868900,5.120868896484375,0.1127777099609375,0.6114959716796875,-0.8858489990234375
1789040128446813000,5.13081298828125,0.02569580078125,0.6320953369140625,-0.90142822265625
1789040128456756000,5.140755859375,0.144500732421875,0.5644989013671875,-0.9177093505859375
1789040128466699800,5.15069970703125,0.3146514892578125,0.542449951171875,-1.002197265625
1789040128476643800,5.160643798828125,0.4729766845703125,0.634918212890625,-0.9614715576171875
1789040128486587600,5.170587646484375,0.534088134765625,0.6782989501953125,-1.13494873046875
1789040128496532000,5.180531982421875,0.4617767333984375,0.5678863525390625,-1.095428466796875
1789040128506476000,5.19047607421875,0.54071044921875,0.71337890625,-1.0814208984375
1789040128516418800,5.200418701171875,0.414337158203125,0.709747314453125,-1.0934295654296875
1789040128526363000,5.21036279296875,0.2386932373046875,0.6753997802734375,-1.0496063232421875
1789040128536307000,5.220306884765625,0.2061767578125,0.7040863037109375,-0.9560089111328125
1789040128546250800,5.230250732421875,0.2205352783203125,0.701995849609375,-0.8498077392578125
1789040128556194800,5.24019482421875,0.15765380859375,0.6024932861328125,-0.731719970703125
1789040128566138600,5.250138671875,0.3062896728515625,0.4938201904296875,-0.6103363037109375
1789040128576081700,5.26008154296875,0.3574981689453125,0.69158935546875,-0.4043121337890625
1789040128586026000,5.27002587890625,0.3609619140625,0.8283538818359375,-0.0603790283203125
1789040128595969800,5.2799697265625,0.19158935546875,0.77703857421875,0.352935791015625
1789040128605913900,5.289913818359375,-0.14019775390625,0.5864410400390625,-0.126708984375
1789040128615858000,5.29985791015625,-0.152496337890625,0.0707855224609375,-1.2121124267578125
1789040128625801700,5.3098017578125,0.373626708984375,0.09521484375,-0.855712890625
1789040128635744800,5.319744873046875,-0.1233062744140625,0.383544921875,0.122589111328125
1789040128645688800,5.329688720703125,0.0026702880859375,0.6792449951171875,-0.142974853515625
1789040128655633000,5.3396328125,0.9796295166015625,-0.5193328857421875,-2.65679931640625
1789040128665577000,5.349576904296875,0.543609619140625,-0.444091796875,-2.060546875
1789040128675521000,5.35952099609375,0.34417724609375,0.098876953125,-1.331817626953125
1789040128685464800,5.36946484375,0.22723388671875,0.0300750732421875,-0.7132110595703125
1789040128695407900,5.379407958984375,0.2198333740234375,0.07293701171875,-0.81903076171875
1789040128705352000,5.38935205078125,0.0849609375,0.26373291015625,-0.80291748046875
1789040128715295700,5.399295654296875,0.1105194091796875,0.4223480224609375,-0.8139801025390625
1789040128725239800,5.40923974609375,0.0749053955078125,0.4322357177734375,-0.7450408935546875
1789040128735184000,5.419183837890625,0.186248779296875,0.5491790771484375,-0.494598388671875
1789040128745128000,5.4291279296875,0.1929779052734375,0.8028106689453125,-0.43109130859375
1789040128755071000,5.439071044921875,0.2283477783203125,0.90545654296875,-0.4775848388671875
1789040128765014800,5.449014892578125,0.2032470703125,0.912841796875,-0.5175933837890625
1789040128774958800,5.458958740234375,0.10107421875,1.0423736572265625,-0.6615142822265625
1789040128784903000,5.46890283203125,0.1154327392578125,1.0911865234375,-0.7500457763671875
1789040128794846700,5.4788466796875,0.1801300048828125,0.83447265625,-0.8026885986328125
1789040128804789800,5.488789794921875,0.24188232421875,0.7006072998046875,-0.781219482421875
1789040128814733800,5.49873388671875,0.236785888671875,0.7661895751953125,-0.7667236328125
1789040128824678000,5.508677978515625,0.282958984375,0.7741851806640625,-0.7907257080078125
1789040128834622000,5.5186220703125,0.4583587646484375,0.6540985107421875,-1.11749267578125
1789040128844565800,5.528565673828125,0.3730316162109375,0.458160400390625,-1.23626708984375
1789040128854509800,5.538509765625,0.160125732421875,0.136138916015625,-1.2996673583984375
1789040128864452900,5.548452880859375,0.3987274169921875,0.4400787353515625,-1.2124481201171875
1789040128874397000,5.55839697265625,0.1799774169921875,0.6519012451171875,-0.5074462890625
1789040128884340700,5.5683408203125,0.16387939453125,0.385223388671875,-1.5796966552734375
1789040128894285000,5.57828515625,0.8036956787109375,0.5059356689453125,-1.3706207275390625
1789040128904228900,5.588228759765625,0.263946533203125,0.70367431640625,0.11663818359375
1789040128914173000,5.5981728515625,0.3071746826171875,0.3227386474609375,-0.1310882568359375
1789040128924116000,5.608115966796875,0.383636474609375,0.333465576171875,-0.4103546142578125
1789040128934059800,5.618059814453125,0.48779296875,0.55902099609375,-0.6238250732421875
1789040128944003800,5.62800390625,0.4485626220703125,0.455474853515625,-0.711334228515625
1789040128953948000,5.637947998046875,0.576171875,0.2513580322265625,-0.717803955078125
1789040128963891700,5.6478916015625,0.6622161865234375,0.1031646728515625,-0.7763671875
1789040128973834800,5.657834716796875,0.5948486328125,0.0220947265625,-1.0357666015625
1789040128983779000,5.667779052734375,0.4975128173828125,0.1092376708984375,-1.162872314453125
1789040128993723000,5.677722900390625,0.5797119140625,0.2929229736328125,-1.07794189453125
1789040129003667000,5.6876669921875,0.6333465576171875,0.368927001953125,-0.9521636962890625
1789040129013610800,5.69761083984375,0.6199493408203125,0.368011474609375,-0.8858184814453125
1789040129023554800,5.707554931640625,0.5248260498046875,0.504913330078125,-0.8755645751953125
1789040129033497900,5.717497802734375,0.4172210693359375,0.52044677734375,-0.8913116455078125
1789040129043441700,5.727441650390625,0.442779541015625,0.6471405029296875,-0.99200439453125
1789040129053386000,5.737385986328125,0.5887451171875,0.861236572265625,-0.961334228515625
1789040129063330000,5.747330078125,0.690185546875,1.0985870361328125,-0.7932891845703125
1789040129073273900,5.75727392578125,0.64752197265625,1.1072540283203125,-0.7117919921875
1789040129083218000,5.767218017578125,0.3502960205078125,0.604461669921875,-0.6956939697265625
1789040129093161000,5.777160888671875,0.2449188232421875,0.7794647216796875,-0.803009033203125
1789040129103104800,5.787104736328125,0.1073760986328125,0.9419708251953125,-0.59521484375
1789040129113048800,5.797048828125,0.0726165771484375,0.9344482421875,-0.5565185546875
1789040129122992600,5.80699267578125,0.0502166748046875,0.8593902587890625,-0.48785400390625
1789040129132937000,5.81693701171875,0.156890869140625,0.7825775146484375,-0.339630126953125
1789040129142881000,5.826881103515625,0.2067108154296875,0.6905670166015625,-0.2554168701171875
1789040129152823800,5.83682373046875,0.153564453125,0.6046905517578125,-0.306488037109375
1789040129162768000,5.846767822265625,0.1812591552734375,0.4906158447265625,-0.430145263671875
1789040129172712000,5.8567119140625,0.1037445068359375,0.4719085693359375,-0.5995941162109375
1789040129182655700,5.86665576171875,0.127044677734375,0.5517578125,-0.4937744140625
1789040129192599800,5.876599853515625,0.07952880859375,0.3997344970703125,-0.3973236083984375
1789040129202542800,5.88654296875,0.2769012451171875,0.1913909912109375,-0.0276641845703125
1789040129212486700,5.896486572265625,0.42181396484375,-0.50738525390625,0.0658111572265625
1789040129222431000,5.906430908203125,0.2491302490234375,-0.8602294921875,0.042999267578125
1789040129232374800,5.916374755859375,0.1503448486328125,0.0964508056640625,0.076446533203125
1789040129242318800,5.92631884765625,0.1052093505859375,0.2891082763671875,-0.5915679931640625
1789040129252263000,5.936262939453125,0.3348846435546875,1.0511322021484375,-0.5029449462890625
1789040129262206000,5.9462060546875,0.26885986328125,1.590179443359375,-0.83660888671875
1789040129272149800,5.956149658203125,0.3587493896484375,1.3417205810546875,-1.02142333984375
1789040129282093800,5.96609375,0.7372283935546875,-0.056427001953125,-1.002777099609375
1789040129292038000,5.976037841796875,0.49652099609375,-1.1915130615234375,-1.141571044921875
1789040129301982000,5.98598193359375,-0.134735107421875,2.6979217529296875,-0.6489105224609375
1789040129311926000,5.995926025390625,0.761138916015625,1.8087921142578125,-1.1706695556640625
1789040129321868800,6.005868896484375,0.3739776611328125,-1.624786376953125,-1.896240234375
1789040129331812900,6.015812744140625,0.2118988037109375,0.2179718017578125,-1.21533203125
1789040129341757000,6.0257568359375,0.8355255126953125,2.2436370849609375,-0.3045501708984375
1789040129351700700,6.03570068359375,0.519134521484375,2.0110321044921875,-0.6768951416015625
1789040129361644800,6.045644775390625,0.471160888671875,1.321258544921875,-1.1519775390625
1789040129371587800,6.055587890625,0.3260040283203125,0.9225921630859375,-1.33905029296875
1789040129381532000,6.065531982421875,0.2272186279296875,1.038238525390625,-1.4470367431640625
1789040129391476000,6.07547607421875,0.210479736328125,0.917236328125,-1.325225830078125
1789040129401419300,6.085419189453125,0.3856658935546875,0.516937255859375,-1.0005035400390625
1789040129411363000,6.095363037109375,0.35296630859375,0.496490478515625,-0.8553924560546875
1789040129421307100,6.10530712890625,0.2185516357421875,0.3349761962890625,-0.9575347900390625
1789040129431250200,6.115250244140625,0.247894287109375,0.1164093017578125,-0.9962005615234375
1789040129441194000,6.125194091796875,0.3232269287109375,0.1640167236328125,-0.95587158203125
1789040129451138000,6.135137939453125,0.3352813720703125,0.245941162109375,-0.8368072509765625
1789040129461081900,6.145081787109375,0.358734130859375,-0.1691131591796875,-0.4266510009765625
1789040129471026200,6.155026123046875,0.3965301513671875,-0.178680419921875,-0.191986083984375
1789040129480970200,6.16497021484375,0.59063720703125,-1.874908447265625,1.130340576171875
1789040129490913300,6.174913330078125,0.30889892578125,-1.962982177734375,1.2907257080078125
1789040129500857000,6.184857177734375,0.9326934814453125,2.1921539306640625,-0.538177490234375
1789040129510801200,6.19480126953125,0.3478546142578125,2.8115997314453125,-0.933807373046875
1789040129520745000,6.204744873046875,-0.557037353515625,2.293121337890625,-1.00225830078125
1789040129530689000,6.21468896484375,0.1267852783203125,2.0492095947265625,-0.7824554443359375
1789040129540632000,6.224632080078125,0.1136322021484375,1.0053558349609375,-0.2042083740234375
1789040129550575900,6.234575927734375,-0.0869140625,0.5783843994140625,-0.299896240234375
1789040129560520200,6.244520263671875,-0.3942108154296875,0.481689453125,-0.8807830810546875
1789040129570464300,6.25446435546875,0.213348388671875,0.1584625244140625,-1.1539459228515625
1789040129580408000,6.264407958984375,1.3815155029296875,-0.0379791259765625,-1.1147308349609375
1789040129590352100,6.27435205078125,0.8886871337890625,0.6728668212890625,-0.903564453125
1789040129600295200,6.284295166015625,-0.131561279296875,0.9529266357421875,-0.512603759765625
1789040129610239000,6.294239013671875,-0.161712646484375,1.1078338623046875,-0.5091552734375
1789040129620183000,6.30418310546875,0.0194549560546875,1.4464874267578125,-0.6073150634765625
1789040129630126800,6.314126953125,0.1952362060546875,1.843963623046875,-0.56939697265625
1789040129640071200,6.3240712890625,0.2469329833984375,2.03680419921875,-0.5069122314453125
1789040129650014200,6.33401416015625,0.495574951171875,1.501129150390625,-0.3160552978515625
1789040129659958000,6.3439580078125,0.53216552734375,0.8536376953125,-0.1359710693359375
1789040129669902000,6.353902099609375,-0.14239501953125,0.84136962890625,-0.19146728515625
1789040129679846100,6.36384619140625,-0.042938232421875,1.0272369384765625,-0.3905792236328125
1789040129689790000,6.3737900390625,0.2563323974609375,1.122406005859375,-0.2396240234375
1789040129699734000,6.383734130859375,0.3531646728515625,0.934600830078125,-0.121337890625
1789040129709677000,6.393677001953125,0.2245330810546875,0.9550933837890625,-0.192657470703125
1789040129719621000,6.40362109375,-0.1643829345703125,1.3864898681640625,-0.629486083984375
1789040129729565200,6.413565185546875,0.6497802734375,1.096588134765625,-0.5155181884765625
1789040129739509000,6.423509033203125,0.3086700439453125,0.4631805419921875,0.1715240478515625
1789040129749453000,6.433453125,0.0051727294921875,0.53289794921875,-0.152191162109375
1789040129759397000,6.443397216796875,0.1448516845703125,1.1845245361328125,-0.4141082763671875
1789040129769340200,6.453340087890625,0.24951171875,1.1511688232421875,-0.7037506103515625
1789040129779284000,6.463283935546875,0.429718017578125,0.6811981201171875,-0.7545166015625
1789040129789228000,6.47322802734375,0.5930938720703125,1.1519317626953125,-0.4520111083984375
1789040129799172000,6.483172119140625,0.48907470703125,0.7203521728515625,-0.4350738525390625
1789040129809116200,6.4931162109375,0.284454345703125,0.40118408203125,-0.2038421630859375
1789040129819059200,6.50305908203125,0.1433868408203125,0.3173980712890625,-0.0200347900390625
1789040129829003000,6.5130029296875,0.0811920166015625,0.3080902099609375,-0.1136627197265625
1789040129838947000,6.522947021484375,0.080352783203125,0.39141845703125,-0.2831878662109375
1789040129848891100,6.53289111328125,0.145233154296875,0.46319580078125,-0.462860107421875
1789040129858835000,6.5428349609375,0.17822265625,0.3628082275390625,-0.5668792724609375
1789040129868779300,6.552779296875,0.0868072509765625,0.357208251953125,-0.517913818359375
1789040129878722000,6.56272216796875,-0.040252685546875,0.5662078857421875,-0.4279022216796875
1789040129888666000,6.572666015625,-0.0137481689453125,0.794952392578125,-0.4974212646484375
1789040129898610200,6.582610107421875,0.0775146484375,0.9213409423828125,-0.5662841796875
1789040129908554000,6.592553955078125,0.176239013671875,0.90460205078125,-0.6411590576171875
1789040129918498000,6.602498046875,0.2868499755859375,0.9448699951171875,-0.7826385498046875
1789040129928441000,6.612441162109375,0.2806396484375,1.0715789794921875,-0.89422607421875
1789040129938385000,6.622385009765625,0.1624908447265625,1.07403564453125,-0.90692138671875
1789040129948329000,6.632328857421875,0.1324310302734375,1.0260009765625,-0.923309326171875
1789040129958273300,6.642273193359375,0.16436767578125,0.9867706298828125,-0.905303955078125
1789040129968217000,6.652217041015625,0.2144622802734375,0.970550537109375,-0.8087921142578125
1789040129978161200,6.6621611328125,0.2371673583984375,1.0362548828125,-0.5774993896484375
1789040129988104200,6.672104248046875,0.245086669921875,1.0644989013671875,-0.4235076904296875
1789040129998048000,6.682048095703125,0.19012451171875,1.0276336669921875,-0.5351715087890625
1789040130007992000,6.691991943359375,0.21502685546875,0.9747161865234375,-0.676300048828125
1789040130017936000,6.701935791015625,0.0668182373046875,0.978973388671875,-0.5961456298828125
1789040130027880000,6.7118798828125,0.0270843505859375,1.042724609375,-0.48565673828125
1789040130037824300,6.72182421875,0.0536651611328125,1.069427490234375,-0.3558502197265625
1789040130047767000,6.73176708984375,0.3072967529296875,1.0389556884765625,-0.3547515869140625
1789040130057711000,6.741711181640625,0.2142333984375,1.0072021484375,-0.344482421875
1789040130067655200,6.7516552734375,0.24456787109375,1.0373687744140625,-0.3177642822265625
1789040130077599000,6.761598876953125,0.4686279296875,1.073638916015625,-0.489715576171875
1789040130087543000,6.77154296875,0.42156982421875,1.12451171875,-0.739227294921875
1789040130097486000,6.781486083984375,0.0373077392578125,1.1107025146484375,-0.508026123046875
1789040130107430000,6.791429931640625,-0.1192779541015625,0.9681854248046875,-0.1168975830078125
1789040130117374200,6.801374267578125,0.2100830078125,0.861419677734375,-0.1968994140625
1789040130127318000,6.811318115234375,0.346588134765625,0.850982666015625,-0.329803466796875
1789040130137262000,6.821261962890625,0.2462921142578125,0.8725738525390625,-0.3436279296875
1789040130147206100,6.8312060546875,0.15289306640625,0.898895263671875,-0.2937469482421875
1789040130157149200,6.841149169921875,-0.0030517578125,0.8675384521484375,-0.17425537109375
1789040130167093000,6.851093017578125,-0.092742919921875,0.9855194091796875,-0.0809783935546875
1789040130177037000,6.861037109375,0.0980987548828125,1.065643310546875,-0.2587432861328125
1789040130186980900,6.87098095703125,0.0702972412109375,1.0335540771484375,-0.3957366943359375
1789040130196925200,6.88092529296875,0.0721588134765625,0.944793701171875,-0.412872314453125
1789040130206868200,6.8908681640625,-0.0469512939453125,0.8831634521484375,-0.2878875732421875
1789040130216812000,6.90081201171875,-0.07928466796875,0.862579345703125,-0.1521453857421875
1789040130226756000,6.910756103515625,-0.0107421875,0.933807373046875,-0.0957183837890625
1789040130236700200,6.9207001953125,0.07269287109375,0.9700927734375,-0.0959014892578125
1789040130246644000,6.93064404296875,0.088287353515625,0.9380340576171875,-0.1501312255859375
1789040130256588000,6.940588134765625,0.11846923828125,0.906768798828125,-0.192596435546875
1789040130266531000,6.950531005859375,0.095428466796875,0.9332427978515625,-0.166595458984375
1789040130276475000,6.960474853515625,0.04595947265625,0.983612060546875,-0.152435302734375
1789040130286419200,6.970419189453125,0.0699615478515625,0.9522247314453125,-0.2462921142578125
1789040130296363000,6.980363037109375,0.305511474609375,0.762969970703125,-0.3485565185546875
1789040130306307000,6.99030712890625,0.363800048828125,0.6794891357421875,-0.35845947265625
1789040130316250000,7.00025,0.26605224609375,0.6950225830078125,-0.2585601806640625
1789040130326194000,7.01019384765625,0.1199951171875,0.68896484375,-0.1601104736328125
1789040130336138000,7.020137939453125,0.04473876953125,0.6882781982421875,-0.1417083740234375
1789040130346082000,7.03008203125,0.09503173828125,0.790374755859375,-0.20098876953125
1789040130356026000,7.040026123046875,0.21978759765625,0.88446044921875,-0.3765411376953125
1789040130365970200,7.04997021484375,0.2872161865234375,0.8700103759765625,-0.465118408203125
1789040130375913200,7.059913330078125,0.2433013916015625,0.832122802734375,-0.439422607421875
1789040130385857000,7.06985693359375,0.100311279296875,0.845672607421875,-0.4954986572265625
1789040130395801000,7.079801025390625,0.104949951171875,0.9282073974609375,-0.7507476806640625
1789040130405745400,7.089745361328125,0.33721923828125,1.05767822265625,-0.9701080322265625
1789040130415689500,7.099689453125,0.38165283203125,1.183929443359375,-0.998016357421875
1789040130425632500,7.109632568359375,0.244232177734375,1.1772613525390625,-0.8404998779296875
1789040130435576600,7.11957666015625,0.190704345703125,1.089324951171875,-0.7436370849609375
1789040130445520600,7.129520751953125,0.244384765625,1.1433258056640625,-0.8105621337890625
1789040130455464700,7.139464599609375,0.3126678466796875,1.2848052978515625,-0.888092041015625
1789040130465408500,7.149408447265625,0.225128173828125,1.3474884033203125,-0.7554473876953125
1789040130475352600,7.1593525390625,0.26422119140625,1.28271484375,-0.571380615234375
1789040130485295600,7.169295654296875,0.2848358154296875,1.2346649169921875,-0.511505126953125
1789040130495239400,7.179239501953125,0.2962646484375,1.149871826171875,-0.4676971435546875
1789040130505183500,7.18918359375,0.200225830078125,1.17071533203125,-0.536041259765625
1789040130515127600,7.19912744140625,0.1021270751953125,1.1891021728515625,-0.642303466796875
1789040130525071600,7.209071533203125,0.031585693359375,1.0796356201171875,-0.623626708984375
1789040130535014700,7.2190146484375,-0.025787353515625,0.9114837646484375,-0.4286041259765625
1789040130544958500,7.22895849609375,0.26715087890625,0.68927001953125,-0.1136474609375
1789040130554902500,7.238902587890625,0.304046630859375,0.95599365234375,-0.134765625
1789040130564846600,7.2488466796875,0.2280731201171875,0.994720458984375,-0.4859161376953125
1789040130574790400,7.258790283203125,0.1857757568359375,0.6905059814453125,-0.224761962890625
1789040130584734700,7.268734619140625,0.06378173828125,0.5170135498046875,-0.1409149169921875
1789040130594677800,7.278677734375,0.0121307373046875,0.5733795166015625,-0.262298583984375
1789040130604621600,7.28862158203125,0.03643798828125,0.7377166748046875,-0.312255859375
1789040130614565600,7.298565673828125,0.18212890625,0.8727264404296875,-0.482147216796875
1789040130624509700,7.308509765625,0.24737548828125,0.854736328125,-0.4280242919921875
1789040130634453500,7.31845361328125,0.1699066162109375,0.726806640625,-0.220428466796875
1789040130644396500,7.328396484375,0.0362548828125,0.60565185546875,-0.106658935546875
1789040130654340600,7.338340576171875,0.066650390625,0.6309356689453125,-0.0925445556640625
1789040130664284400,7.348284423828125,0.142333984375,0.6988983154296875,-0.1014556884765625
1789040130674228700,7.358228759765625,0.19622802734375,0.7149658203125,-0.1456451416015625
1789040130684172500,7.368172607421875,0.2613372802734375,0.5649261474609375,-0.223541259765625
1789040130694116600,7.37811669921875,0.14581298828125,0.4915618896484375,-0.2111053466796875
1789040130704059600,7.3880595703125,0.1386566162109375,0.5795440673828125,-0.3294677734375
1789040130714003500,7.39800341796875,0.1329803466796875,0.7506103515625,-0.443817138671875
1789040130723947500,7.407947509765625,0.218505859375,0.7100372314453125,-0.4809722900390625
1789040130733891600,7.4178916015625,0.26055908203125,0.6659393310546875,-0.45233154296875
1789040130743835600,7.427835693359375,0.30517578125,0.6378631591796875,-0.4435577392578125
1789040130753778400,7.4377783203125,0.27105712890625,0.7004241943359375,-0.4962921142578125
1789040130763722800,7.44772265625,0.1830291748046875,0.7573089599609375,-0.468536376953125
1789040130773666600,7.45766650390625,0.1425933837890625,0.804229736328125,-0.49755859375
1789040130783610600,7.467610595703125,0.1375885009765625,0.7754974365234375,-0.447509765625
1789040130793554400,7.477554443359375,0.1251678466796875,0.8115692138671875,-0.525909423828125
1789040130803498500,7.48749853515625,0.1896209716796875,0.7971954345703125,-0.558563232421875
1789040130813441500,7.497441650390625,0.31097412109375,0.7906951904296875,-0.511993408203125
1789040130823385600,7.507385498046875,0.350555419921875,0.823333740234375,-0.4849395751953125
1789040130833329700,7.51732958984375,0.2553558349609375,0.86541748046875,-0.419036865234375
1789040130843273700,7.527273681640625,0.1366119384765625,0.8585052490234375,-0.4396514892578125
1789040130853217500,7.537217529296875,0.10028076171875,0.8665618896484375,-0.425933837890625
1789040130863160600,7.54716064453125,0.30780029296875,0.8288726806640625,-0.4892730712890625
1789040130873104600,7.557104736328125,0.4273529052734375,0.7964324951171875,-0.51324462890625
1789040130883048400,7.56704833984375,0.28582763671875,0.803436279296875,-0.4945831298828125
1789040130892992500,7.576992431640625,0.1393890380859375,0.811370849609375,-0.4834136962890625
1789040130902936600,7.5869365234375,0.2255401611328125,0.7808685302734375,-0.50726318359375
1789040130912880600,7.596880615234375,0.363677978515625,0.7774810791015625,-0.5388031005859375
1789040130922823700,7.60682373046875,0.3067779541015625,0.76019287109375,-0.5804443359375
1789040130932767700,7.616767822265625,0.1113433837890625,0.7259979248046875,-0.5757598876953125
1789040130942711600,7.626711669921875,0.20294189453125,0.7188568115234375,-0.5548553466796875
1789040130952655600,7.636655517578125,0.3975830078125,0.809906005859375,-0.5399932861328125
1789040130962599400,7.646599365234375,0.3709869384765625,0.902252197265625,-0.524383544921875
1789040130972542500,7.65654248046875,0.14422607421875,0.9992218017578125,-0.4981231689453125
1789040130982486500,7.666486572265625,0.2814483642578125,1.0208282470703125,-0.486236572265625
1789040130992430600,7.6764306640625,0.3103179931640625,1.033447265625,-0.4051055908203125
1789040131002374700,7.686374755859375,0.129302978515625,1.0061187744140625,-0.293731689453125
1789040131012318700,7.696318603515625,0.2006988525390625,1.063262939453125,-0.2986907958984375
1789040131022262500,7.706262451171875,0.2958984375,1.102203369140625,-0.4158935546875
1789040131032205600,7.71620556640625,0.396209716796875,0.8509368896484375,-0.500946044921875
1789040131042149600,7.726149658203125,0.2985687255859375,0.8628692626953125,-0.3758087158203125
1789040131052093400,7.736093505859375,0.1702880859375,1.0706939697265625,-0.130462646484375
1789040131062037500,7.74603759765625,0.32415771484375,1.1736297607421875,-0.1392669677734375
1789040131071981600,7.755981689453125,0.369903564453125,1.2162322998046875,-0.3290252685546875
1789040131081924600,7.765924560546875,0.237060546875,1.31396484375,-0.5042877197265625
1789040131091868700,7.77586865234375,0.0294189453125,1.2501678466796875,-0.518707275390625
1789040131101812500,7.7858125,-0.009674072265625,1.133270263671875,-0.3531341552734375
1789040131111756500,7.795756591796875,0.135711669921875,1.05987548828125,-0.2310943603515625
1789040131121700600,7.80570068359375,0.249847412109375,1.068450927734375,-0.2789459228515625
1789040131131643600,7.8156435546875,0.1006011962890625,1.069610595703125,-0.243011474609375
1789040131141587500,7.82558740234375,0.0539703369140625,0.9663848876953125,-0.11151123046875
1789040131151531500,7.835531494140625,0.22119140625,0.8809814453125,-0.2178955078125
1789040131161475600,7.8454755859375,0.3733062744140625,0.8273468017578125,-0.4572601318359375
1789040131171419600,7.855419677734375,0.222198486328125,0.90777587890625,-0.391510009765625
1789040131181363500,7.865363525390625,-0.0359649658203125,0.9256439208984375,-0.141448974609375
1789040131191306500,7.875306396484375,-0.076507568359375,0.963775634765625,0.0485382080078125
1789040131201250600,7.88525048828125,0.208770751953125,0.9976043701171875,-0.15411376953125
1789040131211194600,7.895194580078125,0.3418731689453125,1.0044097900390625,-0.302947998046875
1789040131221138400,7.905138427734375,0.2004547119140625,1.016632080078125,-0.14837646484375
1789040131231082800,7.915082763671875,0.0196533203125,1.0494842529296875,-0.040985107421875
1789040131241025800,7.92502587890625,-0.1680908203125,1.09405517578125,0.0407562255859375
1789040131250969600,7.934969482421875,-0.0783233642578125,1.0568389892578125,0.0246124267578125
1789040131260913700,7.94491357421875,0.13861083984375,0.872161865234375,-0.1344146728515625
1789040131270857500,7.954857421875,0.343048095703125,0.7457122802734375,-0.2445068359375
1789040131280801500,7.964801513671875,0.290618896484375,0.771209716796875,-0.221527099609375
1789040131290745600,7.97474560546875,0.15069580078125,0.8593292236328125,-0.227691650390625
1789040131300688400,7.9846884765625,0.0325927734375,0.9388427734375,-0.2931060791015625
1789040131310632400,7.994632568359375,0.22259521484375,0.9563751220703125,-0.4922943115234375
1789040131320576800,8.00457666015625,0.3283538818359375,0.988311767578125,-0.5181732177734375
1789040131330520600,8.0145205078125,0.14727783203125,1.054656982421875,-0.36614990234375
1789040131340464600,8.024464599609376,-0.0579833984375,1.06378173828125,-0.2267608642578125
1789040131350407700,8.03440771484375,0.2558441162109375,0.98626708984375,-0.4552154541015625
1789040131360351500,8.0443515625,0.673126220703125,0.99114990234375,-0.72467041015625
1789040131370295600,8.054295654296874,0.6197357177734375,1.019134521484375,-0.8237762451171875
1789040131380239400,8.0642392578125,0.0182342529296875,0.9324798583984375,-0.717987060546875
1789040131390183700,8.07418359375,-0.4352264404296875,0.8187255859375,-0.6598968505859375
1789040131400128000,8.0841279296875,-0.05706787109375,0.6360321044921875,-0.823516845703125
1789040131410070800,8.09407080078125,0.4727325439453125,0.6108245849609375,-0.889923095703125
1789040131420014800,8.104014892578125,0.562957763671875,0.78668212890625,-0.7759552001953125
1789040131429959000,8.113958984375,0.3523406982421875,0.8764190673828125,-0.6985321044921875
1789040131439902700,8.12390283203125,0.140350341796875,0.8605804443359375,-0.623809814453125
1789040131449846800,8.1338466796875,0.10552978515625,0.9235687255859375,-0.531951904296875
1789040131459789800,8.143789794921876,0.288848876953125,1.0273590087890625,-0.6100006103515625
1789040131469733600,8.153733642578125,0.35723876953125,1.150146484375,-0.689666748046875
1789040131479678000,8.163677978515626,0.2741546630859375,1.1841888427734375,-0.6383514404296875
1789040131489621800,8.173621826171875,0.188201904296875,1.143310546875,-0.4883270263671875
1789040131499565800,8.18356591796875,0.1739349365234375,1.0831146240234375,-0.3336944580078125
1789040131509510000,8.193510009765625,0.275482177734375,0.8822784423828125,-0.2546234130859375
1789040131519453000,8.203452880859375,0.3420867919921875,0.61083984375,-0.2489013671875
1789040131529396700,8.213396728515624,0.3194732666015625,0.5452117919921875,-0.35931396484375
1789040131539340800,8.2233408203125,0.202850341796875,0.83941650390625,-0.506439208984375
1789040131549284900,8.233284912109376,0.140625,1.04364013671875,-0.5780029296875
1789040131559229000,8.24322900390625,0.155731201171875,1.120452880859375,-0.7562255859375
1789040131569172000,8.253171875,0.2658843994140625,1.120086669921875,-0.8837890625
1789040131579115800,8.26311572265625,0.2701873779296875,1.1414947509765625,-0.6454010009765625
1789040131589059800,8.273059814453125,0.2396240234375,1.174835205078125,-0.3334503173828125
1789040131599004000,8.28300390625,0.3258056640625,1.203887939453125,-0.245574951171875
1789040131608947700,8.29294775390625,0.310089111328125,1.189239501953125,-0.239715576171875
1789040131618891800,8.302891845703124,0.166412353515625,1.088775634765625,-0.3656768798828125
1789040131628834800,8.312834716796875,0.184906005859375,0.9880523681640625,-0.474395751953125
1789040131638779000,8.32277880859375,0.326690673828125,0.7806243896484375,-0.388214111328125
1789040131648723000,8.332722900390625,0.3132476806640625,0.4962921142578125,-0.0997314453125
1789040131658666800,8.342666748046875,0.1610107421875,0.4638214111328125,0.2386474609375
1789040131668610800,8.35261083984375,0.201080322265625,0.440887451171875,0.068023681640625
1789040131678553900,8.362553955078125,0.2225799560546875,0.4325408935546875,-0.2676239013671875
1789040131688497700,8.37249755859375,0.2122650146484375,0.3967437744140625,-0.357574462890625
1789040131698441700,8.382441650390625,0.1671600341796875,0.3851318359375,-0.2706756591796875
1789040131708385800,8.3923857421875,0.077880859375,0.43218994140625,-0.2044830322265625
1789040131718329900,8.402329833984375,0.1757049560546875,0.4967193603515625,-0.28558349609375
1789040131728273000,8.41227294921875,0.2272796630859375,0.5548095703125,-0.2160491943359375
1789040131738217000,8.422217041015625,0.3102874755859375,0.4712677001953125,-0.285919189453125
1789040131748160800,8.432160888671875,0.27935791015625,0.494110107421875,-0.4050445556640625
1789040131758104800,8.442104736328124,0.2505340576171875,0.63262939453125,-0.50067138671875
1789040131768048600,8.452048583984375,0.2784271240234375,0.7757415771484375,-0.4154052734375
1789040131777992700,8.46199267578125,0.3648529052734375,0.8468170166015625,-0.4944610595703125
1789040131787935700,8.471935791015625,0.3186492919921875,0.84344482421875,-0.5373077392578125
1789040131797879800,8.4818798828125,0.2820281982421875,0.796112060546875,-0.5652313232421875
1789040131807824000,8.491823974609375,0.26434326171875,0.745697021484375,-0.5439453125
1789040131817768000,8.501767822265625,0.277099609375,0.7181549072265625,-0.483245849609375
1789040131827711700,8.511711669921874,0.2977142333984375,0.6938629150390625,-0.47210693359375
1789040131837654800,8.52165478515625,0.283538818359375,0.7154998779296875,-0.4248046875
1789040131847598800,8.531598876953124,0.1834869384765625,0.7716217041015625,-0.379547119140625
1789040131857542700,8.541542724609375,0.1961517333984375,0.81439208984375,-0.3900604248046875
1789040131867486700,8.55148681640625,0.2761993408203125,0.8557891845703125,-0.456024169921875
1789040131877431000,8.56143115234375,0.22833251953125,0.89495849609375,-0.4730377197265625
1789040131887373800,8.571373779296875,0.16802978515625,0.88330078125,-0.436981201171875
1789040131897318000,8.58131787109375,0.2762908935546875,0.819976806640625,-0.4310150146484375
1789040131907262000,8.591261962890625,0.33563232421875,0.71563720703125,-0.3849029541015625
1789040131917205800,8.601205810546874,0.428680419921875,0.6376800537109375,-0.460601806640625
1789040131927149800,8.61114990234375,0.3459320068359375,0.629486083984375,-0.57073974609375
1789040131937093600,8.62109375,0.20965576171875,0.721221923828125,-0.578460693359375
1789040131947036700,8.63103662109375,0.2450714111328125,0.8349761962890625,-0.572174072265625
1789040131956980700,8.640980712890626,0.4003753662109375,0.9418487548828125,-0.573577880859375
1789040131966924800,8.6509248046875,0.4730987548828125,1.0313873291015625,-0.5987548828125
1789040131976868900,8.660868896484375,0.31976318359375,1.160888671875,-0.5004119873046875
1789040131986813000,8.67081298828125,0.147430419921875,1.2026519775390625,-0.389068603515625
1789040131996755700,8.680755615234375,0.1570892333984375,1.1160430908203125,-0.313385009765625
1789040132006699800,8.69069970703125,0.2689208984375,1.0105438232421875,-0.3046112060546875
1789040132016643800,8.700643798828125,0.3248291015625,0.9458160400390625,-0.350738525390625
1789040132026587600,8.710587646484376,0.08966064453125,0.9169464111328125,-0.29998779296875
1789040132036532000,8.720531982421875,0.1359405517578125,0.9432525634765625,-0.2852783203125
1789040132046475800,8.730475830078126,0.1237945556640625,1.006011962890625,-0.26519775390625
1789040132056418800,8.740418701171874,0.2498016357421875,1.061859130859375,-0.2890472412109375
1789040132066363000,8.75036279296875,0.2861480712890625,1.1015472412109375,-0.29510498046875
1789040132076307000,8.760306884765624,0.17816162109375,1.12921142578125,-0.3009796142578125
1789040132086250800,8.770250732421875,0.130706787109375,1.1529083251953125,-0.3461456298828125
1789040132096194800,8.78019482421875,0.3793792724609375,1.183197021484375,-0.5654296875
1789040132106137900,8.790137939453125,0.1149749755859375,1.3202056884765625,-0.4305877685546875
1789040132116081700,8.80008154296875,-0.0743560791015625,1.3927001953125,-0.0180206298828125
1789040132126026000,8.81002587890625,0.154510498046875,1.354248046875,0.1081085205078125
1789040132135969800,8.8199697265625,0.5503997802734375,1.260650634765625,-0.2303466796875
1789040132145913900,8.829913818359374,0.48876953125,1.2682342529296875,-0.50811767578125
1789040132155858000,8.83985791015625,0.03662109375,1.225067138671875,-0.3804168701171875
1789040132165800700,8.84980078125,-0.21697998046875,1.1162109375,-0.1164398193359375
1789040132175744800,8.859744873046875,0.15618896484375,1.0077667236328125,-0.3461151123046875
1789040132185688800,8.869688720703126,0.2865753173828125,0.9893798828125,-0.49456787109375
1789040132195633000,8.8796328125,0.2457122802734375,0.977081298828125,-0.41925048828125
1789040132205577000,8.889576904296876,0.166351318359375,0.934539794921875,-0.2140045166015625
1789040132215520000,8.89952001953125,0.192352294921875,0.9126739501953125,-0.161224365234375
1789040132225463800,8.9094638671875,0.150909423828125,0.9017333984375,-0.15362548828125
1789040132235408000,8.919407958984374,0.077850341796875,0.9121856689453125,-0.1168975830078125
1789040132245351700,8.9293515625,0.0464630126953125,0.864013671875,-0.111358642578125
1789040132255295700,8.939295654296876,0.2038421630859375,0.7725982666015625,-0.174407958984375
1789040132265239800,8.94923974609375,0.1874237060546875,0.7805633544921875,-0.100799560546875
1789040132275182800,8.959182861328125,0.137420654296875,0.8232269287109375,-0.022735595703125
1789040132285127000,8.969126953125,0.104461669921875,0.7928314208984375,-0.063018798828125
1789040132295071000,8.979071044921875,0.1035003662109375,0.7598876953125,-0.111846923828125
1789040132305014800,8.989014892578124,0.2624053955078125,0.772369384765625,-0.244720458984375
1789040132314958800,8.998958740234375,0.391204833984375,0.8537139892578125,-0.363616943359375
1789040132324902000,9.00890185546875,0.274658203125,0.947357177734375,-0.359619140625
1789040132334845700,9.018845703125,0.168243408203125,1.056060791015625,-0.408416748046875
1789040132344789800,9.028789794921876,0.418548583984375,1.172027587890625,-0.6436614990234375
1789040132354733800,9.03873388671875,0.4540863037109375,1.2749786376953125,-0.7492523193359375
1789040132364678000,9.048677978515625,0.2057647705078125,1.275848388671875,-0.7130279541015625
1789040132374622000,9.0586220703125,0.118621826171875,1.160919189453125,-0.8236541748046875
1789040132384565000,9.06856494140625,0.1949615478515625,1.0968780517578125,-0.9090728759765625
1789040132394508800,9.0785087890625,0.162506103515625,1.053497314453125,-0.883941650390625
1789040132404453000,9.088453125,0.03253173828125,1.00555419921875,-0.807220458984375
1789040132414397000,9.09839697265625,0.0083770751953125,0.95538330078125,-0.704132080078125
1789040132424341200,9.10834130859375,0.163970947265625,0.8568267822265625,-0.636444091796875
1789040132434284300,9.1182841796875,0.3049468994140625,0.75750732421875,-0.5088653564453125
1789040132444228000,9.12822802734375,0.22784423828125,0.7564544677734375,-0.34393310546875
1789040132454172200,9.138172119140625,0.18914794921875,0.76104736328125,-0.306488037109375
1789040132464116200,9.1481162109375,0.1345367431640625,0.7628631591796875,-0.2859039306640625
1789040132474060000,9.15806005859375,-0.0030517578125,0.7816925048828125,-0.212158203125
1789040132484004000,9.168004150390624,-0.0294036865234375,0.8189544677734375,-0.15667724609375
1789040132493947100,9.177947021484375,0.1672821044921875,0.769622802734375,-0.2079925537109375
1789040132503891000,9.187890869140626,0.259033203125,0.693267822265625,-0.25946044921875
1789040132513835300,9.197835205078125,0.195404052734375,0.6917877197265625,-0.1867218017578125
1789040132523779000,9.207779052734375,0.082794189453125,0.714080810546875,-0.1253814697265625
1789040132533723100,9.21772314453125,0.049896240234375,0.7759246826171875,-0.04443359375
1789040132543666200,9.227666259765625,0.275177001953125,0.8101348876953125,-0.152008056640625
1789040132553610000,9.23760986328125,0.4843597412109375,0.7647247314453125,-0.3287811279296875
1789040132563554000,9.247553955078125,0.374725341796875,0.7515716552734375,-0.463134765625
1789040132573498000,9.257498046875,0.1868438720703125,0.86773681640625,-0.622894287109375
1789040132583442200,9.267442138671875,0.135223388671875,0.997100830078125,-0.7088165283203125
1789040132593385200,9.27738525390625,0.12030029296875,1.03057861328125,-0.7132110595703125
1789040132603329300,9.287329345703125,0.1888580322265625,0.97821044921875,-0.7295989990234375
1789040132613273000,9.297273193359375,0.2424774169921875,0.977386474609375,-0.734588623046875
1789040132623217200,9.307217041015624,0.1720123291015625,0.98724365234375,-0.52154541015625
1789040132633161000,9.317160888671875,0.170684814453125,0.8929595947265625,-0.309539794921875
1789040132643105000,9.32710498046875,0.3268890380859375,0.822784423828125,-0.2151947021484375
1789040132653048000,9.337048095703125,0.3015594482421875,0.7530517578125,-0.23291015625
1789040132662992100,9.3469921875,0.23291015625,0.7244720458984375,-0.4149932861328125
1789040132672936200,9.356936279296875,0.14788818359375,0.6103363037109375,-0.2476043701171875
1789040132682880300,9.36688037109375,0.1493682861328125,0.5221710205078125,-0.1342010498046875
1789040132692824000,9.376823974609374,0.186309814453125,0.666259765625,-0.307769775390625
1789040132702767000,9.38676708984375,0.212982177734375,0.7109222412109375,-0.5243072509765625
1789040132712711200,9.396711181640624,0.2324981689453125,0.5972442626953125,-0.5618133544921875
1789040132722655000,9.406655029296875,0.1843109130859375,0.5203399658203125,-0.4855194091796875
1789040132732599000,9.41659912109375,0.194122314453125,0.41278076171875,-0.3451690673828125
1789040132742543000,9.426543212890625,0.3436126708984375,0.313690185546875,-0.289459228515625
1789040132752487200,9.436487060546876,0.404541015625,0.28350830078125,-0.2874908447265625
1789040132762430200,9.44643017578125,0.3993377685546875,0.4560699462890625,-0.6495361328125
1789040132772374300,9.456374267578125,0.276214599609375,0.6262969970703125,-0.86077880859375
1789040132782318000,9.466318115234374,0.147491455078125,0.6586151123046875,-0.7714691162109375
1789040132792262100,9.47626220703125,0.08868408203125,0.67529296875,-0.56219482421875
1789040132802206000,9.4862060546875,0.16375732421875,0.6861724853515625,-0.4363555908203125
1789040132812149000,9.49614892578125,0.186737060546875,0.6828460693359375,-0.4001312255859375
1789040132822093000,9.506093017578126,0.1958770751953125,0.646148681640625,-0.4835205078125
1789040132832037000,9.516037109375,0.2300567626953125,0.70794677734375,-0.5828704833984375
1789040132841981200,9.525981201171875,0.252532958984375,0.86712646484375,-0.6084442138671875
1789040132851925200,9.53592529296875,0.2080078125,1.0825653076171875,-0.5675506591796875
1789040132861869000,9.545869140625,0.3329315185546875,1.1260223388671875,-0.518829345703125
1789040132871812000,9.55581201171875,0.5784759521484375,1.0571136474609375,-0.5522308349609375
1789040132881756200,9.565756103515625,0.583770751953125,0.9607696533203125,-0.5726318359375
1789040132891700000,9.575699951171876,0.2397613525390625,0.918609619140625,-0.4867401123046875
1789040132901644000,9.58564404296875,-0.0351104736328125,0.9304656982421875,-0.353424072265625
1789040132911588000,9.595588134765626,0.090179443359375,0.8950653076171875,-0.3801422119140625
1789040132921531100,9.60553125,0.4065093994140625,0.8528289794921875,-0.4646759033203125
1789040132931475200,9.61547509765625,0.4485931396484375,0.87591552734375,-0.504852294921875
1789040132941419000,9.6254189453125,0.163848876953125,0.9875030517578125,-0.422332763671875
1789040132951363000,9.635363037109375,0.063018798828125,1.0686798095703125,-0.357330322265625
1789040132961307100,9.64530712890625,0.2889556884765625,1.06768798828125,-0.3717041015625
1789040132971251000,9.6552509765625,0.486053466796875,0.9818878173828125,-0.496063232421875
1789040132981194000,9.665194091796875,0.125732421875,0.938140869140625,-0.4987335205078125
1789040132991138300,9.67513818359375,-0.1274871826171875,0.931427001953125,-0.300384521484375
1789040133001082000,9.68508203125,0.076080322265625,0.8321990966796875,-0.1513214111328125
1789040133011026200,9.695026123046874,0.4803466796875,0.678558349609375,-0.2278289794921875
1789040133020970000,9.704969970703125,0.311798095703125,0.58306884765625,-0.2015380859375
1789040133030914000,9.7149140625,0.0457763671875,0.546417236328125,-0.0690155029296875
1789040133040857000,9.724857177734375,0.0668182373046875,0.5418548583984375,-0.02386474609375
1789040133050801200,9.73480126953125,0.2884368896484375,0.6163482666015625,-0.12725830078125
1789040133060745000,9.744744873046875,0.3032989501953125,0.8201141357421875,-0.336883544921875
1789040133070689300,9.754689208984376,0.0035247802734375,1.097625732421875,-0.44903564453125
1789040133080633000,9.764633056640625,-0.001312255859375,1.275054931640625,-0.4805908203125
1789040133090576100,9.774576171875,0.205841064453125,1.335693359375,-0.416748046875
1789040133100520200,9.784520263671874,0.27398681640625,1.2733612060546875,-0.2635955810546875
1789040133110464000,9.794464111328125,0.172332763671875,1.1772308349609375,-0.1849212646484375
1789040133120408000,9.804407958984376,0.206512451171875,1.0872039794921875,-0.2502899169921875
1789040133130352000,9.81435205078125,0.271240234375,1.0726776123046875,-0.424407958984375
1789040133140296200,9.824296142578126,0.36688232421875,1.1726837158203125,-0.7375335693359375
1789040133150239200,9.8342392578125,0.22027587890625,1.3047027587890625,-0.7572479248046875
1789040133160183300,9.844183349609375,0.168975830078125,1.3438720703125,-0.7098236083984375
1789040133170127000,9.854127197265624,-0.008209228515625,1.2826385498046875,-0.393280029296875
1789040133180071200,9.8640712890625,0.09698486328125,1.2368316650390625,-0.2646331787109375
1789040133190015000,9.874014892578124,0.2206268310546875,1.2145233154296875,-0.311798095703125
1789040133199958000,9.8839580078125,0.35125732421875,1.197296142578125,-0.3870849609375
1789040133209902000,9.893902099609376,0.2079010009765625,1.172119140625,-0.27777099609375
1789040133219846000,9.903845947265625,0.0013427734375,1.135528564453125,-0.0985107421875
1789040133229790200,9.913790283203125,0.0019989013671875,1.083282470703125,-0.067108154296875
1789040133239734300,9.923734375,0.0945281982421875,0.9902801513671875,-0.1417999267578125
1789040133249678000,9.933677978515625,0.1380462646484375,0.9015350341796875,-0.2044677734375
1789040133259621000,9.94362109375,0.1079864501953125,0.8608551025390625,-0.1844940185546875
1789040133269565200,9.953565185546875,-0.0042266845703125,0.8580169677734375,-0.0604705810546875
1789040133279509000,9.963509033203126,0.01654052734375,0.858367919921875,-0.03192138671875
1789040133289453000,9.973453125,0.281951904296875,0.881378173828125,-0.2442626953125
1789040133299396900,9.98339697265625,0.3222198486328125,0.9523468017578125,-0.3651885986328125
1789040133309340000,9.99333984375,0.30712890625,0.987579345703125,-0.4116973876953125
1789040133319284200,10.0032841796875,0.3211822509765625,0.9911651611328125,-0.4243316650390625
1789040133329228300,10.013228271484374,0.1668548583984375,0.96954345703125,-0.29681396484375
1789040133339172000,10.023172119140625,-0.03607177734375,0.9427642822265625,-0.1836395263671875
1789040133349116200,10.0331162109375,-0.007568359375,0.8174285888671875,-0.26507568359375
1789040133359060000,10.04306005859375,0.01116943359375,0.6309356689453125,-0.427703857421875
1789040133369003000,10.0530029296875,0.156005859375,0.532928466796875,-0.49932861328125
1789040133378947000,10.062947021484375,0.176971435546875,0.4893951416015625,-0.487457275390625
1789040133388891100,10.07289111328125,0.13916015625,0.46112060546875,-0.409393310546875
1789040133398835200,10.082835205078124,0.099517822265625,0.43994140625,-0.309539794921875
1789040133408778200,10.0927783203125,0.0450286865234375,0.46209716796875,-0.224334716796875
1789040133418721300,10.10272119140625,-0.02484130859375,0.56341552734375,-0.219940185546875
1789040133428665000,10.1126650390625,0.118255615234375,0.6894683837890625,-0.3822021484375
1789040133438609200,10.122609130859376,0.311614990234375,0.7719573974609375,-0.5521087646484375
1789040133448553000,10.132552978515625,0.334991455078125,0.8545074462890625,-0.543701171875
1789040133458497300,10.142497314453125,0.2589263916015625,0.9710235595703125,-0.4935302734375
1789040133468441300,10.15244140625,0.1850128173828125,1.082916259765625,-0.5354766845703125
1789040133478384400,10.16238427734375,0.2096405029296875,1.16534423828125,-0.71484375
1789040133488328200,10.172328125,0.28717041015625,1.23394775390625,-0.75537109375
1789040133498272300,10.182272216796875,0.28900146484375,1.2252197265625,-0.5568389892578125
1789040133508216000,10.192216064453126,0.270965576171875,1.1918792724609375,-0.3749847412109375
1789040133518160100,10.20216015625,0.2371673583984375,1.2022552490234375,-0.3368682861328125
1789040133528103200,10.212103271484375,0.2695770263671875,1.2507781982421875,-0.4237823486328125
1789040133538047000,10.222046875,0.47406005859375,1.2702484130859375,-0.68780517578125
1789040133547991300,10.2319912109375,0.5203094482421875,1.2029571533203125,-0.747802734375
1789040133557935400,10.241935302734374,0.3455963134765625,1.085113525390625,-0.63739013671875
1789040133567879200,10.251879150390625,0.1410980224609375,0.998992919921875,-0.4266510009765625
1789040133577823200,10.2618232421875,-0.03729248046875,0.9366607666015625,-0.3104400634765625
1789040133587766300,10.271766357421875,-0.1136016845703125,0.882080078125,-0.2846527099609375
1789040133597710000,10.2817099609375,0.2333526611328125,0.766448974609375,-0.5034332275390625
1789040133607654100,10.291654052734375,0.305908203125,0.741302490234375,-0.5345611572265625
1789040133617598200,10.30159814453125,0.2080535888671875,0.888763427734375,-0.4580230712890625
1789040133627542300,10.311542236328124,0.219635009765625,0.9759674072265625,-0.323394775390625
1789040133637485300,10.3214853515625,0.3560028076171875,0.7928619384765625,-0.1650238037109375
1789040133647429000,10.33142919921875,0.3325958251953125,0.4450225830078125,-0.107574462890625
1789040133657373200,10.341373291015625,-0.07568359375,0.532073974609375,-0.034515380859375
1789040133667317200,10.351317138671876,-0.048095703125,0.7168731689453125,-0.0485076904296875
1789040133677261000,10.361260986328125,0.2872161865234375,0.5872650146484375,-0.1750030517578125
1789040133687204000,10.3712041015625,0.4072113037109375,0.30657958984375,-0.2306976318359375
1789040133697148200,10.381148193359374,0.337066650390625,0.3278350830078125,-0.446624755859375
1789040133707092200,10.39109228515625,0.098907470703125,0.497894287109375,-0.4408721923828125
1789040133717036300,10.401036376953124,-0.083984375,0.504241943359375,-0.0658721923828125
1789040133726980000,10.41097998046875,-0.04815673828125,0.3904876708984375,0.2778167724609375
1789040133736924200,10.420924072265626,0.344573974609375,0.2936859130859375,-0.0485382080078125
1789040133746867200,10.4308671875,0.5432891845703125,0.3448944091796875,-0.6273651123046875
1789040133756811300,10.440811279296875,0.3016510009765625,0.60223388671875,-0.980316162109375
1789040133766755000,10.450755126953124,0.00152587890625,0.884185791015625,-0.7313079833984375
1789040133776699400,10.460699462890625,0.071502685546875,0.9511566162109375,-0.520416259765625
1789040133786643200,10.470643310546874,0.3310394287109375,0.8973846435546875,-0.5176849365234375
1789040133796586200,10.480586181640625,0.3833465576171875,0.9359130859375,-0.591796875
1789040133806530300,10.4905302734375,0.4284515380859375,0.854583740234375,-0.732208251953125
1789040133816474000,10.50047412109375,0.4306182861328125,0.77655029296875,-0.7508392333984375
1789040133826418200,10.510418212890626,0.3538970947265625,0.7994537353515625,-0.6504974365234375
1789040133836362200,10.5203623046875,0.2534637451171875,0.9138336181640625,-0.5823516845703125
1789040133846306000,10.53030615234375,0.196258544921875,1.0978546142578125,-0.553924560546875
1789040133856249000,10.5402490234375,0.1913909912109375,1.2243499755859375,-0.618072509765625
1789040133866193400,10.550193359375,0.19940185546875,1.22235107421875,-0.6592864990234375
1789040133876137200,10.56013720703125,0.423919677734375,1.1514739990234375,-0.67681884765625
1789040133886081300,10.570081298828125,0.4327239990234375,1.1166534423828125,-0.5464324951171875
1789040133896025000,10.580025146484376,0.2885284423828125,1.0416107177734375,-0.4298858642578125
1789040133905968000,10.589968017578125,0.244232177734375,0.9197235107421875,-0.4351654052734375
1789040133915912200,10.599912109375,0.3894195556640625,0.7913818359375,-0.5699310302734375
1789040133925856000,10.60985595703125,0.2469635009765625,0.7420196533203125,-0.6013336181640625
1789040133935800000,10.619800048828125,0.0307769775390625,0.7205352783203125,-0.492523193359375
1789040133945744400,10.629744384765624,0.109954833984375,0.6904144287109375,-0.3794097900390625
1789040133955688200,10.639688232421875,0.350921630859375,0.694244384765625,-0.3125
1789040133965631200,10.64963134765625,0.3870697021484375,0.721038818359375,-0.290374755859375
1789040133975575300,10.6595751953125,0.197265625,0.75054931640625,-0.3162384033203125
1789040133985519000,10.66951904296875,0.10150146484375,0.7936553955078125,-0.3525390625
1789040133995463200,10.679463134765625,0.1895904541015625,0.8326873779296875,-0.409393310546875
1789040134005407000,10.689406982421875,0.215576171875,0.860870361328125,-0.39593505859375
1789040134015350000,10.69935009765625,0.2728271484375,0.9344329833984375,-0.40570068359375
1789040134025294300,10.70929443359375,0.220947265625,1.0759124755859375,-0.4363555908203125
1789040134035238100,10.719238037109376,0.071014404296875,1.24005126953125,-0.4185638427734375
1789040134045182200,10.72918212890625,0.0367279052734375,1.3313140869140625,-0.4055023193359375
1789040134055126300,10.739126220703126,0.045135498046875,1.269012451171875,-0.15966796875
1789040134065070000,10.749070068359375,0.3038482666015625,1.1634979248046875,-0.2005157470703125
1789040134075013000,10.75901318359375,0.2716064453125,1.135711669921875,-0.367584228515625
1789040134084957200,10.768957275390624,0.261138916015625,1.2294921875,-0.4454345703125
1789040134094901000,10.77890087890625,0.279815673828125,1.32623291015625,-0.5706024169921875
1789040134104845300,10.78884521484375,0.2091522216796875,1.3520660400390625,-0.649688720703125
1789040134114789000,10.7987890625,0.0606689453125,1.3224334716796875,-0.4445037841796875
1789040134124732200,10.808732177734376,0.0611572265625,1.225921630859375,-0.335418701171875
1789040134134676200,10.81867626953125,-0.0771942138671875,1.137786865234375,-0.117889404296875
1789040134144620300,10.828620361328126,-0.01318359375,1.021881103515625,-0.0457305908203125
1789040134154564000,10.838564208984375,0.28399658203125,0.9239654541015625,-0.3049774169921875
1789040134164508200,10.848508056640625,0.3578033447265625,0.911376953125,-0.3711700439453125
1789040134174452200,10.8584521484375,0.1988525390625,0.9381866455078125,-0.2014007568359375
1789040134184395000,10.86839501953125,0.046722412109375,0.97039794921875,-0.08172607421875
1789040134194339300,10.87833935546875,0.0456085205078125,0.899169921875,-0.1082305908203125
1789040134204283100,10.888283203125,0.271881103515625,0.7916259765625,-0.302642822265625
1789040134214227200,10.898227294921876,0.318328857421875,0.7863616943359375,-0.3333740234375
1789040134224171300,10.908171142578125,0.120025634765625,0.7992401123046875,-0.1979217529296875
1789040134234114000,10.918114013671875,-0.131011962890625,0.793060302734375,-0.03594970703125
1789040134244058000,10.92805810546875,-0.1927490234375,0.76177978515625,0.006591796875
1789040134254002200,10.938002197265625,0.061859130859375,0.770355224609375,-0.1589202880859375
1789040134263946200,10.9479462890625,0.25555419921875,0.8486785888671875,-0.2613067626953125
1789040134273890300,10.957890380859375,0.4202880859375,0.9372100830078125,-0.2962646484375
1789040134283834000,10.967834228515626,0.24298095703125,0.99591064453125,-0.257843017578125
1789040134293777200,10.977777099609375,0.251129150390625,1.040374755859375,-0.3993072509765625
1789040134303721200,10.98772119140625,0.2525177001953125,1.0598602294921875,-0.5316314697265625
1789040134313665000,10.9976650390625,0.1687164306640625,1.0378570556640625,-0.60015869140625
1789040134323609000,11.007609130859375,0.0699462890625,1.002197265625,-0.5712127685546875
1789040134333553200,11.01755322265625,0.04461669921875,0.938507080078125,-0.5273895263671875
1789040134343496200,11.02749609375,0.1461639404296875,0.880340576171875,-0.601409912109375
1789040134353440300,11.037440185546876,0.299224853515625,0.8856201171875,-0.694549560546875
1789040134363384300,11.04738427734375,0.4120330810546875,0.909271240234375,-0.7959442138671875
1789040134373328100,11.057328125,0.203369140625,0.9532318115234375,-0.69927978515625
1789040134383272200,11.067272216796875,-0.074371337890625,0.992828369140625,-0.5467376708984375
1789040134393216300,11.07721630859375,-0.021392822265625,0.9493255615234375,-0.5219573974609375
1789040134403159600,11.08715966796875,0.3549652099609375,0.8322296142578125,-0.6535186767578125
1789040134413103600,11.097103515625,0.486724853515625,0.8935699462890625,-0.653564453125
1789040134423047700,11.107047607421874,0.3084869384765625,0.994110107421875,-0.5883636474609375
1789040134432991700,11.11699169921875,0.11224365234375,0.9887542724609375,-0.5312347412109375
1789040134442935800,11.126935791015624,0.166595458984375,0.9397735595703125,-0.5041046142578125
1789040134452879600,11.136879638671875,0.291717529296875,0.8905792236328125,-0.4994659423828125
1789040134462822700,11.14682275390625,0.2697296142578125,0.8667144775390625,-0.443267822265625
1789040134472766700,11.1567666015625,0.0216522216796875,0.8604278564453125,-0.3140411376953125
1789040134482710500,11.16671044921875,-0.1278076171875,0.8296051025390625,-0.16607666015625
1789040134492654800,11.17665478515625,0.088104248046875,0.754730224609375,-0.09820556640625
1789040134502598700,11.1865986328125,0.41607666015625,0.7714996337890625,-0.206329345703125
1789040134512541700,11.196541748046876,0.466949462890625,0.9037628173828125,-0.439849853515625
1789040134522485800,11.20648583984375,0.271514892578125,1.0179443359375,-0.556793212890625
1789040134532429600,11.2164296875,0.0794525146484375,1.0551300048828125,-0.5205535888671875
1789040134542373600,11.22637353515625,0.1458282470703125,1.045989990234375,-0.5398406982421875
1789040134552317700,11.236317626953126,0.3065185546875,0.9595489501953125,-0.53857421875
1789040134562261500,11.246261474609375,0.3271942138671875,0.852569580078125,-0.4990997314453125
1789040134572204500,11.25620458984375,0.116363525390625,0.82568359375,-0.431427001953125
1789040134582148900,11.26614892578125,-0.0713348388671875,0.8151092529296875,-0.4200439453125
1789040134592092700,11.2760927734375,-0.0638580322265625,0.7447052001953125,-0.3180694580078125
1789040134602036700,11.28603662109375,0.1971435546875,0.656158447265625,-0.2145843505859375
1789040134611980800,11.295980712890625,0.4356231689453125,0.67657470703125,-0.2346038818359375
1789040134621923600,11.305923583984375,0.3692779541015625,0.608245849609375,-0.30816650390625
1789040134631867600,11.31586767578125,0.053955078125,0.6351776123046875,-0.13104248046875
1789040134641811700,11.325811767578125,0.134979248046875,0.6715545654296875,-0.0978851318359375
1789040134651755800,11.335755859375,0.283172607421875,0.6079254150390625,-0.2451019287109375
1789040134661699800,11.345699951171875,0.26702880859375,0.63116455078125,-0.36322021484375
1789040134671643000,11.355642822265626,0.22039794921875,0.715057373046875,-0.4262237548828125
1789040134681586700,11.365586669921875,0.2118682861328125,0.6653594970703125,-0.4105377197265625
1789040134691530800,11.37553076171875,0.2100372314453125,0.5711517333984375,-0.2758331298828125
1789040134701474600,11.385474609375,0.35980224609375,0.4155120849609375,-0.2300872802734375
1789040134711418600,11.395418701171875,0.4001617431640625,0.486053466796875,-0.324676513671875
1789040134721362700,11.40536279296875,0.2111358642578125,0.64013671875,-0.3945770263671875
1789040134731305500,11.415305419921875,0.06866455078125,0.6930694580078125,-0.3646087646484375
1789040134741249800,11.425249755859374,0.2489776611328125,0.604766845703125,-0.269134521484375
1789040134751193900,11.43519384765625,0.3952789306640625,0.592041015625,-0.37255859375
1789040134761137700,11.4451376953125,0.4215240478515625,0.6363067626953125,-0.62677001953125
1789040134771081700,11.455081787109375,0.278594970703125,0.7339019775390625,-0.7574005126953125
1789040134781024800,11.465024658203125,0.1587982177734375,0.772918701171875,-0.59130859375
1789040134790968600,11.474968505859374,0.23455810546875,0.72222900390625,-0.40692138671875
1789040134800912600,11.48491259765625,0.262359619140625,0.651580810546875,-0.3475494384765625
1789040134810856700,11.494856689453124,0.2431182861328125,0.6140899658203125,-0.3758544921875
1789040134820800800,11.50480078125,0.2119598388671875,0.6611785888671875,-0.549530029296875
1789040134830744800,11.514744873046874,0.24517822265625,0.753662109375,-0.617340087890625
1789040134840687900,11.52468798828125,0.266571044921875,0.85321044921875,-0.50830078125
1789040134850631700,11.534631591796876,0.2034912109375,0.908416748046875,-0.381591796875
1789040134860575700,11.54457568359375,0.29547119140625,0.887939453125,-0.4487762451171875
1789040134870519600,11.55451953125,0.5165557861328125,0.849334716796875,-0.626007080078125
1789040134880463600,11.564463623046874,0.49017333984375,0.841644287109375,-0.73980712890625
1789040134890406700,11.57440673828125,0.2291412353515625,0.8666229248046875,-0.770233154296875
1789040134900350700,11.584350830078124,0.094879150390625,0.8906402587890625,-0.77734375
1789040134910294800,11.594294677734375,0.17938232421875,0.8775634765625,-0.7428741455078125
1789040134920238800,11.60423876953125,0.37237548828125,0.862060546875,-0.70770263671875
1789040134930182700,11.6141826171875,0.333343505859375,0.9137115478515625,-0.6389312744140625
1789040134940126700,11.624126708984376,0.0698089599609375,0.992218017578125,-0.4615478515625
1789040134950069800,11.63406982421875,0.1116790771484375,0.9977569580078125,-0.389251708984375
1789040134960013600,11.644013671875,0.379852294921875,1.0079345703125,-0.3889007568359375
1789040134969957600,11.65395751953125,0.3232269287109375,1.1650390625,-0.2608795166015625
1789040134979901700,11.663901611328125,0.1278228759765625,1.355255126953125,-0.26788330078125
1789040134989845800,11.673845703125,-0.1269073486328125,1.5063018798828125,-0.4151458740234375
1789040134999788800,11.683788818359375,0.10919189453125,1.5367584228515625,-0.516937255859375
1789040135009732600,11.693732666015626,0.297698974609375,1.3148345947265625,-0.489898681640625
1789040135019676700,11.7036767578125,0.2566070556640625,0.973297119140625,-0.3574981689453125
1789040135029620700,11.713620849609375,0.15936279296875,0.763641357421875,-0.2931976318359375
1789040135039564500,11.723564453125,0.2684326171875,0.7255859375,-0.3687744140625
1789040135049508900,11.7335087890625,0.0289306640625,0.81463623046875,-0.2470550537109375
1789040135059451600,11.74345166015625,0.012176513671875,0.8543548583984375,-0.092376708984375
1789040135069395700,11.753395751953125,0.0688934326171875,0.8511810302734375,-0.049560546875
1789040135079339800,11.76333984375,0.299896240234375,0.8511199951171875,-0.1008453369140625
1789040135089283600,11.77328369140625,0.3542938232421875,0.9137725830078125,-0.1846771240234375
1789040135099227600,11.7832275390625,0.1930389404296875,1.0070343017578125,-0.2199554443359375
1789040135109170700,11.793170654296874,0.057342529296875,0.9604034423828125,-0.2008056640625
1789040135119114800,11.80311474609375,0.1171417236328125,0.8444976806640625,-0.2752838134765625
1789040135129058600,11.81305859375,0.1114044189453125,0.8263702392578125,-0.4011688232421875
1789040135139003000,11.8230029296875,0.053009033203125,0.9091033935546875,-0.438720703125
1789040135148946700,11.83294677734375,-0.01812744140625,0.938323974609375,-0.35321044921875
1789040135158890800,11.842890869140625,0.025604248046875,0.93017578125,-0.293304443359375
1789040135168833800,11.852833740234376,0.1514434814453125,1.00146484375,-0.3890533447265625
1789040135178777600,11.862777587890625,0.3968658447265625,1.1855621337890625,-0.5232391357421875
1789040135188721700,11.8727216796875,0.3223876953125,1.4791259765625,-0.5139312744140625
1789040135198665700,11.882665771484374,0.3247528076171875,1.7166290283203125,-0.4433441162109375
1789040135208609500,11.892609619140625,0.3687744140625,1.7061004638671875,-0.4506988525390625
1789040135218552600,11.902552490234376,0.133087158203125,1.5664215087890625,-0.162078857421875
1789040135228497000,11.912496826171875,0.0525665283203125,1.4027099609375,-0.0087432861328125
1789040135238440700,11.922440673828126,-0.0216217041015625,1.260528564453125,0.046875
1789040135248384800,11.932384765625,0.085052490234375,1.109771728515625,-0.0682373046875
1789040135258328600,11.94232861328125,0.087158203125,1.0418853759765625,-0.204681396484375
1789040135268271600,11.952271728515624,0.061248779296875,0.9258880615234375,-0.361907958984375
1789040135278215700,11.962215576171875,0.12542724609375,0.790130615234375,-0.4740447998046875
1789040135288159500,11.972159423828124,0.2343902587890625,0.702606201171875,-0.455413818359375
1789040135298103800,11.982103759765625,0.02886962890625,0.66131591796875,-0.2367401123046875
1789040135308048000,11.9920478515625,-0.018402099609375,0.6356964111328125,-0.1737213134765625
1789040135317991700,12.00199169921875,0.0900115966796875,0.61358642578125,-0.2642974853515625
1789040135327934700,12.011934814453125,0.295257568359375,0.61334228515625,-0.382965087890625
1789040135337878800,12.021878662109375,0.317474365234375,0.64837646484375,-0.45794677734375
1789040135347822600,12.031822509765625,0.229339599609375,0.65570068359375,-0.537750244140625
1789040135357766700,12.0417666015625,0.0995025634765625,0.62994384765625,-0.5386199951171875
1789040135367710500,12.05171044921875,-0.0312347412109375,0.6099700927734375,-0.512176513671875
1789040135377653500,12.061653564453126,-0.260009765625,0.62548828125,-0.4529571533203125
1789040135387597800,12.071597900390625,-0.320404052734375,0.64630126953125,-0.40264892578125
1789040135397542000,12.0815419921875,-0.097991943359375,0.6402130126953125,-0.3799285888671875
1789040135407485700,12.091485595703125,0.3225555419921875,0.6253204345703125,-0.2619781494140625
1789040135417429800,12.1014296875,0.6688232421875,0.667205810546875,-0.245025634765625
1789040135427373600,12.11137353515625,0.790863037109375,0.8848724365234375,-0.390228271484375
1789040135437316600,12.121316650390625,0.6722259521484375,1.197723388671875,-0.52056884765625
1789040135447260700,12.1312607421875,0.5218963623046875,1.43304443359375,-0.6575775146484375
1789040135457204500,12.14120458984375,0.383575439453125,1.5127105712890625,-0.8410797119140625
1789040135467148800,12.151148681640626,0.2633514404296875,1.5097198486328125,-0.9146270751953125
1789040135477092900,12.1610927734375,0.1824188232421875,1.477783203125,-0.8338165283203125
1789040135487035600,12.17103564453125,0.2252960205078125,1.3998870849609375,-0.672027587890625
1789040135496979700,12.180979736328124,0.2239990234375,0.993377685546875,-0.4524688720703125
1789040135506923800,12.190923828125,0.3556365966796875,0.6508026123046875,-0.4048614501953125
1789040135516867600,12.20086767578125,0.37579345703125,0.78973388671875,-0.5284881591796875
1789040135526811600,12.210811767578125,0.292755126953125,1.0894622802734375,-0.7327728271484375
1789040135536755700,12.220755615234374,0.08984375,1.2200775146484375,-0.75079345703125
1789040135546698800,12.23069873046875,-0.0126190185546875,1.2173309326171875,-0.7091522216796875
1789040135556642800,12.240642822265626,0.024505615234375,1.16021728515625,-0.65179443359375
1789040135566586600,12.250586669921875,-0.03448486328125,1.117950439453125,-0.3523712158203125
1789040135576530700,12.26053076171875,-0.12109375,0.9839324951171875,0.088134765625
1789040135586474800,12.270474853515625,0.2295684814453125,0.726318359375,0.196929931640625
1789040135596417800,12.280417724609375,0.5365447998046875,0.3725433349609375,0.046478271484375
1789040135606361600,12.290361572265626,0.44488525390625,0.16192626953125,0.056915283203125
1789040135616305700,12.3003056640625,0.0810089111328125,0.3961334228515625,0.033233642578125
1789040135626249700,12.310249755859376,0.051483154296875,0.393798828125,-0.14599609375
1789040135636193800,12.32019384765625,0.1066436767578125,0.3521881103515625,-0.1775054931640625
1789040135646136800,12.33013671875,0.205596923828125,0.2877960205078125,-0.149566650390625
1789040135656080600,12.34008056640625,0.1114654541015625,0.306488037109375,-0.1536865234375
1789040135666024700,12.350024658203125,0.132568359375,0.358154296875,-0.3498687744140625
1789040135675968800,12.35996875,0.1155242919921875,0.3755950927734375,-0.361114501953125
1789040135685912600,12.36991259765625,0.1430816650390625,0.3824462890625,-0.2102203369140625
1789040135695857000,12.37985693359375,0.2212371826171875,0.40020751953125,-0.2557373046875
1789040135705799700,12.389799560546875,0.291961669921875,0.3918304443359375,-0.3603515625
1789040135715743700,12.39974365234375,0.338653564453125,0.406982421875,-0.3892974853515625
1789040135725687800,12.409687744140625,0.35333251953125,0.450927734375,-0.4214324951171875
1789040135735631600,12.419631591796875,0.2701416015625,0.55633544921875,-0.516357421875
1789040135745575700,12.42957568359375,0.2158203125,0.659942626953125,-0.6421051025390625
1789040135755518700,12.439518798828125,0.15667724609375,0.7840118408203125,-0.623321533203125
1789040135765462500,12.449462646484376,0.12689208984375,0.871429443359375,-0.5832977294921875
1789040135775406600,12.459406494140625,0.152984619140625,0.89910888671875,-0.6312255859375
1789040135785351000,12.469350830078126,0.1718292236328125,0.934173583984375,-0.6083984375
1789040135795294700,12.479294677734375,0.3274993896484375,0.982513427734375,-0.5553741455078125
1789040135805238800,12.48923876953125,0.35748291015625,1.0551910400390625,-0.556427001953125
1789040135815181800,12.499181884765624,0.2634124755859375,1.1403656005859375,-0.647247314453125
1789040135825125600,12.509125732421875,0.2292022705078125,1.2254638671875,-0.7630462646484375
1789040135835069700,12.519069580078124,0.173797607421875,1.337982177734375,-0.7083740234375
1789040135845013500,12.529013427734375,0.1999664306640625,1.3898162841796875,-0.6074981689453125
1789040135854957600,12.53895751953125,0.20269775390625,1.34368896484375,-0.531829833984375
1789040135864900600,12.548900634765625,0.3173675537109375,1.223480224609375,-0.51513671875
1789040135874844700,12.5588447265625,0.41680908203125,1.1182098388671875,-0.5186614990234375
1789040135884788700,12.568788818359375,0.2596588134765625,1.0779266357421875,-0.4552764892578125
1789040135894732800,12.57873291015625,0.0678253173828125,1.0146484375,-0.359039306640625
1789040135904676600,12.588676513671874,0.1117095947265625,0.9021759033203125,-0.3827056884765625
1789040135914619600,12.59861962890625,0.3583984375,0.8103790283203125,-0.5172271728515625
1789040135924563700,12.608563720703126,0.3060760498046875,0.8327789306640625,-0.52740478515625
1789040135934507500,12.618507568359375,0.0230255126953125,0.8896942138671875,-0.3575439453125
1789040135944451800,12.628451904296876,0.0485076904296875,0.8445892333984375,-0.2984619140625
1789040135954395600,12.638395751953125,0.16485595703125,0.79559326171875,-0.2860565185546875
1789040135964339700,12.648339599609375,0.2340545654296875,0.793304443359375,-0.2765350341796875
1789040135974282800,12.65828271484375,0.1085205078125,0.7993927001953125,-0.1653594970703125
1789040135984226800,12.668226806640625,0.15386962890625,0.7736663818359375,-0.213104248046875
1789040135994170600,12.678170654296874,0.2690277099609375,0.8120574951171875,-0.3463287353515625
1789040136004114700,12.68811474609375,0.265533447265625,0.9056549072265625,-0.5070343017578125
1789040136014058500,12.69805859375,-0.0799713134765625,0.99932861328125,-0.3334808349609375
1789040136024001500,12.70800146484375,-0.000885009765625,0.96148681640625,-0.1457672119140625
1789040136033945900,12.71794580078125,0.23382568359375,0.9496612548828125,-0.057464599609375
1789040136043889700,12.7278896484375,0.3676300048828125,0.993377685546875,-0.164642333984375
1789040136053833700,12.737833740234375,0.1356048583984375,1.088714599609375,-0.118927001953125
1789040136063777800,12.74777783203125,0.1149139404296875,1.119384765625,-0.1294097900390625
1789040136073721600,12.7577216796875,0.1468963623046875,1.164581298828125,-0.1764678955078125
1789040136083664600,12.76766455078125,0.3032989501953125,1.224578857421875,-0.449981689453125
1789040136093608700,12.777608642578125,0.235260009765625,1.298980712890625,-0.5487213134765625
1789040136103552500,12.787552490234376,0.2220001220703125,1.26611328125,-0.5933990478515625
1789040136113496800,12.797496826171875,-0.0015411376953125,1.1313629150390625,-0.36151123046875
1789040136123440600,12.807440673828125,0.0836334228515625,1.0604400634765625,-0.3889617919921875
1789040136133383700,12.8173837890625,0.146881103515625,1.0215911865234375,-0.3733367919921875
1789040136143327700,12.82732763671875,0.277740478515625,1.0094757080078125,-0.4098663330078125
1789040136153271600,12.837271484375,0.1689300537109375,0.9698944091796875,-0.3468170166015625
1789040136163215600,12.847215576171875,0.1773529052734375,0.91412353515625,-0.387420654296875
1789040136173159700,12.85715966796875,0.045562744140625,0.8978729248046875,-0.3108673095703125
1789040136183102700,12.867102783203125,0.210784912109375,0.953369140625,-0.369171142578125
1789040136193046800,12.877046875,0.0561370849609375,1.082855224609375,-0.2309112548828125
1789040136202990800,12.886990966796875,0.062164306640625,1.143829345703125,-0.1505126953125
1789040136212934700,12.8969345703125,0.1764373779296875,1.0537109375,-0.2702178955078125
1789040136222878700,12.906878662109374,0.3449249267578125,0.990234375,-0.3924407958984375
