time,seconds_elapsed,z,y,x
1789040123376692700,0.060692626953125,-8.731400356611609,-3.3481583352595568,2.9534505768984554
1789040123386636800,0.07063671875,-8.73371155616343,-3.3857086059749126,2.9033842312201856
1789040123396580900,0.080580810546875,-8.728986865729093,-3.430437974539399,2.864833843551576
1789040123406525000,0.09052490234375,-8.719756096047162,-3.47957872980535,2.8335087309613822
1789040123416468000,0.100468017578125,-8.70679607670903,-3.5306922464489934,2.8100355009153484
1789040123426411800,0.110411865234375,-8.690800635197759,-3.582692775060236,2.793687008182704
1789040123436355800,0.12035595703125,-8.672122822734712,-3.635528877712786,2.7834520298942924
1789040123446300000,0.1302998046875,-8.651848680990934,-3.690634094341099,2.774007617461681
1789040123456244000,0.140243896484375,-8.630972481700777,-3.7481381888046856,2.7619123982593416
1789040123466188000,0.15018798828125,-8.60797388342917,-3.8068922833293675,2.753315542566776
1789040123476131800,0.1601318359375,-8.583650758555532,-3.8618569224432107,2.752705886235833
1789040123486075000,0.170074951171875,-8.560486156067252,-3.9080122321575876,2.759692384122312
1789040123496019000,0.18001904296875,-8.536414375606178,-3.9474443710967897,2.7780732594653963
1789040123505962800,0.189962646484375,-8.50700181863904,-3.9857884225383398,2.8133243133276697
1789040123515907000,0.199906982421875,-8.470248251259326,-4.027966353054344,2.86369782525897
1789040123525851100,0.20985107421875,-8.423554304623604,-4.075600210888684,2.9331910482019183
1789040123535795000,0.219794921875,-8.367827741226554,-4.139295268946886,3.0026790104478596
1789040123545739000,0.229739013671875,-8.30724263188243,-4.2303111723899836,3.043776744511723
1789040123555682000,0.23968212890625,-8.242575221660733,-4.336413293544948,3.0701568019151684
1789040123565625900,0.2496259765625,-8.173253263631462,-4.450700182460248,3.0918580538526177
1789040123575570000,0.25956982421875,-8.106317908477783,-4.568904537080228,3.0956594919621945
1789040123585513700,0.269513671875,-8.044995717030764,-4.686118127097189,3.080377751678228
1789040123595458000,0.2794580078125,-7.98804399575293,-4.803222996042669,3.0480458001330493
1789040123605402000,0.289402099609375,-7.931815912574529,-4.924918407648802,3.0003105277508495
1789040123615346000,0.299345947265625,-7.872347824561595,-5.055221196341514,2.939602084288001
1789040123625289000,0.3092890625,-7.807059067571163,-5.196479094290733,2.8664982696324586
1789040123635233000,0.31923291015625,-7.734394813376665,-5.345506457197666,2.788385102382302
1789040123645176800,0.3291767578125,-7.666807716315985,-5.476331223937868,2.7203397401601075
1789040123655121000,0.339120849609375,-7.630715243193507,-5.54984771104753,2.6724066071182486
1789040123665065000,0.34906494140625,-7.635027845695614,-5.567776166447997,2.6223279864802955
1789040123675009000,0.359009033203125,-7.675773113059997,-5.536460990729927,2.5691432165205477
1789040123684953000,0.368953125,-7.736056024587154,-5.4689691707372665,2.5326284263327716
1789040123694897000,0.37889697265625,-7.793009499430656,-5.3900563775420185,2.5271882811054587
1789040123704840000,0.38883984375,-7.826737581509351,-5.316656794810295,2.577930918610096
1789040123714784000,0.398783935546875,-7.8179966411709785,-5.2622261164426805,2.712617913736403
1789040123724727800,0.408727783203125,-7.763091331028938,-5.239653634628653,2.907031355550885
1789040123734672000,0.418671875,-7.6983876804500815,-5.2407332465589045,3.0724457896351813
1789040123744616000,0.428615966796875,-7.684012533617019,-5.251032522255182,3.0907913014039394
1789040123754560000,0.43856005859375,-7.735109099125862,-5.269597521993518,2.9274241552382705
1789040123764504000,0.448504150390625,-7.816606648117303,-5.29251370267868,2.65713012753129
1789040123774446800,0.45844677734375,-7.89498109665215,-5.3164931286811825,2.3610509395740924
1789040123784391000,0.468390869140625,-7.950691877958178,-5.342482725462317,2.1011336367137727
1789040123794335000,0.4783349609375,-7.986635297998785,-5.371733954387903,1.8784353267878293
1789040123804278800,0.48827880859375,-8.011388630983234,-5.402908844852448,1.6723076279126106
1789040123814223000,0.49822314453125,-8.02236069137454,-5.441028439888358,1.4857064672842621
1789040123824167000,0.5081669921875,-8.02114839297533,-5.490312987539172,1.299238577646762
1789040123834111000,0.518111083984375,-8.010681359496711,-5.5483010661274195,1.1025993495415896
1789040123844054000,0.528053955078125,-7.999002027618885,-5.603085380238294,0.8898243216063827
1789040123853997800,0.537997802734375,-7.992368873214721,-5.6452112883061165,0.6511652030911296
1789040123863942000,0.54794189453125,-7.9886980757474895,-5.674089007744192,0.39471075403578576
1789040123873886000,0.557885986328125,-7.983762372910976,-5.693161372482776,0.133556822052598
1789040123883829800,0.567829833984375,-7.974262723159789,-5.706649215087294,-0.12520115470476448
1789040123893774000,0.577774169921875,-7.960936793118715,-5.714175518938899,-0.37691925942059606
1789040123903718000,0.5877177734375,-7.943646051099896,-5.716773134216666,-0.622397154572606
1789040123913662000,0.597661865234375,-7.917692110154032,-5.721908159017563,-0.8604134451396763
1789040123923605000,0.60760498046875,-7.878584088602661,-5.735085620498657,-1.098677719118446
1789040123933548800,0.617548828125,-7.822350744727253,-5.7591433724343775,-1.3466568930342793
1789040123943492900,0.627492919921875,-7.753699233305454,-5.794874611029028,-1.5716095577582716
1789040123953437000,0.63743701171875,-7.693058009859919,-5.830526939168572,-1.7297985706336796
1789040123963381000,0.647381103515625,-7.653633761966228,-5.854768230977654,-1.8204311738476155
1789040123973325000,0.657324951171875,-7.639390717080235,-5.856707090085744,-1.873252225061506
1789040123983268900,0.667268798828125,-7.650022001209854,-5.831265774837136,-1.9088973928079007
1789040123993212000,0.6772119140625,-7.6814307004302735,-5.78358866238296,-1.927718997655809
1789040124003156000,0.687156005859375,-7.726045502704381,-5.721684871655702,-1.9341468387462197
1789040124013100000,0.69710009765625,-7.777195259705185,-5.64848753349781,-1.9442739727459846
1789040124023043800,0.7070439453125,-7.830266924679279,-5.564869339090586,-1.972190738197416
1789040124032988000,0.71698779296875,-7.883172000914811,-5.472209760093689,-2.020123286717385
1789040124042932000,0.726931884765625,-7.936804222381115,-5.367256516712904,-2.0904722497068344
1789040124052876000,0.7368759765625,-7.9936834629446265,-5.247742248538136,-2.175455156596005
1789040124062819000,0.746819091796875,-8.054221810537577,-5.117422508710622,-2.2609470359206196
1789040124072763000,0.756762939453125,-8.116348304104804,-4.979713827675581,-2.344723343499005
1789040124082707000,0.76670703125,-8.176921723011136,-4.837625908643007,-2.4301658307239413
1789040124092651000,0.776651123046875,-8.235484971138835,-4.696791789063811,-2.5074527762830257
1789040124102594800,0.7865947265625,-8.291559909582137,-4.566471756975353,-2.562763160094619
1789040124112539100,0.7965390625,-8.34299140613377,-4.454743028110266,-2.592325062404573
1789040124122483000,0.80648291015625,-8.388478899589181,-4.35679264922887,-2.6119270039752123
1789040124132426000,0.816426025390625,-8.426798985633253,-4.2671296216994525,-2.636483937604725
1789040124142370000,0.8263701171875,-8.458372520026565,-4.186048544554412,-2.6652041283935306
1789040124152313900,0.83631396484375,-8.48465905392766,-4.110955309647322,-2.6983304451867935
1789040124162258000,0.8462578125,-8.507188865643739,-4.038059877045453,-2.7371865378037095
1789040124172202000,0.856201904296875,-8.527786247992514,-3.9648660460188982,-2.7797625277265903
1789040124182145800,0.866145751953125,-8.550489078187942,-3.8880794511973855,-2.8182188073709606
1789040124192090000,0.876090087890625,-8.579501822182536,-3.804572900471091,-2.8438974385067817
1789040124202033200,0.886033203125,-8.615715291336178,-3.7168332422196864,-2.8504353158429265
1789040124211977000,0.89597705078125,-8.658530350711942,-3.630149815022945,-2.8323569305777547
1789040124221921000,0.905921142578125,-8.708414033299684,-3.5471918380901215,-2.784121891979873
1789040124231864800,0.91586474609375,-8.765336528483033,-3.4675922316744923,-2.7046377286374566
1789040124241809000,0.925808837890625,-8.829026033583283,-3.3877076708376404,-2.5965596312344075
1789040124251753000,0.9357529296875,-8.895022646582126,-3.3055972506448623,-2.4742633311256763
1789040124261697000,0.945697021484375,-8.951237285757065,-3.229123667295277,-2.370337238835543
1789040124271641000,0.95564111328125,-8.988970511823892,-3.163649032343924,-2.315192713110149
1789040124281584000,0.965584228515625,-9.008693449425698,-3.1041596092820165,-2.3190547953657803
1789040124291528000,0.97552783203125,-9.014445144820213,-3.0392852783113717,-2.381786122958362
1789040124301472000,0.985471923828125,-9.0056667950809,-2.9653008814290165,-2.5050623740151523
1789040124311415800,0.995415771484375,-8.979155804774164,-2.8884552498966456,-2.6836498856663704
1789040124321360000,1.00535986328125,-8.935930411031842,-2.811956824366748,-2.9004189516738057
1789040124331304000,1.015303955078125,-8.87942175734639,-2.732782457625866,-3.139769267323613
1789040124341248000,1.025248046875,-8.812421520262957,-2.653032629084587,-3.3871859850510955
1789040124351191000,1.03519091796875,-8.731903629958628,-2.578935419477522,-3.6432583029210566
1789040124361135000,1.045135009765625,-8.633250948026776,-2.5207655545815824,-3.9093610164180395
1789040124371079000,1.055078857421875,-8.514174486747384,-2.4786516292124987,-4.187541413460671
1789040124381023000,1.06502294921875,-8.37572404743433,-2.4377654920727014,-4.4805067071810365
1789040124390966300,1.07496630859375,-8.225093925505876,-2.379838496021926,-4.780646422575414
1789040124400910000,1.08491015625,-8.067427913591265,-2.2930051389604804,-5.082236044517159
1789040124410854400,1.0948544921875,-7.900159376072883,-2.1833773278973996,-5.384304682147502
1789040124420797400,1.10479736328125,-7.721800120219588,-2.0641924378074705,-5.681839768001437
1789040124430741200,1.1147412109375,-7.545661463025212,-1.938683605393022,-5.9560799029856915
1789040124440685300,1.124685302734375,-7.388431504440307,-1.8050857206776738,-6.190568457818031
1789040124450629000,1.134629150390625,-7.247370005846023,-1.6666614387191832,-6.392828813740611
1789040124460573200,1.1445732421875,-7.120759057408571,-1.5308097837276755,-6.566719399747252
1789040124470517200,1.154517333984375,-6.989625663110614,-1.4195201769322157,-6.73056380803585
1789040124480461000,1.1644609375,-6.8352563546538345,-1.3269706341810523,-6.905708778017759
1789040124490404000,1.174404052734375,-6.671428312978148,-1.2400412693992255,-7.079881688097119
1789040124500348400,1.184348388671875,-6.514828468990325,-1.1562713915616274,-7.2381234540730714
1789040124510292200,1.194292236328125,-6.375757851952314,-1.0725867077894509,-7.373578218701481
1789040124520236300,1.204236328125,-6.266732829087973,-0.9874939107850194,-7.47818893225491
1789040124530180000,1.21418017578125,-6.196393218448757,-0.8999250790558755,-7.547531933072209
1789040124540124200,1.224124267578125,-6.152057233116031,-0.8093355843313038,-7.593915498584509
1789040124550068200,1.234068115234375,-6.1170560623615975,-0.7139724454641342,-7.631661584132909
1789040124560011300,1.24401123046875,-6.086807639092207,-0.6165718094199896,-7.664267384183407
1789040124569955300,1.253955322265625,-6.053340838298201,-0.5258933577703312,-7.697460044211149
1789040124579899400,1.2638994140625,-6.004597557917237,-0.4464180353214964,-7.740536969393491
1789040124589843200,1.27384326171875,-5.934656006684899,-0.3792581872295588,-7.797847002589702
1789040124599787300,1.283787353515625,-5.8440884315311905,-0.3201676638247445,-7.868578242895007
1789040124609731000,1.29373095703125,-5.738691536036133,-0.2614887534281239,-7.947918906113505
1789040124619675100,1.303675048828125,-5.631940303322673,-0.19647665795460342,-8.02577196112275
1789040124629618200,1.3136181640625,-5.531542239028215,-0.11922134964279829,-8.096803645679355
1789040124639562200,1.323562255859375,-5.436179246291518,-0.027814898812421596,-8.161958547157049
1789040124649506300,1.33350634765625,-5.342537670519948,0.07328515800524037,-8.22327781599462
1789040124659450400,1.343450439453125,-5.243400419941544,0.17919048251304776,-8.285228952994942
1789040124669394200,1.353394287109375,-5.133097632226348,0.28462776481742036,-8.35108820334971
1789040124679338200,1.363338134765625,-5.014171393072605,0.38391412327662106,-8.419090310952067
1789040124689282300,1.3732822265625,-4.8915845855847,0.4714123009223491,-8.486492114573716
1789040124699226000,1.38322607421875,-4.7714016243681305,0.5417718949036673,-8.55047329609692
1789040124709169200,1.393169189453125,-4.659366313771903,0.5983222688389942,-8.60829186333716
1789040124719113500,1.403113525390625,-4.559818436565995,0.6464388321563601,-8.657977393004298
1789040124729057300,1.413057373046875,-4.475694046202301,0.6849547330334782,-8.69881501482725
1789040124739001300,1.42300146484375,-4.405265003713965,0.7115752481292933,-8.732564724215864
1789040124748945200,1.432945068359375,-4.34821537501961,0.7273096275515853,-8.759819810888171
1789040124758889200,1.44288916015625,-4.308531599406898,0.7312772160083055,-8.779076300022005
1789040124768832300,1.452832275390625,-4.286245825579762,0.7149197362516075,-8.791323787176609
1789040124778776000,1.462776123046875,-4.275186086905002,0.6754867205295711,-8.79982273545265
1789040124788720000,1.47272021484375,-4.268984894177318,0.6172830264292657,-8.807104709154366
1789040124798664400,1.48266455078125,-4.267437372474372,0.5480903938680887,-8.81243204165697
1789040124808608300,1.492608154296875,-4.273300419288874,0.47948432902321214,-8.81358997952044
1789040124818552300,1.50255224609375,-4.290543522773683,0.41514954828936607,-8.80847716655135
1789040124828496100,1.51249609375,-4.316066378825902,0.35345278790891166,-8.798694023683666
1789040124838440200,1.522440185546875,-4.34761799364835,0.29297850026180966,-8.785372769817709
1789040124848383200,1.53238330078125,-4.384593387085199,0.23334387830924241,-8.768766502931713
1789040124858327000,1.5423271484375,-4.427479173609614,0.17622452711323275,-8.748528017023204
1789040124868271400,1.552271240234375,-4.4782183039829135,0.12805468097236006,-8.723505803969502
1789040124878215400,1.56221533203125,-4.52928681244105,0.08674315802734345,-8.697610899734496
1789040124888159200,1.5721591796875,-4.571392846764624,0.049258449661755,-8.675847396215795
1789040124898103300,1.582103271484375,-4.603049675527215,0.01597532345514046,-8.659217748454212
1789040124908047000,1.592047119140625,-4.624574109593033,-0.018617516518506454,-8.6477359849751
1789040124917990100,1.601990234375,-4.644211122477055,-0.05918374551306478,-8.637024036824704
1789040124927934200,1.611934326171875,-4.670730296090245,-0.10146565699335187,-8.622318050602077
1789040124937878000,1.6218779296875,-4.70624993776083,-0.1366904530363623,-8.602494575235248
1789040124947822300,1.631822265625,-4.754598081344366,-0.16010001586219294,-8.575461606881023
1789040124957766400,1.641766357421875,-4.816538112428784,-0.17134179657297208,-8.5406071511209
1789040124967710200,1.651710205078125,-4.889740711283683,-0.17845007594190537,-8.498763567125797
1789040124977654300,1.661654296875,-4.966707631108164,-0.19221518285153433,-8.453712127000093
1789040124987597300,1.671597412109375,-5.0371138772428035,-0.21807755479011684,-8.411320261472463
1789040124997541000,1.681541015625,-5.092703077995777,-0.2560295747067779,-8.376706628730892
1789040125007485200,1.691485107421875,-5.124254400557279,-0.30112684500189496,-8.355939735034108
1789040125017429200,1.70142919921875,-5.125311800655722,-0.34949900878183543,-8.353407586207986
1789040125027373300,1.711373291015625,-5.103429054671525,-0.393154026113078,-8.364857200983167
1789040125037317400,1.7213173828125,-5.071503638100624,-0.4223279520187527,-8.382832418134807
1789040125047261200,1.73126123046875,-5.039063257744908,-0.4335273548925295,-8.401802491542696
1789040125057204200,1.741204345703125,-5.010370831745862,-0.43024599513430145,-8.419111938261985
1789040125067148300,1.751148193359375,-4.979277774345874,-0.4203651275131851,-8.438036418962477
1789040125077092000,1.761092041015625,-4.93488041421473,-0.40817189129646864,-8.464676588606833
1789040125087036200,1.7710361328125,-4.875800740997493,-0.3912863325450569,-8.499638011872769
1789040125096980200,1.780980224609375,-4.8005075996041295,-0.3653325742622837,-8.54353852839768
1789040125106924300,1.79092431640625,-4.710304473848641,-0.328495602915436,-8.59508634480536
1789040125116867300,1.800867431640625,-4.612894485454261,-0.2818357229460962,-8.649401872360706
1789040125126811400,1.810811279296875,-4.513806919236481,-0.22679750713938845,-8.703131124460697
1789040125136755200,1.820755126953125,-4.413232913853228,-0.17063664397830142,-8.755835125166177
1789040125146699300,1.83069921875,-4.315481272414327,-0.12284775997903197,-8.805220795103907
1789040125156643000,1.84064306640625,-4.225004005892575,-0.08763571381974034,-8.849408896398543
1789040125166587400,1.85058740234375,-4.141145865249634,-0.06039266464510001,-8.889187364557385
1789040125176531200,1.86053125,-4.069874526718259,-0.03321088295431109,-8.92218654783964
1789040125186474200,1.87047412109375,-4.018161582876742,-0.009105825844721402,-8.945652179101108
1789040125196418300,1.880418212890625,-3.9856940222531554,0.010274486031604465,-8.960162935012578
1789040125206362400,1.8903623046875,-3.9642964294373986,0.00928601613366045,-8.96965264789164
1789040125216306200,1.90030615234375,-3.921742651346326,-0.009775339728785911,-8.988339228183031
1789040125226250200,1.910250244140625,-3.858549989852309,-0.031245263703458474,-9.015598406508564
1789040125236194000,1.920194091796875,-3.7840611505791544,-0.051166160146333274,-9.047025225907564
1789040125246138400,1.930138427734375,-3.688654318700731,-0.08138061721404083,-9.08612155702114
1789040125256081400,1.940081298828125,-3.567954347872734,-0.1140080171749927,-9.133843677660822
1789040125266025200,1.950025146484375,-3.443964687849581,-0.13460290617258286,-9.18103388338089
1789040125275969300,1.95996923828125,-3.3384950193792577,-0.1412074281373061,-9.219810481020808
1789040125285913300,1.969913330078125,-3.2664711089149114,-0.1223269418421667,-9.245842163378
1789040125295857200,1.979857177734375,-3.2363287763684987,-0.08717821584320627,-9.256832928469777
1789040125305801200,1.98980126953125,-3.212433229257166,-0.08947663811184466,-9.265131970259546
1789040125315745300,1.999745361328125,-3.158477767185867,-0.08982961626797914,-9.283660729640722
1789040125325688000,2.00968798828125,-3.0930034244954583,-0.07973040232160128,-9.305770270118117
1789040125335632400,2.01963232421875,-3.019282646985352,-0.052791080767312086,-9.3301419103086
1789040125345576200,2.029576171875,-2.946699933594465,-0.002201486962250783,-9.353466087272762
1789040125355520300,2.039520263671875,-2.8805288408115506,0.06746550280789379,-9.373813878774643
1789040125365464300,2.04946435546875,-2.8190380147993563,0.1354956172286067,-9.391754024612903
1789040125375408000,2.059408203125,-2.758123819631338,0.18218743583932517,-9.409035414281487
1789040125385352200,2.069352294921875,-2.6988325494900343,0.19771080285944043,-9.425900624364614
1789040125395295700,2.079295654296875,-2.6380872811481355,0.18020629022577778,-9.443432189401983
1789040125405239600,2.089239501953125,-2.572587219494581,0.1347229066899046,-9.462242103812098
1789040125415183600,2.09918359375,-2.504248427283764,0.06819927870885004,-9.481270629408955
1789040125425127400,2.10912744140625,-2.4364018025040624,-0.009873549681052099,-9.499171027758717
1789040125435071500,2.119071533203125,-2.36753226441741,-0.0834121047753375,-9.516208671799301
1789040125445015600,2.129015625,-2.295575866231322,-0.1420951981567312,-9.533128242418169
1789040125454959600,2.138959716796875,-2.2118027735233308,-0.1804753529581241,-9.55226432004273
1789040125464902700,2.148902587890625,-2.117353242369741,-0.20426190500333904,-9.573165069252251
1789040125474846700,2.1588466796875,-2.0207101466946304,-0.2179193320211023,-9.593727964809537
1789040125484790500,2.16879052734375,-1.9287087393455207,-0.2193414189797826,-9.61261562063098
1789040125494734600,2.178734619140625,-1.8475797314055262,-0.21110422691246494,-9.628720952257513
1789040125504678400,2.188678466796875,-1.7779320485532282,-0.19886340696066618,-9.642084291699527
1789040125514622500,2.19862255859375,-1.7163810167863964,-0.17786378222024068,-9.653640873980521
1789040125524565500,2.2085654296875,-1.6649248241849242,-0.14077169446800836,-9.663260935240983
1789040125534509600,2.218509521484375,-1.6397943284511565,-0.08831185951563529,-9.668177933377027
1789040125544453600,2.22845361328125,-1.6364301127150653,-0.03302264863952296,-9.669093879178165
1789040125554397700,2.238397705078125,-1.6320442988462744,0.02055966927044792,-9.66987012424767
1789040125564341500,2.248341552734375,-1.6163257745802402,0.0748784413789399,-9.672242114076019
1789040125574285600,2.25828564453125,-1.5898055780537426,0.12275514065898023,-9.676147889342904
1789040125584229400,2.2682294921875,-1.5512429154254495,0.16126465746108443,-9.68184054802656
1789040125594172400,2.27817236328125,-1.4983397388860582,0.19514513535620642,-9.68954513105452
1789040125604116700,2.28811669921875,-1.4337804652139543,0.22136927154557778,-9.698745505598186
1789040125614060500,2.298060546875,-1.3514016033433376,0.23673560310676692,-9.710204472723603
1789040125624004600,2.308004638671875,-1.2532967645525932,0.2457293308961205,-9.723130589792131
1789040125633948700,2.31794873046875,-1.1449637425404042,0.25420308993197976,-9.7362642121315
1789040125643892500,2.327892578125,-1.0294792413383722,0.25712230184692886,-9.74907459386587
1789040125653836500,2.33783642578125,-0.9045740739054977,0.24732562364423646,-9.761709034511446
1789040125663779600,2.347779541015625,-0.7802500673614442,0.22144297610260544,-9.773052850824595
1789040125673723400,2.357723388671875,-0.6691184276066721,0.185627091431804,-9.782035783225297
1789040125683667700,2.367667724609375,-0.5788453784201294,0.146261788917426,-9.788460263314843
1789040125693611500,2.377611572265625,-0.5254041494812816,0.11284404229638166,-9.791915956726669
1789040125703555600,2.3875556640625,-0.5118316973332315,0.08956557677062228,-9.792876326191426
1789040125713499600,2.397499755859375,-0.5252326653718948,0.0777221677717287,-9.792266085338593
1789040125723443500,2.407443359375,-0.5484234617473557,0.0731278805177193,-9.791031575107574
1789040125733386500,2.417386474609375,-0.5679698737384751,0.06635567383589222,-9.789964238137006
1789040125743330600,2.42733056640625,-0.5871735367065295,0.04571709182704799,-9.788947754570842
1789040125753274600,2.437274658203125,-0.5995713190520182,0.0034160118532876368,-9.788303611448407
1789040125763218700,2.44721875,-0.5971046001449227,-0.054840359713626094,-9.788300104317068
1789040125773162500,2.45716259765625,-0.5754891633274033,-0.11949197414456866,-9.789019650763272
1789040125783106600,2.4671064453125,-0.545571615980193,-0.18312166621582582,-9.78975030312538
1789040125793049600,2.477049560546875,-0.5219611328879371,-0.24400418760394676,-9.789709386593103
1789040125802993400,2.486993408203125,-0.5083896305879577,-0.3054408722761087,-9.788698748245835
1789040125812937500,2.4969375,-0.5023004103347659,-0.36920550670549274,-9.786816003239155
1789040125822881500,2.506881591796875,-0.4974781778100878,-0.4317775886157527,-9.784500127512215
1789040125832825600,2.51682568359375,-0.49366289383824913,-0.4921882181758061,-9.781840552914142
1789040125842769700,2.526769775390625,-0.4938341952845454,-0.5519639838984236,-9.778642049133778
1789040125852713500,2.53671337890625,-0.5023648173404858,-0.6088261637292802,-9.77483155093491
1789040125862656500,2.546656494140625,-0.5210890262285247,-0.6573722410377114,-9.770706579959391
1789040125872600600,2.5566005859375,-0.5416587899180129,-0.6951984060849994,-9.766969146996736
1789040125882544600,2.566544677734375,-0.5494049835979938,-0.7248507631573826,-9.764380299547314
1789040125892488400,2.576488525390625,-0.5258972667604684,-0.7545268664315342,-9.763426944345236
1789040125902432800,2.586432861328125,-0.4746808377316221,-0.7901121206842362,-9.763236974731088
1789040125912376600,2.59637646484375,-0.4092752128958702,-0.8248588052209466,-9.76332348397076
1789040125922320600,2.606320556640625,-0.34427141032665964,-0.8532588241446762,-9.763393042075634
1789040125932263700,2.616263671875,-0.3001643566452898,-0.8743665671683848,-9.762978031533956
1789040125942207500,2.62620751953125,-0.28649818006549027,-0.8858693734355271,-9.76235376215577
1789040125952151600,2.636151611328125,-0.2981972030244768,-0.8842387765590101,-9.76214976401627
1789040125962095600,2.646095703125,-0.3211195942547172,-0.8716008287820964,-9.762561267426609
1789040125972039400,2.656039306640625,-0.3383725980790332,-0.8548645788408815,-9.763456170439719
1789040125981983700,2.665983642578125,-0.35147001659385857,-0.8374062982354312,-9.764508894363045
1789040125991926800,2.6759267578125,-0.3843031956594437,-0.8167341701500117,-9.765022689104079
1789040126001870600,2.68587060546875,-0.43390696532726286,-0.7897379536096006,-9.765163558879495
1789040126011814700,2.695814697265625,-0.46817368432730433,-0.7547328373324126,-9.766350138315557
1789040126021758500,2.705758544921875,-0.4895076373223215,-0.7120962763287126,-9.768505855044722
1789040126031702500,2.71570263671875,-0.5197141576787456,-0.6555166032336652,-9.770905901923776
1789040126041646600,2.725646484375,-0.577305418969132,-0.5787928445152938,-9.77251801329553
1789040126051590700,2.735590576171875,-0.6529905918873846,-0.49375839010197664,-9.772419229096174
1789040126061533400,2.745533447265625,-0.7003461442369967,-0.4170615193905309,-9.772713828128575
1789040126071477800,2.755477783203125,-0.6931728185415268,-0.35763456710558383,-9.775581492519379
1789040126081421600,2.765421630859375,-0.6617929070241749,-0.30234760070219635,-9.779622292342781
1789040126091365600,2.77536572265625,-0.661285907350108,-0.23942164558665827,-9.78139923888743
1789040126101309400,2.785309326171875,-0.6966406407825648,-0.17995238852994516,-9.78022025823593
1789040126111253500,2.79525341796875,-0.7436225375141948,-0.13231432031136936,-9.777519767105579
1789040126121196500,2.805196533203125,-0.7835637219540774,-0.09080356673351489,-9.774875974598526
1789040126131140400,2.815140380859375,-0.8031120336413383,-0.04369440406013746,-9.773612238273024
1789040126141084700,2.825084716796875,-0.8146106021247803,0.011976928868202957,-9.772750068485736
1789040126151028700,2.83502880859375,-0.8233980850186199,0.07025803330298513,-9.771768071711064
1789040126160972500,2.84497265625,-0.821028287147358,0.12461311655058525,-9.771426710927486
1789040126170916600,2.85491650390625,-0.8037896406419575,0.17584621358644217,-9.772072023093699
1789040126180860400,2.8648603515625,-0.7725117281943559,0.2241315575994551,-9.773606977576017
1789040126190803500,2.874803466796875,-0.6977277053669094,0.2501533578834496,-9.77859879451394
1789040126200747500,2.88474755859375,-0.5897332676593214,0.24881704951208083,-9.785738729396462
1789040126210691300,2.89469140625,-0.5392608253981918,0.25779249272607263,-9.788417008695006
1789040126220635600,2.9046357421875,-0.5446998746469617,0.2895345155540854,-9.787229260215163
1789040126230579700,2.914579833984375,-0.5800895332623273,0.3286114478474483,-9.783961198329925
1789040126240523500,2.9245234375,-0.628293007678166,0.3705380339508876,-9.779486683264373
1789040126250467600,2.934467529296875,-0.6635336862768978,0.4109968855893239,-9.77554174503088
1789040126260410600,2.94441064453125,-0.6637575581606477,0.4411679327735677,-9.774211373209953
1789040126270354400,2.9543544921875,-0.6313375630058348,0.45895467814840374,-9.77553940694332
1789040126280298500,2.964298583984375,-0.5777629169456661,0.46476928271129725,-9.778576582682133
1789040126290242600,2.97424267578125,-0.514316755614616,0.4624845693076029,-9.782227506405114
1789040126300186600,2.9841865234375,-0.4550273851694539,0.4565939768990501,-9.785441792276501
1789040126310130700,2.994130615234375,-0.41051502035651355,0.4487687266334891,-9.787772281050682
1789040126320073700,3.00407373046875,-0.3868603693289682,0.4367576420506462,-9.789278593960404
1789040126330017500,3.014017578125,-0.382945095581375,0.4191703282380476,-9.79020096950233
1789040126339961600,3.023961669921875,-0.396265545729734,0.397581487166509,-9.790570387336611
1789040126349905400,3.033905517578125,-0.41909627662114796,0.3730832249216735,-9.790584415861964
1789040126359849500,3.043849365234375,-0.4441317144826054,0.34769473583884536,-9.790415489035844
1789040126369793500,3.05379345703125,-0.4589106198109686,0.32307927695512767,-9.790577401599288
1789040126379736600,3.063736572265625,-0.4539312970284372,0.3011780819987878,-9.791507375925779
1789040126389680600,3.0736806640625,-0.42358438182063396,0.28466016924967985,-9.793362063881755
1789040126399624700,3.083624755859375,-0.37278044258281584,0.274388183419127,-9.79572002518475
1789040126409568500,3.093568603515625,-0.31359036779366434,0.27220705825407054,-9.797854699125885
1789040126419512600,3.1035126953125,-0.2565163353104144,0.2789745796276256,-9.799324187156557
1789040126429456400,3.113456298828125,-0.207129423263669,0.2934383911248296,-9.800070037087798
1789040126439400400,3.123400390625,-0.1736989724246785,0.31597160037439315,-9.800020352727174
1789040126449343500,3.133343505859375,-0.1592128394978121,0.34658911268450315,-9.799230663654207
1789040126459287300,3.143287353515625,-0.1544232671337202,0.38263851385023445,-9.797964589241147
1789040126469231400,3.1532314453125,-0.1446680351862684,0.41990496265552935,-9.796588624712824
1789040126479175700,3.16317578125,-0.12929678998794406,0.4569399042598903,-9.795145440167188
1789040126489119500,3.173119384765625,-0.113435587581899,0.49346594649404285,-9.793570153674482
1789040126499063600,3.1830634765625,-0.09783448828360997,0.5274561501076445,-9.791967394652962
1789040126509006600,3.193006591796875,-0.08497838597767986,0.5566490364421158,-9.790471018615364
1789040126518950400,3.202950439453125,-0.07900387814533896,0.5788008086260408,-9.789235923862456
1789040126528894500,3.21289453125,-0.07963087833672762,0.5954869723478332,-9.788230546212196
1789040126538838300,3.22283837890625,-0.08342072647321037,0.6120556837024167,-9.787177237766981
1789040126548782600,3.232782470703125,-0.07938131488929502,0.6324736543636769,-9.78591116335392
1789040126558726700,3.2427265625,-0.06269222399147693,0.6549944790557026,-9.784551565438509
1789040126568670500,3.25267041015625,-0.03782779531537089,0.671843176395446,-9.783538004481791
1789040126578613500,3.262613525390625,-0.009190137419087113,0.6780627815626561,-9.783176185432076
1789040126588557600,3.2725576171875,0.01362349049883196,0.6752853527385742,-9.783363816958666
1789040126598501400,3.28250146484375,0.02233384618598502,0.6680384503502398,-9.783843709430098
1789040126608445400,3.292445556640625,0.01586192963347421,0.6611052170209586,-9.784328278076648
1789040126618389200,3.30238916015625,0.0005752854877024219,0.6594527005735784,-9.78445336576104
1789040126628333600,3.31233349609375,-0.009790689136611764,0.6648929188661277,-9.78407985627353
1789040126638276600,3.322276611328125,-0.0025987663406485807,0.6740292882628739,-9.783459678548574
1789040126648220400,3.332220458984375,0.028532225902075877,0.6789219556752591,-9.783079154798388
1789040126658164500,3.34216455078125,0.08152296656048856,0.6710162240520119,-9.783326407557725
1789040126668108500,3.352108642578125,0.1456597496373579,0.6478702531989663,-9.784141231071949
1789040126678052400,3.36205224609375,0.20975016368869692,0.6149735073778778,-9.785099846971034
1789040126687996400,3.371996337890625,0.26842929328102616,0.5790465270154178,-9.785858556383848
1789040126697940500,3.3819404296875,0.3092910631645471,0.5146974985605105,-9.788248081868886
1789040126707883500,3.391883544921875,0.32588388604708013,0.40167471129689364,-9.793000244832038
1789040126717827600,3.40182763671875,0.3370868325848132,0.2725865408246405,-9.79706325648725
1789040126727771600,3.411771728515625,0.3538674696570262,0.14151833898369223,-9.799241185048222
1789040126737715500,3.421715576171875,0.3728217975065112,0.011052409318252465,-9.799554488781094
1789040126747659500,3.431659423828125,0.3967713398274034,-0.11469233704418874,-9.797948807150124
1789040126757603300,3.441603271484375,0.4423446118701249,-0.24468027850091456,-9.79361223925054
1789040126767546400,3.45154638671875,0.5161596435349435,-0.3725901807077229,-9.785966692933439
1789040126777490400,3.461490478515625,0.608050137855485,-0.49652840280458327,-9.775179925981163
1789040126787434500,3.4714345703125,0.6967089567784219,-0.6245779326777905,-9.76190835647583
1789040126797378600,3.481378662109375,0.7687534716393798,-0.7572880747731775,-9.747098325356841
1789040126807322600,3.491322509765625,0.8203363593604415,-0.8807615289025008,-9.732508074468374
1789040126817266400,3.501266357421875,0.8488164577830583,-0.9899134660821407,-9.719567928874492
1789040126827209500,3.51120947265625,0.858868699915707,-1.087572533866763,-9.708240479174256
1789040126837153500,3.521153564453125,0.8656997149795294,-1.173718712381646,-9.697592828431725
1789040126847097300,3.531097412109375,0.8839443967223167,-1.2394804206460714,-9.687761754769086
1789040126857041700,3.541041748046875,0.9259593917615712,-1.2836305280178784,-9.678082072275876
1789040126866985500,3.5509853515625,0.9929890741351991,-1.3124613395743072,-9.667564769914746
1789040126876929500,3.560929443359375,1.0728189091101288,-1.3359750477612018,-9.6558071121037
1789040126886872600,3.57087255859375,1.1558735513504594,-1.357332600827515,-9.643235799822211
1789040126896816400,3.58081640625,1.2386040762029586,-1.3762395458713172,-9.630276365005969
1789040126906760400,3.590760498046875,1.3199515491992235,-1.3877448363564908,-9.617810266664623
1789040126916704500,3.60070458984375,1.395671683833003,-1.3945457485429942,-9.606130934786796
1789040126926648300,3.6106484375,1.4565353178575635,-1.3975576437100767,-9.596653496867418
1789040126936592600,3.620592529296875,1.4947894990585744,-1.3992293763145804,-9.590523031288384
1789040126946536400,3.630536376953125,1.5072532593123613,-1.387692521647364,-9.590250059565902
1789040126956479500,3.6404794921875,1.4916384876817463,-1.35430667713508,-9.597460137075185
1789040126966423600,3.650423583984375,1.4517363931432365,-1.303754009244591,-9.610569794017076
1789040126976367400,3.660367431640625,1.396608526291698,-1.2466045734375715,-9.626309799462556
1789040126986311400,3.6703115234375,1.3440144157014786,-1.1933039950784294,-9.640542322954534
1789040126996255500,3.68025537109375,1.3201556934691965,-1.1481851157397032,-9.649313073909282
1789040127006199600,3.690199462890625,1.3381879015050828,-1.1117497474636882,-9.651096450194716
1789040127016142300,3.700142333984375,1.3789232319973408,-1.0851121351025999,-9.648391282889246
1789040127026086700,3.710086669921875,1.417564951211214,-1.0635507300272584,-9.64519453267455
1789040127036030500,3.720030517578125,1.4416206573203205,-1.040334470416978,-9.644158175364137
1789040127045974500,3.729974609375,1.4365297639220953,-1.0110635869428515,-9.6480312174052
1789040127055918300,3.73991845703125,1.4108037865132093,-0.9749193836331367,-9.655544661775231
1789040127065862400,3.7498623046875,1.3948011846087873,-0.9364188264556229,-9.661679803529381
1789040127075805400,3.759805419921875,1.4122221288785337,-0.9041446695122868,-9.66222165532112
1789040127085749500,3.76974951171875,1.4586571323171258,-0.8798399570781738,-9.657567692035435
1789040127095693600,3.779693603515625,1.5038992727093399,-0.8538230338986963,-9.652961075022816
1789040127105637600,3.7896376953125,1.5293588542670011,-0.8257889987431466,-9.651398063489793
1789040127115581400,3.79958154296875,1.5439306927159429,-0.7999513776533305,-9.651255440148711
1789040127125525500,3.809525390625,1.5623371408917008,-0.776542737276107,-9.650204469791055
1789040127135468500,3.819468505859375,1.5894062034726142,-0.7579712347317487,-9.647260817554592
1789040127145412400,3.829412353515625,1.6225180533491075,-0.7486794555775821,-9.642475336843729
1789040127155356400,3.8393564453125,1.662392675358802,-0.7425081465315073,-9.636157239738106
1789040127165300500,3.849300537109375,1.7107276671998202,-0.7332870214607566,-9.628400634261965
1789040127175244500,3.85924462890625,1.7672903891600666,-0.7154804388742894,-9.619518239626288
1789040127185188600,3.869188720703125,1.8233999605253337,-0.6910741657618433,-9.610827568170428
1789040127195131600,3.879131591796875,1.8722667211554944,-0.6690816027276217,-9.602986207020281
1789040127205075500,3.889075439453125,1.9143769932627677,-0.6512939440373331,-9.59590355528295
1789040127215019500,3.89901953125,1.9491040232509373,-0.635631680003181,-9.589962474796176
1789040127224963300,3.90896337890625,1.9756499387405813,-0.6253747821439057,-9.585202713048458
1789040127234907400,3.918907470703125,1.9947266873933374,-0.6151895612813532,-9.581911270287632
1789040127244851700,3.928851806640625,2.01446759904325,-0.6024763928437605,-9.578588263344765
1789040127254795500,3.93879541015625,2.0539079212889075,-0.593012070134282,-9.570798924642801
1789040127264738600,3.948738525390625,2.1168533300235866,-0.5812926619743928,-9.557795066162944
1789040127274682600,3.9586826171875,2.1900613357059657,-0.5634478662693873,-9.542353751403093
1789040127284626400,3.96862646484375,2.2632459605127573,-0.5438491030365228,-9.526403318077325
1789040127294570500,3.978570556640625,2.325825166283548,-0.5274665619038045,-9.512240352690219
1789040127304514300,3.988514404296875,2.375160421208292,-0.5137616424825042,-9.500791906958819
1789040127314458400,3.998458251953125,2.411530688358843,-0.5005177281690761,-9.492333290693164
1789040127324401400,4.0084013671875,2.434172874408215,-0.48921227110493926,-9.487141567268967
1789040127334345500,4.018345458984375,2.4491823736220595,-0.47907804977726187,-9.48379693301618
1789040127344289500,4.02828955078125,2.4627093791931864,-0.4689931109514087,-9.480796582156419
1789040127354233600,4.038233642578125,2.4816259688481686,-0.45945981465894725,-9.476328496831655
1789040127364177400,4.048177490234375,2.510062958781421,-0.4472239814095199,-9.469423539748787
1789040127374121500,4.05812158203125,2.545977152727544,-0.4266234937882051,-9.460780799087882
1789040127384064500,4.068064453125,2.5883009214550254,-0.39742026872280983,-9.450565110021829
1789040127394008600,4.078008544921875,2.628914379133284,-0.36216041049957276,-9.440763262453675
1789040127403952600,4.08795263671875,2.65926567825526,-0.3245719266656786,-9.43362858826816
1789040127413896400,4.097896484375,2.678888954874873,-0.2855311981968581,-9.42933936664164
1789040127423840500,4.107840576171875,2.6909415039792655,-0.23897386528654022,-9.427201185569167
1789040127433784600,4.11778466796875,2.694282631100714,-0.17543317580614237,-9.427643668639659
1789040127443727600,4.1277275390625,2.697682794933021,-0.11530694354488513,-9.427598075932265
1789040127453671400,4.13767138671875,2.702343187959492,-0.07536890547673683,-9.426667517083883
1789040127463615700,4.14761572265625,2.7005112963572144,-0.04239705772597808,-9.427396415880322
1789040127473559600,4.1575595703125,2.6861934326693415,-0.008636973073822446,-9.431578670001029
1789040127483503600,4.167503662109375,2.6585139831051228,0.020887802962982094,-9.439397819319367
1789040127493447400,4.177447509765625,2.6257299038782715,0.0484708840472158,-9.448467845481634
1789040127503390500,4.187390380859375,2.588173495683074,0.08117587015586905,-9.45860170148313
1789040127513334500,4.19733447265625,2.5503613591611383,0.12072775388406588,-9.468444465583563
1789040127523278600,4.207278564453125,2.518760936760902,0.15588495545042677,-9.476388702586293
1789040127533222700,4.21722265625,2.4927806923300024,0.17947176540615037,-9.482839486160874
1789040127543166700,4.227166748046875,2.4801246243745085,0.18544616364063693,-9.486042081594467
1789040127553110500,4.237110595703125,2.481929043447971,0.17067969766873867,-9.485846851283311
1789040127563053600,4.247053466796875,2.497951665227115,0.13951873526484704,-9.482150334852934
1789040127572997600,4.25699755859375,2.533098089671135,0.09581712057921103,-9.473366139894724
1789040127582941400,4.26694140625,2.5835025812625885,0.04020179443771485,-9.460142501184343
1789040127592885500,4.276885498046875,2.652282687500119,-0.024030701815302015,-9.44114495524764
1789040127602829600,4.28682958984375,2.7307012674376367,-0.0903785736539401,-9.418357369378208
1789040127612773600,4.296773681640625,2.792712317931652,-0.15145255336039698,-9.399371513879299
1789040127622716700,4.306716552734375,2.8232454033613203,-0.2100860993784852,-9.389118415412307
1789040127632660700,4.31666064453125,2.8366292010694742,-0.2780054971334524,-9.383317620179056
1789040127642604500,4.3266044921875,2.8507527112290263,-0.37166937606837597,-9.375791900849341
1789040127652548600,4.336548583984375,2.8705338087588546,-0.4956732107473537,-9.364012031206489
1789040127662492400,4.346492431640625,2.8940213595911857,-0.6356805606462061,-9.348312357771396
1789040127672436500,4.3564365234375,2.9205627450361846,-0.7721921408511698,-9.329759632992744
1789040127682380800,4.366380859375,2.9520351571425794,-0.8937968054339289,-9.30897228102982
1789040127692323600,4.376323486328125,2.9836954930365085,-1.0031397351410238,-9.287715557989477
1789040127702267600,4.386267578125,3.0154715642645953,-1.1011609873015433,-9.266323810392617
1789040127712211700,4.396211669921875,3.0556226651281118,-1.1873328847795723,-9.242499867212771
1789040127722155500,4.406155517578125,3.098170598000288,-1.2637370561547576,-9.218172066164016
1789040127732099600,4.416099609375,3.1292502113968133,-1.3295242641866207,-9.198397690635918
1789040127742043400,4.42604345703125,3.139949592326581,-1.3774914456285536,-9.187687496051192
1789040127751986400,4.435986328125,3.1288170806765554,-1.3990030202127992,-9.188236362105608
1789040127761930500,4.445930419921875,3.121286977432668,-1.4052753784805536,-9.189840874692797
1789040127771874600,4.45587451171875,3.128998282462358,-1.414838887248188,-9.185749221464992
1789040127781818600,4.465818603515625,3.1248522686988114,-1.4287889405369758,-9.185001617968082
1789040127791762700,4.4757626953125,3.097636929515004,-1.4455338852412998,-9.191598532015085
1789040127801706500,4.48570654296875,3.0596438834682105,-1.4678626214273274,-9.200777279248832
1789040127811649500,4.4956494140625,3.023235768525302,-1.4934684795878828,-9.20868878302574
1789040127821593600,4.505593505859375,2.988172053928673,-1.4992232437223194,-9.21919205686152
1789040127831537400,4.515537353515625,2.9511195036023854,-1.48012939780429,-9.234201409944891
1789040127841481700,4.525481689453125,2.9045696416124698,-1.4488454940073192,-9.253902135714888
1789040127851425500,4.535425537109375,2.858435082425177,-1.3933664756305515,-9.276759279689193
1789040127861369600,4.54536962890625,2.817929469035566,-1.3164054010249673,-9.300362273594736
1789040127871312600,4.555312744140625,2.787706180207431,-1.2310199046842754,-9.321139688685536
1789040127881256700,4.565256591796875,2.774325012847781,-1.1536992760512976,-9.335014484781027
1789040127891200500,4.575200439453125,2.7678657537057996,-1.0982076173886657,-9.34362273865044
1789040127901144600,4.58514453125,2.748855932809412,-1.0731935145761817,-9.352133377364277
1789040127911088400,4.59508837890625,2.7260668856352566,-1.0546871131572872,-9.360907635450362
1789040127921032700,4.60503271484375,2.6982518269926308,-1.0359136583000421,-9.371057273542881
1789040127930975700,4.614975830078125,2.668084652265906,-1.0227916533332317,-9.381130923789739
1789040127940919600,4.62491943359375,2.6575655963391065,-1.0074061604138462,-9.385779041856527
1789040127950863600,4.634863525390625,2.6884254295051098,-0.9805029559191316,-9.379836207804082
1789040127960807700,4.6448076171875,2.7196199014529583,-0.956512058674544,-9.373320542299746
1789040127970751500,4.65475146484375,2.733223479391634,-0.9392149599801748,-9.37111397216618
1789040127980695600,4.664695556640625,2.7410592875838278,-0.9250172155406325,-9.370236020287871
1789040127990638600,4.674638671875,2.7424492806375027,-0.9051050389770418,-9.371773312857746
1789040128000582400,4.68458251953125,2.7397917518660426,-0.8717850993078201,-9.375707145175337
1789040128010526700,4.694526611328125,2.7360803301274776,-0.8198916843328624,-9.381474038138984
1789040128020470500,4.704470458984375,2.731625396545231,-0.7517298561241478,-9.38847777942121
1789040128030414600,4.71441455078125,2.718783450628817,-0.6807993669196963,-9.39761268751323
1789040128040358700,4.724358642578125,2.692815188896656,-0.622706293587014,-9.409109648561477
1789040128050301400,4.734301513671875,2.656869138507545,-0.5699651026763022,-9.42266237309575
1789040128060245500,4.74424560546875,2.618908533425629,-0.4893692882975563,-9.4378090888232
1789040128070189600,4.754189453125,2.580340317839384,-0.3806939921863377,-9.453429267281294
1789040128080133600,4.764133544921875,2.5512264515578744,-0.25205551997665315,-9.465626485553383
1789040128090077700,4.77407763671875,2.5414091141596433,-0.10338833215162158,-9.47105903199613
1789040128100021500,4.784021484375,2.5309058403238653,0.05991729308515787,-9.474244091773032
1789040128109964500,4.793964599609375,2.4967770684897896,0.22256845473488793,-9.480873154523968
1789040128119908600,4.80390869140625,2.437720337756723,0.37612463844418526,-9.49138870331943
1789040128129852400,4.813852294921875,2.4143960146620866,0.504918447346054,-9.49137116766274
1789040128139796500,4.82379638671875,2.3902896012790498,0.6351621627952904,-9.489649750697613
1789040128149740500,4.833740478515625,2.35226659848541,0.7910628455378115,-9.487437335345149
1789040128159684600,4.8436845703125,2.3329592559471726,0.9780975022125988,-9.474756717470287
1789040128169627600,4.853627685546875,2.346745350845903,1.1942992897260933,-9.446524310198425
1789040128179571700,4.86357177734375,2.3903863396517933,1.4250504846610128,-9.40349122415781
1789040128189515500,4.873515625,2.456182900033891,1.66965126818493,-9.346112217378616
1789040128199459600,4.88345947265625,2.5136510464012622,1.9232962127774953,-9.281858064132928
1789040128209403400,4.8934033203125,2.5458476811289787,2.154637701755762,-9.222069073602556
1789040128219346400,4.903346435546875,2.5408441737532614,2.349617106889933,-9.17571765679419
1789040128229290500,4.91329052734375,2.5073040154621005,2.5029487428620456,-9.144345782452822
1789040128239234600,4.923234619140625,2.4820216901674863,2.6597286195918914,-9.106908908984064
1789040128249178600,4.9331787109375,2.4794179374098775,2.853802454188466,-9.048685268074273
1789040128259122700,4.943122802734375,2.4766096019908783,3.1266137254133817,-8.95885477502346
1789040128269066500,4.95306640625,2.476365856362879,3.344410380902886,-8.879916262865066
1789040128279009500,4.963009521484375,2.512920394039154,3.476356260627508,-8.818762998244166
1789040128288953600,4.97295361328125,2.5502806951403616,3.5898540449917316,-8.762384108418226
1789040128298897400,4.9828974609375,2.5542919766083356,3.6986437977954743,-8.715847982692718
1789040128308841500,4.992841552734375,2.540393507376313,3.8191906238883733,-8.667788592922687
1789040128318785800,5.002785888671875,2.5247066934227944,3.9526226505175233,-8.61237474873662
1789040128328729600,5.0127294921875,2.521414666140079,4.0900466693922874,-8.548940679702163
1789040128338672600,5.022672607421875,2.532172499258816,4.227722909462452,-8.478493517035245
1789040128348616700,5.03261669921875,2.540902918203175,4.360782011125981,-8.408195407450199
1789040128358560500,5.042560546875,2.5412711669936776,4.47687068876624,-8.34685275773704
1789040128368504600,5.052504638671875,2.544181209221482,4.5711154911279674,-8.294723926571011
1789040128378448400,5.062448486328125,2.556469905169308,4.638003792269528,-8.25371270174682
1789040128388392700,5.072392822265625,2.561445647755265,4.690731466111541,-8.222311601310968
1789040128398336000,5.0823359375,2.548792210148275,4.739943825308978,-8.19798789191544
1789040128408279800,5.09227978515625,2.529986971913278,4.785676817958056,-8.177216906565427
1789040128418223900,5.102223876953125,2.5171198915556072,4.822066228200495,-8.159786463814973
1789040128428168000,5.11216796875,2.513575058555603,4.847019467671215,-8.14608468619883
1789040128438111700,5.12211181640625,2.5115637187331914,4.8584027392119165,-8.139922071915864
1789040128448055800,5.132055908203125,2.515447574429214,4.851014967048168,-8.143128174480795
1789040128457998800,5.141998779296875,2.5328712951779364,4.82119821319431,-8.15542826860547
1789040128467943000,5.15194287109375,2.563337160590291,4.772589372847974,-8.174477836990356
1789040128477887000,5.161886962890625,2.615730487911403,4.725219718907773,-8.185394367802143
1789040128487830800,5.171830810546875,2.68254075538069,4.681455395983159,-8.188916112187504
1789040128497774800,5.18177490234375,2.7419983219996094,4.652840711395442,-8.18553114592433
1789040128507719000,5.191718994140625,2.823997683033347,4.635383088377118,-8.167537808594107
1789040128517661700,5.20166162109375,2.905820810717344,4.62519545636177,-8.144577788767219
1789040128527605800,5.211605712890625,2.9714456677943466,4.619307275106013,-8.124218306827546
1789040128537550000,5.221550048828125,3.0232579803571102,4.614533777093887,-8.107797917902468
1789040128547494000,5.231493896484375,3.0672812464788555,4.613406234368681,-8.09188781658709
1789040128557438000,5.24143798828125,3.090139559496939,4.623094976951181,-8.077648863354325
1789040128567381800,5.2513818359375,3.1008900860920545,4.64947824922502,-8.058362563604115
1789040128577324800,5.26132470703125,3.1115432897925377,4.702613919346034,-8.023346195280551
1789040128587268900,5.271268798828125,3.116413526177406,4.796090075422823,-7.965921011272072
1789040128597212700,5.281212646484375,3.0815804054662586,4.9587446894049645,-7.8794088489890095
1789040128607156700,5.29115673828125,3.02222366887331,5.11448061003983,-7.80247524691224
1789040128617101000,5.30110107421875,2.985113250879943,5.210016621255875,-7.753399373576045
1789040128627043800,5.3110439453125,2.932301990407705,5.301672576168179,-7.711305614212155
1789040128636988000,5.32098779296875,2.8058319117456674,5.475101974403858,-7.636815313634276
1789040128646932000,5.330931884765625,2.734231779651344,5.595915634739399,-7.57496471439898
1789040128656875800,5.340875732421875,2.7227193287730214,5.58819176248908,-7.584806893977523
1789040128666819800,5.35081982421875,2.687470320737362,5.526224843397737,-7.642561748331785
1789040128676763600,5.360763671875,2.6564000596910713,5.459339757126569,-7.701270542410016
1789040128686708000,5.3707080078125,2.6362609425038097,5.398109335616231,-7.751190465354919
1789040128696650800,5.380650634765625,2.643750421476364,5.331124296101928,-7.794875293302535
1789040128706595000,5.390594970703125,2.6837214895978567,5.257160065224767,-7.83136407226622
1789040128716539000,5.400538818359375,2.7383421375796195,5.176948464390636,-7.865818130531907
1789040128726483000,5.41048291015625,2.7738842833429573,5.095049348860979,-7.9067340782880775
1789040128736426800,5.4204267578125,2.8148902474701405,5.022608966550231,-7.938523885780572
1789040128746369800,5.430369873046875,2.8740768881931897,4.967189277145266,-7.952175394514202
1789040128756313900,5.44031396484375,2.921258326084912,4.935577748829126,-7.9546683803737155
1789040128766257700,5.450257568359375,2.9416134241104124,4.923806062492728,-7.954460290580988
1789040128776202000,5.460201904296875,2.9432322574838996,4.926814596658945,-7.951997699859738
1789040128786146000,5.47014599609375,2.9376825144022702,4.925027713242173,-7.955156456151604
1789040128796089900,5.48008984375,2.921408255949616,4.902765904812514,-7.9748776401877395
1789040128806033000,5.490032958984375,2.8862650463759896,4.860171502450108,-8.013648977130652
1789040128815977000,5.49997705078125,2.8459400502502916,4.81136100205183,-8.057409792923927
1789040128825920800,5.509920654296875,2.8117738690152763,4.758205165925622,-8.100850875243545
1789040128835864800,5.51986474609375,2.7951933210924267,4.687338608802855,-8.147769278284906
1789040128845808600,5.52980859375,2.8035692275106907,4.616211939439177,-8.185413657024503
1789040128855753000,5.5397529296875,2.8338799023613332,4.574487890170515,-8.198388289409875
1789040128865696000,5.549696044921875,2.8460350350573655,4.5617684015899895,-8.201262968063354
1789040128875639800,5.559639892578125,2.875042226094007,4.579615316186845,-8.181173535236717
1789040128885584000,5.569583984375,2.9317966712340713,4.525496772508323,-8.1911437251091
1789040128895528000,5.57952783203125,3.010272534316778,4.454730460889637,-8.201463459071517
1789040128905471700,5.5894716796875,3.085066786277294,4.454334447309375,-8.173840123608707
1789040128915415800,5.599415771484375,3.1350159353166815,4.482653656081855,-8.139279097837209
1789040128925358800,5.60935888671875,3.1821953273817893,4.52218311791569,-8.099004370594024
1789040128935303000,5.619302978515625,3.2510654499903318,4.540473684626817,-8.061331350281835
1789040128945247000,5.6292470703125,3.3485607785806057,4.538427273491025,-8.022480518361926
1789040128955190800,5.639190673828125,3.4544431195050476,4.534141851256788,-7.979900436785817
1789040128965134800,5.649134765625,3.541306871704757,4.552134896326065,-7.931431297171115
1789040128975078000,5.659077880859375,3.611918285022676,4.600124143469333,-7.871676793432235
1789040128985022000,5.66902197265625,3.670868778902292,4.6840904206618665,-7.794508798077702
1789040128994965800,5.6789658203125,3.7245372407257555,4.784275134466588,-7.707720741462707
1789040129004909800,5.688909912109375,3.7451486515998837,4.8777790553331375,-7.638819054672122
1789040129014854000,5.69885400390625,3.7748718819513916,4.982724115407467,-7.556003993341326
1789040129024798000,5.7087978515625,3.794650641393661,5.114997911912202,-7.457063142117858
1789040129034741000,5.718740966796875,3.81426339661926,5.259440869638324,-7.345748547011613
1789040129044684800,5.728684814453125,3.8389810737684367,5.444576487758756,-7.196469255170226
1789040129054628900,5.73862890625,3.893470496585965,5.682504369390011,-6.9800026792407035
1789040129064573000,5.748572998046875,3.9493858605533836,5.971743920585513,-6.701570353263616
1789040129074516700,5.758516845703125,3.985021529819071,6.2523331323355436,-6.418592785072327
1789040129084459800,5.768459716796875,3.9935529190599914,6.509644928872585,-6.151943835869431
1789040129094403800,5.77840380859375,3.9671500653028486,6.733458944955467,-5.923902557480335
1789040129104348000,5.788347900390625,3.9310394720017907,6.909907983273268,-5.741994669234752
1789040129114292000,5.7982919921875,3.906868907341361,7.035065225771069,-5.604874017220736
1789040129124235800,5.80823583984375,3.8839717236176132,7.1140089986264705,-5.520508219316602
1789040129134179800,5.818179931640625,3.874133927953243,7.143126956561208,-5.48973840252161
1789040129144123000,5.828122802734375,3.8590564780697223,7.12620621689856,-5.522254186201096
1789040129154066700,5.838066650390625,3.822779588291049,7.080390222141146,-5.605784117802977
1789040129164010800,5.8480107421875,3.7814819477409123,7.020550962728262,-5.708121041205525
1789040129173955000,5.857955078125,3.7508968398630618,6.981188089632988,-5.7761716641247265
1789040129183899000,5.86789892578125,3.7107223581239577,6.979872330859303,-5.803645361983776
1789040129193843000,5.877843017578125,3.6477439239025116,6.9998834377527235,-5.819447911271452
1789040129203786000,5.887785888671875,3.6034625913664695,7.021170555931329,-5.8213896929889914
1789040129213729800,5.897729736328125,3.564457737928629,7.042531323868036,-5.819606901225447
1789040129223673900,5.907673828125,3.4986274214074013,7.0641188862979405,-5.833373560771346
1789040129233617700,5.91761767578125,3.363627707070112,7.115718140631913,-5.8500388643682
1789040129243561700,5.927561767578125,3.1638179591700433,7.1905737673908465,-5.869945926365256
1789040129253504800,5.9375048828125,2.976528962408006,7.268325115591288,-5.872148989367485
1789040129263448800,5.94744873046875,2.882460101135075,7.3075289987325664,-5.8704228962272405
1789040129273393000,5.957392822265625,2.8873452428281308,7.294477209457755,-5.8842369020462035
1789040129283337000,5.9673369140625,2.9931714696511627,7.175561491698026,-5.97684153598547
1789040129293280800,5.97728076171875,3.088811525763571,7.023012384405732,-6.107941612535715
1789040129303224800,5.987224853515625,3.1195255207180974,6.94828476794064,-6.177403855818509
1789040129313168000,5.99716796875,3.195415751221776,6.813923059245943,-6.2873015698641534
1789040129323111700,6.007111572265625,3.228170312093198,6.503190053644776,-6.592253069454431
1789040129333056000,6.017055908203125,3.181911249743402,6.090305418080091,-6.996717667198181
1789040129342999800,6.026999755859375,3.1162709028363227,5.641652134519815,-7.391279295086861
1789040129352943900,6.03694384765625,3.072310180556774,5.189961675220728,-7.732760490173101
1789040129362888000,6.046887939453125,3.035469227154553,4.736343754990399,-8.032644769501685
1789040129372831000,6.0568310546875,2.9599951762363315,4.28876862205565,-8.307544245177507
1789040129382774800,6.06677490234375,2.8746424131214616,3.88891911689192,-8.531300978115201
1789040129392718800,6.07671875,2.779379373627901,3.5878453355178235,-8.693262641397117
1789040129402662100,6.086662109375,2.753646381956339,3.3786455357208847,-8.784791755059361
1789040129412606000,6.09660595703125,2.7679095928475257,3.2768393581941724,-8.818807421907781
1789040129422549000,6.106549072265625,2.780884225232899,3.232713800741732,-8.831005224701762
1789040129432493000,6.1164931640625,2.8048990148097275,3.2126801897555586,-8.830719978019594
1789040129442437000,6.12643701171875,2.828212085857987,3.221810713933408,-8.819951915767788
1789040129452381200,6.136381103515625,2.878672107028961,3.269974148599803,-8.785833957588672
1789040129462325000,6.146324951171875,2.926463493512571,3.3997987983867524,-8.720526495897769
1789040129472269000,6.15626904296875,2.9626354616120456,3.66773924870491,-8.598886906132101
1789040129482212000,6.166212158203125,2.7577780749335883,4.24609735506475,-8.398552549836038
1789040129492156000,6.176156005859375,2.4223497501455244,4.980699916103482,-8.092911898937821
1789040129502100000,6.186099853515625,2.4372763933815063,5.614210585364699,-7.662290531152486
1789040129512044000,6.1960439453125,2.6061934287592767,6.089086105418205,-7.231955579093098
1789040129521988000,6.205988037109375,2.5929393949106334,6.508171933710575,-6.86227061830759
1789040129531932200,6.21593212890625,2.4704101628288626,6.92665102828145,-6.487599685803056
1789040129541875200,6.225875244140625,2.646744050334394,7.390017312327027,-5.878161381524801
1789040129551819000,6.235819091796875,3.0110569626927375,7.773405804294347,-5.165083254551887
1789040129561763000,6.24576318359375,3.2796550001367923,8.020287392231822,-4.5923014870196575
1789040129571707100,6.25570703125,3.4864892398461698,8.145315455392003,-4.203402414937317
1789040129581651000,6.26565087890625,3.7338960207015273,8.145090414464473,-3.985709512083232
1789040129591594000,6.275593994140625,3.9542017364025113,8.089358590370416,-3.885477452005446
1789040129601538300,6.285538330078125,3.98424002405256,8.070286810153723,-3.8944431410104032
1789040129611482000,6.295482177734375,3.902791282638907,8.078825505918264,-3.958680635382235
1789040129621426200,6.30542626953125,3.7547108451932667,8.097918913444877,-4.0615588260546325
1789040129631370000,6.315369873046875,3.5915360067293047,8.112696795859932,-4.177964022298157
1789040129641314000,6.32531396484375,3.4508509402319785,8.117103506386279,-4.286560590617358
1789040129651257000,6.335257080078125,3.3262405179619785,8.114750805780291,-4.38832088317573
1789040129661201000,6.345200927734375,3.1910417739212513,8.109927331146597,-4.496301657684147
1789040129671145000,6.35514501953125,2.985434445658326,8.111867359298467,-4.6319750334993
1789040129681089300,6.36508935546875,2.794864527529478,8.098207082736492,-4.772646948254108
1789040129691033000,6.375033203125,2.6047823929175733,8.072762260356544,-4.920976392024755
1789040129700977200,6.38497705078125,2.439407414060831,8.028320476561785,-5.075995688822865
1789040129710920200,6.394920166015625,2.2387014479734004,7.97840230718255,-5.24439644524157
1789040129720864000,6.404864013671875,2.0104710767529905,7.934269150945544,-5.401456892478466
1789040129730808000,6.41480810546875,1.9334426359996197,7.863044574165344,-5.532155402490496
1789040129740752000,6.424751953125,1.847942134977132,7.777837064740061,-5.679855900707841
1789040129750696200,6.4346962890625,1.7330042348071932,7.681005753016471,-5.845443937793374
1789040129760639000,6.444638916015625,1.6311514416597783,7.604308882305026,-5.973625496548414
1789040129770583000,6.4545830078125,1.508692498335242,7.555107921284437,-6.067502634641528
1789040129780527000,6.464527099609375,1.4887161704942584,7.5370204759299755,-6.094871118560433
1789040129790471200,6.47447119140625,1.5361026294387876,7.54085260143876,-6.078347853782772
1789040129800415000,6.4844150390625,1.6265649906523525,7.543996744683384,-6.0508519440919155
1789040129810359000,6.494359130859375,1.7369522417806087,7.551914093679189,-6.010153438478708
1789040129820302000,6.504302001953125,1.833602059457451,7.578380660322308,-5.947806580159067
1789040129830246000,6.514245849609375,1.9117416763231156,7.619857164570689,-5.8697033497810365
1789040129840190200,6.524190185546875,1.9812156100437044,7.6742983643323175,-5.774971640685201
1789040129850134000,6.534134033203125,2.0436749888271093,7.735870146626233,-5.670106660109758
1789040129860078000,6.544078125,2.0929829173535106,7.794711627173423,-5.57066019745171
1789040129870021000,6.554021240234375,2.1126965026050804,7.85288616824448,-5.480794048565626
1789040129879965200,6.563965087890625,2.101759951918572,7.9169024210810655,-5.392181699132919
1789040129889909000,6.573908935546875,2.0676720966167745,7.986817668828368,-5.301493712469935
1789040129899853000,6.58385302734375,2.0109439549617467,8.069635068246722,-5.196874231088161
1789040129909796900,6.593796875,1.9477583077304064,8.169529859194158,-5.063143806034327
1789040129919741200,6.6037412109375,1.8922483096934855,8.268498767468333,-4.921557406783104
1789040129929684200,6.613684326171875,1.839178398285061,8.359315348947048,-4.7864019173622125
1789040129939628000,6.6236279296875,1.7851215216659009,8.446326108402014,-4.652235146717727
1789040129949572000,6.633572021484375,1.731585307919979,8.523906776210666,-4.529347894978523
1789040129959516200,6.64351611328125,1.6819672905310987,8.593282510253786,-4.415525116443634
1789040129969460000,6.6534599609375,1.6434236248642204,8.656028012502192,-4.306124538265168
1789040129979404000,6.663404052734375,1.60198876780048,8.716342488211392,-4.198737930257618
1789040129989347000,6.67334716796875,1.560498673418164,8.777753526985645,-4.084885925628245
1789040129999291100,6.683291015625,1.5242654766507446,8.83576323288381,-3.971937007318437
1789040130009235200,6.693235107421875,1.5080331576436756,8.884364474445581,-3.8683690808162092
1789040130019179000,6.703178955078125,1.4946856002926825,8.927382362917065,-3.7733456952974196
1789040130029123000,6.713123046875,1.4789945485554634,8.969403057044744,-3.678692604395747
1789040130039066000,6.723066162109375,1.4561201611854135,9.013721506720781,-3.578120060317218
1789040130049010000,6.733010009765625,1.4454044136427342,9.057213442444802,-3.4710338965609666
1789040130058954000,6.7429541015625,1.4224045001968741,9.100310241371393,-3.3662323366105555
1789040130068898000,6.75289794921875,1.404240336344391,9.141829415717721,-3.2596748729035254
1789040130078842000,6.762842041015625,1.4146252444975078,9.173415225070714,-3.1650735121890903
1789040130088785200,6.77278515625,1.444058259730786,9.191688548386097,-3.098054570405185
1789040130098729200,6.782729248046875,1.4428705112509428,9.209676625019311,-3.044726884843409
1789040130108673000,6.792673095703125,1.4109642377719283,9.233619226142764,-2.9866084578737615
1789040130118617000,6.8026171875,1.3832714903347194,9.255011558261513,-2.9328657617703078
1789040130128561000,6.812560791015625,1.375927849573642,9.269124254766107,-2.8914614459753034
1789040130138505000,6.8225048828125,1.3826150722526014,9.275910553905367,-2.866406207434833
1789040130148448000,6.832447998046875,1.391655287798494,9.278861220404504,-2.8524387646198273
1789040130158392000,6.84239208984375,1.3842588939368723,9.281062529841066,-2.8488743501365184
1789040130168336100,6.852336181640625,1.3739702857650815,9.281284648159145,-2.853131423059106
1789040130178280200,6.8622802734375,1.3758682283408938,9.27683702110052,-2.8666493685409424
1789040130188224000,6.87222412109375,1.3888320470713078,9.267018806919454,-2.8920453833431004
1789040130198168000,6.88216796875,1.3964287858106195,9.25604323939681,-2.923363189409673
1789040130208111000,6.892111083984375,1.3779936960622667,9.249209593984483,-2.9535797562360764
1789040130218055000,6.902054931640625,1.3376757141992448,9.244422944229841,-2.9869138705611227
1789040130227999000,6.9119990234375,1.2952971465446055,9.237115836086868,-3.0279163275569676
1789040130237943300,6.921943359375,1.2712367642603815,9.222691004893184,-3.0816084625169635
1789040130247887000,6.93188720703125,1.2714780256703495,9.2007451305449,-3.146433109126985
1789040130257830100,6.941830078125,1.301961572869867,9.17498992704153,-3.2085569723457095
1789040130267774200,6.951774169921875,1.352302789966762,9.148019502529502,-3.264263369737565
1789040130277718000,6.961718017578125,1.3915524119459093,9.122067315149307,-3.3199189137250182
1789040130287662000,6.971662109375,1.4027056741230188,9.096348352003098,-3.3851562327891584
1789040130297606000,6.98160595703125,1.4315736028194426,9.068305329823493,-3.4477298856019973
1789040130307550000,6.991550048828125,1.476250218283385,9.038207128679751,-3.5074034330591557
1789040130317493000,7.001492919921875,1.5126051417343318,9.010264059743285,-3.5633608826026317
1789040130327437000,7.01143701171875,1.5170644592307507,8.985534692156314,-3.6234035556331277
1789040130337381000,7.021381103515625,1.494899243043363,8.965632890856266,-3.681448917366564
1789040130347325200,7.0313251953125,1.4780771414496003,8.94617474167049,-3.7351872295558453
1789040130357269000,7.04126904296875,1.4735453432388603,8.921133823916316,-3.7963700125321744
1789040130367212000,7.0512119140625,1.4733264397911727,8.888497044205666,-3.8722505984246727
1789040130377156000,7.061156005859375,1.4686261531457303,8.852593371653557,-3.955393868796527
1789040130387100000,7.071099853515625,1.4514340491957962,8.818295380732417,-4.0374975669875734
1789040130397044700,7.081044677734375,1.431805950270593,8.781746396014094,-4.1232606644690035
1789040130406988500,7.090988525390625,1.4371740531750024,8.735560398900509,-4.218402707931399
1789040130416932600,7.1009326171875,1.4286014551408588,8.6859695617795,-4.322435329335928
1789040130426875600,7.110875732421875,1.3904486884877085,8.644193782323597,-4.4175721121013165
1789040130436819500,7.1208193359375,1.3269978144489227,8.61356717339158,-4.49621134905219
1789040130446763500,7.130763427734375,1.2560530775234102,8.58736305707693,-4.566172481767833
1789040130456707600,7.14070751953125,1.1922419918701053,8.557164318168162,-4.639387355582416
1789040130466651600,7.150651611328125,1.1339724659919739,8.526334880140423,-4.710213580694794
1789040130476595700,7.160595703125,1.0996000215951354,8.497241472125053,-4.770552898584306
1789040130486538800,7.170538818359375,1.1047090351719409,8.466685005819796,-4.823405660110712
1789040130496482600,7.180482666015625,1.1489492319799959,8.43435743818879,-4.869490242676437
1789040130506426600,7.190426513671875,1.2127257577765733,8.402278876882791,-4.909318687456846
1789040130516370400,7.200370361328125,1.2791411076441406,8.369955985426902,-4.9475282988637685
1789040130526314500,7.210314453125,1.3272395142503082,8.336654019805788,-4.990895146903395
1789040130536257500,7.220257568359375,1.3779884353652596,8.293591707670688,-5.04855238610208
1789040130546201300,7.230201416015625,1.537519510499388,8.243112981799245,-5.085025967496633
1789040130556145700,7.240145751953125,1.6732447626322506,8.20022777979672,-5.111445772388577
1789040130566089700,7.25008984375,1.807686112434417,8.142586322689056,-5.157611311236024
1789040130576033500,7.260033447265625,1.951829356561601,8.078748349028825,-5.205246922636031
1789040130585976600,7.2699765625,2.094054492107779,8.014610515639186,-5.248937011280655
1789040130595920600,7.279920654296875,2.2241198187828064,7.944760734343529,-5.301362779566645
1789040130605864400,7.289864501953125,2.3455200468346473,7.8727832933694115,-5.356138910371065
1789040130615808500,7.29980859375,2.453476855945587,7.797711978033185,-5.417243075153231
1789040130625752600,7.309752685546875,2.5352359784826635,7.721718287155031,-5.487988343983888
1789040130635696600,7.319696533203125,2.5907161659032103,7.656802455130219,-5.552654000639915
1789040130645639700,7.3296396484375,2.624168353649974,7.605921578198671,-5.6066112162768835
1789040130655583700,7.339583740234375,2.645415724340081,7.566437124550342,-5.649882787248492
1789040130665527600,7.349527587890625,2.654629250626266,7.5343018646210425,-5.688377060815692
1789040130675471600,7.3594716796875,2.6552736860096453,7.505702962124348,-5.725758404704928
1789040130685415400,7.36941552734375,2.64179987193048,7.477247852012515,-5.769060955336689
1789040130695358500,7.3793583984375,2.615579389002919,7.455427649870514,-5.809108888086676
1789040130705302500,7.389302490234375,2.571117146942019,7.446666251266002,-5.8401090065062045
1789040130715246600,7.39924658203125,2.5102540974393484,7.451486803290248,-5.860406529125571
1789040130725190700,7.409190673828125,2.4521745411753653,7.462776843589544,-5.870623387235403
1789040130735134700,7.419134765625,2.408078502078354,7.478969853499532,-5.868264256888628
1789040130745078500,7.42907861328125,2.3753512676052746,7.499493001568317,-5.855399514618516
1789040130755021600,7.439021484375,2.336931082187593,7.525503056615591,-5.837459953302145
1789040130764965600,7.448965576171875,2.2773095571786164,7.558959336015581,-5.817765657272934
1789040130774909400,7.458909423828125,2.1953921753399075,7.602498618012667,-5.792464627277851
1789040130784853500,7.468853515625,2.1091420249938966,7.661205658525228,-5.746986486172676
1789040130794797600,7.478797607421875,2.023356131158769,7.730982959106564,-5.684039908394217
1789040130804740600,7.48874072265625,1.949956110035628,7.805808190727234,-5.606907568874955
1789040130814684700,7.4986845703125,1.8961707438342272,7.879805154830217,-5.5211962015807625
1789040130824628500,7.50862841796875,1.8573998452827334,7.952789727020263,-5.42895806286633
1789040130834572500,7.518572509765625,1.8183333247855304,8.029945447415113,-5.327665095558762
1789040130844516600,7.5285166015625,1.764021304361522,8.114231750342249,-5.217072384986281
1789040130854460400,7.53846044921875,1.7041865749932825,8.205068205565214,-5.093426716095209
1789040130864403500,7.548403564453125,1.6694494620025158,8.296169449204205,-4.955494163176417
1789040130874347800,7.55834765625,1.6550902433909476,8.384467325860262,-4.809550737759471
1789040130884291600,7.56829150390625,1.6284044810391962,8.46951350724399,-4.667550789271295
1789040130894235600,7.578235595703125,1.5731846981205044,8.549502989760041,-4.538886999957263
1789040130904179500,7.588179443359375,1.5066592389419673,8.624703484433889,-4.417559544880688
1789040130914122500,7.59812255859375,1.4482204939767718,8.69687498667538,-4.29387909693718
1789040130924066600,7.608066650390625,1.3854603786811233,8.768259722453354,-4.167556317791343
1789040130934010600,7.6180107421875,1.3112591241776943,8.839703494942187,-4.038643522152304
1789040130943954400,7.627954345703125,1.2461629671499133,8.908139317786693,-3.9067274530440566
1789040130953898800,7.637898681640625,1.2159836635939776,8.969002075028419,-3.774757315661013
1789040130963842600,7.647842529296875,1.2052050068829208,9.022321577283739,-3.6490564678058024
1789040130973785600,7.65778564453125,1.1989949001964182,9.069156978216768,-3.5331542526483535
1789040130983729700,7.667729736328125,1.2070226507641375,9.10717778905332,-3.431150506722927
1789040130993673500,7.677673583984375,1.2073027828797698,9.145145992919803,-3.328530382464826
1789040131003617500,7.687617431640625,1.1868878444258122,9.187942932116984,-3.2161180552497504
1789040131013561600,7.6975615234375,1.1519099814817308,9.235698955026269,-3.0895564989119766
1789040131023504400,7.70750439453125,1.1196453960843384,9.279981164345145,-2.966266219329834
1789040131033448400,7.717448486328125,1.110090289818868,9.31180838123858,-2.8685055178016423
1789040131043392800,7.727392822265625,1.1159659769192338,9.336596785536408,-2.784412983880937
1789040131053336600,7.737336669921875,1.1204179148267954,9.362481168377398,-2.6942536972671745
1789040131063280600,7.74728076171875,1.1316254644744097,9.389237073355913,-2.594621941170096
1789040131073224400,7.757224365234375,1.1536665428254753,9.412845327958465,-2.4975521445155144
1789040131083167500,7.76716748046875,1.183711406346783,9.430359357339142,-2.416092881707847
1789040131093111600,7.777111572265625,1.2052835520118474,9.443165647420287,-2.3546407802708447
1789040131103055400,7.787055419921875,1.2134816176451741,9.455759756055473,-2.299232489042729
1789040131112999700,7.796999755859375,1.223878289301321,9.46680663524866,-2.2476897872015833
1789040131122943700,7.80694384765625,1.2438795323878526,9.474811662527918,-2.202524803698808
1789040131132886500,7.816886474609375,1.2516397911258041,9.483100182923675,-2.1620793960638345
1789040131142830600,7.82683056640625,1.2473023464433848,9.49260100171864,-2.122538974444568
1789040131152774700,7.836774658203125,1.255987464941293,9.497274254226683,-2.0963417262621222
1789040131162718500,7.846718505859375,1.29509285614416,9.492323353821039,-2.094968245951831
1789040131172662500,7.85666259765625,1.3415360428892076,9.482612691667676,-2.109667948564142
1789040131182605600,7.86660546875,1.3552175083696842,9.475390923720598,-2.1332371863305566
1789040131192549400,7.87654931640625,1.3454685600325464,9.470616548925637,-2.16044141959846
1789040131202493700,7.88649365234375,1.348158091377467,9.459684236022829,-2.206180257466435
1789040131212437500,7.8964375,1.370659992173314,9.44075157201588,-2.2724233925722537
1789040131222381600,7.906381591796875,1.403386349863559,9.417344977465271,-2.34829959455058
1789040131232325600,7.91632568359375,1.4334635082192717,9.391503849244117,-2.4321273400552568
1789040131242268700,7.9262685546875,1.4389264498002827,9.367779859307408,-2.5188383859112857
1789040131252212500,7.93621240234375,1.4227737719006837,9.34647520547211,-2.605668820363283
1789040131262156500,7.946156494140625,1.401148946200311,9.323281961411237,-2.698814137050509
1789040131272100600,7.9561005859375,1.390779527877271,9.296255422797799,-2.7956682451277968
1789040131282044700,7.966044677734375,1.3966061882041394,9.26639395301938,-2.890295909327268
1789040131291987700,7.97598779296875,1.4020000100716947,9.237663533097505,-2.978315845824778
1789040131301931500,7.985931640625,1.4064768632248044,9.210722919201851,-3.0585660251036284
1789040131311875600,7.99587548828125,1.4211705744877456,9.18174115486741,-3.1378803848370906
1789040131321819600,8.005819580078125,1.4510009184755384,9.148963505381346,-3.2189196686670183
1789040131331763500,8.015763427734376,1.4593034673966467,9.118567782595752,-3.300385361215472
1789040131341707500,8.02570751953125,1.4416741410732268,9.095531774923204,-3.3709485514774915
1789040131351650600,8.035650634765625,1.4464021925084292,9.070104488199949,-3.4367899739146233
1789040131361594600,8.0455947265625,1.5150941820710897,9.035314914369582,-3.4982805076658723
1789040131371538700,8.05553857421875,1.6278677438139915,8.992319237729907,-3.5579005713701246
1789040131381482500,8.065482421875,1.7109212900757789,8.950265810376406,-3.624344928136468
1789040131391426600,8.075426513671875,1.7322135228209197,8.915840393683315,-3.698325233365595
1789040131401369900,8.085369873046876,1.7714336264446378,8.874374995350838,-3.778608438131213
1789040131411313700,8.095313720703125,1.859501055345684,8.817827178698778,-3.86763053740859
1789040131421257700,8.1052578125,1.982705702470988,8.750155325964093,-3.9590518067821856
1789040131431202000,8.1152021484375,2.1137132784321904,8.679486044979095,-4.045876688276231
1789040131441145900,8.125145751953125,2.220768608658761,8.612657072809338,-4.130458174757659
1789040131451090000,8.13508984375,2.30267210810259,8.551479842790961,-4.2119171453043815
1789040131461033000,8.145032958984375,2.3836373037829994,8.486092301601172,-4.2982451831921935
1789040131470976800,8.154976806640626,2.4644421943351627,8.412344343823195,-4.396518218156695
1789040131480920800,8.1649208984375,2.5395684547290203,8.332357199394702,-4.504751798382401
1789040131490864600,8.17486474609375,2.5942259275898336,8.252400450104474,-4.619338254766166
1789040131500808700,8.18480859375,2.6447677818253634,8.175285061720013,-4.726551552033424
1789040131510751700,8.194751708984375,2.7245266704559326,8.097841756555438,-4.813761341191828
1789040131520695800,8.20469580078125,2.8406436974078417,8.013467775344848,-4.887272859865427
1789040131530640000,8.214639892578125,2.9731136010065673,7.9328060926556585,-4.939795658785105
1789040131540584000,8.224583984375,3.0908976843878624,7.862841745069622,-4.979204709109664
1789040131550527700,8.23452783203125,3.181067492395639,7.79930596922636,-5.022153039476275
1789040131560471800,8.244471923828126,3.250307032838464,7.729981088587642,-5.0846138795644045
1789040131570414800,8.254414794921875,3.300351751206815,7.648118797937035,-5.1753632410258055
1789040131580358700,8.264358642578125,3.329097660958767,7.560579046171903,-5.284427426856756
1789040131590302700,8.274302734375,3.341057563343644,7.47802234351635,-5.393222732618451
1789040131600246800,8.284246826171875,3.3466856323584913,7.400998725068569,-5.495027156579495
1789040131610190800,8.29419091796875,3.352963397453725,7.330951375374197,-5.584370742896199
1789040131620134000,8.3041337890625,3.3553494158074257,7.265063483446836,-5.668410962107777
1789040131630078000,8.314077880859376,3.356333458408713,7.1994865571647875,-5.750901029267907
1789040131640021800,8.324021728515625,3.3644498371079563,7.133589897409081,-5.827755136367679
1789040131649965800,8.3339658203125,3.3705031457975503,7.079139929819107,-5.8903176832646125
1789040131659909600,8.34390966796875,3.3637685768455263,7.048525595846772,-5.9307438016772265
1789040131669852700,8.353852783203125,3.36054523088485,7.030418276748061,-5.954018878802657
1789040131679797000,8.363796875,3.3583225863993165,7.015462699678539,-5.97288724540174
1789040131689740800,8.37374072265625,3.34649244787395,7.003889750784635,-5.993071955296397
1789040131699684900,8.383684814453124,3.315598712438345,7.002715446308255,-6.011586101630329
1789040131709629000,8.39362890625,3.2708839569211006,7.013288862770795,-6.0237447414577
1789040131719572700,8.40357275390625,3.215262899725139,7.032444229617714,-6.031352878373861
1789040131729515800,8.413515869140625,3.1575328875511883,7.058270160269736,-6.031680210632086
1789040131739459800,8.4234599609375,3.104324444454908,7.0870239610671995,-6.025581893756986
1789040131749403600,8.433403564453124,3.0518779256418345,7.117800792124867,-6.016094518965482
1789040131759348000,8.443347900390625,2.9944860593810674,7.1545830010771745,-6.001280396193265
1789040131769291800,8.453291748046874,2.9358763417631386,7.200406594619155,-5.975379062217474
1789040131779234800,8.46323486328125,2.881441864003241,7.251713003486395,-5.939723226946592
1789040131789179000,8.473178955078126,2.8307632316455242,7.309067460346221,-5.893618478375673
1789040131799122700,8.483122802734375,2.784936715494096,7.374515207290649,-5.833611461180448
1789040131809066800,8.493066650390626,2.7371114267408845,7.451174668601155,-5.758351345273852
1789040131819010800,8.5030107421875,2.6865879849448797,7.539014864617585,-5.667086435505747
1789040131828955000,8.512954833984375,2.636243699108064,7.633346760740876,-5.563509741175174
1789040131838897700,8.522897705078124,2.58291250641495,7.735059414765239,-5.446815206596255
1789040131848842000,8.532842041015625,2.5182953650757667,7.84721689043641,-5.315050528657436
1789040131858785800,8.542785888671874,2.4408795324400065,7.967071350350976,-5.170905092573165
1789040131868729900,8.552729736328125,2.3559251209929584,8.088336846107245,-5.019841839924454
1789040131878673700,8.562673583984376,2.257991254854947,8.209924997946619,-4.865080901801586
1789040131888616700,8.57261669921875,2.1509733340293167,8.32876355881691,-4.7090743475317955
1789040131898560800,8.582560791015625,2.0431736151762308,8.442823068717122,-4.551328840640187
1789040131908504800,8.5925048828125,1.9350301974520085,8.553562494283915,-4.388920602634549
1789040131918449000,8.602448974609375,1.8341813206501305,8.655202083072066,-4.230088177289068
1789040131928393000,8.61239306640625,1.7317337764799594,8.749052333158254,-4.077446423277259
1789040131938336000,8.6223359375,1.6247814682364463,8.837372421646117,-3.9282735144197938
1789040131948279800,8.63227978515625,1.5224037744320928,8.919939061173796,-3.779860191757977
1789040131958224000,8.642223876953125,1.444957985049486,8.993235768052935,-3.633760991257429
1789040131968167700,8.652167724609376,1.3979891669951379,9.054663757961988,-3.497009464816749
1789040131978111700,8.66211181640625,1.363087364961952,9.109557377666235,-3.3657565357923507
1789040131988055800,8.672055908203125,1.3293217273518443,9.160196262535452,-3.2394547994345424
1789040131997998600,8.68199853515625,1.2979169736541807,9.207677560156583,-3.115196551603079
1789040132007943000,8.69194287109375,1.2866253259196876,9.249390795770287,-2.9939541444614526
1789040132017887000,8.701886962890624,1.2862465557351708,9.2856627171129,-2.8796579031959175
1789040132027830800,8.711830810546875,1.2858514189377426,9.317442587733268,-2.775296195967495
1789040132037774800,8.72177490234375,1.2803536983042956,9.347363094222546,-2.6754250781565903
1789040132047718000,8.7317177734375,1.2707182933442294,9.375397933095693,-2.5802310122460126
1789040132057661700,8.74166162109375,1.2619091100752353,9.400980118119715,-2.489893154194951
1789040132067605800,8.751605712890624,1.2589059827364981,9.422657112398744,-2.408122195089608
1789040132077549800,8.7615498046875,1.2463970681667327,9.443319376677275,-2.332509174092114
1789040132087494000,8.771493896484374,1.246743397386372,9.458411731868981,-2.2703467324286697
1789040132097438000,8.78143798828125,1.2830937907926738,9.463330483570694,-2.22922269487977
1789040132107381000,8.791381103515626,1.315041565325856,9.465477432471513,-2.201314404995739
1789040132117324800,8.80132470703125,1.3122539804339408,9.474250521513818,-2.1649423842795192
1789040132127268900,8.811268798828126,1.3037008177526295,9.48502735159397,-2.122499811477959
1789040132137212700,8.821212646484375,1.3382045603789388,9.485473341795801,-2.098904562487453
1789040132147156700,8.83115673828125,1.4028700709044932,9.475416058161855,-2.1020994130060076
1789040132157099800,8.841099853515624,1.4443595807649194,9.465561603623629,-2.1183435685813428
1789040132167043800,8.8510439453125,1.4582703249566256,9.460205045026541,-2.132693873234093
1789040132176988000,8.86098779296875,1.484238002166897,9.448291319870949,-2.167312912803143
1789040132186932000,8.870931884765625,1.522128318491578,9.42911666380167,-2.223795701394975
1789040132196875800,8.880875732421876,1.5622051850751042,9.405750985783339,-2.2938480195254085
1789040132206819800,8.89081982421875,1.5943907138869164,9.383149862396717,-2.3632211232200264
1789040132216763000,8.900762939453125,1.6298501498028635,9.35824513824284,-2.4366470094367862
1789040132226706700,8.910706787109374,1.6624216091923414,9.332125777602196,-2.5135958090826866
1789040132236650800,8.920650634765625,1.6778933190904557,9.309186800563335,-2.587294959282875
1789040132246594800,8.9305947265625,1.677791173890233,9.288968188399076,-2.6590368379354477
1789040132256539000,8.940538818359375,1.6861334702998398,9.266091755202412,-2.73256004704684
1789040132266482000,8.95048193359375,1.6989219324633478,9.242328602299093,-2.804174207666516
1789040132276425700,8.96042578125,1.714841386128962,9.221401549604535,-2.8627745729342102
1789040132286369800,8.970369873046875,1.7250598516739903,9.20358064623177,-2.913534746095538
1789040132296313900,8.98031396484375,1.7291729860812424,9.187801477819681,-2.9605148161962624
1789040132306257700,8.990257568359375,1.7453724257320165,9.170539377373457,-3.004209873276949
1789040132316202000,9.000201904296874,1.7733870985999702,9.1503149199903,-3.0491388560667634
1789040132326145000,9.01014501953125,1.7966281273253262,9.130425393649935,-3.0948128120049834
1789040132336088800,9.0200888671875,1.815473551440239,9.113061586394906,-3.134733026722073
1789040132346033000,9.030032958984375,1.860213149137795,9.09130685070455,-3.1714588293120265
1789040132355976700,9.039976806640626,1.9126222585499286,9.066136169090866,-3.2120763786435127
1789040132365920800,9.049920654296875,1.954618841149658,9.044072805842756,-3.2487858146205544
1789040132375863800,9.05986376953125,1.9893122611291705,9.023257981351017,-3.285398219963908
1789040132385808000,9.069807861328124,2.0337623743608595,8.998139322185516,-3.326814810718596
1789040132395751700,9.079751708984375,2.086463306326419,8.963264992681145,-3.3877582319810986
1789040132405696300,9.0896962890625,2.1392185988277195,8.921380492153764,-3.4645459958463904
1789040132415640000,9.09964013671875,2.1880916430681943,8.877095944747328,-3.5468051768600937
1789040132425584000,9.109584228515626,2.2436352511137723,8.829939641296862,-3.628867666257918
1789040132435527200,9.119527099609375,2.3051541341766715,8.780078170540929,-3.710373398555815
1789040132445471000,9.129470947265625,2.367471474140882,8.73167508189976,-3.784613523764908
1789040132455415000,9.1394150390625,2.4320620197340843,8.682668182146548,-3.8557401931285855
1789040132465359000,9.149359130859375,2.498020638810098,8.629600608825683,-3.9319580481514333
1789040132475303200,9.15930322265625,2.5521184319615364,8.5763582634598,-4.012870782992244
1789040132485246200,9.16924609375,2.601233760525286,8.525510704275964,-4.088963842591643
1789040132495190000,9.17918994140625,2.667337048768997,8.468959380492567,-4.163221211196482
1789040132505134000,9.189134033203125,2.7542934476882217,8.400870179128646,-4.243779433511198
1789040132515078100,9.199078125,2.8439298794716596,8.327098840475083,-4.329189187510312
1789040132525022000,9.20902197265625,2.9162454663589594,8.254227081009745,-4.41969100395143
1789040132534966000,9.218966064453125,2.968981908029318,8.18922064809203,-4.504683993843198
1789040132544909000,9.228908935546874,3.0262156611189246,8.127634252750873,-4.5775475700020785
1789040132554853000,9.23885302734375,3.1011490292891857,8.060358121335506,-4.645842815332115
1789040132564797200,9.248797119140624,3.1756635875254866,7.987153768914937,-4.721328848949074
1789040132574741200,9.2587412109375,3.231194043828547,7.90956491779983,-4.813372926396132
1789040132584685000,9.26868505859375,3.262354321245849,7.826763884994387,-4.926379127851129
1789040132594628000,9.278628173828125,3.271203690394759,7.7377441238045686,-5.059335645923018
1789040132604572200,9.288572265625,3.2650258785426614,7.637841734072565,-5.2128082978010175
1789040132614516000,9.298515869140624,3.2549417069017883,7.529035906916857,-5.374882189285755
1789040132624460300,9.308460205078125,3.2470565066099164,7.422879132965207,-5.5252048527002335
1789040132634404000,9.318404052734374,3.2397137426316736,7.327889065194129,-5.654793940165638
1789040132644347100,9.32834716796875,3.2395109135359523,7.249988079389929,-5.754443816441297
1789040132654291200,9.338291259765626,3.248445038358867,7.187436638408899,-5.827412022018432
1789040132664235000,9.348235107421875,3.2628666546821594,7.132101120156049,-5.8870385154634715
1789040132674179000,9.358178955078126,3.27045608689785,7.088510400232672,-5.935277937975526
1789040132684123100,9.368123046875,3.2682916023403403,7.062009931319952,-5.967972000831365
1789040132694067000,9.37806689453125,3.2522286485508083,7.048266068127751,-5.992942191436886
1789040132704010000,9.388010009765624,3.222611216661334,7.044100180619955,-6.013799686026573
1789040132713954300,9.397954345703125,3.180182526254654,7.046789565834403,-6.0332087353736155
1789040132723898000,9.407898193359374,3.1237329092800614,7.061697212108969,-6.045254562476277
1789040132733842200,9.41784228515625,3.064607643355429,7.091370465838908,-6.040777709323168
1789040132743786000,9.427785888671876,3.009451573322713,7.135621110975742,-6.016352877640724
1789040132753729000,9.43772900390625,2.963276097603142,7.193578794425726,-5.970077448678016
1789040132763673000,9.447673095703125,2.9208929999038578,7.25541361157,-5.915887008807063
1789040132773617200,9.4576171875,2.8745255087435244,7.31722037166357,-5.862230237421393
1789040132783561000,9.46756103515625,2.818229328764975,7.382866856050491,-5.806998179543018
1789040132793505300,9.47750537109375,2.753966407690942,7.461810628905892,-5.7365019170373674
1789040132803449000,9.487448974609375,2.679828866073489,7.55730280098021,-5.645889333698153
1789040132813392100,9.49739208984375,2.5992726895853875,7.670793571081757,-5.529292998796701
1789040132823336200,9.507336181640625,2.5175372401848435,7.791298603859543,-5.397041998645663
1789040132833280000,9.517280029296876,2.4420973837971687,7.9064575994342565,-5.262556955832243
1789040132843224000,9.52722412109375,2.3693765771098434,8.01644883698225,-5.127669761958718
1789040132853168000,9.537168212890625,2.291895570283383,8.124883492738007,-4.990379014074802
1789040132863111000,9.54711083984375,2.2310541480906307,8.222430843776465,-4.856377663125097
1789040132873055200,9.55705517578125,2.2058396273352203,8.30362210329771,-4.728052604246139
1789040132882999300,9.566999267578124,2.2042593724064528,8.37070592701137,-4.609000400625169
1789040132892943000,9.576943115234375,2.1848440394490956,8.440541095259785,-4.4893353258028625
1789040132902887200,9.58688720703125,2.1359465914197266,8.52591285533607,-4.349359576618671
1789040132912831000,9.5968310546875,2.0818428069189188,8.616279939481615,-4.19476201236397
1789040132922774000,9.60677392578125,2.0528196876607834,8.695486747187376,-4.042871076719463
1789040132932718000,9.616718017578124,2.03909978986606,8.763024159887433,-3.90151819396317
1789040132942662000,9.626661865234375,2.013342248275131,8.83168034748435,-3.757425949370861
1789040132952606200,9.636606201171874,1.9736967588461933,8.903120612841844,-3.60684668084681
1789040132962550300,9.64655029296875,1.951341426914185,8.967440232539177,-3.4565377536967397
1789040132972494000,9.656494140625,1.9564413804017007,9.017195904833077,-3.32158567789346
1789040132982437000,9.66643701171875,1.9455749723419546,9.063028850725292,-3.2010376827567812
1789040132992381200,9.676381103515626,1.8949106607705353,9.115112089183926,-3.081304803395271
1789040133002325000,9.686324951171875,1.8422366168119013,9.164587190970778,-2.964270661598444
1789040133012269000,9.69626904296875,1.8230318578653038,9.200081698200107,-2.8645117719903586
1789040133022213000,9.706213134765624,1.8113259302414952,9.228277865114807,-2.7799942906558512
1789040133032156200,9.71615625,1.785183334855735,9.255797155681252,-2.704385507442057
1789040133042100200,9.726100341796876,1.7547339821867645,9.281558788925409,-2.635143044389784
1789040133052044000,9.7360439453125,1.740510226523131,9.302498701101541,-2.5699247222870585
1789040133061988000,9.745988037109376,1.7326133357934652,9.32150559938848,-2.5055878591939806
1789040133071932200,9.75593212890625,1.7061385858438909,9.34060192952454,-2.452067281408608
1789040133081876000,9.7658759765625,1.6714705925665794,9.356177684319018,-2.416306670589
1789040133091819000,9.775819091796874,1.6486637174747882,9.365793653926254,-2.394617255219817
1789040133101763000,9.78576318359375,1.6412625013075768,9.371924119505286,-2.3756457205072046
1789040133111707100,9.79570703125,1.636973718072474,9.377112335798143,-2.3580690011538565
1789040133121651200,9.805651123046875,1.629122127789259,9.380787809440493,-2.3488668730445204
1789040133131595000,9.815594970703126,1.6304484079569577,9.378789329099655,-2.355908754380047
1789040133141538000,9.8255380859375,1.6482193347081542,9.36824396968782,-2.385316050650179
1789040133151482000,9.835482177734375,1.6682565989561378,9.354390800902246,-2.4254227278500795
1789040133161426200,9.84542626953125,1.6803746145121752,9.33866131685078,-2.4771216431662437
1789040133171370000,9.855369873046875,1.6702791908249257,9.325808849540353,-2.531758950021863
1789040133181314000,9.86531396484375,1.6480062764793633,9.314735666862129,-2.5865292356073857
1789040133191257000,9.875257080078125,1.6331405696503818,9.301282311049103,-2.643744576257467
1789040133201201200,9.885201171875,1.640553476255387,9.280985957473517,-2.7096619865402576
1789040133211145200,9.895145263671875,1.6491066389366984,9.259172769594192,-2.778227280983329
1789040133221089000,9.905089111328126,1.6405033535033464,9.24158976663053,-2.8411566153660415
1789040133231033000,9.915033203125,1.6240034696012735,9.22743264646232,-2.896117455087602
1789040133240977200,9.92497705078125,1.6098485413901507,9.21411665329337,-2.9459859401062127
1789040133250920000,9.934919921875,1.601654275149107,9.199531663101912,-2.9956130175843834
1789040133260864000,9.944864013671875,1.5929247329875826,9.183598180910945,-3.048689943255484
1789040133270808300,9.954808349609374,1.5653341307505964,9.171904235985874,-3.0977894897282123
1789040133280752000,9.964752197265625,1.5373505836732684,9.164088593798875,-3.1347178291529416
1789040133290696200,9.9746962890625,1.5316573404677212,9.154583098828793,-3.165122027505934
1789040133300640000,9.984639892578125,1.5366916813731193,9.141799020579457,-3.1994527516528963
1789040133310583000,9.9945830078125,1.543303792989254,9.125451696890591,-3.242642781820893
1789040133320527000,10.004527099609374,1.5541437514334917,9.10396993292272,-3.2973850103557107
1789040133330471000,10.014470947265625,1.5559449556365608,9.080233668026327,-3.361367360922694
1789040133340415000,10.0244150390625,1.5345394717752932,9.062313395932316,-3.4190690237849948
1789040133350359300,10.034359375,1.5010587885864077,9.04647168367803,-3.475426286301017
1789040133360302300,10.04430224609375,1.4684195246577263,9.024490738016366,-3.5458027218192814
1789040133370246100,10.05424609375,1.4565440856859087,8.991019845569133,-3.634612931911647
1789040133380190200,10.064190185546876,1.4638801276624203,8.947090102949739,-3.738587101127207
1789040133390134000,10.074134033203125,1.488757671548426,8.896422576507925,-3.8480733117625117
1789040133400077000,10.0840771484375,1.5348146354548633,8.843324608048796,-3.9509915421843527
1789040133410021400,10.094021484375,1.585249376054108,8.79551714721322,-4.036858100040257
1789040133419964200,10.103964111328125,1.6197808834701775,8.762285908740758,-4.09500341501683
1789040133429908200,10.113908203125,1.6509982979021967,8.733284855183959,-4.144190639773011
1789040133439852300,10.123852294921875,1.6923557058155536,8.695576179036497,-4.20633466899693
1789040133449796000,10.133796142578126,1.7491101509556173,8.64975024740696,-4.2770083338961005
1789040133459740200,10.143740234375,1.8130284963756798,8.601661047020555,-4.346809599874914
1789040133469683200,10.15368310546875,1.8664045511238276,8.555492585563659,-4.414800309300422
1789040133479627000,10.163626953125,1.9112074233159422,8.504265087151527,-4.493900149500369
1789040133489571000,10.173571044921875,1.9515197060905396,8.442698565554618,-4.591598891708254
1789040133499515400,10.183515380859374,1.9886418145217,8.379733283075689,-4.6899648656532165
1789040133509459200,10.193459228515625,2.024714267769456,8.323198910427093,-4.774444060803949
1789040133519403300,10.2034033203125,2.050221341730654,8.277669915917516,-4.84222726495862
1789040133529346300,10.21334619140625,2.0650182211071253,8.243332762029766,-4.894236561398208
1789040133539290000,10.2232900390625,2.0922803220421073,8.203736080178619,-4.948883220604062
1789040133549234200,10.233234130859374,2.1446615205340085,8.149633318591118,-5.015405903303623
1789040133559178200,10.24317822265625,2.217345940733701,8.085571473047137,-5.086972425389289
1789040133569122000,10.2531220703125,2.293005431221425,8.018855898123979,-5.158529595124722
1789040133579065000,10.263065185546875,2.3437879623450337,7.960009156879782,-5.226404861477017
1789040133589009400,10.273009521484376,2.3713247885681685,7.916030898943543,-5.280501193323731
1789040133598953200,10.282953125,2.4006696871265767,7.870411888062954,-5.335143468615413
1789040133608897300,10.292897216796876,2.425851328525692,7.815231852632761,-5.404419833937287
1789040133618841000,10.302841064453125,2.4365597695447505,7.755603605622053,-5.484904406493902
1789040133628785200,10.31278515625,2.4434977521143852,7.699214778923988,-5.560736184808611
1789040133638728200,10.322728271484374,2.4738512431934474,7.647492190471291,-5.618389332354068
1789040133648672000,10.332672119140625,2.5034987779602407,7.602310401964187,-5.666369811668992
1789040133658616300,10.3426162109375,2.5012299562454223,7.57550481262505,-5.703155527752638
1789040133668560400,10.352560302734375,2.4766616244390605,7.5651669584840535,-5.7275452881217
1789040133678504200,10.362504150390626,2.4597423460811374,7.553436773201823,-5.750270914670825
1789040133688447200,10.372447265625,2.459142626622319,7.5360934242129325,-5.77323794876039
1789040133698391300,10.382391357421875,2.4653616472676396,7.5178160092443225,-5.794380105510354
1789040133708335000,10.392335205078124,2.4539681465938687,7.504742592659592,-5.8161213971972465
1789040133718279200,10.402279052734375,2.409526801190525,7.504808059111237,-5.834589366301894
1789040133728223000,10.412222900390624,2.344798016170412,7.525252296724915,-5.834627944746613
1789040133738166000,10.422166015625,2.285237573698908,7.5610168530672786,-5.811978306043148
1789040133748110300,10.4321103515625,2.229186892914027,7.6026961864113805,-5.7792813205778595
1789040133758054100,10.44205419921875,2.153152870025486,7.6476213698089115,-5.748757587498426
1789040133767998200,10.451998291015625,2.0490230718567966,7.704290767014026,-5.7110243614315985
1789040133777942300,10.4619423828125,1.938240245539695,7.772838233539462,-5.6565498439222575
1789040133787886000,10.471885986328125,1.8390401588581502,7.8504142251729965,-5.582055451691151
1789040133797829000,10.4818291015625,1.7570656400047242,7.9370543977499,-5.4850984677612775
1789040133807773200,10.491773193359375,1.6986268950395285,8.0190248249501,-5.383335544854402
1789040133817717000,10.501717041015626,1.6600322298377752,8.08923759433925,-5.289507506600022
1789040133827661300,10.511661376953125,1.6318138510912656,8.153418097826838,-5.198974418237805
1789040133837605000,10.521605224609376,1.6018421989366411,8.218883964949846,-5.104357275432348
1789040133847548200,10.531548095703124,1.5670168231405317,8.293853573477268,-4.992677938666939
1789040133857492200,10.5414921875,1.5231487475804983,8.379183247977494,-4.862065353372693
1789040133867436300,10.551436279296874,1.4798926664389669,8.465330084079504,-4.724245320917666
1789040133877380000,10.561380126953125,1.4543679106906056,8.541461722123623,-4.593324692587554
1789040133887324200,10.57132421875,1.4364124211527407,8.61373726926148,-4.462131969317793
1789040133897268200,10.581268310546875,1.4127723101072012,8.688424553716182,-4.322698656447232
1789040133907211300,10.591211181640626,1.3934173290349543,8.762477631920575,-4.177051291367412
1789040133917155300,10.6011552734375,1.3863592272169887,8.829034216889738,-4.036895217180252
1789040133927099100,10.61109912109375,1.372338739040494,8.891143759322166,-3.9031563165590164
1789040133937043200,10.621043212890624,1.335340549249947,8.953459637981652,-3.7713103900775313
1789040133946987300,10.6309873046875,1.2976597840227186,9.013658378356695,-3.6387370261043306
1789040133956930000,10.640929931640626,1.2772734140761195,9.070236590147019,-3.5028251653581854
1789040133966874000,10.6508740234375,1.269249097574502,9.124991093641519,-3.3606428460404274
1789040133976818200,10.660818115234376,1.2643380907878279,9.177372438263893,-3.2167835334211587
1789040133986762200,10.67076220703125,1.2621857350595296,9.224045926633476,-3.081274992778897
1789040133996706300,10.680706298828126,1.2702151661276817,9.26167686136961,-2.962818709224462
1789040134006650000,10.690650146484375,1.2823629923000932,9.29252091244459,-2.8591949608817693
1789040134016593200,10.70059326171875,1.307006289038807,9.317937677773832,-2.763716817332804
1789040134026537200,10.710537109375,1.3307676883764563,9.34084392158687,-2.673590556205809
1789040134036481000,10.72048095703125,1.3469859788581728,9.36162250572145,-2.5915292358517643
1789040134046425000,10.730425048828126,1.3468341492973268,9.381213341376185,-2.519778004848957
1789040134056369400,10.740369384765625,1.3364355048798024,9.40164355046451,-2.448148062138259
1789040134066312200,10.750312255859376,1.3418931857638061,9.418243387609719,-2.3804162959098814
1789040134076256300,10.76025634765625,1.3655455717690288,9.427969247332214,-2.3278895514674485
1789040134086200300,10.770200439453125,1.402228850391507,9.43265945097506,-2.2867131992094216
1789040134096144100,10.78014404296875,1.4506239018566907,9.431536584424972,-2.2610173246778547
1789040134106088200,10.790088134765625,1.4975290070250629,9.425790149727463,-2.2543932303629814
1789040134116032000,10.800031982421874,1.5365221700251102,9.41861514353156,-2.258133001413196
1789040134125975000,10.80997509765625,1.5614076049566268,9.411420263591408,-2.2710328149966896
1789040134135919000,10.819919189453126,1.5525938916429876,9.409733333417773,-2.284024106255919
1789040134145863200,10.82986328125,1.5335435926057397,9.409536934062839,-2.297665970378369
1789040134155807200,10.83980712890625,1.5373523372389375,9.40283714416325,-2.322411412317306
1789040134165751300,10.849751220703125,1.564549410113692,9.388488885337114,-2.3619623553305864
1789040134175694300,10.8596943359375,1.5909605933077633,9.372869875922799,-2.405943097484857
1789040134185638100,10.86963818359375,1.6026232663117348,9.36031551477611,-2.4467288429901
1789040134195582200,10.879582275390625,1.607682595527917,9.348539152264594,-2.488080551815033
1789040134205526000,10.889526123046876,1.6339070239782332,9.329443991172313,-2.542088913117349
1789040134215470000,10.899469970703125,1.6752184007927775,9.303761852905154,-2.6084619582131503
1789040134225414400,10.909414306640626,1.708344279194623,9.276962108784913,-2.6814073674365875
1789040134235357200,10.919357177734375,1.7144070863649248,9.254192058572173,-2.7552023792266844
1789040134245301200,10.92930126953125,1.7047601370975374,9.234640970405936,-2.8258821816056967
1789040134255245300,10.939245361328124,1.6998874164946376,9.214427034416794,-2.8939754746228457
1789040134265189000,10.949189208984375,1.7126269249498842,9.192268394100665,-2.95626709562391
1789040134275133200,10.95913330078125,1.7432019498251377,9.168297735926508,-3.0123008252739902
1789040134285076200,10.969076171875,1.768294890027493,9.146706666365265,-3.0628853496074675
1789040134295020000,10.97902001953125,1.798147153586149,9.123397102448344,-3.1145906946644186
1789040134304964400,10.98896435546875,1.8317958868183195,9.095942693811654,-3.174701172234118
1789040134314908200,10.998908203125,1.8615359221741556,9.063859456330537,-3.248310598324239
1789040134324852200,11.008852294921875,1.8771696907661855,9.030520665830373,-3.331113092434406
1789040134334796300,11.01879638671875,1.8859655761621892,8.995658611285686,-3.419301955758035
1789040134344739000,11.028739013671874,1.9051240117490291,8.955701863950491,-3.5123066949307917
1789040134354683100,11.03868310546875,1.9529583605915306,8.908541468846797,-3.6047462014362215
1789040134364627200,11.048627197265626,2.03626909648478,8.850617687666416,-3.7000758764252066
1789040134374571000,11.058571044921875,2.120367767885327,8.788955304479598,-3.7985076090827583
1789040134384515300,11.068515380859376,2.1702891521349548,8.737407488071918,-3.8881785276576872
1789040134394459100,11.078459228515625,2.204902346485108,8.693611016443372,-3.966095003291964
1789040134404402700,11.088402587890625,2.2669214341551065,8.640956115576625,-4.045409363025427
1789040134414346800,11.0983466796875,2.3522231977351007,8.57939894632995,-4.126906619755924
1789040134424290600,11.10829052734375,2.4346977750651537,8.516858611264825,-4.207822277206183
1789040134434234600,11.118234619140624,2.4986934235051272,8.457866908591985,-4.288520492513477
1789040134444178700,11.1281787109375,2.56525965308547,8.397068448758125,-4.36795614053905
1789040134454121500,11.13812158203125,2.6508660987004635,8.324494210934638,-4.4548950038015835
1789040134464065800,11.148065673828125,2.746053150348365,8.23991447801888,-4.553392787432671
1789040134474009900,11.158009765625,2.8137594898745415,8.159940777593851,-4.654946743763983
1789040134483953700,11.16795361328125,2.846599975463748,8.095928616410493,-4.745865324312448
1789040134493897700,11.177897705078125,2.876338695645332,8.041592046067118,-4.819736323948204
1789040134503841500,11.187841552734374,2.927272471807897,7.990671421647072,-4.8734646992653605
1789040134513784600,11.19778466796875,2.9855805761307477,7.938611564064026,-4.922917589220404
1789040134523728600,11.207728759765626,3.0291598978772756,7.88334326582849,-4.984729610010981
1789040134533672700,11.217672607421875,3.050915218089521,7.826088177689909,-5.061092134201527
1789040134543616800,11.22761669921875,3.068197776801884,7.767070171532034,-5.140933148157596
1789040134553560800,11.237560791015625,3.0939611636117097,7.70258513213992,-5.221874232310056
1789040134563503600,11.247503662109375,3.1147473465308546,7.632551810970902,-5.311583729329705
1789040134573447700,11.25744775390625,3.1129984570369125,7.562465298309922,-5.411910481953621
1789040134583391700,11.267391845703125,3.089828301590681,7.499819164782762,-5.51144754550457
1789040134593335600,11.27733544921875,3.0615494248285886,7.443750071558356,-5.602488583388924
1789040134603279600,11.287279541015625,3.0422210395023224,7.39390964359045,-5.678502148011327
1789040134613222700,11.29722265625,3.040017684239149,7.347317403763532,-5.739827846589685
1789040134623166700,11.307166748046875,3.0399595243111253,7.308965169015527,-5.788614381590485
1789040134633110800,11.31711083984375,3.0278868092015383,7.285799397483467,-5.824035239061713
1789040134643054800,11.327054931640625,3.003606646686792,7.27533177948296,-5.849643143048882
1789040134652998700,11.33699853515625,2.9779151560693977,7.2700979704827065,-5.869246838185191
1789040134662942700,11.346942626953124,2.946590043479204,7.267785017365217,-5.887896593597531
1789040134672885800,11.3568857421875,2.910188650538027,7.266609543845057,-5.907417286625504
1789040134682829600,11.36682958984375,2.8686826279342172,7.267838793379068,-5.926174009543657
1789040134692773600,11.376773681640625,2.830761478079855,7.272410923600196,-5.938786822879314
1789040134702717700,11.3867177734375,2.8065643176734447,7.279523385953903,-5.941558041158318
1789040134712661800,11.396661865234375,2.7875392992079258,7.291978962901235,-5.9352376059651375
1789040134722604800,11.406604736328125,2.750665904840827,7.318191847044229,-5.920158110255002
1789040134732548600,11.416548583984374,2.6871932573616504,7.358797998198867,-5.8989387966156
1789040134742492700,11.42649267578125,2.617700034418702,7.409884626835584,-5.866142442429066
1789040134752436700,11.436436767578124,2.555183080229163,7.471411400943994,-5.815448612502217
1789040134762380500,11.446380615234375,2.503427466289699,7.537437824559211,-5.752413187396526
1789040134772324900,11.456324951171876,2.4534327245429157,7.603826651746034,-5.686202639386058
1789040134782268000,11.466267822265625,2.4017478377521035,7.674524574303627,-5.612812409004569
1789040134792211700,11.476211669921875,2.348066516447067,7.753786911588906,-5.525917969405651
1789040134802155800,11.48615576171875,2.286042021949589,7.843121730077266,-5.424924861827493
1789040134812099600,11.496099609375,2.219689581250399,7.945012663277983,-5.3028445425570006
1789040134822043600,11.506043701171874,2.156503787888586,8.053295343342423,-5.163749960121512
1789040134831986700,11.515986572265625,2.093792626301199,8.16143598458767,-5.01770541241765
1789040134841930800,11.5259306640625,2.0259999236658213,8.275119062390923,-4.856760232701897
1789040134851874600,11.53587451171875,1.952545688137412,8.400420097273587,-4.66807305957973
1789040134861819000,11.54581884765625,1.8884290436662732,8.528717391362786,-4.457042537224292
1789040134871762700,11.5557626953125,1.84829080228433,8.64499223922491,-4.244800885513425
1789040134881706800,11.565706787109375,1.8171536134816706,8.747201736855507,-4.044108217298985
1789040134891649800,11.57564990234375,1.782108165194094,8.836786730712651,-3.8607892932116985
1789040134901593600,11.585593505859375,1.734998038972914,8.918157438454031,-3.6914278750672933
1789040134911537700,11.59553759765625,1.6948823016837238,8.990108575943111,-3.5320968525499103
1789040134921481700,11.605481689453125,1.6731411561273037,9.052239745685458,-3.3805259426400065
1789040134931425800,11.61542578125,1.6614144779764115,9.106476947307586,-3.237622323310375
1789040134941368600,11.62536865234375,1.643069258468598,9.158886933502554,-3.096049952584505
1789040134951313000,11.63531298828125,1.6372893598929046,9.204813987419008,-2.959907790213823
1789040134961256700,11.645256591796874,1.653933182310313,9.240990047171712,-2.8353096429035065
1789040134971200800,11.65520068359375,1.6740790214993058,9.278034121930599,-2.6992466832488775
1789040134981144600,11.66514453125,1.6789325990103183,9.319497766697406,-2.54922095695436
1789040134991088600,11.675088623046875,1.65903927327767,9.36117359291017,-2.4054879010632635
1789040135001031700,11.68503173828125,1.6446609115742146,9.394028983807564,-2.2842216746546327
1789040135010975500,11.6949755859375,1.6480046690441668,9.416215096652508,-2.1884636912509796
1789040135020919800,11.704919921875,1.6604441716395317,9.432239764258265,-2.1085848295025524
1789040135030864000,11.71486376953125,1.6818274436689913,9.442869294822215,-2.043046920056641
1789040135040807700,11.7248076171875,1.7112673270344734,9.44871743632853,-1.990909759453684
1789040135050750700,11.734750732421874,1.7190101962462068,9.457713812732695,-1.9408859377428889
1789040135060694800,11.74469482421875,1.7079447584830223,9.471783254617453,-1.88112427361086
1789040135070638600,11.754638671875,1.6892087860919534,9.487238013380765,-1.8191471253864466
1789040135080582700,11.764582763671875,1.6971299344800412,9.495579140746592,-1.7675228827416896
1789040135090526500,11.7745263671875,1.728619005460292,9.496542432820796,-1.731450137232989
1789040135100470800,11.784470703125,1.7673738296598196,9.492541965007781,-1.7141792689584194
1789040135110413800,11.794413818359375,1.7975214229032397,9.486841707539558,-1.7143939346224069
1789040135120357600,11.804357666015624,1.8316387965604661,9.475699551278352,-1.7397091392733155
1789040135130301700,11.8143017578125,1.8630873893998563,9.46054231415689,-1.7881341474853456
1789040135140245800,11.824245849609374,1.8856218772910533,9.442903197091818,-1.8564421061664818
1789040135150189600,11.834189453125,1.8851583514325319,9.426954517331719,-1.9362626618564127
1789040135160132600,11.844132568359376,1.8812408857278524,9.408205977720021,-2.0290324232295154
1789040135170076700,11.85407666015625,1.8838460997901856,9.383985144177078,-2.135961350597441
1789040135180020700,11.864020751953126,1.9170315994247793,9.35026290731728,-2.2512137235440313
1789040135189964800,11.87396484375,1.9503985931061207,9.315572117686271,-2.3635680369615555
1789040135199908600,11.88390869140625,1.9976744312830268,9.277282426780461,-2.472192662331462
1789040135209851600,11.8938515625,2.0447287356637416,9.235603677958249,-2.587102651581168
1789040135219795700,11.903795654296875,2.0792942914798855,9.196420837604999,-2.6968068888813255
1789040135229739800,11.91373974609375,2.0906683568008244,9.166975547412036,-2.7867650999650357
1789040135239683600,11.92368359375,2.0814814262606203,9.149342275565862,-2.8508514954283832
1789040135249627600,11.933627685546876,2.0646894275441765,9.138160371816157,-2.898527146577835
1789040135259571700,11.94357177734375,2.042828455000371,9.129854315763712,-2.9399013594955203
1789040135269514800,11.9535146484375,2.0164393375076353,9.12064225078225,-2.98634103910923
1789040135279458800,11.963458740234374,2.009589179351926,9.10441826121211,-3.0399864123180507
1789040135289402600,11.973402587890625,2.021155698505044,9.07847659522593,-3.109112263253331
1789040135299346700,11.9833466796875,2.0200933299705386,9.052806731918453,-3.183757169871032
1789040135309290800,11.993290771484375,1.999731071551889,9.032059127444029,-3.254748230156302
1789040135319234600,12.003234619140626,1.9801997109994292,9.011862142589688,-3.3219770152986046
1789040135329177600,12.013177490234375,1.9799382835842667,8.986186434063315,-3.3909733946353193
1789040135339121700,12.02312158203125,1.9984448311336338,8.952852319738268,-3.4674276887625455
1789040135349065700,12.033065673828125,2.032360106347501,8.909407145765423,-3.5584231339395043
1789040135359009800,12.043009765625,2.0842937072023746,8.855052455243468,-3.6625384651914237
1789040135368953600,12.05295361328125,2.142254313261807,8.79195507081747,-3.779240306293964
1789040135378896600,12.062896728515625,2.1732012401893734,8.730382119479774,-3.9023081752970814
1789040135388840700,12.0728408203125,2.176543097963184,8.673167947873473,-4.026061103954911
1789040135398784500,12.082784423828125,2.1760801566265524,8.614549754688143,-4.150251839508116
1789040135408728600,12.092728515625,2.204952323106676,8.55379396495223,-4.259245882712304
1789040135418673000,12.1026728515625,2.2731284721016882,8.49555045029819,-4.33922484383434
1789040135428616700,12.11261669921875,2.3672326969489452,8.440203241607547,-4.396540137727558
1789040135438559700,12.122559814453124,2.457180971160531,8.387513269427417,-4.447724089258909
1789040135448503800,12.13250390625,2.5390876854747533,8.330315464434028,-4.508797566641867
1789040135458447600,12.142447509765624,2.6094895476952193,8.262520862102509,-4.592572705176472
1789040135468391700,12.1523916015625,2.668262639181316,8.183081999206543,-4.699781910790502
1789040135478335700,12.162335693359376,2.7204686272367833,8.092575798851252,-4.824902912931144
1789040135488278500,12.172278564453125,2.77295635484308,7.989688255828619,-4.964469496792555
1789040135498222600,12.18222265625,2.8344124018028376,7.883197719877958,-5.098205767065286
1789040135508167000,12.1921669921875,2.9120871776357293,7.787505056795477,-5.200467871665954
1789040135518110700,12.20211083984375,2.9969530340164896,7.704215363690257,-5.27576598149538
1789040135528054800,12.2120546875,3.0755063462495804,7.626020363375544,-5.343730095174909
1789040135537997800,12.221997802734375,3.131059598906338,7.554827350777387,-5.41215305853784
1789040135547941600,12.231941650390626,3.162102095162868,7.490557999962568,-5.482974315214157
1789040135557885700,12.2418857421875,3.1723136925756927,7.4264476391017435,-5.563692112004756
1789040135567829500,12.25182958984375,3.150570647323131,7.371054837703705,-5.649059195905924
1789040135577773800,12.26177392578125,3.1062004674598573,7.336092829915881,-5.7187108242809765
1789040135587718000,12.2717177734375,3.0747368231818077,7.314369658407569,-5.763367127609253
1789040135597660700,12.28166064453125,3.072357234568894,7.290299631512164,-5.7950400307238095
1789040135607604700,12.291604736328125,3.0738232154682277,7.271241295298934,-5.818163132157921
1789040135617548800,12.301548828125,3.0583085432112216,7.265345222997665,-5.833683941894769
1789040135627492600,12.31149267578125,3.0253745341196656,7.271093995782732,-5.8436897876024245
1789040135637436700,12.321436767578126,2.9827964983701705,7.283107674181461,-5.8506134493857616
1789040135647379700,12.331379638671875,2.934096472609043,7.3010408057570455,-5.852887239536643
1789040135657323500,12.341323486328125,2.8780522215649484,7.327729490718245,-5.847357077938318
1789040135667267800,12.351267822265624,2.816166258755326,7.359426359230279,-5.83767330379188
1789040135677211600,12.361211669921875,2.7428371109113097,7.3959034477561705,-5.8264756179511545
1789040135687155700,12.37115576171875,2.6619126856327053,7.439872937864065,-5.808003557193279
1789040135697098800,12.3810986328125,2.5834417909860607,7.488622063463926,-5.780723920601606
1789040135707042800,12.391042724609376,2.511371995553374,7.539314139825105,-5.746492565175891
1789040135716986600,12.400986572265625,2.4486310233496127,7.591937476509809,-5.704128172177076
1789040135726930700,12.4109306640625,2.3924343582227823,7.649906850397587,-5.650272078827023
1789040135736874500,12.42087451171875,2.33745832093209,7.71696670871377,-5.581676096984744
1789040135746818800,12.43081884765625,2.2800461425356566,7.7879288351655,-5.506352852714062
1789040135756761900,12.440761962890624,2.215400944145769,7.864668375974893,-5.423040947777032
1789040135766705700,12.45070556640625,2.1469092994607983,7.950007402825355,-5.325273231986165
1789040135776649700,12.460649658203126,2.0761508788876233,8.0422052095294,-5.213727166211605
1789040135786593800,12.47059375,2.0092435807846485,8.13655581035316,-5.092130831065774
1789040135796537600,12.48053759765625,1.952318309122324,8.234705218937993,-4.954640176695585
1789040135806480600,12.490480712890625,1.9009635310687123,8.339210134029388,-4.797321663044393
1789040135816424700,12.5004248046875,1.8567248686306177,8.443326342064141,-4.6296018746271725
1789040135826368800,12.51036865234375,1.817652210653573,8.539518771362305,-4.465772371646762
1789040135836312800,12.520312744140625,1.7753544531501828,8.631337807881831,-4.30331503380239
1789040135846256600,12.530256591796874,1.7219747451402245,8.723792219695449,-4.135291586263477
1789040135856200700,12.54020068359375,1.6648372920319436,8.815606580039859,-3.960278718228638
1789040135866143700,12.550143798828126,1.6215439476199447,8.899888206791877,-3.7858918731376527
1789040135876087600,12.560087646484375,1.6011787665918469,8.971475771665572,-3.6220495106756685
1789040135886031600,12.570031494140625,1.5781312146119773,9.039761372384428,-3.4587031150370833
1789040135895975700,12.5799755859375,1.544910935924947,9.108862381139398,-3.2881989565983414
1789040135905919700,12.589919677734375,1.5175446439631282,9.171879686066507,-3.121554103936255
1789040135915862800,12.59986279296875,1.5243857420295477,9.220165870329737,-2.972407498563826
1789040135925806800,12.609806884765625,1.534431189095229,9.262779854175449,-2.8313986069396138
1789040135935750700,12.619750732421876,1.526006475099176,9.307032252877951,-2.687160231874883
1789040135945694700,12.62969482421875,1.511009981497377,9.348895126095414,-2.5466423386380077
1789040135955638500,12.639638427734376,1.5114312756493686,9.382552481025456,-2.419437954352051
1789040135965581600,12.64958154296875,1.5184544522844254,9.410781965687871,-2.302572739381343
1789040135975525600,12.659525634765625,1.5207624369658528,9.437033428275585,-2.190903193357587
1789040135985469700,12.6694697265625,1.5258330182284117,9.460476847705245,-2.0836469337314365
1789040135995413800,12.679413818359375,1.558120838370919,9.475267589601874,-1.9904643537737428
1789040136005357800,12.68935791015625,1.600518987508863,9.483390690302848,-1.9167742636628449
1789040136015301600,12.699301513671875,1.625305784371495,9.490461651602386,-1.8600838236697017
1789040136025244700,12.70924462890625,1.636826126295328,9.498376662510633,-1.8088706460438668
1789040136035188700,12.719188720703125,1.661814290948957,9.502247950986026,-1.7652350640654564
1789040136045132500,12.729132568359375,1.699001427440345,9.500965509960055,-1.7364987989246845
1789040136055076600,12.73907666015625,1.7266034278541802,9.49810252174437,-1.7249007155895233
1789040136065020700,12.749020751953125,1.7365765403360127,9.495444116190075,-1.7295190230399369
1789040136074963700,12.758963623046874,1.7407026803553103,9.490066514804958,-1.7547062173970043
