time,seconds_elapsed,z,y,x
1789040123376692700,0.060692626953125,1.0530680418014526,-0.2678760290145874,0.03331093490123749
1789040123386636800,0.07063671875,0.8311193585395813,-0.1747378408908844,0.19989217817783356
1789040123396580900,0.080580810546875,0.5955635905265808,-0.1661994755268097,0.34980201721191406
1789040123406525000,0.09052490234375,0.4132947325706482,-0.15338833630084991,0.4469362795352936
1789040123416468000,0.100468017578125,0.32668590545654297,-0.09410624206066132,0.4910128116607666
1789040123426411800,0.110411865234375,0.32746249437332153,-0.01615392044186592,0.4987908601760864
1789040123436355800,0.12035595703125,0.37011203169822693,0.060661062598228455,0.5022526383399963
1789040123446300000,0.1302998046875,0.46926870942115784,0.07017094641923904,0.5046595931053162
1789040123456244000,0.140243896484375,0.6119113564491272,0.12887683510780334,0.48582303524017334
1789040123466188000,0.15018798828125,0.75815349817276,0.2789193391799927,0.4367140531539917
1789040123476131800,0.1601318359375,0.8006542921066284,0.39699506759643555,0.33883431553840637
1789040123486075000,0.170074951171875,0.7437169551849365,0.4750001132488251,0.24862505495548248
1789040123496019000,0.18001904296875,0.6813427209854126,0.621065616607666,0.22404266893863678
1789040123505962800,0.189962646484375,0.6380079984664917,0.8148931264877319,0.25489646196365356
1789040123515907000,0.199906982421875,0.5147592425346375,0.9322582483291626,0.36300334334373474
1789040123525851100,0.20985107421875,0.3201010823249817,1.1059798002243042,0.48988431692123413
1789040123535795000,0.219794921875,0.3958522081375122,0.8599904179573059,0.8071668744087219
1789040123545739000,0.229739013671875,0.3689281940460205,0.5403937697410583,1.0830274820327759
1789040123555682000,0.23968212890625,0.08046374469995499,0.3518335521221161,1.3236079216003418
1789040123565625900,0.2496259765625,-0.24675725400447845,0.04796445742249489,1.535719394683838
1789040123575570000,0.25956982421875,-0.5160495042800903,-0.3705364465713501,1.6632896661758423
1789040123585513700,0.269513671875,-0.7381808161735535,-0.7251077890396118,1.7356504201889038
1789040123595458000,0.2794580078125,-0.935112714767456,-1.074734091758728,1.8466010093688965
1789040123605402000,0.289402099609375,-1.112972378730774,-1.3746305704116821,2.006592273712158
1789040123615346000,0.299345947265625,-1.2475593090057373,-1.6647484302520752,2.198148727416992
1789040123625289000,0.3092890625,-1.359377145767212,-1.8950955867767334,2.384092092514038
1789040123635233000,0.31923291015625,-1.439489722251892,-2.0073115825653076,2.450687885284424
1789040123645176800,0.3291767578125,-1.5408304929733276,-1.8218306303024292,1.9358177185058594
1789040123655121000,0.339120849609375,-1.5654687881469727,-1.733688473701477,1.1187769174575806
1789040123665065000,0.34906494140625,-1.4730653762817383,-1.7973904609680176,0.4067145586013794
1789040123675009000,0.359009033203125,-1.3171769380569458,-1.5811477899551392,-0.2629985809326172
1789040123684953000,0.368953125,-1.0889892578125,-1.0744041204452515,-0.6545224189758301
1789040123694897000,0.37889697265625,-0.8830892443656921,-0.4028102159500122,-0.7222640514373779
1789040123704840000,0.38883984375,-0.722671627998352,0.6662071347236633,-0.6255369782447815
1789040123714784000,0.398783935546875,-0.5628847479820251,1.8876805305480957,-0.308320552110672
1789040123724727800,0.408727783203125,-0.4409034252166748,2.311894416809082,0.07069868594408035
1789040123734672000,0.418671875,-0.4106600284576416,1.1851282119750977,0.2549684941768646
1789040123744616000,0.428615966796875,-0.34772393107414246,-1.2918446063995361,0.32307592034339905
1789040123754560000,0.43856005859375,-0.12079332023859024,-3.1361899375915527,0.33074814081192017
1789040123764504000,0.448504150390625,0.2925567030906677,-3.5997002124786377,0.2025185376405716
1789040123774446800,0.45844677734375,0.8375899791717529,-3.1203453540802,0.058725785464048386
1789040123784391000,0.468390869140625,1.3632937669754028,-2.0066723823547363,-0.007685726508498192
1789040123794335000,0.4783349609375,1.6500178575515747,-1.6144886016845703,-0.0146045982837677
1789040123804278800,0.48827880859375,1.7343815565109253,-1.2655060291290283,0.059740737080574036
1789040123814223000,0.49822314453125,1.6724125146865845,-1.1632388830184937,0.23351353406906128
1789040123824167000,0.5081669921875,1.581897497177124,-1.3116486072540283,0.4346674382686615
1789040123834111000,0.518111083984375,1.4905576705932617,-1.5122853517532349,0.5359020829200745
1789040123844054000,0.528053955078125,1.4546183347702026,-1.8049001693725586,0.4567664861679077
1789040123853997800,0.537997802734375,1.483104944229126,-2.1125662326812744,0.32180818915367126
1789040123863942000,0.54794189453125,1.5269403457641602,-2.196728467941284,0.2137639969587326
1789040123873886000,0.557885986328125,1.5680376291275024,-2.1746153831481934,0.17398466169834137
1789040123883829800,0.567829833984375,1.4656041860580444,-2.166222333908081,0.16005739569664001
1789040123893774000,0.577774169921875,1.1551592350006104,-2.3229987621307373,0.10674813389778137
1789040123903718000,0.5877177734375,0.7379487752914429,-2.5062427520751953,0.08521940559148788
1789040123913662000,0.597661865234375,0.4219157099723816,-2.716946840286255,0.1620410978794098
1789040123923605000,0.60760498046875,0.32748693227767944,-2.852961301803589,0.27326270937919617
1789040123933548800,0.617548828125,0.5881539583206177,-2.7412524223327637,0.4984665513038635
1789040123943492900,0.627492919921875,0.683173656463623,-2.035705089569092,0.6382049918174744
1789040123953437000,0.63743701171875,0.382499635219574,-1.278666615486145,0.5015496015548706
1789040123963381000,0.647381103515625,-0.019323153421282768,-0.8750255107879639,0.19755031168460846
1789040123973325000,0.657324951171875,-0.24097314476966858,-0.7511298060417175,-0.2157692313194275
1789040123983268900,0.667268798828125,-0.3383609354496002,-0.6217902302742004,-0.5879409313201904
1789040123993212000,0.6772119140625,-0.4666512906551361,-0.4880731701850891,-0.8490817546844482
1789040124003156000,0.687156005859375,-0.6499153971672058,-0.5430765151977539,-1.0433214902877808
1789040124013100000,0.69710009765625,-0.7804211378097534,-0.7932194471359253,-1.213776707649231
1789040124023043800,0.7070439453125,-0.8094280362129211,-1.070892572402954,-1.3381226062774658
1789040124032988000,0.71698779296875,-0.7828147411346436,-1.2747036218643188,-1.4391365051269531
1789040124042932000,0.726931884765625,-0.6965493559837341,-1.5015970468521118,-1.61300528049469
1789040124052876000,0.7368759765625,-0.6119946837425232,-1.4918365478515625,-1.7478309869766235
1789040124062819000,0.746819091796875,-0.5087399482727051,-1.372572422027588,-1.8212026357650757
1789040124072763000,0.756762939453125,-0.33634549379348755,-1.2563825845718384,-1.8387482166290283
1789040124082707000,0.76670703125,-0.09048831462860107,-1.0939052104949951,-1.7842562198638916
1789040124092651000,0.776651123046875,0.07987625151872635,-0.7797523736953735,-1.6570730209350586
1789040124102594800,0.7865947265625,0.10466442257165909,-0.4510466754436493,-1.4386825561523438
1789040124112539100,0.7965390625,0.06367342174053192,-0.206755593419075,-1.2235312461853027
1789040124122483000,0.80648291015625,0.006164059042930603,-0.25495240092277527,-1.1225873231887817
1789040124132426000,0.816426025390625,-0.05707382783293724,-0.3530828058719635,-1.0342228412628174
1789040124142370000,0.8263701171875,-0.06718797981739044,-0.3956334590911865,-0.9409728050231934
1789040124152313900,0.83631396484375,0.011153427883982658,-0.4180854856967926,-0.8684208393096924
1789040124162258000,0.8462578125,0.07477794587612152,-0.45887526869773865,-0.832350492477417
1789040124172202000,0.856201904296875,0.08441873639822006,-0.4597771167755127,-0.846361517906189
1789040124182145800,0.866145751953125,0.08333615958690643,-0.3569713830947876,-0.9096147418022156
1789040124192090000,0.876090087890625,0.0005458923988044262,-0.20113229751586914,-1.0181094408035278
1789040124202033200,0.886033203125,-0.18935933709144592,-0.02975015714764595,-1.0901716947555542
1789040124211977000,0.89597705078125,-0.3665017783641815,0.21625198423862457,-1.1080890893936157
1789040124221921000,0.905921142578125,-0.49741503596305847,0.5401541590690613,-1.0925967693328857
1789040124231864800,0.91586474609375,-0.5051838159561157,0.8839777112007141,-1.0612205266952515
1789040124241809000,0.925808837890625,-0.34860488772392273,1.2322100400924683,-1.030991792678833
1789040124251753000,0.9357529296875,-0.15383335947990417,1.2990314960479736,-0.961693525314331
1789040124261697000,0.945697021484375,-0.023611439391970634,0.9300431609153748,-0.8035789728164673
1789040124271641000,0.95564111328125,0.07011536508798599,0.31119704246520996,-0.6561533212661743
1789040124281584000,0.965584228515625,0.15235725045204163,-0.3175656795501709,-0.6317318677902222
1789040124291528000,0.97552783203125,0.3301505446434021,-0.9254299998283386,-0.6958240270614624
1789040124301472000,0.985471923828125,0.6000015139579773,-1.5128556489944458,-0.6924237012863159
1789040124311415800,0.995415771484375,0.93317049741745,-1.9514275789260864,-0.5760691165924072
1789040124321360000,1.00535986328125,1.3659394979476929,-2.1706387996673584,-0.4288128614425659
1789040124331304000,1.015303955078125,1.7123692035675049,-2.2415993213653564,-0.30523043870925903
1789040124341248000,1.025248046875,1.9942203760147095,-2.2642149925231934,-0.1334586888551712
1789040124351191000,1.03519091796875,2.2451155185699463,-2.3485889434814453,0.15542377531528473
1789040124361135000,1.045135009765625,2.292833089828491,-2.4856247901916504,0.4728275537490845
1789040124371079000,1.055078857421875,2.261098861694336,-2.7232918739318848,0.6658368110656738
1789040124381023000,1.06502294921875,2.313809394836426,-2.9099466800689697,0.680759847164154
1789040124390966300,1.07496630859375,2.351538896560669,-3.001620054244995,0.49672961235046387
1789040124400910000,1.08491015625,2.3305017948150635,-3.1052703857421875,0.209249347448349
1789040124410854400,1.0948544921875,2.181678056716919,-3.231525421142578,0.010765432380139828
1789040124420797400,1.10479736328125,2.002434492111206,-3.2566885948181152,-0.11483430862426758
1789040124430741200,1.1147412109375,1.749574899673462,-2.949831962585449,-0.34613272547721863
1789040124440685300,1.124685302734375,1.4694609642028809,-2.5828754901885986,-0.6230673789978027
1789040124450629000,1.134629150390625,1.4199178218841553,-2.2886857986450195,-0.7082120776176453
1789040124460573200,1.1445732421875,1.2276147603988647,-2.0217483043670654,-0.6406617760658264
1789040124470517200,1.154517333984375,0.9508480429649353,-2.2368500232696533,-0.49818170070648193
1789040124480461000,1.1644609375,0.949002742767334,-2.4439730644226074,-0.3488742411136627
1789040124490404000,1.174404052734375,0.9088221788406372,-2.363029956817627,-0.31172722578048706
1789040124500348400,1.184348388671875,0.7123240232467651,-2.159595489501953,-0.49533727765083313
1789040124510292200,1.194292236328125,0.4817608892917633,-1.8384573459625244,-0.7698271870613098
1789040124520236300,1.204236328125,0.23811309039592743,-1.349668025970459,-1.0977534055709839
1789040124530180000,1.21418017578125,-0.04866335168480873,-0.8862351775169373,-1.5049463510513306
1789040124540124200,1.224124267578125,-0.3072962462902069,-0.7071540951728821,-1.8909012079238892
1789040124550068200,1.234068115234375,-0.39772287011146545,-0.6171475052833557,-2.103890895843506
1789040124560011300,1.24401123046875,-0.3998296856880188,-0.5516188740730286,-2.0790598392486572
1789040124569955300,1.253955322265625,-0.397912859916687,-0.6472475528717041,-1.9273416996002197
1789040124579899400,1.2638994140625,-0.34612104296684265,-0.8617023229598999,-1.6718294620513916
1789040124589843200,1.27384326171875,-0.2372068464756012,-1.1064475774765015,-1.3581892251968384
1789040124599787300,1.283787353515625,-0.07305971533060074,-1.3218070268630981,-1.089674949645996
1789040124609731000,1.29373095703125,0.104489766061306,-1.4068132638931274,-0.9229615926742554
1789040124619675100,1.303675048828125,0.22166351974010468,-1.3222835063934326,-0.9358848333358765
1789040124629618200,1.3136181640625,0.3253415524959564,-1.2274352312088013,-1.0642704963684082
1789040124639562200,1.323562255859375,0.43460386991500854,-1.154598355293274,-1.1443771123886108
1789040124649506300,1.33350634765625,0.5285061001777649,-1.1515671014785767,-1.1491366624832153
1789040124659450400,1.343450439453125,0.6064373850822449,-1.2426234483718872,-1.0885045528411865
1789040124669394200,1.353394287109375,0.6871747374534607,-1.3622589111328125,-0.9071688652038574
1789040124679338200,1.363338134765625,0.7652785778045654,-1.4254722595214844,-0.6162512302398682
1789040124689282300,1.3732822265625,0.7977901697158813,-1.4392563104629517,-0.2452019304037094
1789040124699226000,1.38322607421875,0.7789310216903687,-1.3801288604736328,0.08756937831640244
1789040124709169200,1.393169189453125,0.7577143907546997,-1.265048623085022,0.2798632085323334
1789040124719113500,1.403113525390625,0.6774027943611145,-1.0890133380889893,0.3172326683998108
1789040124729057300,1.413057373046875,0.5004867315292358,-0.908640444278717,0.24476148188114166
1789040124739001300,1.42300146484375,0.2984926700592041,-0.746650218963623,0.11400213092565536
1789040124748945200,1.432945068359375,0.13209857046604156,-0.5671963691711426,0.012488989159464836
1789040124758889200,1.44288916015625,-0.09734447300434113,-0.33681878447532654,-0.08248093724250793
1789040124768832300,1.452832275390625,-0.40538647770881653,-0.16138038039207458,-0.17646054923534393
1789040124778776000,1.462776123046875,-0.6808062791824341,-0.07153624296188354,-0.2215566486120224
1789040124788720000,1.47272021484375,-0.8813716769218445,-0.03400462120771408,-0.2786487340927124
1789040124798664400,1.48266455078125,-0.9722437858581543,0.03616834059357643,-0.33165016770362854
1789040124808608300,1.492608154296875,-0.9529305100440979,0.15139666199684143,-0.4026854634284973
1789040124818552300,1.50255224609375,-0.9663763046264648,0.27853623032569885,-0.5194588899612427
1789040124828496100,1.51249609375,-1.0164380073547363,0.348533570766449,-0.6512458920478821
1789040124838440200,1.522440185546875,-1.0943015813827515,0.4250054955482483,-0.8259226679801941
1789040124848383200,1.53238330078125,-1.1543874740600586,0.4772743582725525,-0.95026034116745
1789040124858327000,1.5423271484375,-1.1308104991912842,0.5583676695823669,-1.0151461362838745
1789040124868271400,1.552271240234375,-0.9997986555099487,0.6268317103385925,-0.9673874378204346
1789040124878215400,1.56221533203125,-0.885763943195343,0.5542781352996826,-0.8279635310173035
1789040124888159200,1.5721591796875,-0.7732067704200745,0.43193015456199646,-0.7001848816871643
1789040124898103300,1.582103271484375,-0.6610711216926575,0.3035370111465454,-0.5309122204780579
1789040124908047000,1.592047119140625,-0.6477278470993042,0.2090204656124115,-0.4008210003376007
1789040124917990100,1.601990234375,-0.7189671397209167,0.261284738779068,-0.40439096093177795
1789040124927934200,1.611934326171875,-0.7517901659011841,0.3451087176799774,-0.5287452340126038
1789040124937878000,1.6218779296875,-0.7332122325897217,0.47369757294654846,-0.7030994296073914
1789040124947822300,1.631822265625,-0.683988630771637,0.6269434094429016,-0.8790875673294067
1789040124957766400,1.641766357421875,-0.598121166229248,0.7811564207077026,-0.922930121421814
1789040124967710200,1.651710205078125,-0.5379675626754761,0.8918652534484863,-0.7558904886245728
1789040124977654300,1.661654296875,-0.47643497586250305,0.8788669109344482,-0.423199862241745
1789040124987597300,1.671597412109375,-0.3959100842475891,0.761370837688446,-0.011180592700839043
1789040124997541000,1.681541015625,-0.29876330494880676,0.5500868558883667,0.34629231691360474
1789040125007485200,1.691485107421875,-0.17676942050457,0.21331796050071716,0.6420919299125671
1789040125017429200,1.70142919921875,-0.03712097182869911,-0.11867887526750565,0.8884199261665344
1789040125027373300,1.711373291015625,0.1435382068157196,-0.3031524121761322,0.9741162657737732
1789040125037317400,1.7213173828125,0.30575504899024963,-0.36111050844192505,0.9056498408317566
1789040125047261200,1.73126123046875,0.416282057762146,-0.32544422149658203,0.7483791708946228
1789040125057204200,1.741204345703125,0.45465606451034546,-0.3022049367427826,0.6015204787254333
1789040125067148300,1.751148193359375,0.41546669602394104,-0.40787291526794434,0.4819953143596649
1789040125077092000,1.761092041015625,0.38119181990623474,-0.6016503572463989,0.3722728192806244
1789040125087036200,1.7710361328125,0.4107776880264282,-0.7741097211837769,0.29426977038383484
1789040125096980200,1.780980224609375,0.4939628541469574,-0.9792836904525757,0.22119104862213135
1789040125106924300,1.79092431640625,0.5777462720870972,-1.1150962114334106,0.16112709045410156
1789040125116867300,1.800867431640625,0.6662402153015137,-1.1366846561431885,0.12785862386226654
1789040125126811400,1.810811279296875,0.7272351980209351,-1.1573642492294312,0.12628374993801117
1789040125136755200,1.820755126953125,0.6763869524002075,-1.149609923362732,0.12025915086269379
1789040125146699300,1.83069921875,0.5127710700035095,-1.080278754234314,0.08020094782114029
1789040125156643000,1.84064306640625,0.3218746483325958,-0.9820422530174255,-0.027363598346710205
1789040125166587400,1.85058740234375,0.22096171975135803,-0.9146004915237427,-0.16636380553245544
1789040125176531200,1.86053125,0.19510269165039062,-0.6814572811126709,-0.2288767248392105
1789040125186474200,1.87047412109375,0.16317924857139587,-0.4965975284576416,-0.17326095700263977
1789040125196418300,1.880418212890625,0.06060093641281128,-0.23426072299480438,-0.19994983077049255
1789040125206362400,1.8903623046875,-0.14336618781089783,-0.32096168398857117,0.025801824405789375
1789040125216306200,1.90030615234375,-0.07788705080747604,-0.6276087164878845,0.41044512391090393
1789040125226250200,1.910250244140625,0.06795024126768112,-0.7712005376815796,0.7045092582702637
1789040125236194000,1.920194091796875,0.0517403781414032,-0.9067472219467163,0.7131152749061584
1789040125246138400,1.930138427734375,-0.1144186481833458,-1.2223913669586182,0.6966161131858826
1789040125256081400,1.940081298828125,-0.04131913557648659,-1.393380880355835,0.6716593503952026
1789040125266025200,1.950025146484375,0.12106688320636749,-1.2749072313308716,0.7248584032058716
1789040125275969300,1.95996923828125,0.29060426354408264,-0.9901220798492432,0.7765753865242004
1789040125285913300,1.969913330078125,0.7165331840515137,-0.578362226486206,0.7233851552009583
1789040125295857200,1.979857177734375,0.37092918157577515,-0.11603853851556778,0.6841461062431335
1789040125305801200,1.98980126953125,0.1094755232334137,-0.44883936643600464,0.4902152419090271
1789040125315745300,1.999745361328125,0.18501316010951996,-0.6683666706085205,0.4094301164150238
1789040125325688000,2.00968798828125,0.3071368634700775,-0.7588790059089661,0.37792277336120605
1789040125335632400,2.01963232421875,0.43035706877708435,-0.8125497102737427,0.058256909251213074
1789040125345576200,2.029576171875,0.5947785377502441,-0.7510927319526672,-0.2589280307292938
1789040125355520300,2.039520263671875,0.6736246347427368,-0.670569896697998,-0.37792259454727173
1789040125365464300,2.04946435546875,0.553332507610321,-0.6505470275878906,-0.2899407744407654
1789040125375408000,2.059408203125,0.3319891691207886,-0.6432704329490662,-0.05669286847114563
1789040125385352200,2.069352294921875,0.04313686862587929,-0.6331459283828735,0.2162625640630722
1789040125395295700,2.079295654296875,-0.2138773500919342,-0.6804737448692322,0.4718727767467499
1789040125405239600,2.089239501953125,-0.4150039851665497,-0.7357469797134399,0.7164835333824158
1789040125415183600,2.09918359375,-0.5497652292251587,-0.7248621582984924,0.9080164432525635
1789040125425127400,2.10912744140625,-0.5913389325141907,-0.7174227237701416,0.9561329483985901
1789040125435071500,2.119071533203125,-0.47515904903411865,-0.7351663112640381,0.9286293983459473
1789040125445015600,2.129015625,-0.31574884057044983,-0.7852587103843689,0.8419191241264343
1789040125454959600,2.138959716796875,-0.12922103703022003,-0.9441370964050293,0.7574455142021179
1789040125464902700,2.148902587890625,-0.027857454493641853,-1.0041450262069702,0.7668094038963318
1789040125474846700,2.1588466796875,0.08582676202058792,-0.990997314453125,0.7981526851654053
1789040125484790500,2.16879052734375,0.214044988155365,-0.8941196799278259,0.8124790787696838
1789040125494734600,2.178734619140625,0.26335421204566956,-0.7665385603904724,0.8050634860992432
1789040125504678400,2.188678466796875,0.29167038202285767,-0.6629745364189148,0.7503985166549683
1789040125514622500,2.19862255859375,0.4083610475063324,-0.5963939428329468,0.6386480331420898
1789040125524565500,2.2085654296875,0.5638657212257385,-0.4231081008911133,0.48760467767715454
1789040125534509600,2.218509521484375,0.6272055506706238,-0.1021236926317215,0.21636223793029785
1789040125544453600,2.22845361328125,0.5599745512008667,-0.0008719414472579956,0.04500458762049675
1789040125554397700,2.238397705078125,0.5673775672912598,-0.10387875139713287,-0.01119849644601345
1789040125564341500,2.248341552734375,0.5694591999053955,-0.22141465544700623,0.13555212318897247
1789040125574285600,2.25828564453125,0.5097827911376953,-0.33789491653442383,0.402381956577301
1789040125584229400,2.2682294921875,0.4705730080604553,-0.48990899324417114,0.6018540859222412
1789040125594172400,2.27817236328125,0.4166964590549469,-0.6229514479637146,0.6191588044166565
1789040125604116700,2.28811669921875,0.2948605418205261,-0.7598979473114014,0.5108131170272827
1789040125614060500,2.298060546875,0.1490548700094223,-0.9563313722610474,0.30693989992141724
1789040125624004600,2.308004638671875,0.09465266019105911,-1.0775599479675293,0.03776881843805313
1789040125633948700,2.31794873046875,0.05025937035679817,-1.1519650220870972,-0.21564160287380219
1789040125643892500,2.327892578125,-0.06350287795066833,-1.2295836210250854,-0.40410202741622925
1789040125653836500,2.33783642578125,-0.23299762606620789,-1.307775855064392,-0.49814462661743164
1789040125663779600,2.347779541015625,-0.3785928189754486,-1.2108455896377563,-0.5271857976913452
1789040125673723400,2.357723388671875,-0.42823362350463867,-1.054481029510498,-0.49451306462287903
1789040125683667700,2.367667724609375,-0.42741644382476807,-0.7669749855995178,-0.4924713373184204
1789040125693611500,2.377611572265625,-0.3170875310897827,-0.30835843086242676,-0.5913750529289246
1789040125703555600,2.3875556640625,-0.22277110815048218,0.023897048085927963,-0.6485968828201294
1789040125713499600,2.397499755859375,-0.08171597868204117,0.23579998314380646,-0.6893490552902222
1789040125723443500,2.407443359375,-0.10427362471818924,0.2347652018070221,-0.708477795124054
1789040125733386500,2.417386474609375,-0.13547442853450775,0.20078407227993011,-0.594754695892334
1789040125743330600,2.42733056640625,-0.3494839668273926,0.1797272115945816,-0.37083685398101807
1789040125753274600,2.437274658203125,-0.5381779670715332,0.062173422425985336,-0.042513031512498856
1789040125763218700,2.44721875,-0.6331184506416321,-0.12529191374778748,0.25505879521369934
1789040125773162500,2.45716259765625,-0.6407196521759033,-0.2962748408317566,0.4587711691856384
1789040125783106600,2.4671064453125,-0.6066474914550781,-0.28091517090797424,0.5667070150375366
1789040125793049600,2.477049560546875,-0.5861576795578003,-0.1750638335943222,0.6469044089317322
1789040125802993400,2.486993408203125,-0.6073439717292786,-0.06678348034620285,0.7451717853546143
1789040125812937500,2.4969375,-0.6152948141098022,-0.015248384326696396,0.8024856448173523
1789040125822881500,2.506881591796875,-0.5893117785453796,-0.020202448591589928,0.7654930949211121
1789040125832825600,2.51682568359375,-0.5820743441581726,0.011111797764897346,0.7117747068405151
1789040125842769700,2.526769775390625,-0.5737045407295227,0.07092481106519699,0.6689448952674866
1789040125852713500,2.53671337890625,-0.5212964415550232,0.1829347014427185,0.6037304401397705
1789040125862656500,2.546656494140625,-0.4170711934566498,0.2647734582424164,0.5227915048599243
1789040125872600600,2.5566005859375,-0.31331178545951843,0.1991286724805832,0.44719186425209045
1789040125882544600,2.566544677734375,-0.2590603232383728,-0.020931052044034004,0.4440728425979614
1789040125892488400,2.576488525390625,-0.3148975074291229,-0.3875631093978882,0.4671507477760315
1789040125902432800,2.586432861328125,-0.35619813203811646,-0.5761672258377075,0.465328574180603
1789040125912376600,2.59637646484375,-0.3148062229156494,-0.6778504252433777,0.398978054523468
1789040125922320600,2.606320556640625,-0.24456726014614105,-0.5741344094276428,0.2889574468135834
1789040125932263700,2.616263671875,-0.17201794683933258,-0.2810157537460327,0.18084803223609924
1789040125942207500,2.62620751953125,-0.05179400369524956,0.017287923023104668,0.055976565927267075
1789040125952151600,2.636151611328125,0.08253104984760284,0.20736359059810638,-0.04194440320134163
1789040125962095600,2.646095703125,0.1638723909854889,0.22345611453056335,-0.07713437080383301
1789040125972039400,2.656039306640625,0.17162351310253143,0.11292295157909393,-0.056483685970306396
1789040125981983700,2.665983642578125,0.18593746423721313,0.1836080551147461,-0.12364187091588974
1789040125991926800,2.6759267578125,0.22900396585464478,0.4683023691177368,-0.24590998888015747
1789040126001870600,2.68587060546875,0.3001766800880432,0.43470901250839233,-0.4451736509799957
1789040126011814700,2.695814697265625,0.3705666959285736,0.2042454481124878,-0.5480504631996155
1789040126021758500,2.705758544921875,0.4764446020126343,0.2019457072019577,-0.2616789937019348
1789040126031702500,2.71570263671875,0.6909467577934265,0.4285722076892853,0.055422525852918625
1789040126041646600,2.725646484375,0.8775123357772827,0.7684343457221985,0.13279969990253448
1789040126051590700,2.735590576171875,0.8649938702583313,0.7256778478622437,0.0867462009191513
1789040126061533400,2.745533447265625,0.7152093052864075,0.20408299565315247,0.18578973412513733
1789040126071477800,2.755477783203125,0.5642752051353455,-0.2731693387031555,0.3300774097442627
1789040126081421600,2.765421630859375,0.626784086227417,-0.24734145402908325,0.1774120181798935
1789040126091365600,2.77536572265625,0.6633016467094421,0.2234465628862381,0.08619049191474915
1789040126101309400,2.785309326171875,0.5601580142974854,0.4647822380065918,0.06835289299488068
1789040126111253500,2.79525341796875,0.4478308856487274,0.49747467041015625,0.2191525250673294
1789040126121196500,2.805196533203125,0.4639023542404175,0.30552423000335693,0.26168787479400635
1789040126131140400,2.815140380859375,0.5468758344650269,0.1302352398633957,0.19119133055210114
1789040126141084700,2.825084716796875,0.6218234896659851,0.10952804237604141,0.22267766296863556
1789040126151028700,2.83502880859375,0.6131765246391296,0.05561847612261772,0.3375065326690674
1789040126160972500,2.84497265625,0.5793576836585999,-0.11454188078641891,0.533400297164917
1789040126170916600,2.85491650390625,0.5875977873802185,-0.2512558102607727,0.7839707136154175
1789040126180860400,2.8648603515625,0.5059022307395935,-0.46261829137802124,0.93730628490448
1789040126190803500,2.874803466796875,0.11159034073352814,-1.146169900894165,0.33066028356552124
1789040126200747500,2.88474755859375,-0.044837795197963715,-0.9091094136238098,0.011766782030463219
1789040126210691300,2.89469140625,0.2357906699180603,-0.1535373032093048,-0.10097227990627289
1789040126220635600,2.9046357421875,0.35545191168785095,0.24957959353923798,-0.46220335364341736
1789040126230579700,2.914579833984375,0.38318684697151184,0.4948229193687439,-0.5887408256530762
1789040126240523500,2.9245234375,0.4126518964767456,0.4984121322631836,-0.4248545169830322
1789040126250467600,2.934467529296875,0.3674817383289337,0.2112003117799759,-0.12175829708576202
1789040126260410600,2.94441064453125,0.2554512619972229,-0.19641974568367004,0.1522529125213623
1789040126270354400,2.9543544921875,0.14272843301296234,-0.47559064626693726,0.3561152219772339
1789040126280298500,2.964298583984375,0.031787753105163574,-0.6471603512763977,0.43551209568977356
1789040126290242600,2.97424267578125,-0.023069903254508972,-0.678295373916626,0.37501201033592224
1789040126300186600,2.9841865234375,-0.056368499994277954,-0.5602840781211853,0.28216832876205444
1789040126310130700,2.994130615234375,-0.08698952198028564,-0.36571723222732544,0.16835786402225494
1789040126320073700,3.00407373046875,-0.14951570332050323,-0.1406521201133728,0.08327249437570572
1789040126330017500,3.014017578125,-0.20243164896965027,0.05296661704778671,0.05171775817871094
1789040126339961600,3.023961669921875,-0.23673102259635925,0.19929346442222595,0.014054537750780582
1789040126349905400,3.033905517578125,-0.26071733236312866,0.26315873861312866,0.03700006753206253
1789040126359849500,3.043849365234375,-0.2471417784690857,0.22401994466781616,0.21553920209407806
1789040126369793500,3.05379345703125,-0.21890588104724884,0.039443712681531906,0.5356495380401611
1789040126379736600,3.063736572265625,-0.16058921813964844,-0.18909749388694763,0.9221223592758179
1789040126389680600,3.0736806640625,-0.08764923363924026,-0.47721824049949646,1.1385393142700195
1789040126399624700,3.083624755859375,-0.022963257506489754,-0.6230080127716064,1.1826962232589722
1789040126409568500,3.093568603515625,0.06185256317257881,-0.6424242854118347,1.1098840236663818
1789040126419512600,3.1035126953125,0.1358892023563385,-0.585750162601471,0.9379807114601135
1789040126429456400,3.113456298828125,0.20148791372776031,-0.46099385619163513,0.7061474919319153
1789040126439400400,3.123400390625,0.28546836972236633,-0.25179606676101685,0.4701485335826874
1789040126449343500,3.133343505859375,0.3530287742614746,-0.08041952550411224,0.2167903184890747
1789040126459287300,3.143287353515625,0.38289904594421387,-0.051053404808044434,-0.03498048335313797
1789040126469231400,3.1532314453125,0.3756970763206482,-0.13128513097763062,-0.24099411070346832
1789040126479175700,3.16317578125,0.37796545028686523,-0.15187488496303558,-0.3171955645084381
1789040126489119500,3.173119384765625,0.3610146939754486,-0.14335064589977264,-0.3277563154697418
1789040126499063600,3.1830634765625,0.32651183009147644,-0.13865289092063904,-0.3193308711051941
1789040126509006600,3.193006591796875,0.26373445987701416,-0.08673189580440521,-0.27531442046165466
1789040126518950400,3.202950439453125,0.18991301953792572,-0.01730855368077755,-0.19394047558307648
1789040126528894500,3.21289453125,0.16070213913917542,0.04296837002038956,-0.0515923798084259
1789040126538838300,3.22283837890625,0.1863611936569214,0.010097543708980083,0.19491106271743774
1789040126548782600,3.232782470703125,0.23556895554065704,-0.1469770222902298,0.5246873497962952
1789040126558726700,3.2427265625,0.22370776534080505,-0.27364233136177063,0.838555097579956
1789040126568670500,3.25267041015625,0.12620170414447784,-0.3618483543395996,1.0502606630325317
1789040126578613500,3.262613525390625,0.011005965992808342,-0.3659055829048157,1.119313359260559
1789040126588557600,3.2725576171875,-0.06251299381256104,-0.237834170460701,0.9954656362533569
1789040126598501400,3.28250146484375,-0.08569503575563431,-0.06261390447616577,0.7252539396286011
1789040126608445400,3.292445556640625,-0.0509282648563385,0.10504540801048279,0.44080623984336853
1789040126618389200,3.30238916015625,0.021325623616576195,0.1431107074022293,0.2958710193634033
1789040126628333600,3.31233349609375,0.08543004095554352,0.01226560864597559,0.3070688247680664
1789040126638276600,3.322276611328125,0.09120691567659378,-0.2224457561969757,0.4250961244106293
1789040126648220400,3.332220458984375,-0.0034173261374235153,-0.48610374331474304,0.5710490345954895
1789040126658164500,3.34216455078125,-0.17121770977973938,-0.6721851229667664,0.6765101552009583
1789040126668108500,3.352108642578125,-0.3120685815811157,-0.7220016717910767,0.7084110975265503
1789040126678052400,3.36205224609375,-0.3751332759857178,-0.6833368539810181,0.6615294218063354
1789040126687996400,3.371996337890625,-0.39400792121887207,-0.5926421284675598,0.5992212891578674
1789040126697940500,3.3819404296875,-0.9887902140617371,-0.3057823181152344,0.5734702348709106
1789040126707883500,3.391883544921875,-1.3162392377853394,-0.12947972118854523,0.6114117503166199
1789040126717827600,3.40182763671875,-1.356417179107666,-0.1591898798942566,0.4847843050956726
1789040126727771600,3.411771728515625,-1.3613333702087402,-0.1982685625553131,0.25609147548675537
1789040126737715500,3.421715576171875,-1.3186142444610596,-0.20167085528373718,0.12796446681022644
1789040126747659500,3.431659423828125,-1.3024179935455322,-0.3210504949092865,0.13200022280216217
1789040126757603300,3.441603271484375,-1.3564703464508057,-0.6176367402076721,0.29933956265449524
1789040126767546400,3.45154638671875,-1.317078709602356,-0.8685861825942993,0.5507236123085022
1789040126777490400,3.461490478515625,-1.30986750125885,-0.9394978284835815,0.7377026081085205
1789040126787434500,3.4714345703125,-1.3998048305511475,-0.8031280040740967,0.6320416927337646
1789040126797378600,3.481378662109375,-1.3829319477081299,-0.612148642539978,0.39294788241386414
1789040126807322600,3.491322509765625,-1.1955090761184692,-0.42079442739486694,0.09364373981952667
1789040126817266400,3.501266357421875,-1.0526602268218994,-0.18279457092285156,-0.17135970294475555
1789040126827209500,3.51120947265625,-0.9257004261016846,-0.10777785629034042,-0.3693113923072815
1789040126837153500,3.521153564453125,-0.7738997340202332,-0.1511964052915573,-0.37931501865386963
1789040126847097300,3.531097412109375,-0.5387868285179138,-0.3306519091129303,-0.22823230922222137
1789040126857041700,3.541041748046875,-0.36085426807403564,-0.575494647026062,-0.043057236820459366
1789040126866985500,3.5509853515625,-0.26497969031333923,-0.7861953973770142,0.11516142636537552
1789040126876929500,3.560929443359375,-0.2637273967266083,-0.819161057472229,0.25273221731185913
1789040126886872600,3.57087255859375,-0.23995602130889893,-0.8408170342445374,0.2169705182313919
1789040126896816400,3.58081640625,-0.18713496625423431,-0.8330150842666626,0.1626080423593521
1789040126906760400,3.590760498046875,-0.11036801338195801,-0.8332052826881409,0.09816274046897888
1789040126916704500,3.60070458984375,-0.04885939881205559,-0.7202953100204468,0.05150200426578522
1789040126926648300,3.6106484375,-0.02788088098168373,-0.5391287207603455,-0.024263862520456314
1789040126936592600,3.620592529296875,0.04067149758338928,-0.2912784218788147,-0.15168188512325287
1789040126946536400,3.630536376953125,0.2861318588256836,-0.030538175255060196,-0.3041316270828247
1789040126956479500,3.6404794921875,0.5287771224975586,0.24079175293445587,-0.4773608148097992
1789040126966423600,3.650423583984375,0.6792917847633362,0.43270817399024963,-0.5983831286430359
1789040126976367400,3.660367431640625,0.6741476058959961,0.5412569642066956,-0.5681010484695435
1789040126986311400,3.6703115234375,0.5598990321159363,0.4074120819568634,-0.33060166239738464
1789040126996255500,3.68025537109375,0.43571367859840393,0.013522526249289513,-0.054470501840114594
1789040127006199600,3.690199462890625,0.30658525228500366,-0.3510671555995941,0.11683067679405212
1789040127016142300,3.700142333984375,0.2083038091659546,-0.4255031943321228,0.18706773221492767
1789040127026086700,3.710086669921875,0.20309066772460938,-0.3348853886127472,0.14439402520656586
1789040127036030500,3.720030517578125,0.27063828706741333,-0.12296993285417557,-0.016892559826374054
1789040127045974500,3.729974609375,0.3773157298564911,0.19045747816562653,-0.2158067375421524
1789040127055918300,3.73991845703125,0.43664616346359253,0.25937503576278687,-0.23167334496974945
1789040127065862400,3.7498623046875,0.38808581233024597,0.012028086930513382,-0.02467995136976242
1789040127075805400,3.759805419921875,0.26532697677612305,-0.3606657385826111,0.12229295074939728
1789040127085749500,3.76974951171875,0.21965909004211426,-0.5309970378875732,0.16723991930484772
1789040127095693600,3.779693603515625,0.2620406448841095,-0.35037529468536377,0.20166362822055817
1789040127105637600,3.7896376953125,0.25345486402511597,-0.15965062379837036,0.18474535644054413
1789040127115581400,3.79958154296875,0.2456505447626114,-0.1465664505958557,0.044506922364234924
1789040127125525500,3.809525390625,0.24678558111190796,-0.24388235807418823,-0.07797478139400482
1789040127135468500,3.819468505859375,0.15374337136745453,-0.3254689872264862,-0.077677883207798
1789040127145412400,3.829412353515625,0.06662257760763168,-0.3770293891429901,0.0033003254793584347
1789040127155356400,3.8393564453125,0.05075918883085251,-0.44889265298843384,0.11825776100158691
1789040127165300500,3.849300537109375,0.08943148702383041,-0.534288227558136,0.23609411716461182
1789040127175244500,3.85924462890625,0.18042291700839996,-0.5886135101318359,0.31601613759994507
1789040127185188600,3.869188720703125,0.18800200521945953,-0.5216307640075684,0.3610973358154297
1789040127195131600,3.879131591796875,0.127195805311203,-0.4527130424976349,0.36612120270729065
1789040127205075500,3.889075439453125,0.11005037277936935,-0.3810654878616333,0.33833247423171997
1789040127215019500,3.89901953125,0.09145164489746094,-0.3083162307739258,0.2741585075855255
1789040127224963300,3.90896337890625,0.02934299223124981,-0.21774637699127197,0.25310996174812317
1789040127234907400,3.918907470703125,0.068228580057621,-0.1559610664844513,0.3254299759864807
1789040127244851700,3.928851806640625,0.026867561042308807,-0.242242693901062,0.4319244623184204
1789040127254795500,3.93879541015625,-0.028197238221764565,-0.5261688828468323,0.5750992298126221
1789040127264738600,3.948738525390625,-0.0058485232293605804,-0.6973704695701599,0.7446856498718262
1789040127274682600,3.9586826171875,0.017835402861237526,-0.7420664429664612,0.8317654132843018
1789040127284626400,3.96862646484375,-0.0010282997973263264,-0.6843938231468201,0.8342599868774414
1789040127294570500,3.978570556640625,-0.04150844365358353,-0.5397652983665466,0.7730295062065125
1789040127304514300,3.988514404296875,-0.026826972141861916,-0.4267330467700958,0.6908523440361023
1789040127314458400,3.998458251953125,-0.026116536930203438,-0.271697998046875,0.623214840888977
1789040127324401400,4.0084013671875,-0.0366690494120121,-0.15257057547569275,0.575472354888916
1789040127334345500,4.018345458984375,-0.04063103348016739,-0.1153174638748169,0.5819153189659119
1789040127344289500,4.02828955078125,-0.05717485770583153,-0.12294023483991623,0.6267448663711548
1789040127354233600,4.038233642578125,-0.08015546202659607,-0.22142520546913147,0.6909958124160767
1789040127364177400,4.048177490234375,-0.041792359203100204,-0.3091984689235687,0.7986162900924683
1789040127374121500,4.05812158203125,0.027681786566972733,-0.3822745382785797,0.8821443319320679
1789040127384064500,4.068064453125,0.10234484076499939,-0.42667102813720703,0.9122620224952698
1789040127394008600,4.078008544921875,0.15126724541187286,-0.35324060916900635,0.8801068663597107
1789040127403952600,4.08795263671875,0.1594061404466629,-0.23192322254180908,0.8676643371582031
1789040127413896400,4.097896484375,0.17615967988967896,-0.13845974206924438,0.922200620174408
1789040127423840500,4.107840576171875,0.288198858499527,-0.06115003675222397,1.017809510231018
1789040127433784600,4.11778466796875,0.45102086663246155,0.00912846252322197,0.9805880188941956
1789040127443727600,4.1277275390625,0.30635449290275574,-0.05002673715353012,0.7952386140823364
1789040127453671400,4.13767138671875,0.18629135191440582,-0.020266037434339523,0.5397661924362183
1789040127463615700,4.14761572265625,0.28417691588401794,0.07543092966079712,0.2794581949710846
1789040127473559600,4.1575595703125,0.309244841337204,0.23635494709014893,0.11710987985134125
1789040127483503600,4.167503662109375,0.2763630449771881,0.3347502052783966,0.055115215480327606
1789040127493447400,4.177447509765625,0.27531886100769043,0.370080828666687,0.1113390326499939
1789040127503390500,4.187390380859375,0.3250102400779724,0.4188510477542877,0.2661781311035156
1789040127513334500,4.19733447265625,0.33498334884643555,0.36290475726127625,0.31503936648368835
1789040127523278600,4.207278564453125,0.233468696475029,0.29934364557266235,0.3299543857574463
1789040127533222700,4.21722265625,0.08142951130867004,0.22505807876586914,0.34334516525268555
1789040127543166700,4.227166748046875,-0.09931977093219757,0.03210647031664848,0.20971225202083588
1789040127553110500,4.237110595703125,-0.2421530932188034,-0.06706216931343079,-0.08862349390983582
1789040127563053600,4.247053466796875,-0.28945082426071167,-0.27321240305900574,-0.4155595302581787
1789040127572997600,4.25699755859375,-0.41421136260032654,-0.4493703544139862,-0.427566260099411
1789040127582941400,4.26694140625,-0.5626335740089417,-0.6285529136657715,-0.30575302243232727
1789040127592885500,4.276885498046875,-0.6513822078704834,-0.8272714614868164,-0.19707059860229492
1789040127602829600,4.28682958984375,-0.6953291893005371,-0.8079861402511597,-0.011302853003144264
1789040127612773600,4.296773681640625,-0.6657544374465942,-0.49462929368019104,0.1842098981142044
1789040127622716700,4.306716552734375,-0.717696487903595,-0.18776148557662964,0.21601177752017975
1789040127632660700,4.31666064453125,-0.8624379634857178,-0.12267883121967316,0.11853417754173279
1789040127642604500,4.3266044921875,-1.1679589748382568,-0.18536032736301422,-0.04435859993100166
1789040127652548600,4.336548583984375,-1.4235948324203491,-0.24598386883735657,-0.11850440502166748
1789040127662492400,4.346492431640625,-1.480460524559021,-0.27623337507247925,-0.1344657987356186
1789040127672436500,4.3564365234375,-1.3301646709442139,-0.3313961327075958,-0.22047126293182373
1789040127682380800,4.366380859375,-1.149343490600586,-0.38615578413009644,-0.27261167764663696
1789040127692323600,4.376323486328125,-1.0419518947601318,-0.3537071645259857,-0.2618541717529297
1789040127702267600,4.386267578125,-0.9272677302360535,-0.40920665860176086,-0.19015923142433167
1789040127712211700,4.396211669921875,-0.8229614496231079,-0.5042385458946228,-0.1728171557188034
1789040127722155500,4.406155517578125,-0.7078923583030701,-0.4548715054988861,-0.22014258801937103
1789040127732099600,4.416099609375,-0.5460371971130371,-0.2900623381137848,-0.28829044103622437
1789040127742043400,4.42604345703125,-0.32636260986328125,-0.007704163435846567,-0.16471628844738007
1789040127751986400,4.435986328125,-0.17994804680347443,0.21480250358581543,0.20391997694969177
1789040127761930500,4.445930419921875,-0.149977907538414,-0.0007979553192853928,0.2545005977153778
1789040127771874600,4.45587451171875,-0.19324679672718048,-0.05773342400789261,0.15948793292045593
1789040127781818600,4.465818603515625,-0.1506657749414444,0.1833242028951645,-0.03724564611911774
1789040127791762700,4.4757626953125,-0.11197740584611893,0.3397062122821808,-0.2854517698287964
1789040127801706500,4.48570654296875,-0.12695981562137604,0.34573879837989807,-0.4951895475387573
1789040127811649500,4.4956494140625,-0.02829059585928917,0.2802228033542633,-0.599553108215332
1789040127821593600,4.505593505859375,0.2683162987232208,0.318084180355072,-0.49086499214172363
1789040127831537400,4.515537353515625,0.3926893174648285,0.38122522830963135,-0.40990856289863586
1789040127841481700,4.525481689453125,0.5338211059570312,0.4948471188545227,-0.24068598449230194
1789040127851425500,4.535425537109375,0.7342268824577332,0.4674610197544098,0.0011783596128225327
1789040127861369600,4.54536962890625,0.8353135585784912,0.4393300712108612,0.2636624574661255
1789040127871312600,4.555312744140625,0.7825132608413696,0.28839462995529175,0.4135565459728241
1789040127881256700,4.565256591796875,0.6126784086227417,0.11251123249530792,0.4361982047557831
1789040127891200500,4.575200439453125,0.3228099048137665,0.15091274678707123,0.3760959208011627
1789040127901144600,4.58514453125,0.0653272420167923,0.2922576069831848,0.31801316142082214
1789040127911088400,4.59508837890625,0.1734837293624878,0.2631779611110687,0.18157228827476501
1789040127921032700,4.60503271484375,0.13925811648368835,0.32949358224868774,0.15536919236183167
1789040127930975700,4.614975830078125,-0.031711138784885406,0.37436291575431824,0.3920959234237671
1789040127940919600,4.62491943359375,0.1332213580608368,-0.10370618849992752,0.47481104731559753
1789040127950863600,4.634863525390625,0.21938897669315338,-0.4139581024646759,0.2379758358001709
1789040127960807700,4.6448076171875,0.1904745101928711,-0.20251350104808807,0.10493364185094833
1789040127970751500,4.65475146484375,0.17748799920082092,-0.11565886437892914,-0.08055272698402405
1789040127980695600,4.664695556640625,0.22595913708209991,-0.0805506780743599,-0.21179570257663727
1789040127990638600,4.674638671875,0.36113375425338745,-0.0072112372145056725,-0.2966885268688202
1789040128000582400,4.68458251953125,0.552370011806488,0.007084345445036888,-0.3486577272415161
1789040128010526700,4.694526611328125,0.7368571162223816,0.01479534711688757,-0.25573721528053284
1789040128020470500,4.704470458984375,0.80302494764328,0.06939733773469925,-0.08310152590274811
1789040128030414600,4.71441455078125,0.7388317584991455,0.1945517361164093,-0.08296453952789307
1789040128040358700,4.724358642578125,0.5669276714324951,0.3397962749004364,-0.14093703031539917
1789040128050301400,4.734301513671875,0.6573095917701721,0.4034695625305176,0.04541918635368347
1789040128060245500,4.74424560546875,0.9566720128059387,0.4302878677845001,0.2809278666973114
1789040128070189600,4.754189453125,1.138673186302185,0.4121282994747162,0.4601113200187683
1789040128080133600,4.764133544921875,1.298848271369934,0.21793538331985474,0.6502234935760498
1789040128090077700,4.77407763671875,1.4588013887405396,0.056947506964206696,0.8110336065292358
1789040128100021500,4.784021484375,1.5332982540130615,0.21023613214492798,0.8753183484077454
1789040128109964500,4.793964599609375,1.4367146492004395,0.5016753077507019,0.8838714361190796
1789040128119908600,4.80390869140625,1.291281819343567,0.4152759611606598,0.8913019299507141
1789040128129852400,4.813852294921875,1.167648196220398,0.12484657764434814,0.4309692084789276
1789040128139796500,4.82379638671875,1.3941903114318848,0.3490178883075714,0.43589046597480774
1789040128149740500,4.833740478515625,1.6900079250335693,0.33831948041915894,0.47901153564453125
1789040128159684600,4.8436845703125,2.0414376258850098,-0.036695145070552826,0.4946986138820648
1789040128169627600,4.853627685546875,2.3081438541412354,-0.3485691249370575,0.39290276169776917
1789040128179571700,4.86357177734375,2.4926810264587402,-0.6556039452552795,0.11729169636964798
1789040128189515500,4.873515625,2.7644145488739014,-0.70503169298172,-0.12930607795715332
1789040128199459600,4.88345947265625,2.7373476028442383,-0.454135000705719,-0.20774896442890167
1789040128209403400,4.8934033203125,2.38079833984375,-0.13397149741649628,-0.22380883991718292
1789040128219346400,4.903346435546875,1.8502588272094727,0.28808626532554626,0.031715601682662964
1789040128229290500,4.91329052734375,1.595564842224121,0.37585335969924927,0.03138872608542442
1789040128239234600,4.923234619140625,1.9690572023391724,0.25915762782096863,-0.352832168340683
1789040128249178600,4.9331787109375,2.6998355388641357,0.051233142614364624,-0.6438471078872681
1789040128259122700,4.943122802734375,3.1044769287109375,0.3240617513656616,0.10188272595405579
1789040128269066500,4.95306640625,1.8434016704559326,-0.21802158653736115,-0.08450900763273239
1789040128279009500,4.963009521484375,1.2935177087783813,-0.5368003249168396,0.05414314195513725
1789040128288953600,4.97295361328125,1.326400876045227,-0.16137515008449554,-0.2000928670167923
1789040128298897400,4.9828974609375,1.3770877122879028,0.24098828434944153,-0.32660233974456787
1789040128308841500,4.992841552734375,1.5211007595062256,0.25113245844841003,-0.09253916144371033
1789040128318785800,5.002785888671875,1.5891940593719482,0.10989493131637573,0.05018097534775734
1789040128328729600,5.0127294921875,1.5944701433181763,-0.10255308449268341,0.0763556957244873
1789040128338672600,5.022672607421875,1.6173336505889893,-0.175543412566185,0.044274188578128815
1789040128348616700,5.03261669921875,1.4846322536468506,-0.08481775224208832,0.046387240290641785
1789040128358560500,5.042560546875,1.249669075012207,-0.06117687374353409,0.15144574642181396
1789040128368504600,5.052504638671875,0.9000181555747986,-0.2018047720193863,0.1993786245584488
1789040128378448400,5.062448486328125,0.6289954781532288,-0.2958124876022339,0.22639931738376617
1789040128388392700,5.072392822265625,0.5057007074356079,-0.13738663494586945,0.3399069607257843
1789040128398336000,5.0823359375,0.40518951416015625,-0.09739900380373001,0.5685974359512329
1789040128408279800,5.09227978515625,0.315828800201416,-0.14794042706489563,0.6432867646217346
1789040128418223900,5.102223876953125,0.21463799476623535,-0.2420501410961151,0.5472009778022766
1789040128428168000,5.11216796875,0.10727933794260025,-0.21762602031230927,0.40915971994400024
1789040128438111700,5.12211181640625,-0.05380142107605934,-0.14585143327713013,0.28307315707206726
1789040128448055800,5.132055908203125,-0.24806170165538788,-0.16605600714683533,0.07937675714492798
1789040128457998800,5.141998779296875,-0.42652782797813416,-0.18419025838375092,-0.22953633964061737
1789040128467943000,5.15194287109375,-0.4836682379245758,-0.179585263133049,-0.4702358841896057
1789040128477887000,5.161886962890625,-0.40688982605934143,-0.4866107106208801,-0.5839624404907227
1789040128487830800,5.171830810546875,-0.3085639476776123,-0.4439731538295746,-0.47796034812927246
1789040128497774800,5.18177490234375,-0.1408313810825348,-0.6237940788269043,-0.3959331214427948
1789040128507719000,5.191718994140625,-0.027779700234532356,-0.8841497302055359,-0.4361150562763214
1789040128517661700,5.20166162109375,0.07353253662586212,-0.6883541345596313,-0.4321754574775696
1789040128527605800,5.211605712890625,0.07640788704156876,-0.4786593019962311,-0.41094014048576355
1789040128537550000,5.221550048828125,0.10090737044811249,-0.41265687346458435,-0.3649470806121826
1789040128547494000,5.231493896484375,0.10845282673835754,-0.2660760283470154,-0.18509334325790405
1789040128557438000,5.24143798828125,0.21485038101673126,-0.2873741090297699,0.049725018441677094
1789040128567381800,5.2513818359375,0.39336302876472473,-0.12813451886177063,0.23815728724002838
1789040128577324800,5.26132470703125,0.8296799063682556,-0.19975730776786804,0.08474430441856384
1789040128587268900,5.271268798828125,1.643678069114685,0.17891694605350494,-0.1619531214237213
1789040128597212700,5.281212646484375,2.3652544021606445,0.9231612682342529,-0.1533718705177307
1789040128607156700,5.29115673828125,1.6100261211395264,0.5606255531311035,0.07743677496910095
1789040128617101000,5.30110107421875,1.0413472652435303,0.49652352929115295,-0.14761151373386383
1789040128627043800,5.3110439453125,1.6397207975387573,1.3199987411499023,-0.22730673849582672
1789040128636988000,5.32098779296875,2.813356399536133,1.5887478590011597,0.414631724357605
1789040128646932000,5.330931884765625,0.5963937044143677,0.26036056876182556,-0.3083079755306244
1789040128656875800,5.340875732421875,-0.33807674050331116,0.8774147629737854,-0.667009711265564
1789040128666819800,5.35081982421875,-0.6239067316055298,1.067770004272461,-0.9654500484466553
1789040128676763600,5.360763671875,-0.5107199549674988,0.9706605076789856,-0.7055553793907166
1789040128686708000,5.3707080078125,-0.6801944971084595,0.3950943350791931,-0.48154887557029724
1789040128696650800,5.380650634765625,-0.8087961673736572,-0.11519584059715271,-0.26361599564552307
1789040128706595000,5.390594970703125,-0.8929510116577148,-0.48888179659843445,-0.32509854435920715
1789040128716539000,5.400538818359375,-0.8982815742492676,-0.30496737360954285,-0.4596310555934906
1789040128726483000,5.41048291015625,-0.7998648881912231,0.008790107443928719,-0.5932119488716125
1789040128736426800,5.4204267578125,-0.660236120223999,-0.3986351788043976,-0.4815032184123993
1789040128746369800,5.430369873046875,-0.461523175239563,-0.5753320455551147,-0.25449758768081665
1789040128756313900,5.44031396484375,-0.22232685983181,-0.3705061972141266,-0.09065884351730347
1789040128766257700,5.450257568359375,-0.07750355452299118,-0.16252228617668152,0.10868673026561737
1789040128776202000,5.460201904296875,0.0034381593577563763,-0.10742786526679993,0.18220381438732147
1789040128786146000,5.47014599609375,-0.2254088968038559,-0.06966538727283478,0.23494663834571838
1789040128796089900,5.48008984375,-0.5361087322235107,0.19987207651138306,0.24678385257720947
1789040128806033000,5.490032958984375,-0.7131876945495605,0.33810552954673767,0.22607681155204773
1789040128815977000,5.49997705078125,-0.6900834441184998,0.340515673160553,0.28410014510154724
1789040128825920800,5.509920654296875,-0.8468911051750183,0.15772143006324768,0.25653696060180664
1789040128835864800,5.51986474609375,-1.0652620792388916,-0.0754534974694252,0.35020193457603455
1789040128845808600,5.52980859375,-0.9181605577468872,-0.885308563709259,0.6280971765518188
1789040128855753000,5.5397529296875,-0.7405716180801392,-0.7380946278572083,0.9273339509963989
1789040128865696000,5.549696044921875,-0.22801527380943298,-0.7206478714942932,1.0390689373016357
1789040128875639800,5.559639892578125,-0.4970472753047943,-1.2434157133102417,1.3102045059204102
1789040128885584000,5.569583984375,-1.4265199899673462,-1.2580960988998413,0.7287960052490234
1789040128895528000,5.57952783203125,-0.5267993211746216,-1.1458771228790283,0.34292659163475037
1789040128905471700,5.5894716796875,0.36801472306251526,-0.6597763299942017,-0.30848971009254456
1789040128915415800,5.599415771484375,0.88974928855896,0.16486269235610962,-1.1439129114151
1789040128925358800,5.60935888671875,1.127089500427246,0.23528026044368744,-1.7248491048812866
1789040128935303000,5.619302978515625,0.663244366645813,-0.12678126990795135,-1.5895904302597046
1789040128945247000,5.6292470703125,0.6042183637619019,-0.46397921442985535,-1.6349873542785645
1789040128955190800,5.639190673828125,0.8074972033500671,-0.22035858035087585,-1.7683563232421875
1789040128965134800,5.649134765625,1.1669130325317383,-0.004634781274944544,-1.7283202409744263
1789040128975078000,5.659077880859375,1.5293636322021484,0.061629995703697205,-1.5006047487258911
1789040128985022000,5.66902197265625,1.8824669122695923,-0.060220178216695786,-1.280164122581482
1789040128994965800,5.6789658203125,1.7976891994476318,0.2209411859512329,-1.0940474271774292
1789040129004909800,5.688909912109375,1.7332357168197632,0.5206335783004761,-1.1343209743499756
1789040129014854000,5.69885400390625,1.9873855113983154,0.05045352876186371,-0.6819479465484619
1789040129024798000,5.7087978515625,1.8848657608032227,-0.15381889045238495,-0.09494173526763916
1789040129034741000,5.718740966796875,1.9064003229141235,-0.7127647399902344,0.5751090049743652
1789040129044684800,5.728684814453125,2.4315459728240967,-1.1300016641616821,0.8347383737564087
1789040129054628900,5.73862890625,3.03495192527771,-2.1877660751342773,1.63279128074646
1789040129064573000,5.748572998046875,2.729483127593994,-3.252938747406006,2.7123947143554688
1789040129074516700,5.758516845703125,2.4963138103485107,-3.106313943862915,2.895885944366455
1789040129084459800,5.768459716796875,2.2527525424957275,-2.6087186336517334,2.5813989639282227
1789040129094403800,5.77840380859375,2.187584638595581,-1.4399276971817017,1.9259260892868042
1789040129104348000,5.788347900390625,1.998540997505188,-0.6717031002044678,0.9313686490058899
1789040129114292000,5.7982919921875,1.6539534330368042,0.15699166059494019,0.21605926752090454
1789040129124235800,5.80823583984375,1.1473667621612549,0.566951334476471,-0.160835862159729
1789040129134179800,5.818179931640625,0.2417210340499878,0.4046223759651184,-0.27129045128822327
1789040129144123000,5.828122802734375,-0.5795571804046631,0.6249445080757141,-0.05453164875507355
1789040129154066700,5.838066650390625,-1.104437232017517,0.5507062673568726,0.10247980803251266
1789040129164010800,5.8480107421875,-0.9413840770721436,0.8058738708496094,-0.1157388910651207
1789040129173955000,5.857955078125,-0.017702344805002213,1.0707765817642212,-0.45322078466415405
1789040129183899000,5.86789892578125,0.67307049036026,1.713074803352356,-0.6595768332481384
1789040129193843000,5.877843017578125,0.8390716910362244,1.9998079538345337,-0.7426797151565552
1789040129203786000,5.887785888671875,0.8008019924163818,1.2975598573684692,-0.6499127149581909
1789040129213729800,5.897729736328125,0.436615526676178,1.39193856716156,-0.3327861726284027
1789040129223673900,5.907673828125,0.7003841400146484,1.4733713865280151,-0.05116764456033707
1789040129233617700,5.91761767578125,0.6651758551597595,2.3266801834106445,0.7000075578689575
1789040129243561700,5.927561767578125,0.7283068299293518,1.881410837173462,1.3508013486862183
1789040129253504800,5.9375048828125,0.5318249464035034,1.349998116493225,1.0595422983169556
1789040129263448800,5.94744873046875,0.1302339732646942,0.28813067078590393,0.28088101744651794
1789040129273393000,5.957392822265625,-0.46255025267601013,-0.011353778652846813,-0.6638420820236206
1789040129283337000,5.9673369140625,-2.5804502964019775,-0.9733495712280273,-1.1772171258926392
1789040129293280800,5.97728076171875,-1.6618508100509644,-0.8808260560035706,0.24018195271492004
1789040129303224800,5.987224853515625,-1.2349435091018677,-0.6667801737785339,0.15675294399261475
1789040129313168000,5.99716796875,-3.4980030059814453,-0.8650403022766113,-0.5351647734642029
1789040129323111700,6.007111572265625,-5.579529762268066,0.8951050639152527,-0.28808900713920593
1789040129333056000,6.017055908203125,-5.8219380378723145,1.8134799003601074,-1.1336522102355957
1789040129342999800,6.026999755859375,-5.440284729003906,2.2349767684936523,-1.7834093570709229
1789040129352943900,6.03694384765625,-5.0697197914123535,1.5541443824768066,-1.868346929550171
1789040129362888000,6.046887939453125,-5.062851428985596,1.8975958824157715,-1.8304675817489624
1789040129372831000,6.0568310546875,-4.681879997253418,1.6283601522445679,-1.4288253784179688
1789040129382774800,6.06677490234375,-3.807382106781006,1.6006625890731812,-0.9992649555206299
1789040129392718800,6.07671875,-2.710446834564209,0.8487837910652161,-0.5158671736717224
1789040129402662100,6.086662109375,-1.642159342765808,0.028662612661719322,-0.3839373290538788
1789040129412606000,6.09660595703125,-0.6941799521446228,-0.1365889310836792,-0.0518411286175251
1789040129422549000,6.106549072265625,-0.36689138412475586,-0.2509824335575104,0.1809879094362259
1789040129432493000,6.1164931640625,-0.21929419040679932,-0.32924288511276245,0.3191697597503662
1789040129442437000,6.12643701171875,0.22857148945331573,-0.4959963262081146,0.23110228776931763
1789040129452381200,6.136381103515625,0.907184362411499,-0.6719364523887634,0.0076425690203905106
1789040129462325000,6.146324951171875,1.9845736026763916,-0.5851979851722717,0.097422294318676
1789040129472269000,6.15626904296875,4.405170440673828,-0.07604876905679703,0.35257843136787415
1789040129482212000,6.166212158203125,7.55381965637207,2.8072493076324463,2.5027825832366943
1789040129492156000,6.176156005859375,8.802273750305176,2.432302713394165,2.1866931915283203
1789040129502100000,6.186099853515625,7.342601776123047,-1.6579136848449707,-1.5186063051223755
1789040129512044000,6.1960439453125,6.429723262786865,-0.5024946331977844,-1.1718976497650146
1789040129521988000,6.205988037109375,6.780154705047607,4.029061317443848,-2.0544042587280273
1789040129531932200,6.21593212890625,7.526386737823486,0.6445944905281067,-1.002923607826233
1789040129541875200,6.225875244140625,7.979645729064941,-3.936283826828003,-1.131456971168518
1789040129551819000,6.235819091796875,7.045724868774414,-4.578221797943115,-1.4629435539245605
1789040129561763000,6.24576318359375,4.770306587219238,-2.7867300510406494,-1.0272436141967773
1789040129571707100,6.25570703125,2.7944767475128174,-2.0651772022247314,-1.557720422744751
1789040129581651000,6.26565087890625,0.8256049752235413,-2.6273834705352783,-2.470033884048462
1789040129591594000,6.275593994140625,0.1399025171995163,-0.6423770785331726,-1.1138685941696167
1789040129601538300,6.285538330078125,-0.299646258354187,0.47323155403137207,0.2111213058233261
1789040129611482000,6.295482177734375,-0.5609620213508606,1.1895818710327148,1.085176944732666
1789040129621426200,6.30542626953125,-0.7067511677742004,1.568430781364441,1.201391577720642
1789040129631370000,6.315369873046875,-0.7840965390205383,1.4672421216964722,1.2117183208465576
1789040129641314000,6.32531396484375,-0.8271690607070923,1.0365784168243408,1.0303453207015991
1789040129651257000,6.335257080078125,-0.8305787444114685,1.0070711374282837,0.913512110710144
1789040129661201000,6.345200927734375,-0.919747531414032,1.8471788167953491,1.466265320777893
1789040129671145000,6.35514501953125,-1.288851261138916,1.0064854621887207,1.8156555891036987
1789040129681089300,6.36508935546875,-1.4916397333145142,0.939734160900116,1.8167256116867065
1789040129691033000,6.375033203125,-1.6267496347427368,0.7439020276069641,1.8080536127090454
1789040129700977200,6.38497705078125,-1.8986213207244873,0.39626646041870117,1.7427845001220703
1789040129710920200,6.394920166015625,-1.7842001914978027,1.0266669988632202,2.3706836700439453
1789040129720864000,6.404864013671875,-1.9856971502304077,-0.30969586968421936,2.119055986404419
1789040129730808000,6.41480810546875,-1.6526342630386353,0.007505527697503567,0.7810127139091492
1789040129740752000,6.424751953125,-2.053227186203003,0.5366818904876709,1.032292366027832
1789040129750696200,6.4346962890625,-1.8021889925003052,0.6380628347396851,0.938515305519104
1789040129760639000,6.444638916015625,-1.2476353645324707,0.7478277683258057,0.7162852883338928
1789040129770583000,6.4545830078125,-0.8489838242530823,0.7292783260345459,1.22559654712677
1789040129780527000,6.464527099609375,0.0038898438215255737,-0.41641291975975037,0.0024702013470232487
1789040129790471200,6.47447119140625,0.25879162549972534,-0.3667982220649719,-0.6614622473716736
1789040129800415000,6.4844150390625,0.32835689187049866,-0.3156857490539551,-1.163525938987732
1789040129810359000,6.494359130859375,0.6985634565353394,-0.00476594315841794,-1.4621994495391846
1789040129820302000,6.504302001953125,1.0708284378051758,0.5395602583885193,-1.5301992893218994
1789040129830246000,6.514245849609375,1.2717095613479614,0.5642493367195129,-1.404809594154358
1789040129840190200,6.524190185546875,1.4722557067871094,0.47664546966552734,-1.228322982788086
1789040129850134000,6.534134033203125,1.4736170768737793,0.4691857099533081,-1.1078832149505615
1789040129860078000,6.544078125,1.3841279745101929,0.59397953748703,-0.8982875943183899
1789040129870021000,6.554021240234375,1.3616693019866943,0.9151250720024109,-0.674353837966919
1789040129879965200,6.563965087890625,1.3972420692443848,0.9770155549049377,-0.3787204921245575
1789040129889909000,6.573908935546875,1.45676851272583,1.1256039142608643,-0.15562428534030914
1789040129899853000,6.58385302734375,1.7292510271072388,0.9538354277610779,0.18044151365756989
1789040129909796900,6.593796875,1.948594331741333,0.7577428817749023,0.28484514355659485
1789040129919741200,6.6037412109375,1.8459292650222778,0.739363431930542,0.17302633821964264
1789040129929684200,6.613684326171875,1.781482458114624,0.714251697063446,0.2590871751308441
1789040129939628000,6.6236279296875,1.6509300470352173,0.5229105949401855,0.3611255884170532
1789040129949572000,6.633572021484375,1.4725980758666992,0.4634416699409485,0.37672504782676697
1789040129959516200,6.64351611328125,1.3479747772216797,0.22590164840221405,0.3815156817436218
1789040129969460000,6.6534599609375,1.287954568862915,0.26613855361938477,0.309732586145401
1789040129979404000,6.663404052734375,1.3474295139312744,0.43744707107543945,0.288962721824646
1789040129989347000,6.67334716796875,1.415540099143982,0.4273640811443329,0.26800018548965454
1789040129999291100,6.683291015625,1.3171794414520264,0.3683454096317291,0.1086655706167221
1789040130009235200,6.693235107421875,1.1677792072296143,0.43962571024894714,-0.03169713169336319
1789040130019179000,6.703178955078125,1.0885818004608154,0.1510595679283142,0.06762044131755829
1789040130029123000,6.713123046875,1.0968618392944336,0.17335902154445648,0.1846322864294052
1789040130039066000,6.723066162109375,1.175635576248169,-0.06241659075021744,0.20868231356143951
1789040130049010000,6.733010009765625,1.1634199619293213,-0.10541439056396484,0.20238341391086578
1789040130058954000,6.7429541015625,1.161824345588684,-0.01279646810144186,0.30691173672676086
1789040130068898000,6.75289794921875,1.0911089181900024,-0.4424927234649658,0.2225947231054306
1789040130078842000,6.762842041015625,0.7591134905815125,-0.8429733514785767,-0.016780927777290344
1789040130088785200,6.77278515625,0.4799732267856598,-0.7308987379074097,-0.008910754695534706
1789040130098729200,6.782729248046875,0.5492269396781921,-0.3503144681453705,0.3654947280883789
1789040130108673000,6.792673095703125,0.5497057437896729,-0.507151186466217,0.5441268086433411
1789040130118617000,6.8026171875,0.4300481975078583,-0.7262617945671082,0.4163060784339905
1789040130128561000,6.812560791015625,0.22795796394348145,-0.8137985467910767,0.2504478693008423
1789040130138505000,6.8225048828125,0.07076402008533478,-0.8719534277915955,0.13183559477329254
1789040130148448000,6.832447998046875,-0.010558267123997211,-0.7186014652252197,0.19161556661128998
1789040130158392000,6.84239208984375,-0.05205228552222252,-0.27860790491104126,0.24395692348480225
1789040130168336100,6.852336181640625,-0.148914635181427,-0.39441731572151184,0.16261571645736694
1789040130178280200,6.8622802734375,-0.2658233046531677,-0.35720568895339966,0.02986874058842659
1789040130188224000,6.87222412109375,-0.4155142605304718,-0.5121702551841736,-0.03507883474230766
1789040130198168000,6.88216796875,-0.39690524339675903,-0.435006320476532,0.1960838884115219
1789040130208111000,6.892111083984375,-0.3695090413093567,-0.23223988711833954,0.4221170246601105
1789040130218055000,6.902054931640625,-0.408938467502594,-0.0859772264957428,0.5273126363754272
1789040130227999000,6.9119990234375,-0.5072924494743347,-0.0418289415538311,0.39978981018066406
1789040130237943300,6.921943359375,-0.7161136865615845,-0.22157426178455353,0.187606081366539
1789040130247887000,6.93188720703125,-0.7919458746910095,-0.5556324124336243,0.04806550592184067
1789040130257830100,6.941830078125,-0.7589107751846313,-0.8703915476799011,-0.1949271261692047
1789040130267774200,6.951774169921875,-0.7003276348114014,-0.7690915465354919,-0.32180625200271606
1789040130277718000,6.961718017578125,-0.7495331764221191,-0.2827199697494507,-0.059199221432209015
1789040130287662000,6.971662109375,-0.7153049111366272,-0.07563657313585281,-0.16089123487472534
1789040130297606000,6.98160595703125,-0.7054460048675537,-0.12478138506412506,-0.3912862241268158
1789040130307550000,6.991550048828125,-0.6708083748817444,-0.25841426849365234,-0.4160482883453369
1789040130317493000,7.001492919921875,-0.60916668176651,0.1674259603023529,-0.32676541805267334
1789040130327437000,7.01143701171875,-0.5972141623497009,0.6286628246307373,-0.09019176661968231
1789040130337381000,7.021381103515625,-0.5397247672080994,0.34808599948883057,0.13367299735546112
1789040130347325200,7.0313251953125,-0.6121329069137573,0.07186052203178406,0.06947935372591019
1789040130357269000,7.04126904296875,-0.7557733058929443,0.06730968505144119,-0.015881745144724846
1789040130367212000,7.0512119140625,-0.8863797783851624,0.2836228013038635,-0.12228222191333771
1789040130377156000,7.061156005859375,-0.8673847913742065,0.4267066717147827,-0.07305421680212021
1789040130387100000,7.071099853515625,-0.8655072450637817,0.4802338182926178,0.037808120250701904
1789040130397044700,7.081044677734375,-0.9680306315422058,0.2982794940471649,-0.042594678699970245
1789040130406988500,7.090988525390625,-1.1834949254989624,-0.018298983573913574,-0.11464489996433258
1789040130416932600,7.1009326171875,-1.130791187286377,0.3546428680419922,0.13024728000164032
1789040130426875600,7.110875732421875,-0.9206432700157166,0.5487915873527527,0.3032059967517853
1789040130436819500,7.1208193359375,-0.7049475908279419,0.7952930331230164,0.4314677119255066
1789040130446763500,7.130763427734375,-0.7054938077926636,0.9031723737716675,0.293809711933136
1789040130456707600,7.14070751953125,-0.746757447719574,1.0016292333602905,0.19425074756145477
1789040130466651600,7.150651611328125,-0.6507568955421448,0.870079517364502,0.10269179940223694
1789040130476595700,7.160595703125,-0.5907528400421143,0.6293074488639832,-0.13196344673633575
1789040130486538800,7.170538818359375,-0.5499827861785889,0.26247063279151917,-0.503339946269989
1789040130496482600,7.180482666015625,-0.5020156502723694,0.08825931698083878,-0.7364829778671265
1789040130506426600,7.190426513671875,-0.4456484913825989,-0.015602903440594673,-0.8073808550834656
1789040130516370400,7.200370361328125,-0.4569564461708069,0.17978140711784363,-0.8312064409255981
1789040130526314500,7.210314453125,-0.505670428276062,0.5533850789070129,-0.7622092366218567
1789040130536257500,7.220257568359375,-0.8448441028594971,-0.5122124552726746,-1.1170036792755127
1789040130546201300,7.230201416015625,-0.36443889141082764,-0.8746870756149292,-1.3280326128005981
1789040130556145700,7.240145751953125,-0.6050341129302979,-0.6416425108909607,-1.2094008922576904
1789040130566089700,7.25008984375,-0.7512819170951843,-0.567733645439148,-1.3578425645828247
1789040130576033500,7.260033447265625,-0.6851327419281006,-0.6114171147346497,-1.4417165517807007
1789040130585976600,7.2699765625,-0.7491692900657654,-0.5669300556182861,-1.3351097106933594
1789040130595920600,7.279920654296875,-0.830405592918396,-0.4426560699939728,-1.2880223989486694
1789040130605864400,7.289864501953125,-0.8248279094696045,-0.43446260690689087,-1.2016111612319946
1789040130615808500,7.29980859375,-0.9429556131362915,-0.19523055851459503,-1.12410306930542
1789040130625752600,7.309752685546875,-0.8877924680709839,0.03025422804057598,-0.9022470712661743
1789040130635696600,7.319696533203125,-0.7589245438575745,0.06871023774147034,-0.6231918334960938
1789040130645639700,7.3296396484375,-0.5946706533432007,0.1094432920217514,-0.4176037311553955
1789040130655583700,7.339583740234375,-0.49037548899650574,0.13552753627300262,-0.3202269375324249
1789040130665527600,7.349527587890625,-0.4194752275943756,0.18982353806495667,-0.1806458681821823
1789040130675471600,7.3594716796875,-0.47335681319236755,0.22716879844665527,-0.11245212703943253
1789040130685415400,7.36941552734375,-0.4786762297153473,0.33814483880996704,0.030484257265925407
1789040130695358500,7.3793583984375,-0.3522566258907318,0.36522823572158813,0.15359826385974884
1789040130705302500,7.389302490234375,-0.1718282550573349,0.5528801679611206,0.33658459782600403
1789040130715246600,7.39924658203125,-0.02563011460006237,0.5151103734970093,0.4250407814979553
1789040130725190700,7.409190673828125,0.07880228012800217,0.4767765700817108,0.34117597341537476
1789040130735134700,7.419134765625,0.23833508789539337,0.33742907643318176,0.21234244108200073
1789040130745078500,7.42907861328125,0.32016628980636597,0.35942012071609497,0.15628157556056976
1789040130755021600,7.439021484375,0.40739643573760986,0.4532872140407562,0.264578640460968
1789040130764965600,7.448965576171875,0.4628556966781616,0.6569817066192627,0.4742620885372162
1789040130774909400,7.458909423828125,0.6618685722351074,0.6990662813186646,0.6060348153114319
1789040130784853500,7.468853515625,0.8960403800010681,0.6352574229240417,0.6679815053939819
1789040130794797600,7.478797607421875,1.0462019443511963,0.482563853263855,0.7207927703857422
1789040130804740600,7.48874072265625,1.1387113332748413,0.3022228479385376,0.5991742014884949
1789040130814684700,7.4986845703125,1.1854830980300903,0.2403593361377716,0.3975907266139984
1789040130824628500,7.50862841796875,1.2825111150741577,0.26638638973236084,0.2703656852245331
1789040130834572500,7.518572509765625,1.3935679197311401,0.30994221568107605,0.35046103596687317
1789040130844516600,7.5285166015625,1.5183380842208862,0.3539712131023407,0.555237352848053
1789040130854460400,7.53846044921875,1.6291266679763794,0.13231615722179413,0.5558332800865173
1789040130864403500,7.548403564453125,1.7268881797790527,-0.12332361936569214,0.2899171710014343
1789040130874347800,7.55834765625,1.7670657634735107,0.08111221343278885,0.12984678149223328
1789040130884291600,7.56829150390625,1.7108956575393677,0.473918616771698,0.2301824390888214
1789040130894235600,7.578235595703125,1.5641800165176392,0.6721979379653931,0.4173482060432434
1789040130904179500,7.588179443359375,1.5240494012832642,0.6043011546134949,0.4350728988647461
1789040130914122500,7.59812255859375,1.548262357711792,0.5943331718444824,0.346971333026886
1789040130924066600,7.608066650390625,1.5872938632965088,0.8013790249824524,0.43484365940093994
1789040130934010600,7.6180107421875,1.594344139099121,0.7392818927764893,0.5158460140228271
1789040130943954400,7.627954345703125,1.570600986480713,0.5129965543746948,0.3535202443599701
1789040130953898800,7.637898681640625,1.4905015230178833,0.266167551279068,0.023153886198997498
1789040130963842600,7.647842529296875,1.3970727920532227,0.3341551125049591,-0.012119414284825325
1789040130973785600,7.65778564453125,1.2310686111450195,0.2601583003997803,-0.12534581124782562
1789040130983729700,7.667729736328125,1.1473355293273926,0.3075399398803711,-0.22662796080112457
1789040130993673500,7.677673583984375,1.2118608951568604,0.38953685760498047,-0.00667201355099678
1789040131003617500,7.687617431640625,1.346592664718628,0.24981838464736938,0.20039968192577362
1789040131013561600,7.6975615234375,1.449310302734375,0.23956961929798126,0.35847750306129456
1789040131023504400,7.70750439453125,1.224791169166565,0.12407977133989334,0.20307807624340057
1789040131033448400,7.717448486328125,0.9295063614845276,-0.05000743642449379,-0.04834023118019104
1789040131043392800,7.727392822265625,0.9107265472412109,0.11127306520938873,-0.021362408995628357
1789040131053336600,7.737336669921875,1.055576205253601,0.11330261826515198,-0.14512650668621063
1789040131063280600,7.74728076171875,1.1027674674987793,0.1722191870212555,-0.18929609656333923
1789040131073224400,7.757224365234375,0.9739404916763306,-0.046513065695762634,-0.3008256256580353
1789040131083167500,7.76716748046875,0.7106723785400391,-0.2555685341358185,-0.2395593225955963
1789040131093111600,7.777111572265625,0.5531225204467773,-0.33250319957733154,-0.0691775381565094
1789040131103055400,7.787055419921875,0.5399609208106995,-0.3166944086551666,0.0319855660200119
1789040131112999700,7.796999755859375,0.4455472528934479,-0.49183598160743713,-0.08259611576795578
1789040131122943700,7.80694384765625,0.3834364712238312,-0.438761830329895,-0.10314720124006271
1789040131132886500,7.816886474609375,0.4070567488670349,-0.18236131966114044,0.05805216357111931
1789040131142830600,7.82683056640625,0.36269888281822205,-0.23172220587730408,0.11911258846521378
1789040131152774700,7.836774658203125,0.054699283093214035,-0.5598052144050598,-0.13719695806503296
1789040131162718500,7.846718505859375,-0.17317381501197815,-0.6347028613090515,-0.3866613805294037
1789040131172662500,7.85666259765625,-0.27339211106300354,-0.31764882802963257,-0.30763760209083557
1789040131182605600,7.86660546875,-0.23571904003620148,0.14908504486083984,0.018824657425284386
1789040131192549400,7.87654931640625,-0.3630652129650116,-0.05060482770204544,0.0940389409661293
1789040131202493700,7.88649365234375,-0.6645220518112183,-0.3233471214771271,-0.08354143798351288
1789040131212437500,7.8964375,-0.8169152140617371,-0.3301330804824829,-0.22935226559638977
1789040131222381600,7.906381591796875,-0.8966134786605835,-0.27984514832496643,-0.3055594265460968
1789040131232325600,7.91632568359375,-0.9321514368057251,0.01579003781080246,-0.2221415489912033
1789040131242268700,7.9262685546875,-0.8793873190879822,0.2910431921482086,0.0016079163178801537
1789040131252212500,7.93621240234375,-0.9012545943260193,0.41553765535354614,0.18456807732582092
1789040131262156500,7.946156494140625,-1.0199440717697144,0.11807669699192047,0.12046632915735245
1789040131272100600,7.9561005859375,-1.0387027263641357,0.06290549039840698,0.03066502884030342
1789040131282044700,7.966044677734375,-0.9898236989974976,0.037874966859817505,-0.15203207731246948
1789040131291987700,7.97598779296875,-0.8508152365684509,0.39463141560554504,-0.13575243949890137
1789040131301931500,7.985931640625,-0.8175851106643677,0.2520745098590851,-0.17009443044662476
1789040131311875600,7.99587548828125,-0.8678792715072632,0.0741950273513794,-0.28577372431755066
1789040131321819600,8.005819580078125,-0.8996856808662415,0.07506401836872101,-0.3564164936542511
1789040131331763500,8.015763427734376,-0.7578383088111877,0.5730710625648499,-0.05928567796945572
1789040131341707500,8.02570751953125,-0.6685721278190613,0.39418095350265503,0.031373120844364166
1789040131351650600,8.035650634765625,-0.7385562658309937,-0.11450354754924774,-0.3327554762363434
1789040131361594600,8.0455947265625,-0.7648661136627197,-0.6407332420349121,-0.8633378744125366
1789040131371538700,8.05553857421875,-0.8140668272972107,-0.6901326775550842,-1.0134259462356567
1789040131381482500,8.065482421875,-0.8143267035484314,-0.01875726506114006,-0.47638750076293945
1789040131391426600,8.075426513671875,-0.8879948854446411,-0.10302606225013733,-0.12220320105552673
1789040131401369900,8.085369873046876,-1.069427251815796,-0.5487646460533142,-0.5051929354667664
1789040131411313700,8.095313720703125,-1.1649831533432007,-0.49525928497314453,-1.0285929441452026
1789040131421257700,8.1052578125,-1.1515123844146729,-0.5556834936141968,-1.2803537845611572
1789040131431202000,8.1152021484375,-1.1115069389343262,-0.5066136121749878,-1.197669506072998
1789040131441145900,8.125145751953125,-1.0615670680999756,-0.34481778740882874,-0.878240704536438
1789040131451090000,8.13508984375,-1.0528144836425781,-0.3460490107536316,-0.7564302086830139
1789040131461033000,8.145032958984375,-1.1522384881973267,-0.1978350579738617,-0.8734554052352905
1789040131470976800,8.154976806640626,-1.2702398300170898,-0.11550843715667725,-0.8994436860084534
1789040131480920800,8.1649208984375,-1.3720378875732422,-0.034147799015045166,-0.7798925042152405
1789040131490864600,8.17486474609375,-1.3632254600524902,0.10016576945781708,-0.6044881939888
1789040131500808700,8.18480859375,-1.2225817441940308,-0.04324917867779732,-0.7233405113220215
1789040131510751700,8.194751708984375,-0.9640112519264221,-0.019694533199071884,-1.2233935594558716
1789040131520695800,8.20469580078125,-0.6709498167037964,0.4586358368396759,-1.873711109161377
1789040131530640000,8.214639892578125,-0.5115202069282532,0.06840352714061737,-1.7013428211212158
1789040131540584000,8.224583984375,-0.4982134699821472,-0.011850833892822266,-1.3158071041107178
1789040131550527700,8.23452783203125,-0.6508969068527222,-0.01260966993868351,-1.001590609550476
1789040131560471800,8.244471923828126,-0.9899287819862366,0.0072119710966944695,-0.7953045964241028
1789040131570414800,8.254414794921875,-1.3009523153305054,0.14832204580307007,-0.6239396333694458
1789040131580358700,8.264358642578125,-1.3762388229370117,0.23708359897136688,-0.4061231315135956
1789040131590302700,8.274302734375,-1.3436390161514282,0.20904748141765594,-0.2556940019130707
1789040131600246800,8.284246826171875,-1.2391315698623657,0.14989282190799713,-0.19033338129520416
1789040131610190800,8.29419091796875,-1.1743251085281372,-0.041044965386390686,-0.05080718547105789
1789040131620134000,8.3041337890625,-1.2139025926589966,-0.1448161005973816,0.1160648837685585
1789040131630078000,8.314077880859376,-1.2411845922470093,-0.21945443749427795,0.12683634459972382
1789040131640021800,8.324021728515625,-1.1219098567962646,-0.2405317723751068,0.034539178013801575
1789040131649965800,8.3339658203125,-0.7205371856689453,0.04057155176997185,0.020538996905088425
1789040131659909600,8.34390966796875,-0.3700984716415405,0.10701262950897217,0.020611166954040527
1789040131669852700,8.353852783203125,-0.2843121588230133,-0.03329305723309517,0.047620661556720734
1789040131679797000,8.363796875,-0.34184443950653076,-0.11342411488294601,0.18094223737716675
1789040131689740800,8.37374072265625,-0.2932654917240143,-0.015226759947836399,0.3099130392074585
1789040131699684900,8.383684814453124,-0.14965641498565674,0.1530061960220337,0.4219735264778137
1789040131709629000,8.39362890625,-0.04438450187444687,0.2153976410627365,0.5252116918563843
1789040131719572700,8.40357275390625,0.09825173765420914,0.3760099411010742,0.5305009484291077
1789040131729515800,8.413515869140625,0.20252716541290283,0.3211701512336731,0.49667465686798096
1789040131739459800,8.4234599609375,0.2582215964794159,0.34518226981163025,0.45683592557907104
1789040131749403600,8.433403564453124,0.3040347695350647,0.3269645571708679,0.4746973514556885
1789040131759348000,8.443347900390625,0.47067728638648987,0.4738607704639435,0.4607578217983246
1789040131769291800,8.453291748046874,0.6404678225517273,0.4872018098831177,0.37674081325531006
1789040131779234800,8.46323486328125,0.7525235414505005,0.519904613494873,0.31787005066871643
1789040131789179000,8.473178955078126,0.8777506351470947,0.3715609014034271,0.34259724617004395
1789040131799122700,8.483122802734375,1.001319169998169,0.23691469430923462,0.4393938481807709
1789040131809066800,8.493066650390626,1.1845438480377197,0.14311808347702026,0.560673177242279
1789040131819010800,8.5030107421875,1.325377106666565,0.05946127697825432,0.6348574161529541
1789040131828955000,8.512954833984375,1.448007345199585,0.019665969535708427,0.6464869976043701
1789040131838897700,8.522897705078124,1.6074830293655396,-0.027813663706183434,0.7769187688827515
1789040131848842000,8.532842041015625,1.753205418586731,-0.09543438255786896,0.982293963432312
1789040131858785800,8.542785888671874,1.8480597734451294,-0.07373122125864029,1.083308458328247
1789040131868729900,8.552729736328125,1.892462134361267,-0.050376810133457184,1.1436859369277954
1789040131878673700,8.562673583984376,1.9182281494140625,0.046478092670440674,1.2668653726577759
1789040131888616700,8.57261669921875,1.894303321838379,0.03434630483388901,1.2708314657211304
1789040131898560800,8.582560791015625,1.9374572038650513,0.10212402045726776,1.2408251762390137
1789040131908504800,8.5925048828125,1.951523780822754,0.16952362656593323,1.1376738548278809
1789040131918449000,8.602448974609375,1.8607995510101318,0.26857325434684753,1.0236878395080566
1789040131928393000,8.61239306640625,1.8018356561660767,0.3265511691570282,1.060760259628296
1789040131938336000,8.6223359375,1.7355895042419434,0.3333318531513214,1.0808714628219604
1789040131948279800,8.63227978515625,1.7318825721740723,0.25054147839546204,0.9541114568710327
1789040131958224000,8.642223876953125,1.6113287210464478,0.21070191264152527,0.5800952315330505
1789040131968167700,8.652167724609376,1.5313327312469482,0.2998146116733551,0.30694282054901123
1789040131978111700,8.66211181640625,1.4693015813827515,0.34847667813301086,0.2378644049167633
1789040131988055800,8.672055908203125,1.4173657894134521,0.3222603499889374,0.26039063930511475
1789040131997998600,8.68199853515625,1.378996729850769,0.2398615926504135,0.21601945161819458
1789040132007943000,8.69194287109375,1.284777283668518,-0.005072871223092079,-0.05318712070584297
1789040132017887000,8.701886962890624,1.2132676839828491,0.20059773325920105,-0.03025277517735958
1789040132027830800,8.711830810546875,1.1073318719863892,0.16046567261219025,-0.053914956748485565
1789040132037774800,8.72177490234375,1.0851365327835083,0.23564937710762024,0.03909887373447418
1789040132047718000,8.7317177734375,1.028646469116211,0.21469038724899292,0.03540293499827385
1789040132057661700,8.74166162109375,0.9601856470108032,0.26577433943748474,0.004024505149573088
1789040132067605800,8.751605712890624,0.8706697225570679,0.2596869170665741,-0.027366064488887787
1789040132077549800,8.7615498046875,0.8035404682159424,0.33807069063186646,0.10791080445051193
1789040132087494000,8.771493896484374,0.5031086206436157,-0.3680364489555359,-0.18032029271125793
1789040132097438000,8.78143798828125,0.25643277168273926,-0.5795630812644958,-0.31742462515830994
1789040132107381000,8.791381103515626,0.2525535821914673,-0.27548953890800476,-0.10188087821006775
1789040132117324800,8.80132470703125,0.45618394017219543,-0.1277352273464203,0.22252808511257172
1789040132127268900,8.811268798828126,0.32250285148620605,-0.45372581481933594,0.022542838007211685
1789040132137212700,8.821212646484375,-0.008222352713346481,-0.7054749727249146,-0.4511733055114746
1789040132147156700,8.83115673828125,-0.21663185954093933,-0.398792564868927,-0.5850617289543152
1789040132157099800,8.841099853515624,-0.11215551942586899,0.2571096420288086,-0.24455049633979797
1789040132167043800,8.8510439453125,-0.2123652547597885,0.0889488011598587,-0.22176523506641388
1789040132176988000,8.86098779296875,-0.5002729296684265,0.010134679265320301,-0.34749865531921387
1789040132186932000,8.870931884765625,-0.7131495475769043,-0.09113635867834091,-0.43970319628715515
1789040132196875800,8.880875732421876,-0.7755255699157715,-0.05340149253606796,-0.36851903796195984
1789040132206819800,8.89081982421875,-0.7504786849021912,-0.09925167262554169,-0.3174200654029846
1789040132216763000,8.900762939453125,-0.8391762971878052,-0.017120055854320526,-0.3866247236728668
1789040132226706700,8.910706787109374,-0.7781065106391907,0.20401667058467865,-0.3355972170829773
1789040132236650800,8.920650634765625,-0.7005070447921753,0.4572579860687256,-0.16118121147155762
1789040132246594800,8.9305947265625,-0.7190117239952087,0.3040335774421692,-0.10918939858675003
1789040132256539000,8.940538818359375,-0.7981342077255249,0.15039820969104767,-0.17984305322170258
1789040132266482000,8.95048193359375,-0.703241765499115,0.04150190204381943,-0.17724256217479706
1789040132276425700,8.96042578125,-0.5867465734481812,-0.010065685957670212,-0.15373776853084564
1789040132286369800,8.970369873046875,-0.5234022736549377,0.08707117289304733,-0.09140454232692719
1789040132296313900,8.98031396484375,-0.48627758026123047,0.05411801487207413,-0.08348111063241959
1789040132306257700,8.990257568359375,-0.4896908402442932,-0.08996797353029251,-0.25648918747901917
1789040132316202000,9.000201904296874,-0.5003544092178345,0.07560580968856812,-0.32572975754737854
1789040132326145000,9.01014501953125,-0.42140018939971924,0.33650508522987366,-0.27207908034324646
1789040132336088800,9.0200888671875,-0.37177589535713196,0.1608283370733261,-0.3816191554069519
1789040132346033000,9.030032958984375,-0.4295397698879242,0.003478243015706539,-0.620076060295105
1789040132355976700,9.039976806640626,-0.43768081068992615,0.025105509907007217,-0.5366088151931763
1789040132365920800,9.049920654296875,-0.4155726134777069,-0.06706739962100983,-0.3603610694408417
1789040132375863800,9.05986376953125,-0.47288650274276733,-0.32279396057128906,-0.2986857295036316
1789040132385808000,9.069807861328124,-0.653995931148529,-0.44695568084716797,-0.4037659764289856
1789040132395751700,9.079751708984375,-0.896837055683136,-0.42398005723953247,-0.4461248815059662
1789040132405696300,9.0896962890625,-1.0190918445587158,-0.4184814989566803,-0.4066791832447052
1789040132415640000,9.09964013671875,-1.034904956817627,-0.43425753712654114,-0.3845829367637634
1789040132425584000,9.109584228515626,-1.0362180471420288,-0.3621956408023834,-0.5504274368286133
1789040132435527200,9.119527099609375,-0.9458348751068115,-0.18565312027931213,-0.6240332126617432
1789040132445471000,9.129470947265625,-0.8542869687080383,-0.1120895966887474,-0.6831916570663452
1789040132455415000,9.1394150390625,-0.8396052718162537,-0.046875447034835815,-0.7477429509162903
1789040132465359000,9.149359130859375,-0.9139440655708313,0.11834720522165298,-0.7848590016365051
1789040132475303200,9.15930322265625,-0.8638764023780823,0.19276922941207886,-0.6461248397827148
1789040132485246200,9.16924609375,-0.8578893542289734,0.04031572863459587,-0.6553508639335632
1789040132495190000,9.17918994140625,-0.9651449918746948,-0.16257773339748383,-0.8603194355964661
1789040132505134000,9.189134033203125,-1.0516594648361206,-0.15805120766162872,-1.0229341983795166
1789040132515078100,9.199078125,-1.0757367610931396,-0.02216128446161747,-1.00804603099823
1789040132525022000,9.20902197265625,-1.0183864831924438,0.2272314429283142,-0.8511348962783813
1789040132534966000,9.218966064453125,-0.915934145450592,0.14437678456306458,-0.6885747313499451
1789040132544909000,9.228908935546874,-0.9011926651000977,-0.1382250040769577,-0.7470167279243469
1789040132554853000,9.23885302734375,-0.9504702091217041,-0.2030540555715561,-0.8766967058181763
1789040132564797200,9.248797119140624,-1.032631278038025,0.011900652199983597,-0.8531835675239563
1789040132574741200,9.2587412109375,-1.182206153869629,0.27061930298805237,-0.7166403532028198
1789040132584685000,9.26868505859375,-1.41297447681427,0.443876713514328,-0.5313376784324646
1789040132594628000,9.278628173828125,-1.617903232574463,0.597906231880188,-0.3713192343711853
1789040132604572200,9.288572265625,-1.8463869094848633,0.6488713622093201,-0.3229818344116211
1789040132614516000,9.298515869140624,-1.8814109563827515,0.5843338966369629,-0.2829499840736389
1789040132624460300,9.308460205078125,-1.7151437997817993,0.4357648491859436,-0.2191501408815384
1789040132634404000,9.318404052734374,-1.4222773313522339,0.4017208516597748,-0.2262543886899948
1789040132644347100,9.32834716796875,-1.0583667755126953,0.21321260929107666,-0.23038147389888763
1789040132654291200,9.338291259765626,-0.9132988452911377,-0.040501680225133896,-0.1749160885810852
1789040132664235000,9.348235107421875,-0.8263142704963684,-0.08523194491863251,-0.09016426652669907
1789040132674179000,9.358178955078126,-0.6097835302352905,-0.08381327986717224,0.015846585854887962
1789040132684123100,9.368123046875,-0.4162263572216034,-0.05906529352068901,0.170501708984375
1789040132694067000,9.37806689453125,-0.3234498202800751,-0.005744815804064274,0.342389315366745
1789040132704010000,9.388010009765624,-0.2665472626686096,0.0363621786236763,0.4735564589500427
1789040132713954300,9.397954345703125,-0.2007456123828888,0.153082937002182,0.591956377029419
1789040132723898000,9.407898193359374,-0.0033231317065656185,0.117079958319664,0.7498685717582703
1789040132733842200,9.41784228515625,0.20912867784500122,0.07124456763267517,0.7586828470230103
1789040132743786000,9.427785888671876,0.5255346894264221,0.00528772734105587,0.7174659967422485
1789040132753729000,9.43772900390625,0.6905872821807861,-0.11441364139318466,0.6801641583442688
1789040132763673000,9.447673095703125,0.7198356986045837,-0.10987292975187302,0.6885399222373962
1789040132773617200,9.4576171875,0.7100725769996643,-0.010733559727668762,0.7028523087501526
1789040132783561000,9.46756103515625,0.8532355427742004,0.05216431990265846,0.7885631918907166
1789040132793505300,9.47750537109375,1.1114723682403564,0.10019709169864655,0.8388321995735168
1789040132803449000,9.487448974609375,1.4467155933380127,0.1886223554611206,0.9121991395950317
1789040132813392100,9.49739208984375,1.704336166381836,0.07478046417236328,1.0205625295639038
1789040132823336200,9.507336181640625,1.7480677366256714,0.008633939549326897,1.0248281955718994
1789040132833280000,9.517280029296876,1.6678876876831055,-0.09582802653312683,0.9799403548240662
1789040132843224000,9.52722412109375,1.6655538082122803,-0.1722085028886795,1.0674848556518555
1789040132853168000,9.537168212890625,1.6300594806671143,-0.1985253244638443,1.0482234954833984
1789040132863111000,9.54711083984375,1.5343682765960693,-0.2529889941215515,0.6951416730880737
1789040132873055200,9.55705517578125,1.4384782314300537,-0.2674001455307007,0.22778408229351044
1789040132882999300,9.566999267578124,1.3901851177215576,0.04006728157401085,0.017043817788362503
1789040132892943000,9.576943115234375,1.5855997800827026,0.22116968035697937,0.3097294569015503
1789040132902887200,9.58688720703125,1.7773377895355225,-0.007884930819272995,0.692516028881073
1789040132912831000,9.5968310546875,1.761026382446289,-0.2545338571071625,0.6499019861221313
1789040132922774000,9.60677392578125,1.6129182577133179,-0.30703577399253845,0.3220682144165039
1789040132932718000,9.616718017578124,1.5691322088241577,-0.1656360626220703,0.25895342230796814
1789040132942662000,9.626661865234375,1.6592655181884766,-0.12756240367889404,0.46475252509117126
1789040132952606200,9.636606201171874,1.700627088546753,-0.07031243294477463,0.47897058725357056
1789040132962550300,9.64655029296875,1.5754979848861694,-0.26548489928245544,0.12921343743801117
1789040132972494000,9.656494140625,1.3334416151046753,-0.2673232853412628,0.031659986823797226
1789040132982437000,9.66643701171875,1.2673887014389038,-0.21253755688667297,0.4163965582847595
1789040132992381200,9.676381103515626,1.3107255697250366,-0.1012834832072258,0.7487332224845886
1789040133002325000,9.686324951171875,1.1421877145767212,-0.35780829191207886,0.48911261558532715
1789040133012269000,9.69626904296875,0.9132753610610962,-0.36582842469215393,0.21246667206287384
1789040133022213000,9.706213134765624,0.8334981203079224,-0.18388929963111877,0.24161715805530548
1789040133032156200,9.71615625,0.7739986181259155,-0.05492093414068222,0.36692526936531067
1789040133042100200,9.726100341796876,0.6999291181564331,-0.08190678060054779,0.29361972212791443
1789040133052044000,9.7360439453125,0.6790627241134644,-0.17994838953018188,0.09600543230772018
1789040133061988000,9.745988037109376,0.6460486054420471,-0.03965891897678375,0.18140368163585663
1789040133071932200,9.75593212890625,0.4695310890674591,-0.10801880061626434,0.40863656997680664
1789040133081876000,9.7658759765625,0.2178979218006134,-0.3513543903827667,0.4384406507015228
1789040133091819000,9.775819091796874,0.1163148283958435,-0.535017192363739,0.2691959738731384
1789040133101763000,9.78576318359375,0.10055781900882721,-0.5570099353790283,0.1861228346824646
1789040133111707100,9.79570703125,0.0662459209561348,-0.5199400782585144,0.1821557879447937
1789040133121651200,9.805651123046875,-0.0158134363591671,-0.337393581867218,0.18455149233341217
1789040133131595000,9.815594970703126,-0.3033655881881714,-0.5431113243103027,-0.022236580029129982
1789040133141538000,9.8255380859375,-0.4700557589530945,-0.48042744398117065,-0.07849163562059402
1789040133151482000,9.835482177734375,-0.5847412943840027,-0.5374436378479004,-0.07525535672903061
1789040133161426200,9.84542626953125,-0.6317210793495178,-0.172016903758049,0.06862351298332214
1789040133171370000,9.855369873046875,-0.6159123182296753,-0.16794519126415253,0.23322364687919617
1789040133181314000,9.86531396484375,-0.627064049243927,-0.18650855123996735,0.3176133930683136
1789040133191257000,9.875257080078125,-0.7348078489303589,-0.39900508522987366,0.14261148869991302
1789040133201201200,9.885201171875,-0.8176342844963074,-0.3702589273452759,-0.05382518470287323
1789040133211145200,9.895145263671875,-0.7367785573005676,-0.054949723184108734,0.002438885625451803
1789040133221089000,9.905089111328126,-0.628734827041626,0.058482713997364044,0.15112236142158508
1789040133231033000,9.915033203125,-0.5782120227813721,-0.08940687775611877,0.21334072947502136
1789040133240977200,9.92497705078125,-0.572424590587616,-0.23708443343639374,0.19661571085453033
1789040133250920000,9.934919921875,-0.620305597782135,-0.3184836804866791,0.1622987538576126
1789040133260864000,9.944864013671875,-0.6214454174041748,-0.21211670339107513,0.23907241225242615
1789040133270808300,9.954808349609374,-0.4797590970993042,0.0006432393565773964,0.4108026325702667
1789040133280752000,9.964752197265625,-0.395051509141922,-0.28595274686813354,0.2805042862892151
1789040133290696200,9.9746962890625,-0.4208897650241852,-0.4450819492340088,0.11545275896787643
1789040133300640000,9.984639892578125,-0.4850202798843384,-0.3849397897720337,0.06547428667545319
1789040133310583000,9.9945830078125,-0.5807790160179138,-0.2606380879878998,-0.0008155237883329391
1789040133320527000,10.004527099609374,-0.7036858201026917,-0.14046034216880798,-0.08049783110618591
1789040133330471000,10.014470947265625,-0.6922943592071533,0.10012058168649673,0.09791611135005951
1789040133340415000,10.0244150390625,-0.5675068497657776,0.09768477082252502,0.2683734893798828
1789040133350359300,10.034359375,-0.6710917949676514,0.12969861924648285,0.37387409806251526
1789040133360302300,10.04430224609375,-0.8938942551612854,-0.05084824189543724,0.27961790561676025
1789040133370246100,10.05424609375,-1.1201859712600708,-0.16308557987213135,0.07635188102722168
1789040133380190200,10.064190185546876,-1.2441818714141846,-0.11646046489477158,-0.1296791136264801
1789040133390134000,10.074134033203125,-1.2293750047683716,-0.04541931301355362,-0.37541377544403076
1789040133400077000,10.0840771484375,-1.1078826189041138,-0.01975397579371929,-0.6187666058540344
1789040133410021400,10.094021484375,-0.8291248083114624,-0.013831905089318752,-0.4792896509170532
1789040133419964200,10.103964111328125,-0.570441722869873,-0.15090544521808624,-0.2647744119167328
1789040133429908200,10.113908203125,-0.6340475678443909,-0.04322478920221329,-0.38007012009620667
1789040133439852300,10.123852294921875,-0.7728070616722107,0.10476230084896088,-0.6158149838447571
1789040133449796000,10.133796142578126,-0.8189777731895447,0.06604473292827606,-0.7719987630844116
1789040133459740200,10.143740234375,-0.7875081300735474,0.020566310733556747,-0.726588785648346
1789040133469683200,10.15368310546875,-0.8086664080619812,0.05361960083246231,-0.5716471672058105
1789040133479627000,10.163626953125,-1.0261048078536987,0.14235442876815796,-0.5939686298370361
1789040133489571000,10.173571044921875,-1.155197024345398,0.3089977204799652,-0.6119322180747986
1789040133499515400,10.183515380859374,-1.0395151376724243,0.3048122525215149,-0.619094967842102
1789040133509459200,10.193459228515625,-0.8391472697257996,0.3149951100349426,-0.5870129466056824
1789040133519403300,10.2034033203125,-0.641800045967102,0.3102538287639618,-0.3898673951625824
1789040133529346300,10.21334619140625,-0.5819031596183777,0.06588377803564072,-0.23388046026229858
1789040133539290000,10.2232900390625,-0.7595097422599792,-0.014831570908427238,-0.4738658368587494
1789040133549234200,10.233234130859374,-0.8902791738510132,-0.07702624052762985,-0.7553081512451172
1789040133559178200,10.24317822265625,-0.8874363303184509,0.045812539756298065,-1.0028650760650635
1789040133569122000,10.2531220703125,-0.8198021650314331,0.2611357867717743,-1.0336482524871826
1789040133579065000,10.263065185546875,-0.6484965682029724,0.46054038405418396,-0.7103252410888672
1789040133589009400,10.273009521484376,-0.5692368745803833,0.17441275715827942,-0.471803218126297
1789040133598953200,10.282953125,-0.7166825532913208,0.24673321843147278,-0.5421083569526672
1789040133608897300,10.292897216796876,-0.845629870891571,0.4434761106967926,-0.5504560470581055
1789040133618841000,10.302841064453125,-0.894131064414978,0.5533654689788818,-0.43541109561920166
1789040133628785200,10.31278515625,-0.7796471118927002,0.29413580894470215,-0.41661155223846436
1789040133638728200,10.322728271484374,-0.6550052762031555,0.07363509386777878,-0.608841598033905
1789040133648672000,10.332672119140625,-0.4441201984882355,0.3904769718647003,-0.46731826663017273
1789040133658616300,10.3426162109375,-0.25580647587776184,0.4687698185443878,-0.1259428858757019
1789040133668560400,10.352560302734375,-0.1449872851371765,0.3755709230899811,0.051398865878582
1789040133678504200,10.362504150390626,-0.2054237574338913,0.38677647709846497,-0.16422709822654724
1789040133688447200,10.372447265625,-0.20519685745239258,0.24749313294887543,-0.2826685309410095
1789040133698391300,10.382391357421875,-0.2339700311422348,0.1698400229215622,-0.15517596900463104
1789040133708335000,10.392335205078124,-0.1706664264202118,0.39112821221351624,0.057107798755168915
1789040133718279200,10.402279052734375,0.09562954306602478,0.821157693862915,0.1680794656276703
1789040133728223000,10.412222900390624,0.43217453360557556,0.8571391105651855,0.20840664207935333
1789040133738166000,10.422166015625,0.6459271907806396,0.8087565898895264,0.09860806167125702
1789040133748110300,10.4321103515625,0.6693949699401855,0.8102574944496155,0.1931215226650238
1789040133758054100,10.44205419921875,0.6997920274734497,1.0214335918426514,0.44083091616630554
1789040133767998200,10.451998291015625,0.87168949842453,1.0410605669021606,0.6941899657249451
1789040133777942300,10.4619423828125,1.048804759979248,0.889369547367096,0.7322791814804077
1789040133787886000,10.471885986328125,1.256966471672058,0.6667972207069397,0.7085200548171997
1789040133797829000,10.4818291015625,1.3875688314437866,0.2839321494102478,0.6889138221740723
1789040133807773200,10.491773193359375,1.2684102058410645,0.22471730411052704,0.446664959192276
1789040133817717000,10.501717041015626,1.1943349838256836,0.3011395335197449,0.18760235607624054
1789040133827661300,10.511661376953125,1.2053799629211426,0.4686736762523651,0.04472563415765762
1789040133837605000,10.521605224609376,1.345869541168213,0.5581802725791931,0.048726316541433334
1789040133847548200,10.531548095703124,1.5522527694702148,0.4209071099758148,0.20532073080539703
1789040133857492200,10.5414921875,1.689445972442627,0.1450924277305603,0.4973457455635071
1789040133867436300,10.551436279296874,1.5766874551773071,-0.08665292710065842,0.458354115486145
1789040133877380000,10.561380126953125,1.5189507007598877,-0.02995869889855385,0.2394086718559265
1789040133887324200,10.57132421875,1.5731604099273682,0.07854141294956207,0.17142988741397858
1789040133897268200,10.581268310546875,1.694758415222168,0.0889853984117508,0.26456475257873535
1789040133907211300,10.591211181640626,1.665894627571106,0.06637436151504517,0.09265609085559845
1789040133917155300,10.6011552734375,1.58791184425354,0.23641616106033325,-0.04069255292415619
1789040133927099100,10.61109912109375,1.5479865074157715,0.3802524209022522,0.13700473308563232
1789040133937043200,10.621043212890624,1.543997049331665,0.3838358521461487,0.32431209087371826
1789040133946987300,10.6309873046875,1.5358773469924927,0.360123872756958,0.18677181005477905
1789040133956930000,10.640929931640626,1.5960345268249512,0.3641453683376312,-0.005545830354094505
1789040133966874000,10.6508740234375,1.6203563213348389,0.21647709608078003,-0.026114223524928093
1789040133976818200,10.660818115234376,1.565659761428833,0.05732719600200653,0.045286454260349274
1789040133986762200,10.67076220703125,1.3833850622177124,-0.06918280571699142,-0.022467557340860367
1789040133996706300,10.680706298828126,1.194975733757019,0.03542428836226463,-0.11694633215665817
1789040134006650000,10.690650146484375,1.0809149742126465,0.08045780658721924,-0.21604867279529572
1789040134016593200,10.70059326171875,0.9954689145088196,-0.06613098084926605,-0.29306432604789734
1789040134026537200,10.710537109375,0.9313200116157532,-0.053435422480106354,-0.18202300369739532
1789040134036481000,10.72048095703125,0.799837052822113,-0.1351010948419571,-0.09908755868673325
1789040134046425000,10.730425048828126,0.7554434537887573,0.0782063826918602,0.1086382046341896
1789040134056369400,10.740369384765625,0.7390273213386536,-0.2598988115787506,0.10491690039634705
1789040134066312200,10.750312255859376,0.5843623876571655,-0.49180421233177185,-0.03296852856874466
1789040134076256300,10.76025634765625,0.39417973160743713,-0.5825013518333435,-0.1973930299282074
1789040134086200300,10.770200439453125,0.29199129343032837,-0.6610488891601562,-0.28697752952575684
1789040134096144100,10.78014404296875,0.02902059070765972,-0.7558548450469971,-0.3907073140144348
1789040134106088200,10.790088134765625,-0.06589766591787338,-0.5406848192214966,-0.3017531931400299
1789040134116032000,10.800031982421874,-0.18965202569961548,-0.5399523377418518,-0.23583392798900604
1789040134125975000,10.80997509765625,-0.2049601525068283,-0.2589113712310791,-0.02129606157541275
1789040134135919000,10.819919189453126,-0.1372631937265396,-0.04529651254415512,0.25020909309387207
1789040134145863200,10.82986328125,-0.24968321621418,-0.37851762771606445,0.20862726867198944
1789040134155807200,10.83980712890625,-0.45491161942481995,-0.63434237241745,-0.04671299457550049
1789040134165751300,10.849751220703125,-0.5664373636245728,-0.5477968454360962,-0.20436787605285645
1789040134175694300,10.8596943359375,-0.5032191872596741,-0.2730674743652344,-0.15150044858455658
1789040134185638100,10.86963818359375,-0.4282703697681427,-0.043603647500276566,-0.03182119503617287
1789040134195582200,10.879582275390625,-0.5322021842002869,-0.24196447432041168,-0.08177830278873444
1789040134205526000,10.889526123046876,-0.7504274249076843,-0.45398008823394775,-0.2651766240596771
1789040134215470000,10.899469970703125,-0.8475398421287537,-0.48849573731422424,-0.32920753955841064
1789040134225414400,10.909414306640626,-0.8443281054496765,-0.14800764620304108,-0.1688508540391922
1789040134235357200,10.919357177734375,-0.764025092124939,0.1393180936574936,0.06110917776823044
1789040134245301200,10.92930126953125,-0.7628623247146606,-0.032861120998859406,0.09023962914943695
1789040134255245300,10.939245361328124,-0.755983293056488,-0.14974959194660187,0.07726061344146729
1789040134265189000,10.949189208984375,-0.7280885577201843,-0.4793506860733032,-0.14480121433734894
1789040134275133200,10.95913330078125,-0.6424030661582947,-0.273581862449646,-0.20282340049743652
1789040134285076200,10.969076171875,-0.5680923461914062,-0.18744297325611115,-0.23858192563056946
1789040134295020000,10.97902001953125,-0.6399995684623718,-0.15972186625003815,-0.3108156621456146
1789040134304964400,10.98896435546875,-0.7725903391838074,-0.15726029872894287,-0.31958597898483276
1789040134314908200,10.998908203125,-0.8884309530258179,-0.04203286021947861,-0.2513590157032013
1789040134324852200,11.008852294921875,-0.9208647608757019,0.1267513632774353,-0.13556638360023499
1789040134334796300,11.01879638671875,-0.9961151480674744,0.13255675137043,-0.18585945665836334
1789040134344739000,11.028739013671874,-1.048051357269287,0.0022022128105163574,-0.32068464159965515
1789040134354683100,11.03868310546875,-1.1232147216796875,-0.3572794198989868,-0.6300046443939209
1789040134364627200,11.048627197265626,-1.2204270362854004,-0.43201306462287903,-0.8665159344673157
1789040134374571000,11.058571044921875,-1.1639753580093384,-0.22741267085075378,-0.7009527087211609
1789040134384515300,11.068515380859376,-0.9566694498062134,-0.059423141181468964,-0.34279319643974304
1789040134394459100,11.078459228515625,-0.9469959139823914,-0.24075710773468018,-0.40851858258247375
1789040134404402700,11.088402587890625,-1.0447081327438354,-0.3469160497188568,-0.7439775466918945
1789040134414346800,11.0983466796875,-1.0445587635040283,-0.35341760516166687,-0.8779178261756897
1789040134424290600,11.10829052734375,-1.0135020017623901,-0.18508343398571014,-0.7690081000328064
1789040134434234600,11.118234619140624,-0.9851014614105225,-0.1587088257074356,-0.6313831210136414
1789040134444178700,11.1281787109375,-1.058518409729004,-0.26440274715423584,-0.7580526471138
1789040134454121500,11.13812158203125,-1.209453821182251,-0.2805078625679016,-1.0128120183944702
1789040134464065800,11.148065673828125,-1.2679176330566406,-0.0244007371366024,-1.0579701662063599
1789040134474009900,11.158009765625,-1.1125881671905518,0.26472339034080505,-0.732092022895813
1789040134483953700,11.16795361328125,-0.9319917559623718,0.3072247803211212,-0.4777090549468994
1789040134493897700,11.177897705078125,-0.7726747393608093,0.04658946767449379,-0.517256498336792
1789040134503841500,11.187841552734374,-0.6507112383842468,-0.14476104080677032,-0.6662846207618713
1789040134513784600,11.19778466796875,-0.685468852519989,-0.01955316960811615,-0.6750721335411072
1789040134523728600,11.207728759765626,-0.8197011947631836,0.20509830117225647,-0.5265939235687256
1789040134533672700,11.217672607421875,-0.9569805264472961,0.20826616883277893,-0.3240357041358948
1789040134543616800,11.22761669921875,-1.0238131284713745,-0.0018782829865813255,-0.27984294295310974
1789040134553560800,11.237560791015625,-1.0775748491287231,0.02852727100253105,-0.37792110443115234
1789040134563503600,11.247503662109375,-1.1294641494750977,0.34586527943611145,-0.38971036672592163
1789040134573447700,11.25744775390625,-1.176944613456726,0.45564863085746765,-0.13081291317939758
1789040134583391700,11.267391845703125,-1.1366840600967407,0.39408940076828003,0.11824830621480942
1789040134593335600,11.27733544921875,-1.0230134725570679,0.2888781428337097,0.12276307493448257
1789040134603279600,11.287279541015625,-0.8173075914382935,0.26640692353248596,-0.035784222185611725
1789040134613222700,11.29722265625,-0.6887617111206055,0.14128378033638,-0.18097467720508575
1789040134623166700,11.307166748046875,-0.4954798221588135,0.2377096563577652,-0.09851149469614029
1789040134633110800,11.31711083984375,-0.2804165780544281,0.3001072108745575,0.017044171690940857
1789040134643054800,11.327054931640625,-0.1612933874130249,0.33491045236587524,0.10384218394756317
1789040134652998700,11.33699853515625,-0.12279579788446426,0.33824145793914795,0.1122569590806961
1789040134662942700,11.346942626953124,-0.12175503373146057,0.3361562192440033,0.19923341274261475
1789040134672885800,11.3568857421875,-0.1554531306028366,0.31334683299064636,0.29384520649909973
1789040134682829600,11.36682958984375,-0.1251538097858429,0.27865514159202576,0.3567243218421936
1789040134692773600,11.376773681640625,-0.025474272668361664,0.1952943354845047,0.2735889256000519
1789040134702717700,11.3867177734375,0.07810964435338974,0.16128045320510864,0.1195324957370758
1789040134712661800,11.396661865234375,0.23764868080615997,0.22142711281776428,0.14058774709701538
1789040134722604800,11.406604736328125,0.40868914127349854,0.4622834026813507,0.3578105866909027
1789040134732548600,11.416548583984374,0.5888662934303284,0.6425462365150452,0.43630704283714294
1789040134742492700,11.42649267578125,0.7894902229309082,0.6628163456916809,0.3948240578174591
1789040134752436700,11.436436767578124,0.9643579125404358,0.46843841671943665,0.39283356070518494
1789040134762380500,11.446380615234375,0.9863878488540649,0.3637050986289978,0.37227341532707214
1789040134772324900,11.456324951171876,0.9943859577178955,0.2920416295528412,0.46830108761787415
1789040134782268000,11.466267822265625,1.122495174407959,0.250365287065506,0.4912772476673126
1789040134792211700,11.476211669921875,1.3130710124969482,0.30597102642059326,0.5090339183807373
1789040134802155800,11.48615576171875,1.5851056575775146,0.600685715675354,0.43536657094955444
1789040134812099600,11.496099609375,1.8202673196792603,0.4551631510257721,0.5157991647720337
1789040134822043600,11.506043701171874,1.8675650358200073,0.2938498854637146,0.6071716547012329
1789040134831986700,11.515986572265625,1.902951955795288,0.21697795391082764,0.635380744934082
1789040134841930800,11.5259306640625,2.1542060375213623,0.1537712812423706,0.7996461391448975
1789040134851874600,11.53587451171875,2.4128034114837646,-0.03738151490688324,0.882297694683075
1789040134861819000,11.54581884765625,2.515361785888672,-0.15411904454231262,0.7059761881828308
1789040134871762700,11.5557626953125,2.4061942100524902,0.016784995794296265,0.3660869300365448
1789040134881706800,11.565706787109375,2.26173734664917,0.16060420870780945,0.2683217525482178
1789040134891649800,11.57564990234375,2.0432934761047363,0.31658196449279785,0.3482113480567932
1789040134901593600,11.585593505859375,1.8996632099151611,0.23918063938617706,0.4399449825286865
1789040134911537700,11.59553759765625,1.756706953048706,0.14159034192562103,0.3052120804786682
1789040134921481700,11.605481689453125,1.6223944425582886,-0.07770180702209473,0.15485136210918427
1789040134931425800,11.61542578125,1.5276981592178345,-0.1335364729166031,0.21344800293445587
1789040134941368600,11.62536865234375,1.514195442199707,-0.29540500044822693,0.3054314851760864
1789040134951313000,11.63531298828125,1.3500776290893555,-0.2733931839466095,-0.00980282574892044
1789040134961256700,11.645256591796874,1.352802038192749,-0.06615236401557922,-0.2111830711364746
1789040134971200800,11.65520068359375,1.5256975889205933,-0.39010804891586304,-0.07951173186302185
1789040134981144600,11.66514453125,1.5249204635620117,-0.5135905146598816,0.2620128393173218
1789040134991088600,11.675088623046875,1.3478771448135376,-0.5783979296684265,0.38056111335754395
1789040135001031700,11.68503173828125,1.0457521677017212,-0.5861815810203552,0.20862293243408203
1789040135010975500,11.6949755859375,0.815273642539978,-0.6103320121765137,0.01861918717622757
1789040135020919800,11.704919921875,0.6943629384040833,-0.46148738265037537,-0.0287933349609375
1789040135030864000,11.71486376953125,0.5268204808235168,-0.5364410877227783,-0.22910983860492706
1789040135040807700,11.7248076171875,0.4572426974773407,-0.2787855863571167,-0.1427730768918991
1789040135050750700,11.734750732421874,0.5375282764434814,-0.25749504566192627,0.07546526938676834
1789040135060694800,11.74469482421875,0.6081143021583557,-0.378629207611084,0.29784107208251953
1789040135070638600,11.754638671875,0.48311474919319153,-0.7246645092964172,0.24832789599895477
1789040135080582700,11.764582763671875,0.2872576117515564,-1.0599883794784546,-0.04598760977387428
1789040135090526500,11.7745263671875,0.1013973280787468,-0.9867311716079712,-0.2299887239933014
1789040135100470800,11.784470703125,-0.05395897105336189,-0.7402676343917847,-0.2313048541545868
1789040135110413800,11.794413818359375,-0.2275361269712448,-0.6485739350318909,-0.2039743810892105
1789040135120357600,11.804357666015624,-0.547335684299469,-0.6861280202865601,-0.25185322761535645
1789040135130301700,11.8143017578125,-0.7282190322875977,-0.5524818897247314,-0.18741610646247864
1789040135140245800,11.824245849609374,-0.8792412877082825,-0.30888333916664124,-0.0690591037273407
1789040135150189600,11.834189453125,-0.9133257865905762,-0.061481792479753494,0.08512918651103973
1789040135160132600,11.844132568359376,-1.0983760356903076,-0.0823654979467392,0.0646771788597107
1789040135170076700,11.85407666015625,-1.2719463109970093,-0.38746199011802673,-0.10319548845291138
1789040135180020700,11.864020751953126,-1.3834093809127808,-0.5617064833641052,-0.26920390129089355
1789040135189964800,11.87396484375,-1.2514543533325195,-0.49718937277793884,-0.24924236536026
1789040135199908600,11.88390869140625,-1.3680843114852905,-0.608989417552948,-0.4259564280509949
1789040135209851600,11.8938515625,-1.2999974489212036,-0.283670037984848,-0.36579629778862
1789040135219795700,11.903795654296875,-1.1588749885559082,-0.1123715192079544,-0.2635034918785095
1789040135229739800,11.91373974609375,-0.8134087920188904,0.02537214756011963,0.03507454693317413
1789040135239683600,11.92368359375,-0.6140754222869873,-0.05086030811071396,0.1542067974805832
1789040135249627600,11.933627685546876,-0.46548664569854736,-0.016288401558995247,0.23396915197372437
1789040135259571700,11.94357177734375,-0.4733736217021942,-0.0075910501182079315,0.26436087489128113
1789040135269514800,11.9535146484375,-0.5666261315345764,-0.10950634628534317,0.2984142005443573
1789040135279458800,11.963458740234374,-0.7606472373008728,-0.4014607071876526,0.03555674850940704
1789040135289402600,11.973402587890625,-0.8403297066688538,-0.045077305287122726,-0.08082005381584167
1789040135299346700,11.9833466796875,-0.7530221939086914,0.2655673623085022,0.028799379244446754
1789040135309290800,11.993290771484375,-0.6748475432395935,0.40760305523872375,0.147782564163208
1789040135319234600,12.003234619140626,-0.701569139957428,0.2065839320421219,0.03673568367958069
1789040135329177600,12.013177490234375,-0.780393660068512,0.09581214189529419,-0.14364267885684967
1789040135339121700,12.02312158203125,-0.9289940595626831,-0.0037346859462559223,-0.3013843595981598
1789040135349065700,12.033065673828125,-1.1229052543640137,-0.041046157479286194,-0.45170244574546814
1789040135359009800,12.043009765625,-1.28240966796875,-0.13723501563072205,-0.6406305432319641
1789040135368953600,12.05295361328125,-1.3691625595092773,0.12182269990444183,-0.6148150563240051
1789040135378896600,12.062896728515625,-1.3180631399154663,0.3703182637691498,-0.31717029213905334
1789040135388840700,12.0728408203125,-1.3507535457611084,0.4406706392765045,-0.16215668618679047
1789040135398784500,12.082784423828125,-1.286202311515808,0.42746004462242126,-0.3003270924091339
1789040135408728600,12.092728515625,-1.104365348815918,0.11856617033481598,-0.6423856616020203
1789040135418673000,12.1026728515625,-0.837492048740387,-0.29906702041625977,-0.8749811053276062
1789040135428616700,12.11261669921875,-0.6951002478599548,-0.22188836336135864,-1.0221176147460938
1789040135438559700,12.122559814453124,-0.6344800591468811,-0.0530729740858078,-0.9992383718490601
1789040135448503800,12.13250390625,-0.8516407012939453,0.061540696769952774,-0.9611569046974182
1789040135458447600,12.142447509765624,-1.1637439727783203,-0.0005200104787945747,-0.7865257263183594
1789040135468391700,12.1523916015625,-1.4766087532043457,-0.06619676202535629,-0.6158378720283508
1789040135478335700,12.162335693359376,-1.6766020059585571,-0.12642920017242432,-0.5746904015541077
1789040135488278500,12.172278564453125,-1.8085260391235352,0.027904998511075974,-0.6898536086082458
1789040135498222600,12.18222265625,-1.5494143962860107,-0.09075666964054108,-0.8570457696914673
1789040135508167000,12.1921669921875,-1.0886552333831787,0.0747852548956871,-1.0986409187316895
1789040135518110700,12.20211083984375,-0.804721474647522,0.2018156498670578,-1.2640949487686157
1789040135528054800,12.2120546875,-0.7532646656036377,0.38797813653945923,-1.1791045665740967
1789040135537997800,12.221997802734375,-0.7852438688278198,0.26052457094192505,-0.753483235836029
1789040135547941600,12.231941650390626,-0.9774969220161438,0.12414269149303436,-0.3739756643772125
1789040135557885700,12.2418857421875,-1.1017478704452515,0.12086327373981476,-0.05676789581775665
1789040135567829500,12.25182958984375,-1.019304633140564,0.2506806254386902,0.35476168990135193
1789040135577773800,12.26177392578125,-0.7337623834609985,0.07679032534360886,0.5260913372039795
1789040135587718000,12.2717177734375,-0.568331778049469,-0.16261893510818481,0.3448241949081421
1789040135597660700,12.28166064453125,-0.4597245752811432,-0.20635762810707092,0.06807035952806473
1789040135607604700,12.291604736328125,-0.26037031412124634,0.01389850303530693,0.09971075505018234
1789040135617548800,12.301548828125,-0.14722007513046265,0.056103743612766266,0.2611595690250397
1789040135627492600,12.31149267578125,-0.030209161341190338,0.20481520891189575,0.39930981397628784
1789040135637436700,12.321436767578126,0.04305919632315636,0.2651520371437073,0.39319437742233276
1789040135647379700,12.331379638671875,0.171373188495636,0.39118117094039917,0.42341867089271545
1789040135657323500,12.341323486328125,0.2630104422569275,0.3486214578151703,0.5162788033485413
1789040135667267800,12.351267822265624,0.2905694544315338,0.3930473327636719,0.6015452146530151
1789040135677211600,12.361211669921875,0.38233453035354614,0.5529930591583252,0.638687252998352
1789040135687155700,12.37115576171875,0.535841166973114,0.5850342512130737,0.6357136368751526
1789040135697098800,12.3810986328125,0.5856031179428101,0.5035654902458191,0.6317950487136841
1789040135707042800,12.391042724609376,0.6500188112258911,0.406374454498291,0.5958661437034607
