time,seconds_elapsed,z,y,x
1790265305461795000,0.058795166015625,-0.9602794051170349,1.6988149881362915,-1.1056652069091797
1790265305479045600,0.076045654296875,-0.8338304162025452,1.0958913564682007,-1.1948515176773071
1790265305496300000,0.093300048828125,-0.7831286191940308,-0.36712974309921265,-1.3616175651550293
1790265305513554200,0.11055419921875,-0.5424479246139526,-1.4844014644622803,-1.4019346237182617
1790265305530808600,0.12780859375,0.18081597983837128,-1.630398154258728,-1.094058871269226
1790265305548063000,0.14506298828125,0.676227331161499,-0.963333785533905,-0.42271843552589417
1790265305565317400,0.1623173828125,0.7898481488227844,0.31459537148475647,0.35674503445625305
1790265305582571500,0.179571533203125,0.8967494964599609,1.5222749710083008,1.1349867582321167
1790265305599826000,0.196825927734375,0.8472694754600525,1.0458004474639893,1.6377284526824951
1790265305617080300,0.214080322265625,-0.02871064469218254,-1.0885610580444336,1.1905754804611206
1790265305634334700,0.231334716796875,0.01893680728971958,-1.2577705383300781,0.6805033683776855
1790265305651589000,0.248589111328125,0.17592905461788177,-0.7373138070106506,-0.18264856934547424
1790265305668843300,0.26584326171875,0.0873536616563797,-0.19792018830776215,-0.8075632452964783
1790265305686097700,0.28309765625,0.11667517572641373,-0.40378162264823914,-1.1478148698806763
1790265305703352000,0.30035205078125,0.05803215503692627,-1.1050543785095215,-1.313359260559082
1790265305720606500,0.3176064453125,0.015271619893610477,-1.5430444478988647,-1.1142174005508423
1790265305737860900,0.33486083984375,-0.03481929376721382,-2.0244059562683105,-0.6902772188186646
1790265305755115000,0.352114990234375,-0.1802051067352295,-2.6273293495178223,-0.3017672002315521
1790265305772369400,0.369369384765625,-0.2822195291519165,-2.8185300827026367,-0.13072505593299866
1790265305789623800,0.386623779296875,-0.3225366175174713,-2.269362688064575,-0.34208428859710693
1790265305806878200,0.403878173828125,-0.1795942485332489,-1.6029092073440552,-0.675616443157196
1790265305824132400,0.42113232421875,0.1386663019657135,-1.3041963577270508,-1.0586286783218384
1790265305841386800,0.43838671875,0.2779434621334076,-1.459966778755188,-1.1331541538238525
1790265305858641200,0.45564111328125,0.21868959069252014,-1.4917317628860474,-0.7764091491699219
1790265305875895600,0.4728955078125,0.33719736337661743,-1.760512351989746,-0.28527384996414185
1790265305893149700,0.490149658203125,0.5222893953323364,-1.896124243736267,0.07635809481143951
1790265305910404000,0.507404052734375,0.5119046568870544,-2.0189080238342285,0.20708316564559937
1790265305927658500,0.524658447265625,0.2816086709499359,-1.4043781757354736,0.1484401375055313
1790265305944913000,0.541912841796875,0.03787361457943916,-0.14599667489528656,0.2260199636220932
1790265305962167300,0.559167236328125,-0.06352993845939636,0.21258094906806946,0.3915643095970154
1790265305979421400,0.57642138671875,0.18142683804035187,0.17348559200763702,0.7257073521614075
1790265305996675800,0.59367578125,0.32192572951316833,-0.18081597983837128,1.0115920305252075
1790265306013930200,0.61093017578125,0.16615521907806396,-0.8460476994514465,1.0140355825424194
1790265306031184600,0.6281845703125,0.006108647678047419,-1.1533126831054688,0.9358448386192322
1790265306048439000,0.64543896484375,-0.010995565913617611,-1.2815942764282227,0.9773836731910706
1790265306065693200,0.662693115234375,0.08552107214927673,-1.2302817106246948,1.1869102716445923
1790265306082947600,0.679947509765625,0.07819069176912308,-0.7635809779167175,1.285259485244751
1790265306100202000,0.697201904296875,-0.05253437161445618,-0.38850998878479004,1.0506874322891235
1790265306117456400,0.714456298828125,-0.07880155742168427,-0.23762640357017517,0.637742817401886
1790265306134710500,0.73171044921875,-0.033597562462091446,-0.2614501118659973,0.3756818473339081
1790265306151965000,0.74896484375,0.001832594396546483,-0.4831940531730652,0.42455101013183594
1790265306169219300,0.76621923828125,-0.06108647957444191,-0.5161807537078857,0.5845975875854492
1790265306186473700,0.7834736328125,-0.17531819641590118,-0.35613417625427246,0.5540543794631958
1790265306203728000,0.800727783203125,-0.16615521907806396,-0.2211330533027649,0.3610210716724396
1790265306220982300,0.817982177734375,-0.0818558782339096,-0.20830489695072174,0.2205221801996231
1790265306238236700,0.835236572265625,-0.06780599057674408,-0.3023780584335327,0.1905898153781891
1790265306255491000,0.852490966796875,-0.15821397304534912,-0.3500255048274994,0.20341797173023224
1790265306272745200,0.8697451171875,-0.24006985127925873,-0.4007273018360138,0.1081230640411377
1790265306289999600,0.88699951171875,-0.2657261788845062,-0.4831940531730652,-0.07147117704153061
1790265306307254000,0.90425390625,-0.22968515753746033,-0.43310311436653137,-0.16126830875873566
1790265306324508400,0.92150830078125,-0.2003636509180069,-0.14599667489528656,-0.1893680840730667
1790265306341762800,0.9387626953125,-0.12522727251052856,0.1802051067352295,-0.26022839546203613
1790265306359017000,0.956016845703125,0.03481929376721382,0.6585122346878052,-0.35246896743774414
1790265306376271400,0.973271240234375,0.13988803327083588,1.0421353578567505,-0.38850998878479004
1790265306393525800,0.99052587890625,0.33597561717033386,1.043357014656067,-0.32070401310920715
1790265306410780200,1.0077802734375,0.21197007596492767,1.1056652069091797,-0.35613417625427246
1790265306428034300,1.025034423828125,0.03298669680953026,1.1050543785095215,-0.42821621894836426
1790265306445288700,1.042288818359375,0.07086031138896942,0.8637627959251404,-0.5119046568870544
1790265306462543000,1.059543212890625,0.21380266547203064,0.42271843552589417,-0.6249146461486816
1790265306479797500,1.076797607421875,0.2315177470445633,0.1954767256975174,-0.7134900689125061
1790265306497052000,1.094052001953125,0.11728604137897491,0.26022839546203613,-0.7880155444145203
1790265306514306000,1.11130615234375,0.08368847519159317,0.29565855860710144,-0.7000510096549988
1790265306531560400,1.128560546875,0.20402882993221283,0.2205221801996231,-0.4324922561645508
1790265306548814800,1.14581494140625,0.3023780584335327,-0.05070177838206291,-0.09712749719619751
1790265306566069200,1.1630693359375,0.3090975880622864,-0.4111120104789734,0.1905898153781891
1790265306583323600,1.18032373046875,0.2461785078048706,-0.667064368724823,0.36163195967674255
1790265306600578000,1.197578125,0.18570289015769958,-0.9358448386192322,0.4147771894931793
1790265306617832200,1.214832275390625,0.23029601573944092,-1.1606431007385254,0.4459312856197357
1790265306635086600,1.232086669921875,0.3066541254520416,-1.2150100469589233,0.535728394985199
1790265306652341000,1.249341064453125,0.35613417625427246,-1.0427461862564087,0.5894845128059387
1790265306669595400,1.266595458984375,0.4172206521034241,-0.8881973624229431,0.6078104376792908
1790265306686849500,1.283849609375,0.49663305282592773,-0.9737184643745422,0.6053670048713684
1790265306704104000,1.30110400390625,0.4526508152484894,-1.062904715538025,0.536339282989502
1790265306721358300,1.3183583984375,0.3426951467990875,-0.9364557266235352,0.4557051360607147
1790265306738612700,1.33561279296875,0.20647229254245758,-0.9523382186889648,0.3811796307563782
1790265306755867100,1.3528671875,0.1740964651107788,-1.0653481483459473,0.318871408700943
1790265306773121300,1.370121337890625,0.17043127119541168,-1.1691951751708984,0.23029601573944092
1790265306790375700,1.387375732421875,0.15149445831775665,-1.120326042175293,0.09285144507884979
1790265306807630000,1.404630126953125,0.1747073233127594,-0.7776308655738831,-0.17837251722812653
1790265306824884500,1.421884521484375,0.17226386070251465,-0.22724169492721558,-0.49968740344047546
1790265306842139000,1.439138916015625,0.07391463965177536,0.43982264399528503,-0.7855721116065979
1790265306859393300,1.456393310546875,0.037262752652168274,0.8436042666435242,-0.8570432662963867
1790265306876647400,1.4736474609375,0.08124501258134842,0.8020654320716858,-0.8014546036720276
1790265306893901800,1.49090185546875,0.2162461280822754,0.33169957995414734,-0.6597339510917664
1790265306911156200,1.50815625,0.38789913058280945,-0.3958403766155243,-0.5155698657035828
1790265306928410600,1.52541064453125,0.5345066785812378,-1.153923511505127,-0.4172206521034241
1790265306945664800,1.542664794921875,0.5619956254959106,-1.8002184629440308,-0.2834412455558777
1790265306962919200,1.559919189453125,0.4367683231830597,-2.2736387252807617,-0.23457208275794983
1790265306980173600,1.577173583984375,0.7476984858512878,-3.1477861404418945,0.05925388261675835
1790265306997428000,1.594427978515625,1.3933825492858887,-4.528340816497803,0.5821541547775269
1790265307014682000,1.61168212890625,1.8252639770507812,-5.886903762817383,0.9224058389663696
1790265307031936500,1.6289365234375,2.0439536571502686,-6.87955904006958,0.9388991594314575
1790265307049191000,1.64619091796875,2.445291757583618,-7.357255458831787,0.5308414697647095
1790265307066445300,1.6634453125,2.5137085914611816,-7.184380531311035,-0.17898337543010712
1790265307083699700,1.68069970703125,2.5387539863586426,-6.819694519042969,-0.7715222239494324
1790265307100954000,1.6979541015625,2.676809549331665,-6.5594658851623535,-0.9975422024726868
1790265307118208300,1.715208251953125,2.8881685733795166,-5.601630210876465,-0.23029601573944092
1790265307135462700,1.732462646484375,2.6859724521636963,-4.694495677947998,0.6371319890022278
1790265307152717000,1.749717041015625,2.4098615646362305,-4.154491424560547,1.1856884956359863
1790265307169971500,1.766971435546875,2.550971269607544,-3.940077781677246,1.2620465755462646
1790265307187225600,1.7842255859375,2.930929183959961,-3.8234026432037354,1.1233803033828735
1790265307204480000,1.80147998046875,3.1416776180267334,-3.304778575897217,1.0360267162322998
1790265307221734400,1.818734375,3.1612253189086914,-2.372598886489868,0.9309579133987427
1790265307238988800,1.83598876953125,3.0995278358459473,-1.7525711059570312,0.5882627964019775
1790265307256243000,1.853242919921875,2.995069980621338,-1.6804890632629395,0.13622283935546875
1790265307273497300,1.870497314453125,2.7482805252075195,-1.9620976448059082,-0.3695732057094574
1790265307290751700,1.887751708984375,2.29624080657959,-2.3396120071411133,-0.5595521330833435
1790265307308006100,1.905006103515625,1.629176378250122,-2.5686864852905273,-0.46425724029541016
1790265307325260300,1.92226025390625,1.0128138065338135,-3.141066789627075,-0.3072649836540222
1790265307342514700,1.9395146484375,0.5656607747077942,-3.4910922050476074,-0.2761108875274658
1790265307359769000,1.95676904296875,0.08918625861406326,-2.2235476970672607,0.5345066785812378
1790265307377023500,1.9740234375,-0.7226530313491821,-0.6750055551528931,1.8173227310180664
1790265307394278000,1.99127783203125,-1.2424989938735962,0.07513637095689774,2.598007917404175
1790265307411532300,2.0085322265625,-1.7299690246582031,-0.43921178579330444,2.626107692718506
1790265307428786400,2.025786376953125,-2.5466952323913574,-1.2932007312774658,1.6701042652130127
1790265307446040800,2.043040771484375,-2.9608616828918457,-0.9993748068809509,0.842382550239563
1790265307463295000,2.060294921875,-2.7281219959259033,-0.5186241865158081,0.7147117853164673
1790265307480549600,2.077549560546875,-2.648709774017334,-0.33047783374786377,0.7629700899124146
1790265307497803800,2.0948037109375,-3.1312928199768066,-0.6096430420875549,0.8625410795211792
1790265307515058200,2.11205810546875,-3.638310670852661,-1.2174534797668457,1.0293071269989014
1790265307532312600,2.1293125,-3.738492488861084,-2.0402884483337402,1.304807186126709
1790265307549567000,2.14656689453125,-3.8967063426971436,-2.1942262649536133,1.4196497201919556
1790265307566821000,2.163821044921875,-3.9376344680786133,-1.811824917793274,1.2143992185592651
1790265307584075500,2.181075439453125,-3.2626287937164307,-1.4355322122573853,0.8374956250190735
1790265307601330000,2.198329833984375,-2.4605634212493896,-1.1368193626403809,0.411722868680954
1790265307618584300,2.215584228515625,-2.0885467529296875,-0.7141009569168091,0.06475166976451874
1790265307635838500,2.23283837890625,-1.9468261003494263,-0.4569268524646759,-0.08857539296150208
1790265307653092900,2.2500927734375,-1.9175045490264893,-0.3445277214050293,-0.07635809481143951
1790265307670347300,2.26734716796875,-1.6346741914749146,-0.2101374864578247,0.1026252806186676
1790265307687601700,2.2846015625,-1.045189619064331,-0.001832594396546483,0.2828303873538971
1790265307704855800,2.301855712890625,-0.6432406306266785,-0.19608759880065918,0.23396120965480804
1790265307722110200,2.319110107421875,-0.47525280714035034,-0.4062250852584839,0.06475166976451874
1790265307739364600,2.336364501953125,-0.37812530994415283,-0.001832594396546483,-0.18203771114349365
1790265307756619000,2.353618896484375,-0.18814635276794434,0.21380266547203064,-0.3756818473339081
1790265307773873400,2.370873291015625,0.23762640357017517,0.4868592321872711,-0.3897317349910736
1790265307791127600,2.38812744140625,0.729983389377594,0.8203914165496826,-0.4147771894931793
1790265307808382000,2.4053818359375,1.2736530303955078,1.0476330518722534,-0.5283980369567871
1790265307825636000,2.422635986328125,1.9578216075897217,1.75623619556427,-0.8442151546478271
1790265307842890500,2.439890380859375,2.777602195739746,2.268141031265259,-1.2339468002319336
1790265307860145000,2.457144775390625,3.347538948059082,1.775783896446228,-0.9786053895950317
1790265307877399300,2.4743994140625,3.462381601333618,0.9608902931213379,-0.2809978127479553
1790265307894653700,2.49165380859375,3.2033748626708984,0.2370155304670334,0.45509424805641174
1790265307911907800,2.508907958984375,2.2950189113616943,0.025045456364750862,1.074511170387268
1790265307929162200,2.526162353515625,0.5155698657035828,0.5222893953323364,1.186299443244934
1790265307946416600,2.543416748046875,-0.9407317638397217,0.3194822669029236,0.7733548283576965
1790265307963671000,2.560671142578125,-1.99936044216156,-0.5082395076751709,0.3298669755458832
1790265307980925400,2.577925537109375,-2.240652084350586,-0.6334667801856995,-0.04459312930703163
1790265307998179800,2.595179931640625,-1.4110976457595825,-0.23029601573944092,-0.4978547990322113
1790265308015434200,2.612434326171875,-0.49113526940345764,0.4251618981361389,-0.6994401812553406
1790265308032688400,2.6296884765625,-0.5778780579566956,0.7666352987289429,-0.8631519079208374
1790265308049942500,2.646942626953125,-1.0415244102478027,0.2522871494293213,-0.9010255336761475
1790265308067196700,2.66419677734375,-3.107469081878662,0.3170388340950012,-1.51616632938385
1790265308084450800,2.681450927734375,-4.029874801635742,-0.924238383769989,-2.1276419162750244
1790265308101705000,2.698705078125,-2.2675299644470215,-1.3439024686813354,-1.7873903512954712
1790265308118959000,2.715958984375,0.07941242307424545,-0.8521563410758972,-1.0848958492279053
1790265308136213500,2.733213623046875,1.4617993831634521,-0.23884813487529755,-0.5277871489524841
1790265308153468000,2.750468017578125,2.1948370933532715,0.205861434340477,0.1802051067352295
1790265308170722300,2.767722412109375,1.9181153774261475,0.9413426518440247,1.119104266166687
1790265308187976700,2.784976806640625,0.6579013466835022,0.6927206516265869,1.96148681640625
1790265308205231000,2.802231201171875,-0.25350889563560486,0.4923570156097412,2.335946798324585
1790265308222485500,2.819485595703125,-0.2205221801996231,0.5161807537078857,2.283412456512451
1790265308239740000,2.836739990234375,-0.18570289015769958,0.12522727251052856,1.6872085332870483
1790265308256994300,2.853994384765625,-0.10384701192378998,-0.4361574649810791,0.22724169492721558
1790265308274248400,2.87124853515625,-0.1533270627260208,0.6633991599082947,-0.768467903137207
1790265308291502800,2.8885029296875,-0.27977606654167175,1.1588104963302612,-1.0079269409179688
1790265308308757200,2.90575732421875,-0.4740310609340668,0.8142827749252319,-1.258992314338684
1790265308326011600,2.92301171875,-0.21930044889450073,0.3402516841888428,-1.416595458984375
1790265308343266000,2.94026611328125,0.29504770040512085,-0.6346884965896606,-0.8405499458312988
1790265308360520400,2.9575205078125,0.6291907429695129,-1.4508038759231567,-0.14782927930355072
1790265308377774800,2.97477490234375,1.3634501695632935,-2.1001532077789307,0.01588248461484909
1790265308395029200,2.992029296875,2.120311737060547,-2.450789451599121,0.3035998046398163
1790265308412283600,3.00928369140625,2.165515661239624,-2.5185954570770264,0.759304940700531
1790265308429538000,3.0265380859375,2.4495677947998047,-2.389092206954956,1.4679080247879028
1790265308446792400,3.04379248046875,3.5869979858398438,-3.8062984943389893,2.715904712677002
1790265308464046600,3.061046630859375,4.395172119140625,-4.838659763336182,3.897928237915039
1790265308481301000,3.078301025390625,4.222908020019531,-1.6627739667892456,3.4752097129821777
1790265308498555400,3.095555419921875,3.034776210784912,4.94617223739624,0.5876519083976746
1790265308515809800,3.112809814453125,2.5637993812561035,3.560119867324829,-0.19364413619041443
1790265308533064200,3.130064208984375,2.0659446716308594,2.2974624633789062,-0.5137372612953186
1790265308550318600,3.147318603515625,3.8796021938323975,1.2681553363800049,-0.4734202027320862
1790265308567573000,3.164572998046875,5.574141025543213,0.8735366463661194,-0.08918625861406326
1790265308584827400,3.181827392578125,3.6755733489990234,1.72141695022583,-0.2981020212173462
1790265308602081800,3.199081787109375,2.1612396240234375,0.8210022449493408,-0.09834922850131989
1790265308619336200,3.216336181640625,1.4996730089187622,-0.15271618962287903,0.1802051067352295
1790265308636590300,3.23359033203125,0.5516108870506287,-1.0378592014312744,0.28405213356018066
1790265308653844700,3.2508447265625,0.06780599057674408,-1.441640853881836,0.7244856357574463
1790265308671099100,3.26809912109375,0.05925388261675835,-1.4898991584777832,0.6890554428100586
1790265308688353500,3.285353515625,-0.36651885509490967,-2.335946798324585,0.6084213256835938
1790265308705608000,3.30260791015625,-0.1496618688106537,-2.249204158782959,1.1062761545181274
1790265308722862300,3.3198623046875,1.2034035921096802,-0.5754346251487732,1.7348560094833374
1790265308740116700,3.33711669921875,1.887572169303894,0.3640754222869873,1.4275909662246704
1790265308757371100,3.35437109375,1.9932518005371094,-0.09101885557174683,-0.10873392969369888
1790265308774625500,3.37162548828125,0.5290089249610901,0.3017672002315521,0.07880155742168427
1790265308791880000,3.3888798828125,2.8655667304992676,2.674365997314453,0.05070177838206291
1790265308809134000,3.406134033203125,3.096473455429077,0.6652317643165588,1.406821608543396
1790265308826388500,3.423388427734375,1.1129956245422363,1.5662572383880615,1.1404845714569092
1790265308843643000,3.440642822265625,0.20402882993221283,1.4837905168533325,0.8924734592437744
1790265308860897300,3.457897216796875,0.5925388336181641,-1.0781763792037964,-0.12278381735086441
1790265308878151700,3.475151611328125,1.2596031427383423,-1.258992314338684,-0.11545344442129135
1790265308895406000,3.492406005859375,1.978590965270996,-1.1313215494155884,0.11484257876873016
1790265308912660500,3.509660400390625,2.3683228492736816,-0.9144645929336548,0.050090912729501724
1790265308929915000,3.526914794921875,1.6316198110580444,-1.8826853036880493,-0.5662716627120972
1790265308947169300,3.544169189453125,1.1924080848693848,-1.8069380521774292,-0.30970844626426697
1790265308964423700,3.561423583984375,0.8081740736961365,-0.8839213252067566,0.185092031955719
1790265308981677800,3.578677734375,0.4367683231830597,0.06719512492418289,0.4471530318260193
1790265308998932200,3.59593212890625,-0.07269290834665298,0.6914989352226257,0.5045742988586426
1790265309016186600,3.6131865234375,-0.14721840620040894,1.1013891696929932,0.6169734001159668
1790265309033441000,3.63044091796875,0.4764745235443115,0.925460159778595,0.5803215503692627
1790265309050695400,3.6476953125,0.46608981490135193,0.6707295179367065,0.9107993841171265
1790265309067949800,3.66494970703125,0.3243691921234131,0.5326740741729736,1.3029745817184448
1790265309085204200,3.682204345703125,-0.08857539296150208,0.8210022449493408,1.2363903522491455
1790265309102458600,3.699458740234375,-0.4453204274177551,0.8069523572921753,0.7880155444145203
1790265309119713000,3.716713134765625,-0.5845975875854492,1.1081087589263916,0.25900667905807495
1790265309136967400,3.733967529296875,-0.5558869242668152,1.9034546613693237,-0.21258094906806946
1790265309154221600,3.7512216796875,-0.6780598759651184,2.4849979877471924,-0.5913171172142029
1790265309171476000,3.76847607421875,-0.9682206511497498,2.8875577449798584,-0.6615665555000305
1790265309188730400,3.78573046875,-1.12765634059906,2.5833470821380615,-0.27000224590301514
1790265309205984800,3.80298486328125,0.21197007596492767,1.125823736190796,0.7464767694473267
1790265309223239000,3.820239013671875,1.1044435501098633,-0.13683371245861053,1.3695588111877441
1790265309240493300,3.837493408203125,0.8002328872680664,-0.19181154668331146,1.592524528503418
1790265309257747700,3.854747802734375,0.9279035925865173,0.6731730103492737,1.452636480331421
1790265309275002000,3.872002197265625,0.12217295914888382,1.324354887008667,0.8625410795211792
1790265309292256500,3.889256591796875,-0.07024945318698883,1.5858049392700195,0.008552107028663158
1790265309309511000,3.906510986328125,0.4825831651687622,1.1368193626403809,-0.09285144507884979
1790265309326765300,3.923765380859375,0.38179048895835876,0.4874700903892517,0.3842339515686035
1790265309344019700,3.941019775390625,-0.2412915825843811,0.6065887212753296,0.5821541547775269
1790265309361274000,3.958274169921875,-0.6524035930633545,0.583375871181488,0.7690787315368652
1790265309378528300,3.9755283203125,-0.3640754222869873,1.4660754203796387,0.41783151030540466
1790265309395782700,3.99278271484375,-0.05558869615197182,-0.04581485688686371,0.36651885509490967
1790265309413037000,4.010037109375,-0.02871064469218254,0.25961753726005554,0.4043924808502197
1790265309430291500,4.02729150390625,-0.5222893953323364,-0.27855435013771057,0.6090322136878967
1790265309447545900,4.0445458984375,-0.3897317349910736,-0.6890554428100586,0.7812960743904114
1790265309464800300,4.06180029296875,-0.2669478952884674,-0.3799578845500946,0.7739656567573547
1790265309482054700,4.0790546875,0.16676609218120575,-0.15027274191379547,0.7159335017204285
1790265309499309000,4.09630908203125,0.7153226733207703,0.8576541543006897,0.6450732350349426
1790265309516563200,4.113563232421875,1.056185245513916,2.100764036178589,0.43860089778900146
1790265309533817600,4.130817626953125,-0.6322450637817383,1.2107340097427368,0.4783071279525757
1790265309551071700,4.14807177734375,0.5326740741729736,-1.666439175605774,0.6414080262184143
1790265309568326000,4.165325927734375,1.1252129077911377,-0.8265000581741333,1.1661409139633179
1790265309585580000,4.182580078125,0.6536253094673157,-0.1747073233127594,0.9236275553703308
1790265309602834200,4.199834228515625,0.7617483735084534,0.14599667489528656,0.9138537049293518
1790265309620088300,4.21708837890625,0.3488037884235382,0.1233946830034256,1.4752384424209595
1790265309637342700,4.2343427734375,0.4923570156097412,0.5980366468429565,1.3555089235305786
1790265309654597000,4.25159716796875,0.7831286191940308,0.7476984858512878,1.1417062282562256
1790265309671851500,4.2688515625,0.7977893948554993,1.6670500040054321,1.110552191734314
1790265309689106000,4.28610595703125,0.40255987644195557,1.6890411376953125,0.80389803647995
1790265309706360300,4.3033603515625,-0.05925388261675835,0.963333785533905,0.2162461280822754
1790265309723614700,4.32061474609375,-0.08063415437936783,0.5375609993934631,-0.24862197041511536
1790265309740869000,4.337869140625,0.07086031138896942,0.6230821013450623,-0.4770853817462921
1790265309758123500,4.35512353515625,0.40927940607070923,0.6218603253364563,-1.2486076354980469
1790265309775377700,4.372377685546875,0.4929678738117218,0.16615521907806396,-1.9120067358016968
1790265309792632000,4.389632080078125,0.5155698657035828,-0.6945532560348511,-2.570518970489502
1790265309809886500,4.406886474609375,0.5558869242668152,-2.400087833404541,-2.7843215465545654
1790265309827140900,4.424140869140625,0.6511818766593933,-3.213759660720825,-2.572962522506714
1790265309844395300,4.441395263671875,-0.2565632164478302,0.15699224174022675,-2.1838417053222656
1790265309861649700,4.458649658203125,-0.9969313144683838,2.525315046310425,-0.6707295179367065
1790265309878904000,4.475904052734375,-1.1502584218978882,0.8460476994514465,0.32009315490722656
1790265309896158500,4.493158447265625,-1.1612539291381836,0.024434590712189674,-0.05192350596189499
1790265309913412900,4.510412841796875,-0.8594867587089539,0.1905898153781891,-0.7336485981941223
1790265309930667300,4.527667236328125,-0.8277217745780945,0.11545344442129135,-0.43004879355430603
1790265309947921700,4.544921630859375,-0.8466585874557495,0.15027274191379547,-0.15088360011577606
1790265309965175800,4.56217578125,-0.7513636946678162,0.3390299379825592,-0.2577849328517914
1790265309982430200,4.57943017578125,-0.5393936038017273,0.18325942754745483,-0.3530798554420471
1790265309999684600,4.5966845703125,-0.6805033683776855,0.33658650517463684,-0.6462949514389038
1790265310016939000,4.61393896484375,-0.7990111112594604,1.2082905769348145,-1.275485634803772
1790265310034193400,4.631193359375,-0.28954991698265076,1.3274091482162476,-1.1594213247299194
1790265310051447800,4.64844775390625,0.185092031955719,0.0873536616563797,-0.15271618962287903
1790265310068702200,4.6657021484375,0.2009745091199875,-0.6896663308143616,0.6004800796508789
1790265310085956600,4.68295654296875,0.43982264399528503,-1.351232886314392,1.0122029781341553
1790265310103211000,4.7002109375,0.6346884965896606,-1.7739512920379639,1.0054833889007568
1790265310120465400,4.71746533203125,0.29626941680908203,-1.5247185230255127,0.8442151546478271
1790265310137719600,4.734719482421875,-0.09590577334165573,-1.1557561159133911,0.7171552777290344
1790265310154974000,4.751973876953125,-0.15577052533626556,-0.7177661061286926,0.6860011219978333
1790265310172228400,4.769228271484375,-0.04459312930703163,-0.7055488228797913,0.8197805285453796
1790265310189482800,4.786482666015625,-0.08491020649671555,-0.6340776681900024,0.9468404054641724
1790265310206737200,4.803737060546875,-0.19303326308727264,-0.39217519760131836,0.9456186890602112
1790265310223991600,4.820991455078125,0.05070177838206291,-0.3243691921234131,0.9132428169250488
1790265310241246000,4.838245849609375,0.15821397304534912,-0.0769689604640007,0.9181297421455383
1790265310258500400,4.855500244140625,0.06047561392188072,0.04214967042207718,0.7721330523490906
1790265310275754800,4.872754638671875,-0.35796675086021423,-0.043982263654470444,0.721431314945221
1790265310293009200,4.890009033203125,-0.5021308660507202,-0.24862197041511536,0.7935133576393127
1790265310310263300,4.90726318359375,-0.2467893660068512,-0.44959646463394165,0.6438514590263367
1790265310327517400,4.924517333984375,0.0769689604640007,-0.7599157691001892,0.3738492429256439
1790265310344771600,4.941771484375,0.21258094906806946,0.014660755172371864,-0.12095122784376144
1790265310362026000,4.95902587890625,0.22907429933547974,0.09040798991918564,-0.09834922850131989
1790265310379280100,4.976280029296875,0.49052441120147705,0.18325942754745483,-0.07880155742168427
1790265310396534300,4.9935341796875,0.720820426940918,0.13622283935546875,-0.17837251722812653
1790265310413788400,5.010788330078125,0.8093958497047424,-0.007941242307424545,-0.2315177470445633
1790265310431042800,5.028042724609375,0.7525854110717773,0.20219624042510986,-0.33597561717033386
1790265310448297200,5.045297119140625,0.6731730103492737,0.009162971749901772,-0.34574946761131287
1790265310465551600,5.062551513671875,0.6554579138755798,-0.05192350596189499,-0.1441640853881836
1790265310482806000,5.079805908203125,0.4734202027320862,0.6133082509040833,-0.1637117564678192
1790265310500060400,5.097060302734375,-0.2712239623069763,0.8778126835823059,-0.4159989058971405
1790265310517314800,5.114314697265625,-1.3286309242248535,0.5369501113891602,-0.6145299673080444
1790265310534569200,5.1315693359375,-1.6530001163482666,-0.1740964651107788,-0.6438514590263367
1790265310551823400,5.1488232421875,-1.7696752548217773,-1.2266165018081665,-0.8106175661087036
1790265310569077800,5.166077880859375,-1.422093152999878,-1.9969170093536377,-1.2382229566574097
1790265310586332200,5.183332275390625,-1.3781108856201172,-2.104429244995117,-2.1276419162750244
1790265310603586600,5.200586669921875,-1.564424753189087,0.6688969135284424,-3.1105234622955322
1790265310620841000,5.217841064453125,-1.9999712705612183,2.377485752105713,-3.2992806434631348
1790265310638095400,5.235095458984375,-2.2027783393859863,1.7305799722671509,-2.453843832015991
1790265310655349800,5.252349853515625,-1.6310089826583862,0.20769402384757996,-1.1954623460769653
1790265310672604200,5.269604248046875,-1.1068869829177856,-1.3988803625106812,-0.8216131329536438
1790265310689858600,5.286858642578125,-0.9077450633049011,-3.0665411949157715,-0.4007273018360138
1790265310707113000,5.304113037109375,-0.8930842876434326,-3.3628106117248535,-0.43921178579330444
1790265310724367000,5.3213671875,-0.6969966888427734,-3.7684247493743896,-0.01282816007733345
1790265310741621500,5.33862158203125,-0.4630354940891266,-3.6413650512695312,0.34574946761131287
1790265310758876000,5.3558759765625,-0.3292561173439026,-2.5851798057556152,0.1997527778148651
1790265310776130300,5.37313037109375,-0.37629270553588867,-1.3158026933670044,-0.10934479534626007
1790265310793384700,5.390384765625,-0.3695732057094574,-0.2816086709499359,-0.5497782826423645
1790265310810639000,5.40763916015625,-0.40317076444625854,0.056199558079242706,-1.0207550525665283
1790265310827893200,5.424893310546875,-0.5491674542427063,-0.000610864779446274,-1.1972949504852295
1790265310845147400,5.4421474609375,-0.6627882719039917,-0.14294235408306122,-1.0512982606887817
1790265310862401500,5.459401611328125,-0.5729911923408508,-0.3634645342826843,-0.7886264324188232
1790265310879655700,5.47665576171875,-0.34086254239082336,-0.685390293598175,-0.5430588126182556
1790265310896909800,5.493909912109375,-0.19608759880065918,-0.9676098227500916,-0.47036588191986084
1790265310914164200,5.511164306640625,-0.039706211537122726,-1.4556907415390015,-1.9016220569610596
1790265310931418600,5.528418701171875,-0.12950333952903748,0.9517273306846619,-3.116021156311035
1790265310948672800,5.5456728515625,-0.43860089778900146,1.3017528057098389,-2.506989002227783
1790265310965927200,5.56292724609375,-0.8973603844642639,0.3946186602115631,-1.0604612827301025
1790265310983181600,5.580181640625,-1.1972949504852295,0.029932374134659767,-0.8374956250190735
1790265311000436000,5.59743603515625,-1.3011419773101807,-0.389120876789093,-1.0409135818481445
1790265311017690400,5.6146904296875,-1.22234046459198,-0.19669845700263977,-1.063515543937683
1790265311034944800,5.63194482421875,-1.4911209344863892,0.15149445831775665,-0.9028581380844116
1790265311052199200,5.64919921875,-1.6670500040054321,0.2522871494293213,-0.9053016304969788
1790265311069453600,5.66645361328125,-1.4489712715148926,-0.0922405794262886,-1.0476330518722534
1790265311086708000,5.6837080078125,-1.3121376037597656,-0.21258094906806946,-1.191797137260437
1790265311103962400,5.70096240234375,-1.043357014656067,-0.31581708788871765,-1.22234046459198
1790265311121216800,5.718216796875,-1.0323615074157715,-0.0054977829568088055,-1.3017528057098389
1790265311138471000,5.735470947265625,-1.0213658809661865,-0.11423171311616898,-1.5406010150909424
1790265311155725300,5.752725341796875,-0.9847140312194824,-0.49602219462394714,-1.5638138055801392
1790265311172979700,5.769979736328125,-0.8955277800559998,-0.6725621223449707,-1.6792672872543335
1790265311190234000,5.787234130859375,-0.8032872080802917,-0.8203914165496826,-1.7244713306427002
1790265311207488500,5.804488525390625,-0.7061597108840942,-1.1056652069091797,-1.6322306394577026
1790265311224743000,5.821742919921875,-0.6340776681900024,-1.2681553363800049,-1.554650902748108
1790265311241997300,5.838997314453125,-0.6224712133407593,-1.3530654907226562,-1.5228859186172485
1790265311259251700,5.856251708984375,-0.6505709886550903,-1.2596031427383423,-1.4373648166656494
1790265311276506000,5.873506103515625,-0.5070177912712097,-1.12765634059906,-1.4025455713272095
1790265311293760500,5.890760498046875,-0.39767298102378845,-1.390328288078308,-1.4672971963882446
1790265311311014700,5.9080146484375,-0.3811796307563782,-1.2993093729019165,-1.362228512763977
1790265311328268800,5.925268798828125,-0.3585776388645172,-1.1423171758651733,-1.1429280042648315
1790265311345523000,5.94252294921875,-0.411722868680954,-0.7788525819778442,-1.2522728443145752
1790265311362777000,5.959777099609375,-0.5064069032669067,-0.053145237267017365,-1.2479966878890991
1790265311380031200,5.97703125,-0.36774060130119324,0.44470956921577454,-1.1441497802734375
1790265311397285400,5.994285400390625,-0.3396408259868622,0.3970620930194855,-0.8454368710517883
1790265311414539800,6.011539794921875,-0.40317076444625854,0.4410443603992462,-0.6841685771942139
1790265311431794200,6.028794189453125,-0.43432486057281494,0.5613847374916077,-0.5418370366096497
1790265311449048600,6.046048583984375,-0.411722868680954,0.4221075773239136,-0.337808221578598
1790265311466303000,6.063302978515625,-0.2987128794193268,0.22907429933547974,-0.12583814561367035
1790265311483557400,6.080557373046875,-0.14599667489528656,0.31581708788871765,0.056810423731803894
1790265311500811800,6.097811767578125,0.05070177838206291,0.4147771894931793,0.2406807243824005
1790265311518066200,6.115066162109375,0.23762640357017517,0.6090322136878967,0.41416633129119873
1790265311535320300,6.1323203125,0.32070401310920715,0.9382883310317993,0.5619956254959106
1790265311552574700,6.14957470703125,0.36651885509490967,1.0781763792037964,0.6933315396308899
1790265311569829000,6.1668291015625,0.41355544328689575,0.9871574640274048,0.8265000581741333
1790265311587083500,6.18408349609375,0.43310311436653137,0.9303470849990845,0.9291253089904785
1790265311604338000,6.201337890625,0.4923570156097412,1.0060943365097046,1.0739002227783203
1790265311621592300,6.21859228515625,0.5418370366096497,0.9205732345581055,1.196073293685913
1790265311638846700,6.2358466796875,0.5369501113891602,0.8344413042068481,1.351232886314392
1790265311656101000,6.25310107421875,0.5699368119239807,0.7690787315368652,1.4984513521194458
1790265311673355500,6.27035546875,0.6029235124588013,0.8252783417701721,1.6022982597351074
1790265311690610000,6.28760986328125,0.5998691916465759,0.9114102721214294,1.72141695022583
1790265311707864300,6.3048642578125,0.6047561168670654,0.813060998916626,1.731190800666809
1790265311725118500,6.322118408203125,0.6438514590263367,0.665842592716217,1.7977750301361084
1790265311742372900,6.339372802734375,0.7134900689125061,0.5430588126182556,1.8735222816467285
1790265311759627300,6.356627197265625,0.7764091491699219,0.5387827157974243,1.8588615655899048
1790265311776881700,6.373881591796875,0.8258891701698303,0.6633991599082947,1.766010046005249
1790265311794136000,6.391135986328125,0.8338304162025452,0.5821541547775269,1.712864875793457
1790265311811390200,6.40839013671875,0.8240565657615662,0.3274235129356384,1.7452406883239746
1790265311828644400,6.425644287109375,0.8338304162025452,0.3237583339214325,1.6676608324050903
1790265311845898500,6.4428984375,0.8973603844642639,0.6151408553123474,1.5735876560211182
1790265311863152600,6.460152587890625,0.9761618971824646,1.0500766038894653,1.4520255327224731
1790265311880406800,6.47740673828125,0.9993748068809509,1.2046253681182861,1.3445134162902832
1790265311897661200,6.4946611328125,1.0140355825424194,1.05496346950531,1.1808016300201416
1790265311914915600,6.51191552734375,0.9999856352806091,0.6866120100021362,1.166751742362976
1790265311932170000,6.529169921875,1.0286962985992432,0.471587598323822,1.1991275548934937
1790265311949424000,6.546424072265625,1.0409135818481445,0.6230821013450623,1.1685843467712402
1790265311966678500,6.563678466796875,1.071456789970398,0.7269290685653687,1.0989457368850708
1790265311983933000,6.580932861328125,1.0305289030075073,0.5338957905769348,1.0543526411056519
1790265312001187300,6.598187255859375,0.9676098227500916,0.22418737411499023,1.0201442241668701
1790265312018441700,6.615441650390625,0.8643736839294434,-0.046425722539424896,0.9596685767173767
1790265312035696000,6.632696044921875,0.7367029190063477,-0.205861434340477,0.8784235715866089
1790265312052950500,6.649950439453125,0.5894845128059387,-0.10629047453403473,0.7012727856636047
1790265312070205000,6.667204833984375,0.4257727563381195,-0.10384701192378998,0.44959646463394165
1790265312087459300,6.684459228515625,0.33169957995414734,-0.32070401310920715,0.28466299176216125
1790265312104713700,6.701713623046875,0.27000224590301514,-0.4923570156097412,0.18203771114349365
1790265312121967900,6.7189677734375,0.23212862014770508,-0.5369501113891602,0.0360410213470459
1790265312139222300,6.73622216796875,0.19364413619041443,-0.5723803043365479,-0.13927717506885529
1790265312156476700,6.7534765625,0.11545344442129135,-0.6145299673080444,-0.20158538222312927
1790265312173731000,6.77073095703125,-0.020158538594841957,-0.5485565662384033,-0.2974911332130432
1790265312190985500,6.7879853515625,-0.12522727251052856,-0.21502439677715302,-0.4062250852584839
1790265312208239600,6.805239501953125,-0.205861434340477,0.19181154668331146,-0.48991355299949646
1790265312225493800,6.82249365234375,-0.25900667905807495,0.44959646463394165,-0.46486809849739075
1790265312242748000,6.839747802734375,-0.2156352698802948,0.47464191913604736,-0.3756818473339081
1790265312260002000,6.857001953125,-0.18325942754745483,0.3035998046398163,-0.3494146466255188
1790265312277256400,6.87425634765625,-0.24740023910999298,0.09590577334165573,-0.4214966893196106
1790265312294510600,6.891510498046875,-0.37629270553588867,0.12644900381565094,-0.5894845128059387
1790265312311765000,6.908764892578125,-0.4831940531730652,0.235793799161911,-0.6945532560348511
1790265312329019400,6.926019287109375,-0.5039634704589844,0.18203771114349365,-0.7721330523490906
1790265312346273800,6.943273681640625,-0.47036588191986084,0.024434590712189674,-0.9847140312194824
1790265312363528000,6.96052783203125,-0.5064069032669067,-0.1893680840730667,-1.053741693496704
1790265312380782300,6.9777822265625,-0.5882627964019775,-0.4001164436340332,-0.8655954003334045
1790265312398036700,6.99503662109375,-0.6695078015327454,-0.5839866995811462,-0.8112284541130066
1790265312415291100,7.012291015625,-0.7648026943206787,-0.6914989352226257,-0.9810488224029541
1790265312432545500,7.029545654296875,-0.7892373204231262,-0.7880155444145203,-1.2437206506729126
1790265312449800000,7.046800048828125,-0.7330377101898193,-0.8075632452964783,-1.444695234298706
1790265312467054300,7.064054443359375,-0.6139190793037415,-0.778241753578186,-1.5063925981521606
1790265312484308700,7.081308837890625,-0.49418962001800537,-0.9138537049293518,-1.3842196464538574
1790265312501563100,7.098563232421875,-0.535728394985199,-0.8429933786392212,-1.3866630792617798
1790265312518817500,7.115817626953125,-0.5241219997406006,-0.7831286191940308,-1.4587451219558716
1790265312536071700,7.13307177734375,-0.48441576957702637,-0.8075632452964783,-1.488066554069519
1790265312553326000,7.150326171875,-0.45509424805641174,-0.7739656567573547,-1.5858049392700195
1790265312570580500,7.16758056640625,-0.45326167345046997,-0.8869756460189819,-1.6896519660949707
1790265312587835000,7.1848349609375,-0.3915643095970154,-1.1753038167953491,-1.740964651107788
1790265312605089000,7.202089111328125,-0.3194822669029236,-1.2895355224609375,-1.7458515167236328
1790265312622343200,7.21934326171875,-0.2993237376213074,-1.3469568490982056,-1.832594394683838
1790265312639597300,7.236597412109375,-0.34147340059280396,-1.3695588111877441,-1.8832961320877075
1790265312656851700,7.253851806640625,-0.3194822669029236,-1.342680811882019,-1.8918482065200806
1790265312674105900,7.27110595703125,-0.31093016266822815,-1.2651009559631348,-1.8222095966339111
1790265312691360000,7.288360107421875,-0.3652971386909485,-0.9193515181541443,-1.6218459606170654
1790265312708614400,7.305614501953125,-0.4465421438217163,-0.5332849621772766,-1.50028395652771
1790265312725868800,7.322868896484375,-0.5418370366096497,-0.3811796307563782,-1.5021164417266846
1790265312743123200,7.340123291015625,-0.62857985496521,-0.37629270553588867,-1.3261874914169312
1790265312760377600,7.357377685546875,-0.647516667842865,-0.20647229254245758,-1.3164136409759521
1790265312777631700,7.3746318359375,-0.5510000586509705,-0.056810423731803894,-1.1704169511795044
1790265312794886100,7.39188623046875,-0.4886918365955353,0.06475166976451874,-0.9596685767173767
1790265312812140500,7.409140625,-0.4917461574077606,0.2156352698802948,-0.7629700899124146
1790265312829395000,7.42639501953125,-0.5033525824546814,0.31093016266822815,-0.5729911923408508
1790265312846649300,7.4436494140625,-0.4477638900279999,0.3909534513950348,-0.3451386094093323
1790265312863903700,7.46090380859375,-0.3139844834804535,0.5125155448913574,-0.13011419773101807
1790265312881158100,7.478158203125,-0.1637117564678192,0.5852084755897522,0.1026252806186676
1790265312898412300,7.495412353515625,-0.008552107028663158,0.7232639193534851,0.34086254239082336
1790265312915666400,7.51266650390625,0.14172062277793884,0.7971785664558411,0.555276095867157
1790265312932920600,7.529920654296875,0.3243691921234131,0.7916807532310486,0.7483093738555908
1790265312950174700,7.5471748046875,0.42271843552589417,1.0690133571624756,0.9688315391540527
1790265312967428900,7.564428955078125,0.4978547990322113,1.2168426513671875,1.119104266166687
1790265312984683300,7.581683349609375,0.49541133642196655,1.0873392820358276,1.2302817106246948
1790265313001937400,7.5989375,0.4868592321872711,1.1172716617584229,1.3439024686813354
1790265313019191800,7.61619189453125,0.5381718873977661,1.2302817106246948,1.4355322122573853
1790265313036446200,7.6334462890625,0.6053670048713684,1.2400555610656738,1.5607595443725586
1790265313053700600,7.65070068359375,0.6450732350349426,1.1013891696929932,1.7110322713851929
1790265313070955000,7.667955078125,0.6847794055938721,0.9364557266235352,1.860694169998169
1790265313088209400,7.68520947265625,0.7556397318840027,0.8497129082679749,1.9401065111160278
1790265313105463800,7.7024638671875,0.8857539296150208,0.9205732345581055,1.9346086978912354
1790265313122718200,7.71971826171875,0.9792162179946899,1.1313215494155884,1.8839069604873657
1790265313139972600,7.73697265625,1.0403027534484863,1.102000117301941,1.8490877151489258
1790265313157227000,7.75422705078125,1.0286962985992432,0.8814778923988342,1.8124357461929321
1790265313174481400,7.7714814453125,1.0928370952606201,0.8350521326065063,1.7812817096710205
1790265313191735600,7.788735595703125,1.1869102716445923,0.8057306408882141,1.7898337841033936
1790265313208989700,7.80598974609375,1.2412772178649902,0.7904590368270874,1.8478659391403198
1790265313226243800,7.823243896484375,1.2076796293258667,0.5894845128059387,1.7519601583480835
1790265313243498000,7.840498046875,1.1459823846817017,0.2565632164478302,1.6688826084136963
1790265313260752100,7.857752197265625,1.1337649822235107,0.15271618962287903,1.6145156621932983
1790265313278006300,7.87500634765625,1.1239912509918213,0.17837251722812653,1.5674790143966675
1790265313295260700,7.8922607421875,1.0690133571624756,0.2626718580722809,1.4434734582901
1790265313312515000,7.90951513671875,0.915686309337616,0.26511532068252563,1.323133111000061
1790265313329769500,7.92676953125,0.934012234210968,0.1178968995809555,1.221118688583374
1790265313347024000,7.94402392578125,0.8772017955780029,0.004276053514331579,1.2186752557754517
1790265313364278300,7.9612783203125,0.7556397318840027,0.17165300250053406,1.0299180746078491
1790265313381532700,7.97853271484375,0.6401863098144531,0.05803215503692627,0.9230166673660278
1790265313398787000,7.995787109375,0.516791582107544,-0.08307760953903198,0.8063415288925171
1790265313416041200,8.013041259765625,0.41294458508491516,-0.1441640853881836,0.6328558921813965
1790265313433295600,8.030295654296875,0.30970844626426697,-0.22846342623233795,0.4514290690422058
1790265313450550000,8.047550048828125,0.2309068888425827,-0.37262752652168274,0.25350889563560486
1790265313467804400,8.064804443359375,0.16798780858516693,-0.4728093445301056,0.08491020649671555
1790265313485058800,8.082058837890624,0.12156209349632263,-0.4098902642726898,-0.07086031138896942
1790265313502313000,8.09931298828125,0.07635809481143951,-0.26878049969673157,-0.24495677649974823
1790265313519567000,8.116567138671876,0.06047561392188072,-0.1649334877729416,-0.41783151030540466
1790265313536821200,8.1338212890625,0.06597339361906052,-0.03543015569448471,-0.583375871181488
1790265313554075400,8.151075439453125,0.017104214057326317,0.06963858753442764,-0.7281508445739746
1790265313571329500,8.16832958984375,-0.08063415437936783,0.18570289015769958,-0.833219587802887
1790265313588584000,8.185583984375,-0.16126830875873566,0.22235478460788727,-0.9266818761825562
1790265313605838300,8.20283837890625,-0.2260199636220932,0.07147117704153061,-1.1398736238479614
1790265313623092700,8.2200927734375,-0.2889390289783478,-0.08613193035125732,-1.5149446725845337
1790265313640347100,8.23734716796875,-0.36651885509490967,0.10567960888147354,-1.655443549156189
1790265313657601300,8.254601318359375,-0.4428769648075104,0.28405213356018066,-1.6975932121276855
1790265313674855700,8.271855712890625,-0.5045742988586426,0.16615521907806396,-1.750738501548767
1790265313692110000,8.289110107421875,-0.4825831651687622,-0.027488915249705315,-1.6853759288787842
1790265313709364200,8.3063642578125,-0.48502662777900696,-0.05070177838206291,-1.5577051639556885
1790265313726618400,8.323618408203124,-0.6334667801856995,0.056199558079242706,-1.4856231212615967
1790265313743872500,8.34087255859375,-0.8436042666435242,0.039706211537122726,-1.3762784004211426
1790265313761126700,8.358126708984376,-0.9175189137458801,-0.13500112295150757,-1.2553271055221558
1790265313778380800,8.375380859375,-0.8057306408882141,-0.4043924808502197,-1.1753038167953491
1790265313795635200,8.39263525390625,-0.7067705392837524,-0.6401863098144531,-1.1985167264938354
1790265313812889600,8.4098896484375,-0.7055488228797913,-0.7031053900718689,-1.3310743570327759
1790265313830144000,8.42714404296875,-0.7379246354103088,-0.7819069027900696,-1.5289945602416992
1790265313847398400,8.4443984375,-0.6982184648513794,-0.9425643682479858,-1.6597195863723755
1790265313864652800,8.46165283203125,-0.6139190793037415,-0.9828814268112183,-1.7873903512954712
1790265313881907000,8.478906982421876,-0.5595521330833435,-0.9663881063461304,-1.8808526992797852
1790265313899161300,8.496161376953125,-0.5290089249610901,-0.9694424271583557,-1.8154901266098022
1790265313916415700,8.513415771484375,-0.5308414697647095,-1.0152572393417358,-1.6053526401519775
1790265313933670100,8.530670166015625,-0.574212908744812,-1.2596031427383423,-1.5955787897109985
1790265313950924500,8.547924560546875,-0.6090322136878967,-1.2712095975875854,-1.7079778909683228
1790265313968179000,8.565178955078125,-0.66645348072052,-0.8778126835823059,-1.6914845705032349
1790265313985433000,8.58243310546875,-0.758083164691925,-0.7220421433448792,-1.8044945001602173
1790265314002687500,8.5996875,-0.7519745230674744,-0.7385355234146118,-1.852752923965454
1790265314019941600,8.616941650390626,-0.759304940700531,-0.6236929297447205,-1.7611231803894043
1790265314037195800,8.63419580078125,-0.8179479241371155,-0.5430588126182556,-1.6865977048873901
1790265314054450000,8.651449951171875,-0.7605266571044922,-0.5186241865158081,-1.5723659992218018
1790265314071704000,8.6687041015625,-0.665842592716217,-0.4379900395870209,-1.3023637533187866
1790265314088958500,8.68595849609375,-0.5320632457733154,-0.3903425931930542,-1.0115920305252075
1790265314106212900,8.703212890625,-0.42821621894836426,-0.2211330533027649,-0.7721330523490906
1790265314123467000,8.720467041015626,-0.35124725103378296,-0.06841685622930527,-0.5051851868629456
1790265314140721400,8.737721435546876,-0.26389357447624207,0.15515965223312378,-0.2009745091199875
1790265314157975800,8.754975830078125,-0.13011419773101807,0.4373791813850403,0.04276053607463837
1790265314175230200,8.772230224609375,0.008552107028663158,0.6096430420875549,0.22418737411499023
1790265314192484400,8.789484375,0.14477495849132538,0.7996219992637634,0.4422661066055298
1790265314209738500,8.806738525390625,0.26511532068252563,0.9688315391540527,0.656679630279541
1790265314226992600,8.82399267578125,0.31459537148475647,1.0244202613830566,0.8051197528839111
1790265314244246800,8.841246826171876,0.36224281787872314,0.9816597104072571,1.0598503351211548
1790265314261501200,8.858501220703126,0.43371400237083435,0.9260709881782532,1.342680811882019
1790265314278755300,8.87575537109375,0.5064069032669067,0.998153030872345,1.5638138055801392
1790265314296009700,8.893009765625,0.5571087002754211,1.0671807527542114,1.79410982131958
1790265314313264000,8.91026416015625,0.5485565662384033,1.2205078601837158,1.9822561740875244
1790265314330518500,8.9275185546875,0.5149590373039246,1.2388337850570679,2.039677381515503
1790265314347772700,8.944772705078124,0.4880809485912323,1.1820234060287476,2.163072109222412
1790265314365027000,8.962027099609376,0.4929678738117218,0.9187406301498413,2.2925755977630615
1790265314382281500,8.979281494140626,0.5057960152626038,1.0592395067214966,2.2443172931671143
1790265314399535600,8.99653564453125,0.6560688018798828,0.9004147052764893,2.1985023021698
1790265314416789800,9.013789794921875,0.8118392825126648,0.7935133576393127,2.1532983779907227
1790265314434044000,9.0310439453125,0.9230166673660278,0.8100066781044006,2.1080944538116455
1790265314451298000,9.048298095703124,1.028085470199585,0.7287616729736328,2.067166328430176
1790265314468552200,9.06555224609375,1.0965023040771484,0.472198486328125,2.0244059562683105
1790265314485806600,9.082806640625,1.0867284536361694,0.39828383922576904,1.9718714952468872
1790265314503061000,9.10006103515625,1.053130865097046,0.4630354940891266,1.913839340209961
1790265314520315400,9.1173154296875,1.1044435501098633,0.4196641147136688,1.8032728433609009
1790265314537569800,9.13456982421875,1.1905754804611206,0.2516762912273407,1.722638726234436
1790265314554824200,9.15182421875,1.1991275548934937,0.04520399495959282,1.6432262659072876
1790265314572078600,9.16907861328125,1.0958913564682007,0.05253437161445618,1.535714030265808
1790265314589332700,9.186332763671874,0.94439697265625,0.18264856934547424,1.4025455713272095
1790265314606587100,9.203587158203124,0.7812960743904114,0.31031930446624756,1.2705987691879272
1790265314623841500,9.220841552734376,0.7116574645042419,0.47952884435653687,1.0958913564682007
1790265314641096000,9.238095947265625,0.6927206516265869,0.28954991698265076,0.9071341753005981
1790265314658350300,9.255350341796875,0.6298015713691711,-0.1233946830034256,0.7880155444145203
1790265314675604700,9.272604736328125,0.5271763205528259,-0.30054548382759094,0.6352993845939636
1790265314692859000,9.28985888671875,0.3848448097705841,-0.18875721096992493,0.3897317349910736
1790265314710113000,9.307113037109374,0.24495677649974823,-0.09468404203653336,0.12522727251052856
1790265314727367200,9.3243671875,0.14049890637397766,-0.1081230640411377,-0.06902772188186646
1790265314744621300,9.341621337890626,0.09957095980644226,-0.08307760953903198,-0.22785256803035736
1790265314761875500,9.35887548828125,0.0665842592716217,0.1178968995809555,-0.4056142270565033
1790265314779129900,9.3761298828125,0.029932374134659767,0.37629270553588867,-0.5516108870506287
1790265314796384300,9.39338427734375,-0.047036588191986084,0.5192350745201111,-0.6181951761245728
1790265314813638400,9.410638427734375,-0.10445787757635117,0.48013970255851746,-0.6328558921813965
1790265314830892800,9.427892822265624,-0.12705987691879272,0.401949018239975,-0.6560688018798828
1790265314848147200,9.445147216796874,-0.1545487940311432,0.39828383922576904,-0.740368127822876
1790265314865401600,9.462401611328126,-0.2211330533027649,0.5186241865158081,-0.9120211005210876
1790265314882655700,9.47965576171875,-0.31459537148475647,0.6316341757774353,-1.1343759298324585
1790265314899910100,9.49691015625,-0.4007273018360138,0.4874700903892517,-1.2760965824127197
1790265314917164300,9.514164306640625,-0.45020735263824463,0.18325942754745483,-1.3463460206985474
1790265314934418400,9.53141845703125,-0.4526508152484894,-0.033597562462091446,-1.5015056133270264
1790265314951672600,9.548672607421874,-0.5516108870506287,-0.11484257876873016,-1.646891474723816
1790265314968926700,9.5659267578125,-0.7116574645042419,-0.14233149588108063,-1.5748094320297241
1790265314986181000,9.58318115234375,-0.7360920310020447,-0.14294235408306122,-1.5198315382003784
1790265315003435500,9.600435546875,-0.665842592716217,-0.22907429933547974,-1.5027273893356323
1790265315020690000,9.61768994140625,-0.5925388336181641,-0.500298261642456,-1.4324779510498047
1790265315037944300,9.6349443359375,-0.5619956254959106,-0.7446441650390625,-1.497840404510498
1790265315055198500,9.652198486328125,-0.6371319890022278,-0.8289434909820557,-1.7794491052627563
1790265315072452900,9.669452880859374,-0.7538071274757385,-0.8277217745780945,-1.9095633029937744
1790265315089707000,9.68670703125,-0.6340776681900024,-1.0690133571624756,-1.684765100479126
1790265315106961200,9.703961181640626,-0.401949018239975,-1.2247838973999023,-1.6383392810821533
1790265315124215300,9.72121533203125,-0.328645259141922,-1.0458004474639893,-1.7690644264221191
1790265315141469400,9.738469482421875,-0.3799578845500946,-1.063515543937683,-1.8252639770507812
1790265315158723800,9.755723876953125,-0.39828383922576904,-1.1698060035705566,-1.8460333347320557
1790265315175978000,9.77297802734375,-0.3659079968929291,-1.1013891696929932,-1.894291639328003
1790265315193232400,9.790232421875,-0.35246896743774414,-0.9615011811256409,-1.960265040397644
1790265315210486800,9.80748681640625,-0.42088583111763,-0.8930842876434326,-2.0024147033691406
1790265315227741200,9.8247412109375,-0.546113133430481,-0.850934624671936,-2.009134292602539
1790265315244995600,9.84199560546875,-0.6621774435043335,-0.9022472500801086,-1.9101741313934326
1790265315262250000,9.85925,-0.7330377101898193,-1.0818414688110352,-1.6041308641433716
1790265315279504100,9.876504150390625,-0.7703005075454712,-0.9217949509620667,-1.3732240200042725
1790265315296758300,9.89375830078125,-0.8026763200759888,-0.5607738494873047,-1.3750566244125366
1790265315314012400,9.911012451171874,-0.6261364221572876,-0.4838049113750458,-1.2327251434326172
1790265315331266600,9.9282666015625,-0.4886918365955353,-0.4428769648075104,-0.8998038172721863
1790265315348520700,9.945520751953126,-0.5057960152626038,-0.09468404203653336,-0.5681042671203613
1790265315365774800,9.96277490234375,-0.45998117327690125,0.23884813487529755,-0.3329212963581085
1790265315383029200,9.980029296875,-0.318871408700943,0.28466299176216125,0.006108647678047419
1790265315400283600,9.99728369140625,-0.14049890637397766,0.34147340059280396,0.24801109731197357
1790265315417538000,10.0145380859375,0.01282816007733345,0.49113526940345764,0.3970620930194855
1790265315434792400,10.03179248046875,0.15638138353824615,0.46914416551589966,0.6933315396308899
1790265315452046800,10.049046875,0.24740023910999298,0.6817250847816467,0.9388991594314575
1790265315469301200,10.06630126953125,0.3029889166355133,0.8894191384315491,1.0928370952606201
1790265315486555400,10.083555419921876,0.3640754222869873,0.9999856352806091,1.2443315982818604
1790265315503809500,10.1008095703125,0.42394015192985535,1.1227694749832153,1.4495820999145508
1790265315521063700,10.118063720703125,0.5198459029197693,1.25715970993042,1.5705333948135376
1790265315538317800,10.13531787109375,0.5998691916465759,1.249218463897705,1.6792672872543335
1790265315555572000,10.152572021484374,0.6786707639694214,1.2162318229675293,1.8735222816467285
1790265315572826000,10.169826171875,0.7464767694473267,1.2174534797668457,1.8924590349197388
1790265315590080500,10.18708056640625,0.7922916412353516,1.313359260559082,1.907119870185852
1790265315607335000,10.2043349609375,0.8436042666435242,1.2541054487228394,2.0268492698669434
1790265315624589300,10.22158935546875,0.9682206511497498,1.1056652069091797,2.0500621795654297
1790265315641843700,10.23884375,1.062904715538025,1.0164790153503418,1.987753987312317
1790265315659098000,10.25609814453125,1.092226266860962,0.9584468603134155,1.941939115524292
1790265315676352300,10.273352294921875,1.1270455121994019,0.8545998334884644,1.9535455703735352
1790265315693606400,10.2906064453125,1.2718204259872437,0.657290518283844,1.8918482065200806
1790265315710860500,10.307860595703126,1.3744457960128784,0.5442805290222168,1.8026620149612427
1790265315728115000,10.325114990234376,1.3726131916046143,0.5277871489524841,1.7861685752868652
1790265315745369000,10.342369140625,1.406821608543396,0.516791582107544,1.7140865325927734
1790265315762623200,10.359623291015625,1.4960078001022339,0.472198486328125,1.4825688600540161
1790265315779877600,10.376877685546875,1.5051708221435547,0.5858193039894104,1.3371829986572266
1790265315797131800,10.3941318359375,1.406821608543396,0.8026763200759888,1.3011419773101807
1790265315814386200,10.41138623046875,1.2791508436203003,0.7031053900718689,1.2089014053344727
1790265315831640600,10.428640625,1.147204041481018,0.5045742988586426,1.0378592014312744
1790265315848895000,10.44589501953125,1.0519092082977295,0.38850998878479004,0.8674280047416687
1790265315866149400,10.4631494140625,0.952949047088623,0.1844811588525772,0.618806004524231
1790265315883403500,10.480403564453125,0.7312051653862,-0.04276053607463837,0.38667741417884827
1790265315900657700,10.49765771484375,0.5106829404830933,-0.143553227186203,0.18387030065059662
1790265315917911800,10.514911865234374,0.2919933497905731,-0.1484401375055313,-0.021991131827235222
1790265315935166000,10.532166015625,0.16554436087608337,-0.1233946830034256,-0.1594357043504715
1790265315952420000,10.549420166015626,0.11056652665138245,-0.19425499439239502,-0.15821397304534912
1790265315969674500,10.566674560546875,-0.007941242307424545,-0.401949018239975,-0.17715078592300415
1790265315986929000,10.583928955078125,-0.185092031955719,-0.6982184648513794,-0.3182605504989624
1790265316004183300,10.601183349609375,-0.2571740746498108,-0.6988292932510376,-0.4923570156097412
1790265316021437700,10.618437744140625,-0.2052505612373352,-0.4001164436340332,-0.6945532560348511
1790265316038691800,10.63569189453125,-0.11972949653863907,-0.2828303873538971,-0.7874047160148621
1790265316055946200,10.6529462890625,-0.0922405794262886,-0.33536475896835327,-0.8833104968070984
1790265316073200600,10.67020068359375,-0.17165300250053406,-0.37812530994415283,-1.1142174005508423
1790265316090454800,10.687454833984376,-0.2938259541988373,-0.2009745091199875,-1.3292417526245117
1790265316107709000,10.704708984375,-0.42332929372787476,0.08674279600381851,-1.284037709236145
1790265316124963000,10.721963134765625,-0.4978547990322113,0.0665842592716217,-1.1074978113174438
1790265316142217200,10.73921728515625,-0.526565432548523,-0.2724456787109375,-1.0977239608764648
1790265316159471400,10.756471435546874,-0.5424479246139526,-0.5858193039894104,-1.2760965824127197
1790265316176725800,10.773725830078124,-0.5980366468429565,-0.7470875978469849,-1.4935643672943115
1790265316193980200,10.790980224609376,-0.675616443157196,-0.8680388331413269,-1.6352850198745728
1790265316211234600,10.808234619140626,-0.7751874327659607,-0.9046907424926758,-1.8057162761688232
1790265316228489000,10.825489013671875,-0.9211840629577637,-0.7641918659210205,-2.025627613067627
1790265316245743400,10.842743408203125,-1.0115920305252075,-0.4770853817462921,-1.9749258756637573
1790265316262997500,10.85999755859375,-0.9187406301498413,-0.6065887212753296,-1.53510320186615
1790265316280251600,10.877251708984375,-0.8081740736961365,-0.9388991594314575,-1.278540015220642
1790265316297505800,10.894505859375,-0.8668171167373657,-1.2809834480285645,-1.5497639179229736
1790265316314760200,10.91176025390625,-0.9853248596191406,-1.3390156030654907,-1.8099923133850098
1790265316332014300,10.929014404296876,-1.0115920305252075,-1.0512982606887817,-1.8631376028060913
1790265316349268500,10.9462685546875,-0.972496747970581,-1.0103703737258911,-1.7482949495315552
1790265316366522600,10.963522705078125,-0.9480621218681335,-1.3738348484039307,-1.4654645919799805
1790265316383777000,10.980777099609375,-0.8796452879905701,-1.7629557847976685,-1.362228512763977
1790265316401031400,10.998031494140625,-0.7654135823249817,-1.8087706565856934,-1.51616632938385
1790265316418285800,11.015285888671874,-0.6860011219978333,-1.6603304147720337,-1.5332705974578857
1790265316435540200,11.032540283203126,-0.6798924803733826,-1.7232495546340942,-1.4306453466415405
1790265316452794600,11.049794677734376,-0.6462949514389038,-1.3988803625106812,-1.4672971963882446
1790265316470048800,11.067048828125,-0.5858193039894104,-0.8698714375495911,-1.5198315382003784
1790265316487303000,11.084302978515625,-0.5564978122711182,-0.26022839546203613,-1.3768892288208008
1790265316504557000,11.10155712890625,-0.5601630210876465,0.010995565913617611,-1.1319323778152466
1790265316521811200,11.118811279296875,-0.5852084755897522,0.11667517572641373,-0.9095776677131653
1790265316539065300,11.1360654296875,-0.5247328281402588,0.21135921776294708,-0.7959567904472351
1790265316556319500,11.153319580078126,-0.40255987644195557,0.17226386070251465,-0.5534434914588928
1790265316573574000,11.170573974609376,-0.22785256803035736,0.1893680840730667,-0.28466299176216125
1790265316590828000,11.187828125,-0.04886918142437935,0.20219624042510986,0.07330377399921417
1790265316608082200,11.205082275390625,0.07086031138896942,0.13561198115348816,0.40927940607070923
1790265316625336300,11.22233642578125,0.10018182545900345,0.22968515753746033,0.675616443157196
1790265316642590500,11.239590576171874,0.19120067358016968,0.500298261642456,0.8527672290802002
1790265316659844600,11.2568447265625,0.29626941680908203,0.7739656567573547,1.163697361946106
1790265316677099000,11.27409912109375,0.41783151030540466,1.0684025287628174,1.3304635286331177
1790265316694353400,11.291353515625,0.430659681558609,1.2596031427383423,1.50028395652771
1790265316711607800,11.30860791015625,0.4001164436340332,1.2614357471466064,1.6102395057678223
1790265316728862200,11.3258623046875,0.39278605580329895,1.2284491062164307,1.7482949495315552
1790265316746116600,11.34311669921875,0.4105011224746704,1.2608249187469482,1.886350393295288
1790265316763370800,11.360370849609374,0.45448338985443115,1.2919789552688599,2.000582218170166
1790265316780625000,11.377625,0.49113526940345764,1.341459035873413,2.1923937797546387
1790265316797879000,11.394879150390626,0.5467239618301392,1.3555089235305786,2.282801628112793
1790265316815133200,11.41213330078125,0.5479456782341003,1.339626431465149,2.1893393993377686
1790265316832387600,11.4293876953125,0.5497782826423645,1.2644901275634766,2.0604469776153564
1790265316849641700,11.446641845703125,0.6652317643165588,1.025641918182373,2.0237951278686523
1790265316866896000,11.463895751953125,0.8637627959251404,0.7147117853164673,2.039677381515503
1790265316884150300,11.481150390625,0.962722897529602,0.39889469742774963,2.039677381515503
1790265316901404700,11.49840478515625,1.0177006721496582,0.34697118401527405,1.9950844049453735
1790265316918659000,11.5156591796875,1.1160500049591064,0.4673115611076355,1.9401065111160278
1790265316935913500,11.53291357421875,1.094058871269226,0.6780598759651184,2.000582218170166
1790265316953168000,11.55016796875,1.091004490852356,0.7183769941329956,1.8735222816467285
1790265316970422000,11.567422119140625,1.1740821599960327,0.3787361681461334,1.5308271646499634
1790265316987676200,11.58467626953125,1.1753038167953491,-0.18875721096992493,1.2901464700698853
1790265317004930300,11.601930419921874,1.1154390573501587,-0.3744601011276245,1.1850776672363281
1790265317022184400,11.619184326171874,1.0012073516845703,-0.24373504519462585,1.138651967048645
1790265317039438600,11.6364384765625,0.8790343999862671,-0.10629047453403473,1.0146464109420776
1790265317056692700,11.653692626953125,0.7324268817901611,0.15515965223312378,0.7703005075454712
1790265317073947100,11.670947021484375,0.5290089249610901,0.23884813487529755,0.5900954008102417
1790265317091201300,11.688201171875,0.3439168632030487,-0.1698204129934311,0.6615665555000305
1790265317108455400,11.705455322265625,0.2406807243824005,-0.5632173418998718,0.7171552777290344
1790265317125709600,11.72270947265625,0.1380554437637329,-0.5302306413650513,0.328645259141922
1790265317142963700,11.739963623046876,0.002443459117785096,-0.30115634202957153,-0.1441640853881836
1790265317160217900,11.7572177734375,-0.13622283935546875,-0.19669845700263977,-0.5125155448913574
1790265317177472000,11.774471923828125,-0.2565632164478302,-0.2706131041049957,-0.5882627964019775
1790265317194726400,11.791726318359375,-0.4068359434604645,-0.2559523284435272,-0.4056142270565033
1790265317211980800,11.808980712890625,-0.4978547990322113,-0.28588470816612244,-0.27000224590301514
1790265317229235200,11.826235107421875,-0.4770853817462921,-0.5613847374916077,-0.03787361457943916
1790265317246489600,11.843489501953124,-0.41783151030540466,-0.6976075768470764,-0.2003636509180069
1790265317263744000,11.860743896484376,-0.4935787320137024,-0.7892373204231262,-0.8045089244842529
1790265317280998100,11.877998046875,-0.7531962990760803,-0.8600975871086121,-1.0971131324768066
1790265317298252300,11.895252197265625,-0.998763918876648,-0.3072649836540222,-0.9645555019378662
1790265317315506400,11.91250634765625,-0.988990068435669,0.15210533142089844,-1.091004490852356
1790265317332760800,11.9297607421875,-0.9761618971824646,0.2987128794193268,-1.441640853881836
1790265317350015000,11.947014892578125,-1.1899645328521729,0.1692095398902893,-1.33290696144104
1790265317367269000,11.96426904296875,-1.3164136409759521,-0.5845975875854492,-1.0983349084854126
1790265317384523500,11.9815234375,-1.1142174005508423,-0.80389803647995,-1.349400281906128
1790265317401777700,11.998777587890626,-0.9450078010559082,-0.8387173414230347,-1.4941751956939697
1790265317419032000,12.016031982421875,-0.9303470849990845,-1.524107575416565,-1.767231822013855
1790265317436286500,12.033286376953125,-1.120326042175293,-1.6713260412216187,-2.051283836364746
1790265317453540900,12.050540771484375,-1.395825982093811,-1.0665699243545532,-2.1691808700561523
1790265317470795300,12.067795166015625,-1.3952151536941528,-0.6401863098144531,-2.175900459289551
1790265317488049400,12.08504931640625,-1.1875211000442505,-0.9957095980644226,-2.070831537246704
1790265317505303600,12.102303466796876,-1.0665699243545532,-1.737910270690918,-1.9535455703735352
1790265317522557700,12.1195576171875,-0.9773836731910706,-1.7336342334747314,-2.0415101051330566
1790265317539811800,12.136811767578125,-0.8197805285453796,-1.6731586456298828,-1.981034517288208
1790265317557066000,12.15406591796875,-0.7367029190063477,-1.5570943355560303,-1.8179335594177246
1790265317574320000,12.171320068359375,-0.7318159937858582,-1.1795798540115356,-1.7996076345443726
1790265317591574500,12.188574462890625,-0.7086031436920166,-0.924849271774292,-1.7250821590423584
1790265317608828700,12.20582861328125,-0.6340776681900024,-0.7672461867332458,-1.5876375436782837
1790265317626082800,12.223082763671876,-0.5564978122711182,-0.2926042377948761,-1.4703515768051147
1790265317643337000,12.2403369140625,-0.5088503360748291,-0.0720820426940918,-1.3261874914169312
1790265317660591000,12.257591064453125,-0.5558869242668152,-0.20402882993221283,-1.0390809774398804
1790265317677845500,12.274845458984375,-0.5540543794631958,-0.0769689604640007,-0.9083559513092041
1790265317695099600,12.292099609375,-0.39828383922576904,0.2412915825843811,-0.8521563410758972
1790265317712354000,12.30935400390625,-0.2461785078048706,0.5051851868629456,-0.6407971382141113
1790265317729608400,12.3266083984375,-0.14660754799842834,0.7281508445739746,-0.19242240488529205
1790265317746862800,12.34386279296875,0.007941242307424545,0.7861829996109009,0.1740964651107788
1790265317764117200,12.3611171875,0.009162971749901772,0.62857985496521,0.39217519760131836
1790265317781371400,12.378371337890625,0.04520399495959282,0.4923570156097412,0.6090322136878967
1790265317798625500,12.39562548828125,0.10995566099882126,0.5937605500221252,0.8625410795211792
1790265317815879700,12.412879638671875,0.21807873249053955,0.646905779838562,1.1514800786972046
1790265317833133800,12.4301337890625,0.3029889166355133,0.8484911918640137,1.40559983253479
1790265317850388200,12.44738818359375,0.2938259541988373,1.173471212387085,1.5595377683639526
1790265317867642400,12.464642333984376,0.20830489695072174,1.454469084739685,1.6694934368133545
1790265317884896500,12.481896484375,0.20891575515270233,1.6157373189926147,1.8625266551971436
1790265317902150700,12.499150634765625,0.3078758418560028,1.5497639179229736,2.0824379920959473
1790265317919404800,12.51640478515625,0.4202749729156494,1.5082250833511353,2.134972333908081
1790265317936659000,12.533658935546875,0.47952884435653687,1.5125012397766113,2.0977096557617188
1790265317953913000,12.5509130859375,0.5540543794631958,1.2644901275634766,2.1661264896392822
1790265317971253500,12.56825341796875,0.5766563415527344,0.9358448386192322,2.145357131958008
1790265317988852700,12.585852783203125,0.5497782826423645,0.9706641435623169,2.0073015689849854
1790265318006452000,12.603451904296875,0.6304124593734741,1.0439679622650146,2.0079126358032227
1790265318024051200,12.62105126953125,0.841160774230957,1.0164790153503418,1.9584324359893799
1790265318041650200,12.638650146484375,1.046411395072937,0.916297197341919,1.896124243736267
1790265318059249400,12.65624951171875,1.1465932130813599,0.6707295179367065,1.8093814849853516
1790265318076848600,12.6738486328125,1.1972949504852295,0.4147771894931793,1.805105447769165
1790265318094447900,12.69144775390625,1.2107340097427368,0.42332929372787476,1.7861685752868652
1790265318112046800,12.709046875,1.1979057788848877,0.5106829404830933,1.7788382768630981
1790265318129646000,12.72664599609375,1.1753038167953491,0.5699368119239807,1.7458515167236328
1790265318147245300,12.744245361328124,1.1447606086730957,0.5558869242668152,1.6340632438659668
1790265318164844500,12.761844482421875,1.0855066776275635,0.42271843552589417,1.4379756450653076
1790265318182230300,12.779230224609375,1.0036507844924927,0.2516762912273407,1.212566614151001
1790265318199544800,12.796544921875,0.8399390578269958,0.009773836471140385,1.0274745225906372
1790265318216859400,12.813859375,0.5803215503692627,-0.14233149588108063,0.813060998916626
1790265318234174000,12.831174072265625,0.33597561717033386,-0.1490510106086731,0.5491674542427063
1790265318251488500,12.848488525390625,0.2706131041049957,-0.0616973415017128,0.2993237376213074
1790265318268803000,12.865802978515624,0.32131487131118774,-0.030543239787220955,0.09468404203653336
1790265318286057500,12.883057373046874,0.3090975880622864,-0.31031930446624756,-0.1288924664258957
1790265318303312000,12.900311767578126,0.21441353857517242,-0.6157516837120056,-0.35796675086021423
1790265318320566300,12.917566162109376,0.14660754799842834,-0.6230821013450623,-0.546113133430481
1790265318337820700,12.934820556640625,0.10445787757635117,-0.36651885509490967,-0.7122683525085449
1790265318355075000,12.952074951171875,-0.012217295356094837,-0.1081230640411377,-0.9010255336761475
1790265318372329200,12.9693291015625,-0.1905898153781891,-0.05192350596189499,-1.0445787906646729
1790265318389583400,12.986583251953125,-0.3329212963581085,-0.1288924664258957,-1.0201442241668701
1790265318406837800,13.003837646484374,-0.3029889166355133,-0.13683371245861053,-0.9828814268112183
1790265318424092000,13.021091796875,-0.08491020649671555,0.04825831577181816,-1.3066397905349731
1790265318441346000,13.038345947265626,0.0720820426940918,0.3646862804889679,-1.8075488805770874
1790265318458600200,13.05560009765625,-0.17776164412498474,0.6023126840591431,-1.7006475925445557
1790265318475854300,13.072854248046875,-0.45326167345046997,0.3787361681461334,-1.2333359718322754
1790265318493108500,13.0901083984375,-0.3494146466255188,-0.09712749719619751,-1.1343759298324585
1790265318510362600,13.107362548828124,-0.2101374864578247,-0.07330377399921417,-1.6077960729599
1790265318527616800,13.12461669921875,-0.4355465769767761,-0.17715078592300415,-1.7531819343566895
1790265318544871000,13.141870849609376,-0.7959567904472351,-0.34147340059280396,-1.7324124574661255
1790265318562125000,13.159125,-1.0299180746078491,-0.40805765986442566,-1.786779522895813
1790265318579379200,13.176379150390625,-1.137430191040039,-0.5711585879325867,-1.795331597328186
1790265318596633300,13.19363330078125,-1.0598503351211548,-0.6157516837120056,-1.5693116188049316
1790265318613887700,13.2108876953125,-0.8692606091499329,-0.7733548283576965,-1.3347395658493042
1790265318631142000,13.228141845703124,-0.7599157691001892,-1.4202606678009033,-1.2773182392120361
1790265318648396000,13.24539599609375,-0.6334667801856995,-1.9859213829040527,-1.3115266561508179
1790265318665650200,13.262650146484376,-0.5283980369567871,-1.8503093719482422,-1.50028395652771
1790265318682904600,13.279904541015625,-0.4783071279525757,-1.6139047145843506,-1.6725478172302246
1790265318700159000,13.297158935546875,-0.4147771894931793,-1.406821608543396,-1.9089524745941162
1790265318717413400,13.314413330078125,-0.4465421438217163,-1.0769546031951904,-2.142913579940796
1790265318734667500,13.33166748046875,-0.6114756464958191,-0.6652317643165588,-2.188117742538452
1790265318751922000,13.348921875,-0.7574723362922668,-0.11362084746360779,-1.8741331100463867
1790265318769176300,13.36617626953125,-0.7641918659210205,-0.2974911332130432,-1.5387684106826782
1790265318786430500,13.383430419921876,-0.7037162184715271,-0.7269290685653687,-1.5033382177352905
1790265318803684600,13.4006845703125,-0.695164144039154,-0.7916807532310486,-1.5888593196868896
1790265318820938800,13.417938720703125,-0.5778780579566956,-0.7617483735084534,-1.3420698642730713
1790265318838193000,13.43519287109375,-0.42088583111763,-0.4673115611076355,-1.0286962985992432
1790265318855447000,13.452447021484375,-0.2577849328517914,-0.12644900381565094,-0.850934624671936
1790265318872701400,13.469701416015624,-0.17348559200763702,-0.1802051067352295,-0.6627882719039917
1790265318889955600,13.48695556640625,-0.2211330533027649,-0.12156209349632263,-0.46608981490135193
1790265318907209700,13.504209716796876,-0.23029601573944092,-0.07574722915887833,-0.2822195291519165
1790265318924463900,13.5214638671875,-0.09101885557174683,0.10323614627122879,-0.09285144507884979
1790265318941718000,13.538718017578125,0.06780599057674408,0.4111120104789734,0.20341797173023224
1790265318958972200,13.55597216796875,0.18142683804035187,0.6047561168670654,0.5222893953323364
1790265318976226600,13.5732265625,0.3182605504989624,0.8533781170845032,0.8002328872680664
1790265318993480700,13.590480712890624,0.32070401310920715,1.1129956245422363,0.9669989347457886
1790265319010735000,13.607735107421876,0.27488914132118225,1.239444613456726,1.2382229566574097
1790265319027989500,13.624989501953126,0.2510654330253601,1.130099892616272,1.5693116188049316
1790265319045244000,13.642243896484375,0.26939135789871216,0.9523382186889648,1.8393138647079468
1790265319062498300,13.659498291015625,0.26939135789871216,0.8625410795211792,1.9669846296310425
1790265319079752400,13.67675244140625,0.2926042377948761,0.822834849357605,2.026238441467285
1790265319097006600,13.694006591796875,0.3127627670764923,1.0122029781341553,2.095877170562744
1790265319114260700,13.7112607421875,0.36774060130119324,1.278540015220642,2.184452533721924
1790265319131515100,13.72851513671875,0.4379900395870209,1.3420698642730713,2.3145666122436523
1790265319148769300,13.745769287109376,0.5393936038017273,1.2009601593017578,2.296851634979248
1790265319166023400,13.7630234375,0.5913171172142029,1.0879502296447754,2.199113130569458
1790265319183277600,13.780277587890625,0.5809323787689209,0.9969313144683838,2.2473714351654053
1790265319200531700,13.79753173828125,0.5803215503692627,0.7623592615127563,2.2644758224487305
1790265319217785900,13.814785888671874,0.7061597108840942,0.6090322136878967,2.1325290203094482
1790265319235040000,13.8320400390625,0.8814778923988342,0.5320632457733154,1.9639302492141724
1790265319252294100,13.849294189453126,0.998763918876648,0.2528980076313019,1.8588615655899048
1790265319269548300,13.86654833984375,1.0512982606887817,0.1649334877729416,1.6413936614990234
1790265319286802400,13.883802490234375,0.9969313144683838,0.3341430425643921,1.598022222518921
1790265319304056600,13.901056640625,1.0201442241668701,0.5723803043365479,1.609628677368164
1790265319321311000,13.91831103515625,1.163697361946106,0.638353705406189,1.6187916994094849
1790265319338565000,13.935565185546874,1.2431098222732544,0.49663305282592773,1.4538581371307373
1790265319355819300,13.9528193359375,1.202792763710022,0.19669845700263977,1.2284491062164307
1790265319373073400,13.970073486328126,1.0818414688110352,-0.07452550530433655,1.0299180746078491
1790265319390327800,13.987327880859375,0.8081740736961365,-0.10445787757635117,0.8472694754600525
1790265319407582200,14.004582275390625,0.526565432548523,-0.001832594396546483,0.5510000586509705
1790265319424836600,14.021836669921875,0.33658650517463684,0.06291907280683517,0.2889390289783478
1790265319442091000,14.039091064453125,0.26450446248054504,0.014049889519810677,0.1692095398902893
1790265319459345400,14.056345458984374,0.15271618962287903,-0.023823726922273636,0.12217295914888382
1790265319476599600,14.073599609375,0.05497783049941063,-0.2822195291519165,-0.06536252796649933
1790265319493853700,14.090853759765626,0.01282816007733345,-0.6591231226921082,-0.3084867000579834
1790265319511107800,14.10810791015625,-0.03909534588456154,-0.8032872080802917,-0.5283980369567871
1790265319528362000,14.125362060546875,-0.07635809481143951,-0.6029235124588013,-0.7018836140632629
1790265319545616100,14.1426162109375,-0.17531819641590118,-0.2761108875274658,-0.7275399565696716
1790265319562870300,14.159870361328124,-0.21930044889450073,-0.13133592903614044,-0.6291907429695129
1790265319580124700,14.177124755859374,-0.17592905461788177,-0.15821397304534912,-0.6829468011856079
1790265319597378800,14.19437890625,-0.19120067358016968,-0.2309068888425827,-1.0274745225906372
1790265319614633000,14.211633056640625,-0.3402516841888428,-0.06841685622930527,-1.3573415279388428
1790265319631887000,14.22888720703125,-0.48502662777900696,0.17898337543010712,-1.4355322122573853
1790265319649141200,14.246141357421875,-0.5076286196708679,0.11056652665138245,-1.433699607849121
1790265319666395400,14.2633955078125,-0.4783071279525757,-0.23762640357017517,-1.4691298007965088
1790265319683649500,14.2806494140625,-0.4612029194831848,-0.36163195967674255,-1.488066554069519
1790265319700903700,14.297903564453126,-0.4917461574077606,-0.16004657745361328,-1.564424753189087
1790265319718157800,14.31515771484375,-0.5766563415527344,-0.19120067358016968,-1.6810998916625977
1790265319735412000,14.332411865234375,-0.6676751971244812,-0.4416552484035492,-1.766010046005249
1790265319752666000,14.349666015625,-0.7012727856636047,-0.5235111117362976,-1.6688826084136963
1790265319769920500,14.36692041015625,-0.6102539300918579,-0.4520399272441864,-1.5790854692459106
1790265319787174700,14.384174560546874,-0.5845975875854492,-0.4361574649810791,-1.7201951742172241
1790265319804428800,14.4014287109375,-0.7751874327659607,-0.5955931544303894,-2.1471896171569824
1790265319821683000,14.418682861328126,-1.0665699243545532,-0.7770199775695801,-2.3176209926605225
1790265319838937000,14.43593701171875,-1.0152572393417358,-0.7910698652267456,-1.9089524745941162
1790265319856191200,14.453191162109375,-0.7153226733207703,-1.0690133571624756,-1.5008947849273682
1790265319873445400,14.4704453125,-0.6548470258712769,-1.1881320476531982,-1.5821397304534912
1790265319890699800,14.48769970703125,-0.7531962990760803,-0.9578359723091125,-1.8918482065200806
1790265319907954200,14.5049541015625,-0.7464767694473267,-1.4233149290084839,-1.7837251424789429
1790265319925208600,14.52220849609375,-0.6798924803733826,-1.5491530895233154,-1.6413936614990234
1790265319942463000,14.539462890625,-0.62857985496521,-1.1924080848693848,-1.690262794494629
1790265319959717400,14.55671728515625,-0.6212494969367981,-1.0671807527542114,-1.6413936614990234
1790265319976971500,14.573971435546875,-0.6499601006507874,-0.8216131329536438,-1.5204424858093262
1790265319994225700,14.5912255859375,-0.5369501113891602,-0.360410213470459,-1.3842196464538574
1790265320011479800,14.608479736328125,-0.24312418699264526,0.16798780858516693,-1.284037709236145
1790265320028734200,14.625734130859374,-0.379347026348114,0.6426297426223755,-1.250440239906311
1790265320045988400,14.64298828125,-0.5510000586509705,0.9957095980644226,-0.9462295174598694
1790265320063242500,14.660242431640626,-0.3652971386909485,0.8436042666435242,-0.6517927050590515
1790265320080496600,14.67749658203125,-0.12034036219120026,0.5039634704589844,-0.3194822669029236
1790265320097750800,14.694750732421875,0.002443459117785096,0.3066541254520416,-0.07024945318698883
1790265320115005000,14.7120048828125,0.05253437161445618,0.35124725103378296,0.1637117564678192
1790265320132259000,14.729259033203125,0.17776164412498474,0.5119046568870544,0.4202749729156494
1790265320149513200,14.74651318359375,0.31581708788871765,0.7220421433448792,0.6682860851287842
1790265320166767400,14.763767333984376,0.4251618981361389,0.7916807532310486,1.0012073516845703
1790265320184021500,14.781021484375,0.4355465769767761,0.84177166223526,1.3078614473342896
1790265320201275600,14.798275634765625,0.4098902642726898,0.7837395071983337,1.4660754203796387
1790265320218530000,14.815530029296875,0.38301220536231995,0.9028581380844116,1.5845832824707031
1790265320235784200,14.8327841796875,0.3640754222869873,1.0201442241668701,1.7898337841033936
1790265320253038300,14.850038330078124,0.39828383922576904,1.0305289030075073,2.0244059562683105
1790265320270292500,14.86729248046875,0.4276053309440613,1.1856884956359863,2.1019856929779053
1790265320287546600,14.884546630859376,0.42332929372787476,1.3322961330413818,2.104429244995117
1790265320304800800,14.90180078125,0.43371400237083435,1.321911334991455,2.1392483711242676
1790265320322055000,14.919054931640625,0.471587598323822,1.3286309242248535,2.0830488204956055
1790265320339309000,14.93630908203125,0.4770853817462921,1.3915499448776245,2.0604469776153564
1790265320356563200,14.953563232421875,0.5693259835243225,1.2791508436203003,2.1050400733947754
1790265320373817600,14.970817626953124,0.7672461867332458,0.9480621218681335,2.0323472023010254
1790265320391072000,14.988072021484374,0.9779945015907288,0.675616443157196,1.79410982131958
1790265320408326400,15.005326416015626,1.1221586465835571,0.6346884965896606,1.6004657745361328
1790265320425580500,15.02258056640625,1.1869102716445923,0.6340776681900024,1.6334524154663086
1790265320442835000,15.0398349609375,1.2363903522491455,0.4838049113750458,1.6676608324050903
1790265320460089300,15.05708935546875,1.2828160524368286,0.3176496922969818,1.5760310888290405
1790265320477343700,15.07434375,1.32985258102417,0.31642794609069824,1.554650902748108
1790265320494598000,15.091597900390624,1.3683371543884277,0.4001164436340332,1.4703515768051147
1790265320511852000,15.10885205078125,1.2815942764282227,0.5082395076751709,1.342680811882019
1790265320529106200,15.126106201171876,1.1246020793914795,0.5326740741729736,1.1612539291381836
1790265320546360300,15.1433603515625,0.9291253089904785,0.34697118401527405,1.0060943365097046
1790265320563614500,15.160614501953125,0.7648026943206787,0.07880155742168427,0.8026763200759888
1790265320580868600,15.17786865234375,0.6298015713691711,-0.08857539296150208,0.6096430420875549
1790265320598122800,15.195122802734375,0.49663305282592773,-0.14477495849132538,0.4520399272441864
1790265320615377000,15.212376953125,0.38789913058280945,-0.2779434621334076,0.40927940607070923
1790265320632631000,15.229631103515626,0.28405213356018066,-0.3500255048274994,0.3494146466255188
1790265320649885200,15.24688525390625,0.16859868168830872,-0.3231474757194519,0.18387030065059662
1790265320667139600,15.2641396484375,0.04581485688686371,-0.3084867000579834,-0.11728604137897491
1790265320684393700,15.281393798828125,0.008552107028663158,-0.26939135789871216,-0.4062250852584839
1790265320701648000,15.29864794921875,0.007330377586185932,-0.20647229254245758,-0.6328558921813965
1790265320718902000,15.315902099609374,-0.015271619893610477,-0.21319180727005005,-0.6530144214630127
1790265320736156200,15.33315625,-0.05558869615197182,-0.2510654330253601,-0.56382817029953
1790265320753410300,15.350410400390626,-0.053756099194288254,-0.2211330533027649,-0.5894845128059387
1790265320770664400,15.36766455078125,-0.06108647957444191,-0.13683371245861053,-0.813060998916626
1790265320787918600,15.384918701171875,-0.13683371245861053,-0.03787361457943916,-1.1343759298324585
1790265320805172700,15.4021728515625,-0.3017672002315521,0.0409279391169548,-1.386052131652832
1790265320822427000,15.419427001953125,-0.5070177912712097,0.07086031138896942,-1.4324779510498047
1790265320839681000,15.436680908203124,-0.6359102129936218,0.08002328872680664,-1.4074324369430542
1790265320856935200,15.45393505859375,-0.6053670048713684,0.02626718580722809,-1.4666863679885864
1790265320874189600,15.471189453125,-0.6200277805328369,-0.17043127119541168,-1.5687007904052734
1790265320891443700,15.488443603515625,-0.7281508445739746,-0.379347026348114,-1.620624303817749
1790265320908697900,15.50569775390625,-0.8032872080802917,-0.5564978122711182,-1.5094468593597412
1790265320925952000,15.522951904296875,-0.721431314945221,-0.7635809779167175,-1.3390156030654907
1790265320943206100,15.5402060546875,-0.6151408553123474,-0.9407317638397217,-1.3732240200042725
1790265320960460300,15.557460205078126,-0.6145299673080444,-1.1881320476531982,-1.6578869819641113
1790265320977714400,15.57471435546875,-0.6811142563819885,-1.397047758102417,-1.9285000562667847
1790265320994968600,15.591968505859375,-0.6902772188186646,-1.563202977180481,-1.9840887784957886
1790265321012222700,15.60922265625,-0.6310232877731323,-1.5961896181106567,-1.9028438329696655
1790265321029476900,15.626476806640625,-0.573602020740509,-1.2608249187469482,-1.9175045490264893
1790265321046731000,15.64373095703125,-0.5919279456138611,-1.0305289030075073,-2.092211961746216
1790265321063985400,15.6609853515625,-0.7006618976593018,-0.8368847370147705,-2.1025965213775635
1790265321081239600,15.678239501953126,-0.7965676784515381,-0.7831286191940308,-1.832594394683838
1790265321098494000,15.695493896484376,-0.7599157691001892,-0.7464767694473267,-1.57297682762146
1790265321115748400,15.712748291015625,-0.6719512343406677,-0.6096430420875549,-1.5112794637680054
1790265321133002800,15.730002685546875,-0.6548470258712769,-0.7635809779167175,-1.423925757408142
1790265321150257200,15.747257080078125,-0.6114756464958191,-1.102000117301941,-1.296255111694336
1790265321167511600,15.764511474609375,-0.5613847374916077,-1.1184934377670288,-1.36772620677948
1790265321184765700,15.781765625,-0.5308414697647095,-0.9755510687828064,-1.3726131916046143
1790265321202019800,15.799019775390626,-0.4575377106666565,-0.7379246354103088,-1.1459823846817017
1790265321219274000,15.81627392578125,-0.4159989058971405,-0.3854556679725647,-0.9107993841171265
1790265321236528000,15.833528076171875,-0.4453204274177551,-0.0513126403093338,-0.7031053900718689
1790265321253782300,15.8507822265625,-0.3756818473339081,0.04214967042207718,-0.4667007029056549
1790265321271036400,15.868036376953125,-0.27855435013771057,0.13133592903614044,-0.23762640357017517
1790265321288290600,15.88529052734375,-0.24923282861709595,0.21441353857517242,-0.07574722915887833
1790265321305544700,15.902544677734374,-0.19853104650974274,0.3536907136440277,0.10629047453403473
1790265321322799000,15.919799072265626,-0.1026252806186676,0.5717694163322449,0.40805765986442566
1790265321340053200,15.93705322265625,-0.0030543238390237093,0.7287616729736328,0.7690787315368652
1790265321357307400,15.954307373046875,0.05864302068948746,0.7690787315368652,1.1239912509918213
1790265321374561500,15.9715615234375,0.09834922850131989,0.8979712128639221,1.4001020193099976
1790265321391815700,15.988815673828125,0.08796452730894089,1.0818414688110352,1.6102395057678223
1790265321409069800,16.00606982421875,0.08124501258134842,1.1050543785095215,1.839924693107605
1790265321426324000,16.023323974609376,0.040317077189683914,1.0818414688110352,2.067166328430176
1790265321443578000,16.040578125,0.037262752652168274,1.0891718864440918,2.127031087875366
1790265321460832300,16.057832275390624,0.06536252796649933,1.1062761545181274,2.0861032009124756
1790265321478086400,16.07508642578125,0.17348559200763702,1.0500766038894653,2.089768409729004
1790265321495340500,16.092340576171875,0.31031930446624756,0.9089667797088623,2.163072109222412
1790265321512595000,16.109594970703125,0.41905322670936584,0.7806851863861084,2.1636829376220703
1790265321529849000,16.12684912109375,0.47464191913604736,0.8008437156677246,2.2058327198028564
1790265321547103200,16.144103271484376,0.6169734001159668,0.7794634699821472,2.2705843448638916
1790265321564357400,16.161357421875,0.7360920310020447,0.9584468603134155,2.129474639892578
1790265321581611500,16.178611572265623,0.721431314945221,1.2272273302078247,2.0586142539978027
1790265321598865700,16.19586572265625,0.7483093738555908,1.2614357471466064,2.020129919052124
1790265321616119800,16.213119873046875,0.8210022449493408,1.053741693496704,1.971260666847229
1790265321633374000,16.2303740234375,0.9608902931213379,0.8191696405410767,1.8405355215072632
1790265321650628000,16.247628173828126,1.1319323778152466,0.6456840634346008,1.6719368696212769
1790265321667882200,16.26488232421875,1.1588104963302612,0.5009090900421143,1.5760310888290405
1790265321685136400,16.282136474609374,1.0671807527542114,0.35124725103378296,1.499062180519104
1790265321702390500,16.299390625,1.0250310897827148,0.1545487940311432,1.3432916402816772
1790265321719645000,16.31664501953125,0.934623122215271,-0.04581485688686371,1.1624757051467896
1790265321736899000,16.333899169921875,0.7257073521614075,-0.19730933010578156,1.0311397314071655
1790265321754153200,16.3511533203125,0.45875945687294006,-0.2052505612373352,0.9205732345581055
1790265321771407400,16.368407470703126,0.19853104650974274,-0.2626718580722809,0.8350521326065063
1790265321788661500,16.38566162109375,0.02626718580722809,-0.3445277214050293,0.7073814272880554
1790265321805915600,16.40291552734375,-0.018325943499803543,-0.2889390289783478,0.5283980369567871
1790265321823169800,16.420169677734375,-0.05742128938436508,-0.23884813487529755,0.34086254239082336
1790265321840424000,16.437423828125,-0.1026252806186676,-0.2730565667152405,0.10995566099882126
1790265321857678000,16.454677978515626,-0.1545487940311432,-0.277332603931427,-0.12583814561367035
1790265321874932200,16.47193212890625,-0.20769402384757996,-0.19364413619041443,-0.3659079968929291
1790265321892186400,16.489186279296874,-0.2516762912273407,-0.11972949653863907,-0.5558869242668152
1790265321909440800,16.506440673828124,-0.2669478952884674,-0.14477495849132538,-0.6304124593734741
1790265321926695000,16.52369482421875,-0.24801109731197357,-0.18875721096992493,-0.7195987105369568
1790265321943949000,16.540948974609375,-0.24801109731197357,-0.11972949653863907,-0.880256175994873
1790265321961203200,16.558203125,-0.2816086709499359,0.043371398001909256,-1.061682939529419
1790265321978457300,16.575457275390626,-0.31520622968673706,0.1997527778148651,-1.1777472496032715
1790265321995711500,16.59271142578125,-0.35796675086021423,0.318871408700943,-1.32985258102417
1790265322012965600,16.609965576171874,-0.4477638900279999,0.22724169492721558,-1.4813470840454102
1790265322030219800,16.6272197265625,-0.555276095867157,0.03848448023200035,-1.5613703727722168
1790265322047474000,16.644473876953125,-0.6145299673080444,-0.14049890637397766,-1.5809180736541748
1790265322064728000,16.66172802734375,-0.6627882719039917,-0.2205221801996231,-1.5570943355560303
1790265322081982200,16.678982177734376,-0.6835576891899109,-0.29565855860710144,-1.61085045337677
1790265322099236600,16.696236572265626,-0.6743947267532349,-0.4569268524646759,-1.72141695022583
1790265322116490800,16.71349072265625,-0.6835576891899109,-0.5283980369567871,-1.785557746887207
1790265322133745000,16.730744873046874,-0.7342594861984253,-0.6065887212753296,-1.8936808109283447
1790265322150999000,16.7479990234375,-0.7776308655738831,-0.7379246354103088,-2.1447463035583496
1790265322168253200,16.765253173828125,-0.8100066781044006,-0.8283326625823975,-2.293797254562378
1790265322185507300,16.78250732421875,-0.8161153197288513,-0.7562506198883057,-2.1667373180389404
1790265322202761500,16.799761474609376,-0.6927206516265869,-0.9132428169250488,-1.9162827730178833
1790265322220015600,16.817015625,-0.5491674542427063,-1.2443315982818604,-1.8191553354263306
1790265322237269800,16.834269775390624,-0.47952884435653687,-1.3078614473342896,-1.932165265083313
1790265322254524000,16.85152392578125,-0.46486809849739075,-1.100778341293335,-2.056781768798828
1790265322271778000,16.868778076171875,-0.49602219462394714,-0.8454368710517883,-2.042731761932373
1790265322289032400,16.886032470703125,-0.5345066785812378,-0.8118392825126648,-1.8997894525527954
1790265322306286600,16.90328662109375,-0.5790998339653015,-0.8998038172721863,-1.7366886138916016
1790265322323540700,16.920540771484376,-0.6212494969367981,-0.905912458896637,-1.5937461853027344
1790265322340795000,16.937794921875,-0.5839866995811462,-0.6444623470306396,-1.517388105392456
1790265322358049000,16.955049072265624,-0.45448338985443115,-0.7018836140632629,-1.2779290676116943
1790265322375303200,16.97230322265625,-0.3127627670764923,-0.5345066785812378,-1.0146464109420776
1790265322392557300,16.989557373046875,-0.23396120965480804,-0.14049890637397766,-0.8167262077331543
1790265322409811500,17.0068115234375,-0.18692462146282196,0.3029889166355133,-0.6181951761245728
1790265322427065600,17.024065673828126,-0.11178825795650482,0.5229002237319946,-0.34147340059280396
1790265322444319700,17.04131982421875,0.06780599057674408,0.5558869242668152,-0.025045456364750862
1790265322461574000,17.058573974609374,0.2205221801996231,0.5894845128059387,0.2767217457294464
1790265322478828300,17.075828369140623,0.2516762912273407,0.5766563415527344,0.5400044918060303
1790265322496082700,17.093082763671877,0.3298669755458832,0.6407971382141113,0.7538071274757385
1790265322513337000,17.110337158203127,0.42271843552589417,0.7599157691001892,0.9547816514968872
1790265322530591500,17.127591552734376,0.4318813979625702,0.9712749719619751,1.1893537044525146
1790265322547845600,17.144845703125,0.4416552484035492,1.0702351331710815,1.3738348484039307
1790265322565100000,17.16210009765625,0.4422661066055298,1.1136064529418945,1.6395610570907593
1790265322582354400,17.1793544921875,0.49418962001800537,1.1533126831054688,1.832594394683838
1790265322599608600,17.196608642578123,0.5088503360748291,1.1294889450073242,1.905898094177246
1790265322616862700,17.21386279296875,0.500298261642456,1.1264346837997437,1.9645410776138306
1790265322634116900,17.231116943359375,0.5314523577690125,1.0836740732192993,2.072664260864258
1790265322651371000,17.24837109375,0.6023126840591431,1.1313215494155884,2.1722352504730225
1790265322668625200,17.265625244140626,0.6976075768470764,1.3267983198165894,2.103818416595459
1790265322685879300,17.28287939453125,0.7440332770347595,1.4617993831634521,2.0751075744628906
1790265322703133400,17.300133544921874,0.8020654320716858,1.3548980951309204,2.1386375427246094
1790265322720387600,17.3173876953125,0.9010255336761475,1.1148282289505005,2.1386375427246094
1790265322737641700,17.334641845703125,1.033583164215088,0.8710931539535522,1.9181153774261475
1790265322754896000,17.351895751953126,1.1502584218978882,0.7544180154800415,1.7623448371887207
1790265322772150000,17.36914990234375,1.211344838142395,0.7916807532310486,1.6890411376953125
1790265322789404200,17.386404052734374,1.2651009559631348,0.8472694754600525,1.6157373189926147
1790265322806658300,17.403658203125,1.334128737449646,0.7476984858512878,1.563202977180481
1790265322823912400,17.420912353515625,1.3988803625106812,0.5070177912712097,1.4923427104949951
1790265322841166600,17.43816650390625,1.3756674528121948,0.3659079968929291,1.387273907661438
1790265322858420700,17.455420654296876,1.3170244693756104,0.31154105067253113,1.2424989938735962
1790265322875675000,17.4726748046875,1.2272273302078247,0.16187916696071625,1.1435388326644897
1790265322892929300,17.48992919921875,1.0439679622650146,-0.009162971749901772,1.109330415725708
1790265322910183400,17.507183349609374,0.8167262077331543,-0.13072505593299866,0.9798271059989929
1790265322927437600,17.5244375,0.5564978122711182,-0.1178968995809555,0.7055488228797913
1790265322944691700,17.541691650390625,0.3182605504989624,-0.09957095980644226,0.411722868680954
1790265322961945900,17.55894580078125,0.1948658674955368,-0.2626718580722809,0.21685700118541718
1790265322979200000,17.576199951171876,0.07024945318698883,-0.2981020212173462,0.09101885557174683
1790265322996454100,17.5934541015625,-0.05558869615197182,-0.3042106628417969,-0.02932151034474373
1790265323013708300,17.610708251953124,-0.14538581669330597,-0.3170388340950012,-0.18142683804035187
1790265323030962400,17.62796240234375,-0.2009745091199875,-0.28527384996414185,-0.35613417625427246
1790265323048216600,17.645216552734375,-0.23273947834968567,-0.29016077518463135,-0.5607738494873047
1790265323065470700,17.662470703125,-0.27000224590301514,-0.23823726177215576,-0.7629700899124146
1790265323082724900,17.679724853515626,-0.30604326725006104,-0.023212861269712448,-0.8833104968070984
1790265323099978800,17.696978759765624,-0.2626718580722809,0.16615521907806396,-0.9413426518440247
1790265323117232600,17.714232666015626,-0.19120067358016968,0.10629047453403473,-0.9657772183418274
1790265323134486800,17.73148681640625,-0.15515965223312378,-0.039706211537122726,-1.0684025287628174
1790265323151740700,17.74874072265625,-0.23945899307727814,-0.17592905461788177,-1.3274091482162476
1790265323168994600,17.76599462890625,-0.39889469742774963,-0.3396408259868622,-1.5864158868789673
1790265323186248700,17.783248779296876,-0.5137372612953186,-0.38240134716033936,-1.7678426504135132
1790265323203502800,17.8005029296875,-0.5467239618301392,-0.32131487131118774,-1.877798318862915
1790265323220757200,17.81775732421875,-0.5687150955200195,-0.23884813487529755,-1.8747440576553345
1790265323238011400,17.835011474609374,-0.5033525824546814,-0.35063639283180237,-1.719584345817566
1790265323255265500,17.852265625,-0.4361574649810791,-0.6493492722511292,-1.7146974802017212
1790265323272519700,17.869519775390625,-0.5088503360748291,-0.8985821008682251,-1.9034546613693237
1790265323289773800,17.88677392578125,-0.6004800796508789,-1.0421353578567505,-2.017075538635254
1790265323307028000,17.904028076171876,-0.6359102129936218,-1.0696241855621338,-2.1197006702423096
1790265323324282000,17.9212822265625,-0.6517927050590515,-1.0641264915466309,-2.153909206390381
1790265323341536300,17.938536376953124,-0.675616443157196,-1.1032217741012573,-2.078772783279419
1790265323358790400,17.955790283203125,-0.6829468011856079,-1.0525200366973877,-2.187506675720215
1790265323376044500,17.97304443359375,-0.6963858604431152,-1.0054833889007568,-2.3060145378112793
1790265323393298700,17.990298583984377,-0.7257073521614075,-0.9541707634925842,-2.106261730194092
1790265323410553000,18.007552978515626,-0.7232639193534851,-1.2651009559631348,-1.7996076345443726
1790265323427807200,18.02480712890625,-0.5986474752426147,-1.524107575416565,-1.8643592596054077
1790265323445061400,18.042061279296874,-0.5253437161445618,-1.314581036567688,-2.0635011196136475
1790265323462315500,18.0593154296875,-0.6023126840591431,-0.9541707634925842,-1.9871431589126587
1790265323479569700,18.076569580078125,-0.5778780579566956,-0.7984002828598022,-1.6053526401519775
1790265323496823800,18.09382373046875,-0.4874700903892517,-0.5064069032669067,-1.3084723949432373
1790265323514078000,18.111077880859376,-0.4050033390522003,-0.22968515753746033,-1.102000117301941
1790265323531332000,18.12833203125,-0.36774060130119324,-0.13744457066059113,-0.8252783417701721
1790265323548586200,18.145586181640624,-0.2779434621334076,-0.03543015569448471,-0.6053670048713684
1790265323565840400,18.16284033203125,-0.19608759880065918,-0.02626718580722809,-0.36224281787872314
1790265323583094500,18.180094482421875,-0.08124501258134842,0.10323614627122879,-0.1740964651107788
1790265323600349000,18.197348876953125,0.020769402384757996,0.29626941680908203,0.07941242307424545
1790265323617603000,18.21460302734375,0.027488915249705315,0.3958403766155243,0.39767298102378845
1790265323634857200,18.231857177734376,0.04153880476951599,0.5925388336181641,0.7385355234146118
1790265323652111400,18.249111328125,0.08307760953903198,0.778241753578186,1.0091485977172852
1790265323669365500,18.266365478515624,0.1233946830034256,0.8246674537658691,1.2693769931793213
1790265323686619600,18.28361962890625,0.1337793916463852,0.9773836731910706,1.4831796884536743
1790265323703873800,18.300873779296875,0.16004657745361328,1.1264346837997437,1.6859867572784424
1790265323721128000,18.3181279296875,0.1844811588525772,1.1759146451950073,1.8631376028060913
1790265323738382000,18.335382080078126,0.1905898153781891,1.194240689277649,2.028071165084839
1790265323755636200,18.35263623046875,0.22235478460788727,1.1264346837997437,2.1221442222595215
1790265323772890400,18.369890380859374,0.2522871494293213,1.1325433254241943,2.162461280822754
1790265323790144800,18.387144775390624,0.34574946761131287,1.2052361965179443,2.1606287956237793
1790265323807399000,18.40439892578125,0.48563748598098755,1.2779290676116943,2.1325290203094482
1790265323824653000,18.421653076171875,0.6414080262184143,1.2180644273757935,2.1227550506591797
1790265323841907200,18.4389072265625,0.7629700899124146,1.0195332765579224,2.1496331691741943
1790265323859161300,18.456161376953126,0.8668171167373657,0.8069523572921753,2.073275089263916
1790265323876415500,18.47341552734375,0.9572250843048096,0.6817250847816467,1.9303326606750488
1790265323893669600,18.490669677734374,1.0445787906646729,0.6908880472183228,1.894291639328003
1790265323910923800,18.507923828125,1.166751742362976,0.7354812026023865,1.8967351913452148
1790265323928178000,18.525177978515625,1.2834268808364868,0.6890554428100586,1.8106032609939575
1790265323945432000,18.54243212890625,1.3029745817184448,0.6499601006507874,1.7330234050750732
1790265323962686200,18.559686279296876,1.2577705383300781,0.5674933791160583,1.6621630191802979
1790265323979940400,18.5769404296875,1.1771364212036133,0.535728394985199,1.5735876560211182
1790265323997194800,18.59419482421875,1.1001675128936768,0.5949822664260864,1.431867003440857
1790265324014449000,18.611448974609374,1.0983349084854126,0.5180133581161499,1.2675443887710571
1790265324031703000,18.628703125,1.01708984375,0.29993459582328796,1.191797137260437
1790265324048957200,18.645957275390625,0.8436042666435242,-0.024434590712189674,1.026863694190979
1790265324066211300,18.66321142578125,0.6322450637817383,-0.32192572951316833,0.7086031436920166
1790265324083465500,18.680465576171876,0.45509424805641174,-0.4581485986709595,0.45387253165245056
1790265324100719600,18.6977197265625,0.3591884970664978,-0.4819723069667816,0.287106454372406
1790265324117973800,18.714973876953124,0.21135921776294708,-0.45875945687294006,0.15027274191379547
1790265324135228000,18.732227783203125,0.03237583488225937,-0.4098902642726898,-0.047036588191986084
1790265324152482000,18.74948193359375,-0.04153880476951599,-0.2779434621334076,-0.29626941680908203
1790265324169736200,18.766736083984377,-0.07941242307424545,-0.24434591829776764,-0.5180133581161499
1790265324186990600,18.783990478515626,-0.14110976457595825,-0.3029889166355133,-0.5968148708343506
1790265324204244700,18.80124462890625,-0.1740964651107788,-0.3280344009399414,-0.6322450637817383
1790265324221499000,18.818498779296874,-0.17226386070251465,-0.3237583339214325,-0.7373138070106506
1790265324238753000,18.8357529296875,-0.18203771114349365,-0.2816086709499359,-0.8472694754600525
1790265324256007200,18.853007080078125,-0.2156352698802948,-0.23029601573944092,-0.915686309337616
1790265324273261300,18.87026123046875,-0.23518294095993042,-0.16310089826583862,-1.0739002227783203
1790265324290515500,18.887515380859377,-0.3139844834804535,-0.10201441496610641,-1.415373682975769
1790265324307769600,18.90476953125,-0.5216785073280334,0.10934479534626007,-1.7244713306427002
1790265324325023700,18.922023681640624,-0.7415898442268372,0.3017672002315521,-1.792277216911316
1790265324342278000,18.93927783203125,-0.7874047160148621,0.1380554437637329,-1.7177517414093018
1790265324359532000,18.956531982421875,-0.7837395071983337,-0.1533270627260208,-1.6982040405273438
1790265324376786400,18.973786376953125,-0.8069523572921753,-0.34636032581329346,-1.852752923965454
1790265324394040600,18.99104052734375,-0.8093958497047424,-0.44837474822998047,-2.03112530708313
1790265324411294700,19.008294677734376,-0.7715222239494324,-0.6933315396308899,-1.9743149280548096
1790265324428548900,19.025548828125,-0.6969966888427734,-0.9450078010559082,-1.8576397895812988
1790265324445803000,19.042802978515624,-0.6548470258712769,-1.072678565979004,-1.8466442823410034
1790265324463057200,19.06005712890625,-0.6609556674957275,-0.9804379940032959,-1.8710788488388062
1790265324480311300,19.077311279296875,-0.748920202255249,-0.9896009564399719,-1.8723005056381226
1790265324497565400,19.0945654296875,-0.8918625712394714,-1.3115266561508179,-1.9394956827163696
1790265324514819300,19.1118193359375,-0.9999856352806091,-1.3952151536941528,-1.943160891532898
1790265324532073500,19.129073486328124,-1.0580178499221802,-1.3542872667312622,-1.9364413022994995
1790265324549327400,19.146327392578126,-0.9486730098724365,-1.320078730583191,-1.8649702072143555
1790265324566581200,19.163581298828124,-0.7220421433448792,-1.3817760944366455,-1.7360776662826538
1790265324583835400,19.18083544921875,-0.5277871489524841,-1.1294889450073242,-1.7397428750991821
1790265324601089300,19.19808935546875,-0.47952884435653687,-0.8576541543006897,-1.6939280033111572
1790265324618343400,19.215343505859376,-0.45998117327690125,-0.7641918659210205,-1.4538581371307373
1790265324635597600,19.23259765625,-0.46425724029541016,-0.6029235124588013,-1.2919789552688599
1790265324652851700,19.249851806640624,-0.430659681558609,-0.2981020212173462,-1.249218463897705
1790265324670105900,19.26710595703125,-0.31154105067253113,-0.0054977829568088055,-1.1056652069091797
1790265324687360000,19.284360107421875,-0.21746785938739777,0.0030543238390237093,-0.7611374855041504
1790265324704614400,19.301614501953125,-0.1233946830034256,0.17715078592300415,-0.4569268524646759
1790265324721868500,19.31886865234375,0.01649334840476513,0.5222893953323364,-0.24495677649974823
1790265324739122700,19.336122802734376,0.06414080411195755,0.44959646463394165,0.07819069176912308
1790265324756376800,19.353376953125,0.10567960888147354,0.4569268524646759,0.4477638900279999
1790265324773631000,19.370630859375,0.1288924664258957,0.740368127822876,0.7574723362922668
1790265324790885000,19.387885009765625,0.18387030065059662,0.8717040419578552,1.0152572393417358
1790265324808139300,19.40513916015625,0.2614501118659973,1.0885610580444336,1.25715970993042
1790265324825393400,19.422393310546877,0.31093016266822815,1.2174534797668457,1.4844014644622803
1790265324842647600,19.4396474609375,0.3225366175174713,1.232114315032959,1.712864875793457
1790265324859901700,19.456901611328124,0.3121519088745117,1.2382229566574097,1.813657522201538
1790265324877155800,19.47415576171875,0.3072649836540222,1.2510510683059692,1.9639302492141724
1790265324894410000,19.491409912109376,0.3738492429256439,1.2070688009262085,2.0964879989624023
1790265324911664400,19.508664306640625,0.4355465769767761,1.2651009559631348,2.134361505508423
1790265324928918500,19.52591845703125,0.4984656572341919,1.3267983198165894,2.157574415206909
1790265324946172700,19.543172607421877,0.5760455131530762,1.3475676774978638,2.2479825019836426
1790265324963426800,19.5604267578125,0.6530144214630127,1.2260055541992188,2.3176209926605225
1790265324980681000,19.577680908203124,0.720820426940918,1.0586286783218384,2.2333216667175293
1790265324997935000,19.59493505859375,0.7757982611656189,0.9663881063461304,2.199113130569458
1790265325015189200,19.612189208984375,0.8930842876434326,0.9107993841171265,2.193004608154297
1790265325032443400,19.629443359375,1.0494656562805176,0.9083559513092041,2.140470266342163
1790265325049697500,19.646697509765627,1.1911863088607788,0.9584468603134155,2.009134292602539
1790265325066951700,19.66395166015625,1.2596031427383423,0.924849271774292,1.9132285118103027
1790265325084205800,19.681205810546874,1.2760965824127197,0.656679630279541,1.8478659391403198
1790265325101460200,19.698460205078124,1.2565488815307617,0.46486809849739075,1.6530001163482666
1790265325118714400,19.71571435546875,1.1655299663543701,0.47097674012184143,1.4911209344863892
1790265325135968500,19.732968505859375,1.109330415725708,0.2974911332130432,1.37078058719635
1790265325153222700,19.75022265625,1.0115920305252075,0.16737695038318634,1.249218463897705
1790265325170476800,19.767476806640627,0.8338304162025452,0.09712749719619751,1.0238093137741089
1790265325187731000,19.78473095703125,0.637742817401886,-0.03298669680953026,0.676227331161499
1790265325204984800,19.80198486328125,0.4526508152484894,-0.16249002516269684,0.4196641147136688
1790265325222239000,19.819239013671876,0.29016077518463135,-0.22846342623233795,0.26939135789871216
1790265325239492900,19.836492919921874,0.12522727251052856,-0.19730933010578156,0.1539379209280014
1790265325256746800,19.853746826171875,0.03481929376721382,-0.1594357043504715,0.010384701192378998
1790265325274001000,19.8710009765625,-0.001221729558892548,-0.19120067358016968,-0.24923282861709595
1790265325291254800,19.8882548828125,-0.018325943499803543,-0.16676609218120575,-0.5790998339653015
1790265325308509000,19.905509033203124,-0.059864748269319534,-0.15638138353824615,-0.8148936033248901
1790265325325763000,19.92276318359375,-0.13988803327083588,-0.15088360011577606,-0.915075421333313
1790265325343017200,19.940017333984375,-0.18692462146282196,-0.15271618962287903,-0.972496747970581
1790265325360271400,19.957271240234373,-0.17104214429855347,-0.1490510106086731,-0.9492838382720947
1790265325377525500,19.974525390625,-0.12767073512077332,-0.24984370172023773,-0.9169080257415771
1790265325394779600,19.991779541015624,-0.16310089826583862,-0.3848448097705841,-1.0793980360031128
1790265325412033800,20.00903369140625,-0.32131487131118774,-0.3585776388645172,-1.3933825492858887
1790265325429288200,20.0262880859375,-0.5613847374916077,-0.13255766034126282,-1.6047418117523193
1790265325446542300,20.043542236328125,-0.7531962990760803,0.12034036219120026,-1.6077960729599
1790265325463796500,20.06079638671875,-0.8258891701698303,0.053756099194288254,-1.564424753189087
1790265325481050600,20.078050537109377,-0.8246674537658691,-0.37629270553588867,-1.5045599937438965
1790265325498304800,20.0953046875,-0.7605266571044922,-0.9187406301498413,-1.5143338441848755
1790265325515559000,20.112558837890624,-0.7452550530433655,-1.1282672882080078,-1.6914845705032349
1790265325532813000,20.12981298828125,-0.8631519079208374,-1.1307107210159302,-1.92666757106781
1790265325550067200,20.147067138671876,-0.9847140312194824,-1.0403027534484863,-2.0207407474517822
1790265325567321300,20.1643212890625,-1.0036507844924927,-0.8875865340232849,-1.9932518005371094
1790265325584575500,20.181575439453123,-0.9841031432151794,-1.0586286783218384,-1.8661918640136719
1790265325601829600,20.19882958984375,-0.8955277800559998,-1.3463460206985474,-1.7232495546340942
1790265325619084000,20.216083984375,-0.7904590368270874,-1.533881425857544,-1.7079778909683228
1790265325636338200,20.233338134765624,-0.7654135823249817,-1.7739512920379639,-1.852752923965454
1790265325653592300,20.25059228515625,-0.7018836140632629,-1.7250821590423584,-2.0628902912139893
1790265325670846500,20.267846435546875,-0.6310232877731323,-1.4923427104949951,-2.2809691429138184
1790265325688100600,20.2851005859375,-0.6041452884674072,-1.1319323778152466,-2.2901320457458496
1790265325705354800,20.302354736328127,-0.6395754218101501,-0.9175189137458801,-2.0836596488952637
1790265325722609000,20.31960888671875,-0.6860011219978333,-0.8631519079208374,-1.7983858585357666
1790265325739863000,20.336863037109374,-0.711046576499939,-0.6255255341529846,-1.64566969871521
1790265325757117200,20.3541171875,-0.665842592716217,-0.47097674012184143,-1.3994911909103394
1790265325774371300,20.371371337890626,-0.5534434914588928,-0.44409868121147156,-1.1349867582321167
1790265325791625500,20.38862548828125,-0.4416552484035492,-0.3915643095970154,-0.8875865340232849
1790265325808879400,20.40587939453125,-0.318871408700943,-0.020158538594841957,-0.6603448390960693
1790265325826133500,20.423133544921875,-0.17348559200763702,0.32681265473365784,-0.3811796307563782
1790265325843387400,20.440387451171876,-0.09285144507884979,0.46608981490135193,-0.027488915249705315
1790265325860641300,20.457641357421874,-0.031154103577136993,0.5082395076751709,0.3652971386909485
1790265325877895400,20.4748955078125,-0.006108647678047419,0.5338957905769348,0.6786707639694214
1790265325895149300,20.4921494140625,0.0922405794262886,0.6212494969367981,0.8741474747657776
1790265325912403500,20.509403564453127,0.17531819641590118,0.758083164691925,1.092226266860962
1790265325929657600,20.52665771484375,0.23457208275794983,0.988990068435669,1.33290696144104
1790265325946912000,20.543912109375,0.2822195291519165,1.135597586631775,1.518609881401062
1790265325964166100,20.561166259765624,0.2919933497905731,1.1160500049591064,1.7104213237762451
1790265325981420300,20.578420166015626,0.2809978127479553,1.1081087589263916,1.9193371534347534
1790265325998674400,20.59567431640625,0.2981020212173462,1.176525592803955,2.072664260864258
1790265326015928600,20.612928466796873,0.3194822669029236,1.2186752557754517,2.160017967224121
1790265326033182700,20.6301826171875,0.3695732057094574,1.2461642026901245,2.2876884937286377
1790265326050436900,20.647436767578125,0.44348782300949097,1.1606431007385254,2.29624080657959
1790265326067691000,20.66469091796875,0.5497782826423645,1.1575887203216553,2.171013355255127
1790265326084945200,20.681945068359376,0.6750055551528931,1.1435388326644897,2.196058988571167
1790265326102199300,20.69919921875,0.861319363117218,0.9804379940032959,2.2705843448638916
1790265326119453400,20.716453369140623,1.0054833889007568,0.8497129082679749,2.3573272228240967
1790265326136707800,20.733707763671877,1.094058871269226,0.7293725609779358,2.450789451599121
1790265326153962000,20.7509619140625,1.1698060035705566,0.6310232877731323,2.4104723930358887
1790265326171216100,20.768216064453124,1.2174534797668457,0.5607738494873047,2.2394301891326904
1790265326188470300,20.78547021484375,1.1740821599960327,0.37140578031539917,2.103818416595459
1790265326205724200,20.80272412109375,1.0317505598068237,0.18387030065059662,1.977980136871338
1790265326222978000,20.81997802734375,0.924849271774292,0.164322629570961,1.7287473678588867
1790265326240232000,20.83723193359375,0.8350521326065063,0.31581708788871765,1.5118902921676636
1790265326257486000,20.854486083984376,0.8222240209579468,0.4196641147136688,1.3561197519302368
1790265326274740000,20.871739990234374,0.8222240209579468,0.3274235129356384,1.2498292922973633
1790265326291994000,20.888994140625,0.6927206516265869,0.09346231073141098,1.0830632448196411
1790265326309248300,20.906248291015626,0.49480047821998596,-0.07574722915887833,0.84177166223526
1790265326326502400,20.92350244140625,0.2987128794193268,-0.1337793916463852,0.5681042671203613
1790265326343756500,20.940756591796877,0.1802051067352295,-0.1441640853881836,0.3139844834804535
1790265326361010700,20.9580107421875,0.07574722915887833,-0.2315177470445633,0.12034036219120026
1790265326378264800,20.975264892578124,-0.009773836471140385,-0.2932150959968567,-0.0256563201546669
1790265326395519000,20.99251904296875,-0.05497783049941063,-0.29443681240081787,-0.164322629570961
1790265326412773000,21.009773193359376,-0.11545344442129135,-0.3274235129356384,-0.3341430425643921
1790265326430027300,21.02702734375,-0.23029601573944092,-0.3958403766155243,-0.4734202027320862
1790265326447281400,21.044281494140623,-0.2974911332130432,-0.3585776388645172,-0.5778780579566956
1790265326464535800,21.061535888671877,-0.27977606654167175,-0.20158538222312927,-0.6823359727859497
1790265326481790000,21.0787900390625,-0.2675587832927704,-0.06047561392188072,-0.8197805285453796
1790265326499044000,21.096044189453124,-0.30054548382759094,-0.05742128938436508,-0.972496747970581
1790265326516298200,21.11329833984375,-0.3909534513950348,-0.059864748269319534,-1.1783581972122192
1790265326533552400,21.130552490234376,-0.5009090900421143,0.04764745384454727,-1.4269801378250122
1790265326550806500,21.147806640625,-0.6029235124588013,0.27000224590301514,-1.6071852445602417
1790265326568060700,21.165060791015627,-0.6462949514389038,0.3274235129356384,-1.6444480419158936
1790265326585314800,21.182314697265625,-0.6230821013450623,0.09651663154363632,-1.626121997833252
1790265326602568700,21.199568603515626,-0.5937605500221252,-0.3090975880622864,-1.6084070205688477
1790265326619822600,21.216822509765624,-0.5974257588386536,-0.5137372612953186,-1.7519601583480835
1790265326637076700,21.23407666015625,-0.6957749724388123,-0.5326740741729736,-1.8991786241531372
1790265326654330600,21.25133056640625,-0.8142827749252319,-0.5259546041488647,-1.9034546613693237
1790265326671584500,21.26858447265625,-0.8869756460189819,-0.564439058303833,-1.869246244430542
1790265326688838700,21.285838623046875,-0.9376774430274963,-0.7751874327659607,-1.9028438329696655
1790265326706092800,21.3030927734375,-0.9321796298027039,-1.0134246349334717,-1.9590433835983276
1790265326723347000,21.320346923828126,-0.84177166223526,-1.0458004474639893,-2.0329580307006836
1790265326740601000,21.33760107421875,-0.7373138070106506,-1.0146464109420776,-2.1746785640716553
1790265326757855200,21.354855224609373,-0.6524035930633545,-1.1783581972122192,-2.2369868755340576
1790265326775109400,21.372109375,-0.6029235124588013,-1.230892539024353,-2.167959213256836
1790265326792363800,21.38936376953125,-0.6071996092796326,-1.1685843467712402,-2.1410810947418213
1790265326809618000,21.406617919921874,-0.5955931544303894,-1.1771364212036133,-2.1838417053222656
1790265326826872000,21.4238720703125,-0.5338957905769348,-0.9126319885253906,-2.1172573566436768
1790265326844126200,21.441126220703126,-0.48013970255851746,-0.8106175661087036,-1.8765766620635986
1790265326861380400,21.45838037109375,-0.4251618981361389,-0.555276095867157,-1.6988149881362915
1790265326878634500,21.475634521484373,-0.3946186602115631,-0.17043127119541168,-1.5424336194992065
1790265326895888600,21.492888671875,-0.37262752652168274,0.0513126403093338,-1.2333359718322754
1790265326913142800,21.510142822265625,-0.3237583339214325,0.1588248461484909,-0.8558215498924255
