time,seconds_elapsed,z,y,x
1790265305466871600,0.06387158203125,8.008777618408203,2.8426733016967773,-4.086941242218018
1790265305484125200,0.081125244140625,9.09272575378418,-1.5409778356552124,-2.493321180343628
1790265305501379600,0.098379638671875,9.293723106384277,-0.8015955686569214,-1.852044701576233
1790265305518634000,0.115634033203125,9.016156196594238,1.5936198234558105,-4.4961137771606445
1790265305535888100,0.13288818359375,10.76530933380127,2.699103832244873,-5.173282623291016
1790265305553142500,0.150142578125,10.956734657287598,3.0388846397399902,-3.486342668533325
1790265305570397000,0.16739697265625,9.205188751220703,2.021935224533081,-2.8594231605529785
1790265305587651300,0.1846513671875,8.592626571655273,3.122633457183838,-4.278367042541504
1790265305604905700,0.20190576171875,6.025127410888672,7.171289443969727,-8.293522834777832
1790265305622160000,0.219159912109375,5.376672267913818,5.32403039932251,-6.4319071769714355
1790265305639414300,0.236414306640625,3.9744784832000732,2.940778970718384,-2.589034080505371
1790265305656668700,0.253668701171875,4.78803825378418,2.1774685382843018,-1.8041882514953613
1790265305673923000,0.270923095703125,7.518248558044434,3.160918712615967,-2.5531418323516846
1790265305691177200,0.28817724609375,6.91765022277832,3.2757742404937744,-1.9357935190200806
1790265305708431600,0.305431640625,8.740981101989746,3.4552359580993652,-2.139183521270752
1790265305725686000,0.32268603515625,10.013962745666504,3.9744784832000732,-2.242074728012085
1790265305742940400,0.3399404296875,10.231709480285645,3.9936211109161377,-1.098305583000183
1790265305760194800,0.35719482421875,9.363115310668945,3.342773199081421,-1.2538390159606934
1790265305777449200,0.37444921875,8.327022552490234,2.825923442840576,-1.4715858697891235
1790265305794703400,0.391703369140625,7.898707389831543,2.4981069564819336,-1.2035897970199585
1790265305811957800,0.408957763671875,7.724031448364258,1.9453648328781128,-1.1676974296569824
1790265305829212200,0.426212158203125,9.76989459991455,1.6223337650299072,-1.1174482107162476
1790265305846466600,0.443466552734375,11.650653839111328,1.5409778356552124,0.1339980661869049
1790265305863720700,0.460720703125,12.208181381225586,1.1581261157989502,0.40677985548973083
1790265305880975000,0.47797509765625,11.219944953918457,1.4333007335662842,-0.17228323221206665
1790265305898229500,0.4952294921875,10.262816429138184,1.5194423198699951,0.2512463629245758
1790265305915484000,0.51248388671875,10.107282638549805,1.7826528549194336,1.8855443000793457
1790265305932738000,0.529738037109375,11.361122131347656,1.6845471858978271,2.885744094848633
1790265305949992400,0.546992431640625,11.531012535095215,0.7154539823532104,2.5292134284973145
1790265305967246800,0.564246826171875,12.478569984436035,1.7419748306274414,0.4259224236011505
1790265305984501200,0.581501220703125,12.016755104064941,1.919043779373169,1.1078768968582153
1790265306001755400,0.59875537109375,10.236495018005371,2.5746772289276123,2.4526431560516357
1790265306019009800,0.616009765625,9.56889820098877,3.460021495819092,1.8185452222824097
1790265306036264200,0.63326416015625,9.734002113342285,3.390629768371582,1.6199408769607544
1790265306053518600,0.6505185546875,10.884950637817383,3.5030922889709473,1.3806586265563965
1790265306070773000,0.66777294921875,9.750752449035645,3.704089403152466,2.012363910675049
1790265306088027100,0.685027099609375,8.011170387268066,3.799802303314209,2.761317253112793
1790265306105281500,0.702281494140625,7.046862602233887,3.90987229347229,2.053041934967041
1790265306122536000,0.719535888671875,7.2574310302734375,3.809373617172241,1.490728497505188
1790265306139790300,0.736790283203125,8.616554260253906,3.404986619949341,1.2035897970199585
1790265306157044700,0.754044677734375,9.322437286376953,3.22552490234375,2.084148406982422
1790265306174299000,0.771298828125,8.453842163085938,3.4097721576690674,2.8115665912628174
1790265306191553300,0.78855322265625,7.657032489776611,3.680161237716675,1.9357935190200806
1790265306208807700,0.8058076171875,7.668996810913086,3.610769271850586,1.423729419708252
1790265306226062000,0.82306201171875,8.090133666992188,3.6059837341308594,1.5625132322311401
1790265306243316200,0.840316162109375,8.365307807922363,3.4504501819610596,2.2636101245880127
1790265306260570600,0.857570556640625,8.011170387268066,3.6227335929870605,2.4335005283355713
1790265306277825000,0.874824951171875,7.69531774520874,3.696911096572876,2.172683000564575
1790265306295079400,0.892079345703125,8.219346046447754,3.5820555686950684,1.9262222051620483
1790265306312333600,0.90933349609375,8.547162055969238,3.5509488582611084,1.9836499691009521
1790265306329588000,0.926587890625,8.214560508728027,3.4791641235351562,2.2396819591522217
1790265306346842400,0.94384228515625,8.458627700805664,3.3882367610931396,1.734796404838562
1790265306364096800,0.9610966796875,9.078369140625,3.5341989994049072,1.9070796966552734
1790265306381351000,0.978350830078125,9.485149383544922,3.218346357345581,1.5314065217971802
1790265306398605300,0.995605224609375,9.410971641540527,4.381258487701416,2.1655044555664062
1790265306415859700,1.012859619140625,8.621339797973633,4.34536600112915,2.0506489276885986
1790265306433114000,1.030114013671875,8.563912391662598,3.964907169342041,0.9212366938591003
1790265306450368500,1.047368408203125,8.58066177368164,3.81655216217041,0.5000999569892883
1790265306467623000,1.064622802734375,9.095118522644043,3.7878382205963135,1.0432707071304321
1790265306484877000,1.081876953125,9.418149948120117,3.783052682876587,1.9956140518188477
1790265306502131500,1.09913134765625,10.109675407409668,3.6945180892944336,1.852044701576233
1790265306519385900,1.1163857421875,10.805987358093262,3.3858439922332764,1.3495519161224365
1790265306536640300,1.13364013671875,11.0835542678833,3.2039895057678223,1.306481122970581
1790265306553894400,1.150894287109375,10.784451484680176,3.524627685546875,1.6462619304656982
1790265306571148800,1.168148681640625,10.02592658996582,3.6466617584228516,1.9381862878799438
1790265306588403200,1.1854033203125,9.121439933776855,3.586841106414795,1.8687944412231445
1790265306605657600,1.20265771484375,8.664410591125488,3.4959139823913574,1.794616937637329
1790265306622912000,1.219912109375,8.918049812316895,3.706482172012329,1.698904037475586
1790265306640166100,1.237166259765625,8.671588897705078,2.6799614429473877,2.864208698272705
1790265306657420500,1.254420654296875,8.496912956237793,2.4837498664855957,3.0556344985961914
1790265306674675000,1.271675048828125,8.685946464538574,3.2470602989196777,3.014956474304199
1790265306691929300,1.288929443359375,8.508877754211426,3.4672000408172607,3.6466617584228516
1790265306709183700,1.306183837890625,8.61176872253418,2.830709218978882,4.948357105255127
1790265306726438000,1.32343798828125,8.489734649658203,3.232703447341919,5.26899528503418
1790265306743692300,1.3406923828125,7.88913631439209,3.452843189239502,4.536791801452637
1790265306760946700,1.35794677734375,7.0301127433776855,3.2997024059295654,4.302295207977295
1790265306778201000,1.375201171875,6.271588325500488,3.25663161277771,4.764110088348389
1790265306795455500,1.39245556640625,5.304887771606445,2.9240293502807617,4.7473602294921875
1790265306812709600,1.409709716796875,4.965106964111328,2.589034080505371,4.960321426391602
1790265306829964000,1.426964111328125,5.280959606170654,2.682354211807251,5.527420520782471
1790265306847218400,1.444218505859375,6.625725746154785,2.7086751461029053,4.991427898406982
1790265306864472800,1.461472900390625,7.343572616577148,2.5196423530578613,4.6540398597717285
1790265306881727200,1.478727294921875,7.506284713745117,2.1750757694244385,3.625126361846924
1790265306898981400,1.4959814453125,7.044469833374023,1.4452649354934692,3.098705291748047
1790265306916235800,1.51323583984375,6.154339790344238,0.7010970115661621,3.1417760848999023
1790265306933490200,1.530490234375,5.855237007141113,0.2273181527853012,2.8666014671325684
1790265306950744600,1.54774462890625,4.553541660308838,-2.3952155113220215,5.225924491882324
1790265306967998700,1.564998779296875,5.338387489318848,-1.34476637840271,2.6057839393615723
1790265306985253000,1.582253173828125,5.903093338012695,-0.8973084688186646,0.9954141974449158
1790265307002507500,1.599507568359375,4.211368083953857,-2.337787628173828,2.4119651317596436
1790265307019762000,1.616761962890625,1.9764715433120728,-3.3643085956573486,4.508078098297119
1790265307037016300,1.634016357421875,-0.8039883971214294,-4.551148891448975,4.082155227661133
1790265307054270500,1.6512705078125,-2.691925525665283,-5.2737812995910645,7.156932353973389
1790265307071524900,1.66852490234375,-2.792423963546753,-4.785645484924316,10.071390151977539
1790265307088779300,1.685779296875,-1.0336993932724,-5.154139995574951,10.904092788696289
1790265307106033700,1.70303369140625,5.647061347961426,-4.634897232055664,11.440085411071777
1790265307123288000,1.7202880859375,6.0538411140441895,-4.766502857208252,13.457234382629395
1790265307140542200,1.737542236328125,4.759324073791504,-3.9194436073303223,14.790037155151367
1790265307157796600,1.754796630859375,2.0865414142608643,-2.768495798110962,12.947563171386719
1790265307175051000,1.772051025390625,0.2967100143432617,-2.6297121047973633,11.971291542053223
1790265307192305400,1.789305419921875,0.3900300860404968,-3.1728827953338623,13.856836318969727
1790265307209559600,1.8065595703125,0.6101697683334351,-3.129812002182007,16.441083908081055
1790265307226814000,1.82381396484375,-0.914058268070221,-3.074777126312256,18.36012840270996
1790265307244068400,1.841068359375,-1.9573289155960083,-1.7922241687774658,18.209381103515625
1790265307261322800,1.85832275390625,-3.555734395980835,-1.8592232465744019,18.630517959594727
1790265307278577200,1.8755771484375,-3.524627685546875,-1.1198409795761108,18.161523818969727
1790265307295831300,1.892831298828125,-3.5365917682647705,-1.6965112686157227,17.714065551757812
1790265307313085700,1.910085693359375,-4.297509670257568,-2.1511476039886475,17.228322982788086
1790265307330340000,1.927340087890625,-6.26440954208374,-2.1822543144226074,16.132410049438477
1790265307347594500,1.944594482421875,-6.173482418060303,-0.08614161610603333,14.134403228759766
1790265307364848600,1.9618486328125,-4.450650215148926,1.490728497505188,14.411971092224121
1790265307382103000,1.97910302734375,-6.029912948608398,1.521835207939148,11.614761352539062
1790265307399357400,1.996357421875,-6.809973239898682,2.9479575157165527,10.159924507141113
1790265307416611800,2.01361181640625,-8.444271087646484,1.153340458869934,10.37767219543457
1790265307433866200,2.0308662109375,-10.1216402053833,1.3280165195465088,7.980063438415527
1790265307451120400,2.048120361328125,-7.735995769500732,2.864208698272705,4.7712883949279785
1790265307468374500,2.06537451171875,-7.1234331130981445,1.3639088869094849,5.929414749145508
1790265307485629200,2.082629150390625,-5.548955917358398,0.1986042857170105,8.039883613586426
1790265307502883600,2.099883544921875,-4.359723091125488,-0.3852444589138031,7.836493968963623
1790265307520137700,2.1171376953125,-2.6632115840911865,-0.9643075466156006,5.242674350738525
1790265307537392000,2.13439208984375,-2.8689942359924316,-1.466800332069397,5.678168296813965
1790265307554646500,2.151646484375,-4.074976921081543,-1.950150489807129,7.534998416900635
1790265307571901000,2.16890087890625,-5.142175674438477,-3.81655216217041,3.672982692718506
1790265307589155000,2.186155029296875,-5.752345561981201,-5.704489231109619,2.6727828979492188
1790265307606409500,2.203409423828125,-5.91505765914917,-5.125426292419434,5.773880958557129
1790265307623663900,2.220663818359375,-5.742774486541748,-4.395615100860596,6.97268533706665
1790265307640918300,2.237918212890625,-5.338387489318848,-3.8356947898864746,7.202396392822266
1790265307658172400,2.25517236328125,-5.3694939613342285,-2.1990039348602295,7.668996810913086
1790265307675426800,2.2724267578125,-5.8719868659973145,-0.5144568681716919,8.133204460144043
1790265307692681200,2.28968115234375,-6.58265495300293,1.0911271572113037,8.963513374328613
1790265307709935600,2.306935546875,-6.331408500671387,1.2801600694656372,8.286344528198242
1790265307727189800,2.324189697265625,-6.235695838928223,0.8183453679084778,7.424928665161133
1790265307744444200,2.341444091796875,-5.757131099700928,0.27756741642951965,7.704888820648193
1790265307761698600,2.358698486328125,-5.283352375030518,0.16031911969184875,6.405586242675781
1790265307778953000,2.375952880859375,-5.26899528503418,-0.4163511395454407,5.1182475090026855
1790265307796207400,2.393207275390625,-5.84566593170166,-1.3040883541107178,4.479363918304443
1790265307813461500,2.41046142578125,-6.238088607788086,-1.1868400573730469,2.7589244842529297
1790265307830715600,2.427715576171875,-5.44845724105835,-1.4141582250595093,1.9860427379608154
1790265307847970300,2.44497021484375,-1.454836130142212,-2.888136863708496,1.7563318014144897
1790265307865224700,2.462224609375,0.5982056856155396,-2.65842604637146,3.122633457183838
1790265307882479000,2.47947900390625,-0.9427721500396729,-1.9956140518188477,6.857829570770264
1790265307899733200,2.496733154296875,-3.421736478805542,-1.7395820617675781,12.059825897216797
1790265307916987600,2.513987548828125,-6.948757171630859,-0.02153540402650833,21.913469314575195
1790265307934241800,2.53124169921875,-8.95394229888916,1.2011969089508057,20.831912994384766
1790265307951496200,2.54849609375,-7.752745151519775,1.3184453248977661,17.785850524902344
1790265307968750600,2.56575048828125,-8.0350980758667,1.1318050622940063,12.16511058807373
1790265307986005000,2.5830048828125,-9.241081237792969,-0.05742774158716202,6.058627128601074
1790265308003259400,2.60025927734375,-7.223931789398193,-2.170290231704712,4.264009952545166
1790265308020513800,2.617513671875,-5.726024627685547,-2.888136863708496,8.63330364227295
1790265308037768000,2.634767822265625,-3.4337005615234375,-2.500499725341797,8.583054542541504
1790265308055022000,2.65202197265625,-6.474977970123291,-1.466800332069397,15.347564697265625
1790265308072276200,2.669276123046875,-6.738188743591309,0.7992027401924133,13.619946479797363
1790265308089530400,2.6865302734375,-3.428914785385132,2.2396819591522217,0.4546363055706024
1790265308106784500,2.703784423828125,-2.837887763977051,-0.014356935396790504,-3.077169895172119
1790265308124039000,2.721038818359375,-1.9214365482330322,-1.1940184831619263,-0.8470591902732849
1790265308141293300,2.738293212890625,0.37088751792907715,-2.7278177738189697,1.3806586265563965
1790265308158547500,2.75554736328125,1.069591760635376,-4.386044025421143,7.786244869232178
1790265308175801900,2.7728017578125,1.459621787071228,-2.644068956375122,15.828521728515625
1790265308193056300,2.79005615234375,-0.08135596662759781,-0.08135596662759781,12.971491813659668
1790265308210310700,2.807310546875,-3.321237802505493,0.2799602448940277,8.949156761169434
1790265308227565000,2.82456494140625,-7.362715244293213,0.5670989751815796,11.143375396728516
1790265308244819500,2.8418193359375,-13.270594596862793,2.651247501373291,11.179266929626465
1790265308262073900,2.859073974609375,-13.421341896057129,3.9672999382019043,10.626524925231934
1790265308279328300,2.876328369140625,-8.709874153137207,3.0891339778900146,9.248259544372559
1790265308296582700,2.893582763671875,-7.226324558258057,3.345165967941284,8.511270523071289
1790265308313837000,2.910837158203125,-6.45822811126709,1.5242279767990112,7.2813591957092285
1790265308331091500,2.928091552734375,-2.8498518466949463,-1.5026925802230835,7.058826923370361
1790265308348345600,2.945345703125,-1.789831280708313,-2.069791555404663,8.334200859069824
1790265308365600000,2.96260009765625,-3.5605201721191406,-1.5409778356552124,6.211767673492432
1790265308382854400,2.9798544921875,-4.256831645965576,-2.861815929412842,4.596612453460693
1790265308400108800,2.99710888671875,-3.627519130706787,-5.431707382202148,6.166304111480713
1790265308417363200,3.01436328125,-4.273581027984619,-6.929614543914795,5.917450428009033
1790265308434617600,3.03161767578125,2.462214469909668,-7.207181930541992,2.7421748638153076
1790265308451872000,3.0488720703125,2.170290231704712,-7.386643409729004,-1.2538390159606934
1790265308469126400,3.06612646484375,-3.94097900390625,-7.032505512237549,-1.160519003868103
1790265308486380800,3.083380859375,-28.189844131469727,-6.017949104309082,8.401200294494629
1790265308503635200,3.10063525390625,-10.75813102722168,-5.749952793121338,4.153940200805664
1790265308520889300,3.117889404296875,-3.1920254230499268,-2.878565549850464,5.237888813018799
1790265308538143700,3.135143798828125,-0.5168496966362,-5.419743061065674,2.342573404312134
1790265308555398100,3.152398193359375,-1.7156537771224976,-9.379864692687988,4.704289436340332
1790265308572652500,3.169652587890625,-8.250452041625977,-10.12881851196289,20.075782775878906
1790265308589907000,3.186906982421875,-6.4319071769714355,-9.53779125213623,19.989641189575195
1790265308607161300,3.204161376953125,-5.709274768829346,-7.7838521003723145,12.454642295837402
1790265308624415700,3.221415771484375,-6.709474563598633,-5.374279499053955,7.200003147125244
1790265308641670100,3.238670166015625,-5.544169902801514,-4.5583271980285645,4.931607246398926
1790265308658924500,3.255924560546875,-5.714060306549072,-1.576870083808899,4.890929698944092
1790265308676179000,3.273178955078125,-4.73300313949585,-0.6532405614852905,6.003592014312744
1790265308693433000,3.29043310546875,-2.8689942359924316,-2.8905298709869385,2.155933141708374
1790265308710687500,3.3076875,-3.689732551574707,-7.561319351196289,-3.407379388809204
1790265308727942000,3.32494189453125,-3.273381471633911,-9.611968994140625,-1.8735800981521606
1790265308745196300,3.3421962890625,-7.389036178588867,-7.867600917816162,1.1700903177261353
1790265308762450700,3.35945068359375,-0.8997012972831726,-8.798408508300781,5.560919761657715
1790265308779705000,3.376705078125,-5.374279499053955,-8.616554260253906,2.3976082801818848
1790265308796959500,3.39395947265625,0.4211367964744568,-9.480362892150879,6.147161483764648
1790265308814214000,3.4112138671875,-10.092926025390625,-8.2695951461792,10.916056632995605
1790265308831468300,3.42846826171875,-5.0943193435668945,-6.532405853271484,6.829115867614746
1790265308848722700,3.44572265625,-5.115854740142822,-0.5982056856155396,1.2346965074539185
1790265308865976800,3.462976806640625,-6.029912948608398,-4.261617183685303,-1.6199408769607544
1790265308883231200,3.480231201171875,-4.981856822967529,-7.0061845779418945,-0.41874396800994873
1790265308900485600,3.497485595703125,-3.737588882446289,-10.535597801208496,-0.8063812255859375
1790265308917740000,3.514739990234375,-5.800201892852783,-14.31625747680664,3.328416347503662
1790265308934994400,3.531994384765625,-4.9531426429748535,-11.23908805847168,2.794816732406616
1790265308952248800,3.549248779296875,-3.981656789779663,-9.796216011047363,1.5601203441619873
1790265308969503200,3.566503173828125,-4.01754903793335,-11.82293701171875,0.32542386651039124
1790265308986757600,3.583757568359375,-4.467400074005127,-13.016955375671387,0.8303094506263733
1790265309004012000,3.601011962890625,-4.256831645965576,-12.057433128356934,-0.12442677468061447
1790265309021266400,3.618266357421875,-4.46979284286499,-9.377471923828125,-1.6917256116867065
1790265309038520800,3.635520751953125,-3.0077781677246094,-8.061419486999512,-0.37088751792907715
1790265309055775000,3.65277490234375,-3.500699520111084,-7.625925540924072,-0.14117653667926788
1790265309073029400,3.670029296875,-4.867001056671143,-6.50608491897583,1.545763373374939
1790265309090283800,3.68728369140625,-4.46979284286499,-6.546762943267822,1.4213366508483887
1790265309107538200,3.7045380859375,-3.8213376998901367,-6.592226505279541,1.0911271572113037
1790265309124792600,3.72179248046875,-3.431307554244995,-7.482356548309326,1.098305583000183
1790265309142047000,3.739046875,-4.067798614501953,-7.8388872146606445,1.4644074440002441
1790265309159301400,3.75630126953125,-4.5583271980285645,-8.740981101989746,1.4165509939193726
1790265309176555800,3.7735556640625,-4.374079704284668,-10.258030891418457,1.1030912399291992
1790265309193810200,3.79081005859375,-1.4620146751403809,-6.508477687835693,0.5455635786056519
1790265309211064300,3.808064208984375,-0.6029912829399109,-1.4404792785644531,0.2584248483181
1790265309228318700,3.825318603515625,-0.8901300430297852,-9.997213363647461,3.3092737197875977
1790265309245573000,3.842572998046875,-3.2470602989196777,-7.733603000640869,1.9453648328781128
1790265309262827300,3.8598271484375,-4.1730828285217285,-8.243273735046387,3.8045880794525146
1790265309280081700,3.87708154296875,-5.168497085571289,-8.664410591125488,1.5314065217971802
1790265309297336000,3.894336181640625,-3.9840497970581055,-12.842279434204102,0.3565305769443512
1790265309314590500,3.911590576171875,-1.8041882514953613,-13.476377487182617,3.232703447341919
1790265309331844900,3.928844970703125,-1.9214365482330322,-10.303494453430176,2.9048867225646973
1790265309349099300,3.946099365234375,-2.227717876434326,-11.71286678314209,2.550748825073242
1790265309366353700,3.963353759765625,-2.4574289321899414,-14.60339641571045,0.638883650302887
1790265309383608000,3.980608154296875,-3.900300979614258,-14.232508659362793,0.31824541091918945
1790265309400862500,3.997862548828125,-3.4719855785369873,-11.133803367614746,0.8949156403541565
1790265309418116900,4.015116943359375,-2.0338993072509766,-8.260024070739746,3.0340991020202637
1790265309435371000,4.03237109375,-1.277767300605774,-9.927821159362793,1.4428720474243164
1790265309452625400,4.04962548828125,-2.273181438446045,-9.856036186218262,2.335394859313965
1790265309469879800,4.0668798828125,-2.431107759475708,-9.980463027954102,0.5048855543136597
1790265309487134200,4.08413427734375,-2.0889341831207275,-10.473384857177734,-0.3852444589138031
1790265309504388600,4.101388671875,-2.833101987838745,-8.779266357421875,1.031306505203247
1790265309521643000,4.11864306640625,-1.8759729862213135,-8.281558990478516,9.107083320617676
1790265309538897200,4.135897216796875,3.627519130706787,-13.095918655395508,-1.8807586431503296
1790265309556151300,4.1531513671875,1.5026925802230835,-12.268001556396484,-0.2847459018230438
1790265309573405400,4.170405517578125,-3.321237802505493,-8.621339797973633,4.5583271980285645
1790265309590659600,4.18765966796875,-2.060220241546631,-11.406585693359375,2.043470621109009
1790265309607913700,4.204913818359375,0.3684946894645691,-11.521441459655762,3.0245277881622314
1790265309625168100,4.222168212890625,-2.5986053943634033,-10.147960662841797,1.0289137363433838
1790265309642422500,4.239422607421875,-0.1698904037475586,-10.353743553161621,1.031306505203247
1790265309659676700,4.2566767578125,0.8159525394439697,-9.075976371765137,2.5196423530578613
1790265309676931000,4.27393115234375,0.3852444589138031,-6.881757736206055,4.907679080963135
1790265309694185500,4.291185546875,-0.24646073579788208,-4.709074974060059,5.85284423828125
1790265309711440000,4.30843994140625,0.9379864931106567,-3.6538400650024414,3.5270206928253174
1790265309728694300,4.3256943359375,2.0482561588287354,-5.295316696166992,1.368694543838501
1790265309745948700,4.34294873046875,-0.4163511395454407,-5.687739372253418,0.4977070987224579
1790265309763203000,4.360203125,1.2346965074539185,-6.154339790344238,1.923829436302185
1790265309780457500,4.37745751953125,1.404586911201477,-8.015955924987793,2.2636101245880127
1790265309797712000,4.3947119140625,2.3330020904541016,-12.07179069519043,1.4572290182113647
1790265309814966300,4.41196630859375,1.2562319040298462,-16.99143409729004,0.11485548317432404
1790265309832220700,4.429220703125,-14.132010459899902,-18.82672882080078,-0.7417750358581543
1790265309849474800,4.446474853515625,-3.895515203475952,-13.191631317138672,-0.7345965504646301
1790265309866729200,4.463729248046875,2.012363910675049,-9.8871431350708,-1.6055840253829956
1790265309883983600,4.480983642578125,0.7322037220001221,-6.412764549255371,0.35413774847984314
1790265309901238000,4.498238037109375,-1.2275179624557495,-5.702096462249756,2.2061824798583984
1790265309918492400,4.515492431640625,-0.9188438653945923,-8.886942863464355,4.505684852600098
1790265309935746800,4.532746826171875,-1.6845471858978271,-9.633503913879395,3.720839262008667
1790265309953001200,4.550001220703125,-3.5461630821228027,-9.616754531860352,2.280359983444214
1790265309970255600,4.567255615234375,-1.9860427379608154,-10.112068176269531,1.0169496536254883
1790265309987510000,4.584510009765625,-1.6319050788879395,-9.214759826660156,2.069791555404663
1790265310004764400,4.601764404296875,-3.014956474304199,-7.219145774841309,3.06999135017395
1790265310022018600,4.6190185546875,-2.746960401535034,-8.834300994873047,2.699103832244873
1790265310039273000,4.63627294921875,1.0097711086273193,-10.085747718811035,2.737389087677002
1790265310056527400,4.65352734375,1.1748759746551514,-7.312466144561768,3.5509488582611084
1790265310073781800,4.67078173828125,0.064606212079525,-7.850851058959961,2.562713146209717
1790265310091036200,4.6880361328125,-1.0432707071304321,-7.791030406951904,2.5459632873535156
1790265310108290600,4.70529052734375,-1.8735800981521606,-7.793423175811768,3.0101709365844727
1790265310125545000,4.722544921875,-2.4526431560516357,-9.422935485839844,1.8759729862213135
1790265310142799400,4.73979931640625,-1.9812572002410889,-9.193224906921387,1.6869399547576904
1790265310160053800,4.7570537109375,-0.9020941257476807,-10.671989440917969,1.7850457429885864
1790265310177308200,4.77430810546875,-1.1892328262329102,-10.990234375,2.550748825073242
1790265310194562300,4.791562255859375,-2.194218397140503,-11.160124778747559,2.612962245941162
1790265310211816700,4.808816650390625,-2.392822742462158,-11.700902938842773,0.7992027401924133
1790265310229071000,4.826071044921875,-1.6414763927459717,-10.669595718383789,1.550549030303955
1790265310246325500,4.843325439453125,-1.8951154947280884,-10.13599681854248,2.6177480220794678
1790265310263580000,4.860579833984375,-0.849452018737793,-8.915657043457031,4.053441524505615
1790265310280834300,4.877834228515625,0.15074782073497772,-9.17886734008789,2.328216314315796
1790265310298088700,4.895088623046875,-0.2153540402650833,-10.088140487670898,1.919043779373169
1790265310315342800,4.9123427734375,0.97148597240448,-9.604789733886719,3.074777126312256
1790265310332597000,4.929596923828125,-1.3232308626174927,-9.29611587524414,4.132404804229736
1790265310349851400,4.946851318359375,-0.21774685382843018,-9.908679008483887,3.4432718753814697
1790265310367105500,4.96410546875,-0.035892341285943985,-10.408778190612793,1.8831514120101929
1790265310384359700,4.981359619140625,0.46899324655532837,-9.363115310668945,2.53399920463562
1790265310401613800,4.99861376953125,0.3158525824546814,-9.004191398620605,2.4335005283355713
1790265310418868200,5.0158681640625,-0.14356936514377594,-8.628518104553223,2.5986053943634033
1790265310436122400,5.033122314453125,0.5455635786056519,-8.188239097595215,2.210968017578125
1790265310453376800,5.050376708984375,0.2273181527853012,-11.310873031616211,0.9260223507881165
1790265310470631200,5.067631103515625,-2.7828526496887207,-12.483355522155762,0.5742774605751038
1790265310487885600,5.084885498046875,-3.3068809509277344,-12.177074432373047,2.9240293502807617
1790265310505140000,5.102139892578125,-1.7587246894836426,-10.64088249206543,4.4243292808532715
1790265310522394400,5.119394287109375,0.6556333899497986,-6.010770320892334,0.34695929288864136
1790265310539648800,5.136648681640625,1.5098711252212524,-7.410571575164795,-0.1052841991186142
1790265310556903200,5.153903076171875,-0.02392822690308094,-7.09711217880249,0.14117653667926788
1790265310574157600,5.171157470703125,-1.8735800981521606,-8.291130065917969,3.3092737197875977
1790265310591412000,5.188411865234375,-9.578469276428223,-6.721438884735107,9.401400566101074
1790265310608666000,5.205666015625,-7.83410120010376,-11.102697372436523,11.404192924499512
1790265310625920500,5.22292041015625,-3.9050865173339844,-7.262216567993164,8.48016357421875
1790265310643175000,5.2401748046875,1.8783657550811768,-9.322437286376953,4.7952165603637695
1790265310660429300,5.25742919921875,-1.7994025945663452,-10.870593070983887,3.680161237716675
1790265310677683700,5.27468359375,-0.5335994362831116,-10.396814346313477,4.756931304931641
1790265310694938000,5.291938232421875,-3.548556089401245,-8.781659126281738,4.862215518951416
1790265310712192500,5.309192626953125,-1.7922241687774658,-8.662017822265625,3.2039895057678223
1790265310729447000,5.326447021484375,-1.765903115272522,-9.80100154876709,1.5696916580200195
1790265310746701300,5.343701416015625,-4.1970109939575195,-11.248659133911133,0.4666004180908203
1790265310763955700,5.360955810546875,-4.610969066619873,-12.000005722045898,0.550349235534668
1790265310781209900,5.3782099609375,-4.534399032592773,-11.205588340759277,0.7704889178276062
1790265310798464300,5.39546435546875,-4.838287353515625,-9.509077072143555,2.273181438446045
1790265310815718700,5.41271875,-4.249652862548828,-7.800601959228516,4.211368083953857
1790265310832972800,5.429972900390625,-3.682554006576538,-6.4510498046875,4.984249591827393
1790265310850227000,5.44722705078125,-4.185046672821045,-5.247459888458252,4.35254430770874
1790265310867481000,5.464481201171875,-4.890929698944092,-4.687539577484131,3.4504501819610596
1790265310884735200,5.4817353515625,-5.44845724105835,-5.3694939613342285,3.85483717918396
1790265310901989400,5.4989892578125,-6.7310099601745605,-6.465406894683838,4.295116424560547
1790265310919243800,5.516243896484375,-4.620540618896484,-4.321437835693359,3.6155550479888916
1790265310936498200,5.533498291015625,-6.1399827003479,-8.774480819702148,2.2851455211639404
1790265310953752600,5.550752685546875,-3.737588882446289,-9.008976936340332,3.0269205570220947
1790265310971007000,5.568007080078125,-8.772088050842285,-9.040083885192871,4.551148891448975
1790265310988261400,5.585261474609375,-10.837093353271484,-8.616554260253906,5.804987907409668
1790265311005515800,5.602515869140625,-8.827122688293457,-8.212167739868164,6.606583118438721
1790265311022770000,5.61977001953125,-6.616154670715332,-7.264609336853027,8.147561073303223
1790265311040024300,5.6370244140625,-6.4510498046875,-6.6113691329956055,6.714260101318359
1790265311057278700,5.65427880859375,-6.733402729034424,-7.752745151519775,5.7786664962768555
1790265311074533000,5.671533203125,-7.601997375488281,-6.977470874786377,6.642475605010986
1790265311091787500,5.68878759765625,-7.365108013153076,-5.364708423614502,6.10169792175293
1790265311109042000,5.7060419921875,-8.068597793579102,-6.03948450088501,7.944170951843262
1790265311126296300,5.72329638671875,-7.874779224395752,-5.19242525100708,7.159325122833252
1790265311143550700,5.74055078125,-6.5252275466918945,-4.170690059661865,5.304887771606445
1790265311160805000,5.75780517578125,-6.695117950439453,-3.737588882446289,4.295116424560547
1790265311178059500,5.7750595703125,-6.290730953216553,-3.0891339778900146,3.9050865173339844
1790265311195313700,5.792313720703125,-6.620940208435059,-2.770888566970825,3.2446675300598145
1790265311212568000,5.809568115234375,-7.015756130218506,-2.589034080505371,3.524627685546875
1790265311229822500,5.826822509765625,-7.51585578918457,-2.2612173557281494,4.158725738525391
1790265311247076900,5.844076904296875,-7.288537979125977,-2.407179594039917,4.701896667480469
1790265311264331300,5.861331298828125,-7.793423175811768,-2.8905298709869385,4.319045066833496
1790265311281585700,5.878585693359375,-8.496912956237793,-4.838287353515625,4.773681163787842
1790265311298840000,5.895840087890625,-7.2813591957092285,-1.1485549211502075,5.627918720245361
1790265311316094200,5.91309423828125,-7.8819580078125,-0.46899324655532837,3.7256247997283936
1790265311333348400,5.930348388671875,-8.449056625366211,0.7322037220001221,2.4741785526275635
1790265311350602500,5.9476025390625,-7.054041385650635,2.9288148880004883,1.7802600860595703
1790265311367856600,5.964856689453125,-7.216753005981445,1.1102696657180786,0.7728816866874695
1790265311385110800,5.98211083984375,-6.874579429626465,-1.734796404838562,1.3495519161224365
1790265311402365200,5.999365234375,-7.001399040222168,-2.0745773315429688,2.644068956375122
1790265311419619300,6.016619384765625,-7.058826923370361,-1.4380863904953003,3.2279176712036133
1790265311436873700,6.033873779296875,-6.654439926147461,-0.4905286431312561,3.4002010822296143
1790265311454128000,6.051128173828125,-5.795416355133057,0.4450650215148926,2.8977081775665283
1790265311471382500,6.068382568359375,-6.321837425231934,1.1318050622940063,2.7637102603912354
1790265311488637000,6.085636962890625,-6.814758777618408,1.3471591472625732,1.9764715433120728
1790265311505891300,6.102891357421875,-6.570691108703613,1.4189438819885254,1.3543375730514526
1790265311523145700,6.120145751953125,-6.8004021644592285,1.4739787578582764,2.1822543144226074
1790265311540400000,6.137400146484375,-6.623332977294922,1.34476637840271,2.8498518466949463
1790265311557654500,6.154654541015625,-6.343372821807861,0.851844847202301,2.4909284114837646
1790265311574909000,6.171908935546875,-6.491727828979492,0.5910272002220154,2.8977081775665283
1790265311592163300,6.189163330078125,-6.331408500671387,0.2512463629245758,3.6634113788604736
1790265311609417500,6.20641748046875,-6.3840508460998535,-0.1052841991186142,4.201796531677246
1790265311626671900,6.223671875,-6.403193473815918,-0.3445664644241333,4.862215518951416
1790265311643926300,6.24092626953125,-6.020341873168945,-0.5742774605751038,4.398007869720459
1790265311661180700,6.2581806640625,-6.522834300994873,-1.215553879737854,4.106083869934082
1790265311678435000,6.27543505859375,-6.106483459472656,-1.7324036359786987,4.60139799118042
1790265311695689500,6.292689453125,-6.8865437507629395,-2.1439690589904785,4.658825874328613
1790265311712943900,6.30994384765625,-6.5252275466918945,-2.3856441974639893,4.938786029815674
1790265311730198300,6.3271982421875,-6.116054534912109,-3.022135019302368,4.706682205200195
1790265311747452700,6.34445263671875,-6.965506553649902,-3.601198196411133,5.027320384979248
1790265311764707000,6.36170703125,-7.451249599456787,-3.9672999382019043,4.967499732971191
1790265311781961200,6.378961181640625,-7.814958572387695,-4.639683246612549,5.161318302154541
1790265311799215600,6.396215576171875,-6.592226505279541,-5.123033046722412,5.216353416442871
1790265311816469800,6.4134697265625,-7.573283672332764,-5.371886730194092,4.910071849822998
1790265311833724000,6.430723876953125,-7.956135272979736,-5.283352375030518,5.0464630126953125
1790265311850978000,6.44797802734375,-7.858029365539551,-5.79063081741333,5.4556355476379395
1790265311868232400,6.465232421875,-6.872186660766602,-5.994020938873291,5.86002254486084
1790265311885486600,6.482486572265625,-6.915257453918457,-6.288337707519531,5.426921844482422
1790265311902740700,6.49974072265625,-5.891129493713379,-6.474977970123291,5.575276851654053
1790265311919995100,6.5169951171875,-5.37906551361084,-6.357729911804199,5.398207664489746
1790265311937249500,6.53424951171875,-6.003592014312744,-6.63769006729126,5.84566593170166
1790265311954504000,6.55150390625,-6.415157318115234,-7.04207706451416,5.759523868560791
1790265311971758300,6.56875830078125,-6.601797580718994,-7.625925540924072,6.477370738983154
1790265311989012700,6.5860126953125,-6.156732559204102,-7.716853141784668,7.1234331130981445
1790265312006267000,6.603266845703125,-6.041877269744873,-8.018348693847656,7.427321434020996
1790265312023521300,6.620521240234375,-5.879165172576904,-8.176275253295898,7.168896675109863
1790265312040775700,6.637775634765625,-6.142375946044922,-8.066205024719238,7.0755767822265625
1790265312058030000,6.655030029296875,-6.685546398162842,-8.405985832214355,7.039684295654297
1790265312075284500,6.672284423828125,-5.934200286865234,-7.908278942108154,6.551548480987549
1790265312092539000,6.689538818359375,-5.376672267913818,-8.183453559875488,6.161518096923828
1790265312109793300,6.706793212890625,-5.460421085357666,-8.197810173034668,5.627918720245361
1790265312127047700,6.724047607421875,-5.905486106872559,-7.905886173248291,5.161318302154541
1790265312144302000,6.741302001953125,-5.718846321105957,-7.877171993255615,4.9124650955200195
1790265312161556500,6.758556396484375,-6.300302028656006,-8.13081169128418,4.792823791503906
1790265312178811000,6.775810791015625,-6.565905570983887,-7.984848976135254,4.694717884063721
1790265312196065000,6.79306494140625,-5.989234924316406,-7.905886173248291,4.797609329223633
1790265312213319200,6.810319091796875,-5.163711071014404,-7.601997375488281,4.797609329223633
1790265312230573300,6.8275732421875,-4.548755645751953,-7.355536937713623,4.163511276245117
1790265312247827500,6.844827392578125,-4.811966419219971,-7.427321434020996,3.9984066486358643
1790265312265081900,6.862081787109375,-5.682953834533691,-7.642675399780273,4.6995038986206055
1790265312282336000,6.8793359375,-7.04207706451416,-7.716853141784668,5.704489231109619
1790265312299590100,6.896590087890625,-7.109076023101807,-7.685746192932129,6.419943332672119
1790265312316844500,6.913844482421875,-6.6352972984313965,-7.683353424072266,6.410371780395508
1790265312334099000,6.931098876953125,-7.183253765106201,-6.599404811859131,6.273981094360352
1790265312351353300,6.948353271484375,-6.903293132781982,-6.369693756103516,6.472585201263428
1790265312368607700,6.965607666015625,-5.106283664703369,-6.999006271362305,6.206982135772705
1790265312385862100,6.982862060546875,-5.4173502922058105,-6.991827964782715,6.022734642028809
1790265312403116500,7.000116455078125,-6.664011001586914,-6.879364967346191,6.247660160064697
1790265312420370700,7.01737060546875,-7.57806921005249,-6.537191390991211,6.422336101531982
1790265312437625000,7.034625,-7.29810905456543,-6.6113691329956055,6.991827964782715
1790265312454879500,7.05187939453125,-7.10429048538208,-6.970292568206787,6.872186660766602
1790265312472134000,7.0691337890625,-6.017949104309082,-5.515456199645996,6.1950178146362305
1790265312489388300,7.08638818359375,-6.903293132781982,-4.541577339172363,5.85284423828125
1790265312506642700,7.103642578125,-7.341179847717285,-4.333401679992676,5.19960355758667
1790265312523897000,7.12089697265625,-7.094718933105469,-4.311866283416748,4.902893543243408
1790265312541151500,7.1381513671875,-7.566105365753174,-4.543970108032227,4.9531426429748535
1790265312558406000,7.155406005859375,-7.9250288009643555,-4.634897232055664,5.252245903015137
1790265312575660300,7.172660400390625,-8.042277336120605,-4.433900356292725,5.166104316711426
1790265312592914400,7.18991455078125,-7.999206066131592,-4.034298896789551,5.00578498840332
1790265312610168600,7.20716845703125,-8.310273170471191,-3.713660717010498,5.051248550415039
1790265312627422700,7.224422607421875,-7.183253765106201,-2.723032236099243,4.898108005523682
1790265312644677000,7.241677001953125,-6.750152587890625,-2.0195422172546387,3.838087558746338
1790265312661931300,7.25893115234375,-6.996613502502441,-2.4717857837677,2.9934210777282715
1790265312679185400,7.276185302734375,-7.274180889129639,-2.445464849472046,3.82373046875
1790265312696439600,7.293439453125,-8.023134231567383,-2.3617160320281982,4.335794448852539
1790265312713694000,7.31069384765625,-8.681160926818848,-2.5124638080596924,4.146761417388916
1790265312730948400,7.3279482421875,-6.50608491897583,-2.6560330390930176,3.5150563716888428
1790265312748202800,7.34520263671875,-7.223931789398193,-2.4047868251800537,3.4097721576690674
1790265312765457200,7.36245703125,-7.561319351196289,-1.7060825824737549,2.5052852630615234
1790265312782711600,7.379711669921875,-6.795616149902344,-1.2203395366668701,2.335394859313965
1790265312799966000,7.396966064453125,-6.5874409675598145,-0.8805587291717529,2.139183521270752
1790265312817220400,7.414220458984375,-6.187839508056641,-0.2847459018230438,2.2325034141540527
1790265312834474500,7.431474609375,-5.663811206817627,0.48095735907554626,1.648654818534851
1790265312851729000,7.44872900390625,-5.974878311157227,1.2634103298187256,1.074377417564392
1790265312868983300,7.4659833984375,-5.9509501457214355,1.5553346872329712,1.5146567821502686
1790265312886237700,7.48323779296875,-5.6925249099731445,1.5170495510101318,1.8472590446472168
1790265312903491800,7.500491943359375,-5.414957523345947,1.1988041400909424,1.9334007501602173
1790265312920746000,7.51774609375,-5.682953834533691,1.129412293434143,1.275374412536621
1790265312938000100,7.535000244140625,-6.960721015930176,0.8398807644844055,2.5459632873535156
1790265312955254500,7.552254638671875,-6.884150981903076,0.4211367964744568,2.9623143672943115
1790265312972508700,7.5695087890625,-5.697310924530029,0.3756731450557709,2.940778970718384
1790265312989762800,7.5867626953125,-6.539584159851074,-1.0001999139785767,3.239881753921509
1790265313007017200,7.604017333984375,-7.161718368530273,-0.9188438653945923,3.3571300506591797
1790265313024271600,7.621271728515625,-6.412764549255371,-1.3902299404144287,4.192225456237793
1790265313041526000,7.638526123046875,-5.91505765914917,-1.8041882514953613,4.467400074005127
1790265313058780400,7.655780517578125,-5.931807518005371,-2.526820659637451,4.043870449066162
1790265313076034600,7.67303466796875,-6.503692150115967,-2.998206853866577,3.78544545173645
1790265313093289000,7.6902890625,-6.537191390991211,-3.218346357345581,3.761517286300659
1790265313110543400,7.70754345703125,-7.087540626525879,-3.6059837341308594,3.957728624343872
1790265313127797800,7.7247978515625,-7.465606689453125,-4.187439441680908,4.108476638793945
1790265313145052200,7.74205224609375,-8.37966537475586,-5.144568920135498,5.034498691558838
1790265313162306600,7.759306640625,-7.781459331512451,-5.247459888458252,5.527420520782471
1790265313179561000,7.77656103515625,-7.910671710968018,-5.663811206817627,5.5106706619262695
1790265313196815000,7.793815185546875,-6.702296257019043,-6.0538411140441895,6.206982135772705
1790265313214069200,7.8110693359375,-7.984848976135254,-6.647261142730713,6.197410583496094
1790265313231323400,7.828323486328125,-6.781259536743164,-7.465606689453125,6.142375946044922
1790265313248577500,7.84557763671875,-6.994220733642578,-7.300501823425293,5.699703693389893
1790265313265831700,7.862831787109375,-6.783652305603027,-6.812366008758545,5.929414749145508
1790265313283086000,7.880086181640625,-7.238288402557373,-6.6352972984313965,5.958128452301025
1790265313300340200,7.89734033203125,-6.463014125823975,-7.154539585113525,5.86002254486084
1790265313317594600,7.9145947265625,-6.211767673492432,-7.293323516845703,4.989035129547119
1790265313334849000,7.93184912109375,-4.989035129547119,-7.355536937713623,5.551348686218262
1790265313352103400,7.949103515625,-7.171289443969727,-7.57806921005249,6.64486837387085
1790265313369357800,7.96635791015625,-6.537191390991211,-7.719245910644531,6.2668023109436035
1790265313386612200,7.9836123046875,-6.496513366699219,-8.181060791015625,6.128018856048584
1790265313403866600,8.00086669921875,-6.290730953216553,-8.614161491394043,5.855237007141113
1790265313421121000,8.01812109375,-5.9676995277404785,-8.982656478881836,5.704489231109619
1790265313438375400,8.03537548828125,-6.094519138336182,-9.489934921264648,5.441278457641602
1790265313455629800,8.0526298828125,-6.273981094360352,-9.626325607299805,5.173282623291016
1790265313472884000,8.069884033203126,-6.38883638381958,-9.22433090209961,5.154139995574951
1790265313490138400,8.087138427734375,-6.348158359527588,-9.049654960632324,5.290530681610107
1790265313507392500,8.104392578125,-6.290730953216553,-8.724231719970703,4.972285270690918
1790265313524646700,8.121646728515625,-6.350551128387451,-8.396414756774902,4.225724697113037
1790265313541900800,8.13890087890625,-6.226124286651611,-8.271987915039062,4.182653903961182
1790265313559155000,8.156155029296874,-5.7619171142578125,-8.288737297058105,4.48414945602417
1790265313576409000,8.1734091796875,-5.429314613342285,-7.95134973526001,4.687539577484131
1790265313593663500,8.19066357421875,-5.364708423614502,-7.36032247543335,4.960321426391602
1790265313610918000,8.20791796875,-5.6590256690979,-7.135396957397461,5.352744102478027
1790265313628172300,8.22517236328125,-5.589633464813232,-7.487142086029053,5.44845724105835
1790265313645426700,8.2424267578125,-6.26440954208374,-7.934599876403809,5.383851051330566
1790265313662681000,8.25968115234375,-6.881757736206055,-7.6474609375,5.314459323883057
1790265313679935500,8.276935546875,-6.577869415283203,-6.943971157073975,5.010570526123047
1790265313697189600,8.294189697265624,-6.005984783172607,-6.273981094360352,5.61116886138916
1790265313714443800,8.31144384765625,-6.795616149902344,-5.948556900024414,7.460821151733398
1790265313731698000,8.328697998046875,-7.121040344238281,-5.931807518005371,8.518448829650879
1790265313748952000,8.3459521484375,-6.91765022277832,-6.175875186920166,7.8819580078125
1790265313766206200,8.363206298828125,-6.429514408111572,-6.192625045776367,6.252445697784424
1790265313783460400,8.38046044921875,-6.7621169090271,-6.020341873168945,5.718846321105957
1790265313800714800,8.39771484375,-7.35314416885376,-5.72123908996582,6.273981094360352
1790265313817969200,8.41496923828125,-7.980063438415527,-5.414957523345947,6.8171515464782715
1790265313835223600,8.4322236328125,-7.539783954620361,-5.082355499267578,6.20219612121582
1790265313852478000,8.44947802734375,-7.637889862060547,-4.66361141204834,5.26181697845459
1790265313869732400,8.466732421875,-7.922635555267334,-4.0797624588012695,4.833501815795898
1790265313886986800,8.48398681640625,-6.455835342407227,-3.3236305713653564,4.541577339172363
1790265313904241200,8.5012412109375,-6.884150981903076,-2.746960401535034,4.4482574462890625
1790265313921495600,8.51849560546875,-6.788437843322754,-2.7589244842529297,4.780859470367432
1790265313938749700,8.535749755859374,-7.051648139953613,-3.13220477104187,4.783252239227295
1790265313956004000,8.553004150390626,-7.733603000640869,-2.837887763977051,4.989035129547119
1790265313973258500,8.570258544921876,-8.796015739440918,-3.0628130435943604,5.209175109863281
1790265313990513000,8.587512939453125,-8.791230201721191,-3.304488182067871,4.54636287689209
1790265314007767000,8.60476708984375,-7.8795647621154785,-3.16331148147583,4.622933387756348
1790265314025021200,8.622021240234375,-7.994420528411865,-2.4981069564819336,5.123033046722412
1790265314042275300,8.639275390625,-7.908278942108154,-2.1846470832824707,4.005585193634033
1790265314059529500,8.656529541015624,-6.379265308380127,-1.7132610082626343,2.912065267562866
1790265314076783600,8.67378369140625,-4.969892501831055,-1.2370892763137817,1.6558332443237305
1790265314094038000,8.6910380859375,-4.934000492095947,-0.5144568681716919,0.8925228714942932
1790265314111292400,8.70829248046875,-4.551148891448975,0.6652047038078308,0.45942193269729614
1790265314128546800,8.725546875,-4.323830604553223,1.734796404838562,0.2105683982372284
1790265314145801200,8.74280126953125,-4.486542224884033,1.887937068939209,0.2560320198535919
1790265314163055600,8.7600556640625,-5.7547383308410645,1.7156537771224976,0.7776673436164856
1790265314180309800,8.777309814453124,-6.357729911804199,1.4069796800613403,1.9142581224441528
1790265314197564000,8.79456396484375,-6.295516490936279,1.1102696657180786,2.423929452896118
1790265314214818000,8.811818115234376,-6.752545356750488,0.5647061467170715,2.833101987838745
1790265314232072400,8.829072509765625,-5.807380676269531,0.3565305769443512,3.0388846397399902
1790265314249326600,8.84632666015625,-5.295316696166992,0.20578274130821228,3.13220477104187
1790265314266580700,8.863580810546875,-5.759523868560791,-0.34217363595962524,3.0795626640319824
1790265314283835000,8.8808349609375,-5.934200286865234,-0.6173482537269592,3.1800613403320312
1790265314301089300,8.89808935546875,-5.697310924530029,-0.8638089895248413,3.9218363761901855
1790265314318343700,8.91534375,-6.585047721862793,-1.31365966796875,4.498506546020508
1790265314335598000,8.93259814453125,-5.61116886138916,-1.9405791759490967,4.711467742919922
1790265314352852500,8.9498525390625,-4.962714195251465,-2.699103832244873,4.852644443511963
1790265314370107000,8.96710693359375,-6.781259536743164,-3.603590965270996,4.886143684387207
1790265314387361000,8.984361083984375,-7.211967468261719,-4.264009952545166,4.409972190856934
1790265314404615200,9.001615234375,-7.4847493171691895,-4.457828521728516,4.3549370765686035
1790265314421869300,9.018869384765624,-7.848458290100098,-4.744967460632324,4.716253280639648
1790265314439123500,9.03612353515625,-7.293323516845703,-5.242674350738525,4.826323509216309
1790265314456377600,9.053377685546875,-6.943971157073975,-5.78345251083374,4.969892501831055
1790265314473631700,9.0706318359375,-7.377072334289551,-6.592226505279541,5.063212871551514
1790265314490886100,9.08788623046875,-8.133204460144043,-7.027719974517822,5.733202934265137
1790265314508140500,9.105140625,-7.283751964569092,-7.929814338684082,5.828916072845459
1790265314525395000,9.12239501953125,-6.429514408111572,-8.338987350463867,5.745167255401611
1790265314542649300,9.1396494140625,-5.807380676269531,-7.936992645263672,5.8097734451293945
1790265314559903700,9.15690380859375,-6.415157318115234,-7.475177764892578,5.6925249099731445
1790265314577158100,9.174158203125,-6.675975322723389,-7.003791809082031,5.553741455078125
1790265314594412500,9.19141259765625,-6.922435760498047,-6.8171515464782715,5.793023586273193
1790265314611667000,9.2086669921875,-7.434499740600586,-6.786045074462891,5.802595138549805
1790265314628921300,9.22592138671875,-7.077969551086426,-7.479963779449463,5.8719868659973145
1790265314646175500,9.243175537109375,-6.065805435180664,-8.69791030883789,6.068198204040527
1790265314663430000,9.260429931640624,-6.374479293823242,-9.32722282409668,6.008377552032471
1790265314680684300,9.277684326171874,-7.0301127433776855,-9.604789733886719,5.759523868560791
1790265314697938400,9.2949384765625,-7.0923261642456055,-9.554540634155273,5.608776092529297
1790265314715192600,9.312192626953125,-6.539584159851074,-9.22433090209961,5.213960647583008
1790265314732446700,9.32944677734375,-6.199803352355957,-8.49452018737793,4.374079704284668
1790265314749700900,9.346700927734375,-6.63051176071167,-8.286344528198242,4.029513359069824
1790265314766955000,9.363955078125,-6.951149940490723,-8.405985832214355,4.232903480529785
1790265314784209400,9.38120947265625,-6.857829570770264,-8.61176872253418,4.890929698944092
1790265314801463800,9.3984638671875,-6.290730953216553,-8.525627136230469,5.197210788726807
1790265314818718200,9.41571826171875,-5.606383323669434,-8.09252643585205,5.003392219543457
1790265314835972600,9.43297265625,-5.185246467590332,-7.791030406951904,4.730610370635986
1790265314853227000,9.45022705078125,-4.984249591827393,-7.5708909034729,4.668396949768066
1790265314870481400,9.4674814453125,-5.312066078186035,-7.6737823486328125,4.807180881500244
1790265314887735600,9.484735595703125,-5.1804609298706055,-7.829315662384033,4.835894584655762
1790265314904989700,9.50198974609375,-5.54177713394165,-7.623532772064209,5.178068161010742
1790265314922243800,9.519243896484374,-7.183253765106201,-7.369893550872803,6.0370917320251465
1790265314939498000,9.536498046875,-8.209774017333984,-7.439285755157471,7.369893550872803
1790265314956752100,9.553752197265625,-7.226324558258057,-7.824530124664307,8.279166221618652
1790265314974006300,9.57100634765625,-7.472784996032715,-7.884350776672363,7.518248558044434
1790265314991260700,9.5882607421875,-7.381857872009277,-7.221538543701172,6.738188743591309
1790265315008515000,9.60551513671875,-5.996413707733154,-5.972485542297363,6.367300987243652
1790265315025769500,9.62276953125,-5.814558982849121,-4.809573650360107,5.9509501457214355
1790265315043024000,9.64002392578125,-7.336394309997559,-4.153940200805664,6.092126369476318
1790265315060278300,9.6572783203125,-8.049455642700195,-4.486542224884033,6.869793891906738
1790265315077532400,9.674532470703125,-6.285944938659668,-5.249852657318115,6.0370917320251465
1790265315094786600,9.69178662109375,-7.211967468261719,-5.237888813018799,5.44845724105835
1790265315112040700,9.709040771484375,-8.638090133666992,-4.682754039764404,5.764309883117676
1790265315129295000,9.726295166015625,-7.592426300048828,-4.182653903961182,5.589633464813232
1790265315146549200,9.74354931640625,-7.109076023101807,-3.94815731048584,4.728217601776123
1790265315163803400,9.760803466796874,-7.546962738037109,-3.4887354373931885,4.362115859985352
1790265315181057500,9.7780576171875,-7.7838521003723145,-3.029313564300537,4.333401679992676
1790265315198312000,9.79531201171875,-7.491927623748779,-2.8594231605529785,4.508078098297119
1790265315215566300,9.81256640625,-7.767102241516113,-2.6703901290893555,4.9531426429748535
1790265315232820700,9.82982080078125,-7.81974458694458,-2.4741785526275635,5.1804609298706055
1790265315250075100,9.8470751953125,-5.874379634857178,-2.9240293502807617,5.008177757263184
1790265315267329500,9.86432958984375,-5.577669620513916,-3.3068809509277344,4.565505504608154
1790265315284583700,9.881583740234374,-6.915257453918457,-3.290131092071533,4.4961137771606445
1790265315301837800,9.898837890625,-6.362515449523926,-1.6534404754638672,2.321038007736206
1790265315319092000,9.916092041015625,-6.1399827003479,0.576670229434967,0.729810893535614
1790265315336346000,9.93334619140625,-5.8097734451293945,1.770688772201538,0.24646073579788208
1790265315353600300,9.950600341796875,-6.2428741455078125,1.6271194219589233,0.14117653667926788
1790265315370854700,9.967854736328125,-5.6207404136657715,0.6795616149902344,0.23449662327766418
1790265315388109000,9.985109130859374,-4.534399032592773,0.45942193269729614,0.8733802437782288
1790265315405363200,10.00236328125,-5.3312087059021,0.44027936458587646,0.7872386574745178
1790265315422617600,10.01961767578125,-5.084748268127441,1.4117653369903564,0.6484549641609192
1790265315439872000,10.0368720703125,-4.984249591827393,1.3351950645446777,1.0408778190612793
1790265315457126400,10.05412646484375,-5.333601474761963,0.3924229145050049,1.2346965074539185
1790265315474380800,10.071380859375,-5.642275810241699,-0.48574298620224,1.1868400573730469
1790265315491635000,10.088635009765625,-5.711667537689209,-1.0097711086273193,2.0554347038269043
1790265315508889000,10.10588916015625,-6.620940208435059,-0.9451649188995361,2.770888566970825
1790265315526143200,10.123143310546874,-7.130611419677734,-1.069591760635376,3.462414264678955
1790265315543397400,10.1403974609375,-6.058627128601074,-1.4979069232940674,3.625126361846924
1790265315560651500,10.157651611328125,-6.716653347015381,-1.8711873292922974,3.4983067512512207
1790265315577906000,10.174906005859375,-7.805387496948242,-2.366501569747925,3.5341989994049072
1790265315595160300,10.192160400390625,-7.051648139953613,-3.0652058124542236,4.18983268737793
1790265315612414700,10.209414794921875,-6.821937561035156,-3.84765887260437,4.328616142272949
1790265315629668900,10.2266689453125,-7.051648139953613,-5.13739013671875,4.754538536071777
1790265315646923300,10.24392333984375,-7.267002582550049,-6.324230194091797,5.429314613342285
1790265315664177700,10.261177734375,-6.838686943054199,-6.963113784790039,5.426921844482422
1790265315681431800,10.278431884765626,-5.97727108001709,-7.271788120269775,4.893322467803955
1790265315698686000,10.29568603515625,-6.372086524963379,-7.479963779449463,5.0225348472595215
1790265315715940400,10.3129404296875,-6.723831653594971,-7.45364236831665,5.697310924530029
1790265315733194500,10.330194580078125,-6.087340831756592,-7.128218650817871,4.869394302368164
1790265315750448600,10.34744873046875,-7.544569969177246,-6.537191390991211,3.4193434715270996
1790265315767702800,10.364702880859374,-7.690532207489014,-6.149554252624512,3.311666488647461
1790265315784957200,10.381957275390626,-8.477770805358887,-6.704689025878906,4.4410786628723145
1790265315802211600,10.399211669921876,-7.8077802658081055,-8.183453559875488,6.116054534912109
1790265315819466000,10.416466064453125,-7.357929706573486,-10.459028244018555,7.41535758972168
1790265315836720400,10.433720458984375,-6.527620315551758,-11.949756622314453,8.090133666992188
1790265315853974800,10.450974853515625,-6.4701924324035645,-11.686545372009277,7.9489569664001465
1790265315871229000,10.46822900390625,-6.254838466644287,-9.741181373596191,8.432307243347168
1790265315888483000,10.485483154296874,-5.773880958557129,-7.195217609405518,8.078168869018555
1790265315905737200,10.5027373046875,-5.72123908996582,-5.00578498840332,7.448856830596924
1790265315922991400,10.519991455078125,-5.953342914581299,-3.7806596755981445,6.072983741760254
1790265315940245500,10.53724560546875,-5.6446685791015625,-3.8045880794525146,4.823930263519287
1790265315957499600,10.554499755859375,-5.819344520568848,-5.577669620513916,5.053641319274902
1790265315974754000,10.571754150390625,-6.427121639251709,-8.295916557312012,6.116054534912109
1790265315992008400,10.589008544921874,-6.455835342407227,-9.891928672790527,5.938985824584961
1790265316009262800,10.606262939453124,-6.477370738983154,-10.801201820373535,4.986642360687256
1790265316026517200,10.623517333984376,-5.429314613342285,-10.614561080932617,4.431507587432861
1790265316043771600,10.640771728515626,-5.2354960441589355,-9.040083885192871,4.529613494873047
1790265316061026000,10.658026123046875,-6.618547439575195,-7.917850017547607,4.941178798675537
1790265316078280200,10.6752802734375,-7.728816986083984,-7.810173034667969,5.522634506225586
1790265316095534300,10.692534423828125,-6.97986364364624,-8.10688304901123,6.664011001586914
1790265316112788500,10.70978857421875,-5.900700569152832,-8.427521705627441,7.1162543296813965
1790265316130042600,10.727042724609374,-6.025127410888672,-8.49452018737793,7.008577346801758
1790265316147296800,10.744296875,-6.364908218383789,-7.601997375488281,6.343372821807861
1790265316164551000,10.761551025390625,-6.329015731811523,-6.5419769287109375,5.72123908996582
1790265316181805300,10.778805419921875,-5.642275810241699,-5.663811206817627,5.19960355758667
1790265316199059700,10.796059814453125,-6.1399827003479,-5.1182475090026855,5.096712112426758
1790265316216314000,10.813314208984375,-7.805387496948242,-4.941178798675537,5.706881999969482
1790265316233568500,10.830568603515625,-8.415556907653809,-5.072783946990967,6.376872539520264
1790265316250823000,10.847822998046874,-6.805187702178955,-5.065605640411377,6.235695838928223
1790265316268077000,10.8650771484375,-6.912864685058594,-5.065605640411377,6.527620315551758
1790265316285331500,10.88233154296875,-8.63330364227295,-5.828916072845459,7.113861560821533
1790265316302585600,10.899585693359375,-8.190631866455078,-6.778866767883301,7.245467185974121
1790265316319839700,10.91683984375,-8.288737297058105,-6.745367050170898,6.7621169090271
1790265316337094000,10.934093994140625,-9.07119083404541,-6.106483459472656,6.563512325286865
1790265316354348000,10.95134814453125,-7.822137355804443,-5.613562107086182,6.489335060119629
1790265316371602400,10.9686025390625,-6.262016773223877,-4.783252239227295,5.6207404136657715
1790265316388856600,10.985856689453126,-6.819544315338135,-3.706482172012329,4.275974273681641
1790265316406111000,11.003111083984376,-6.345765590667725,-3.0652058124542236,3.2709884643554688
1790265316423365400,11.020365478515625,-4.790431022644043,-2.8689942359924316,2.4717857837677
1790265316440619800,11.037619873046875,-4.878965377807617,-2.7900311946868896,1.2131611108779907
1790265316457874200,11.054874267578125,-5.544169902801514,-2.730210542678833,0.1052841991186142
1790265316475128300,11.07212841796875,-5.690132141113281,-2.2372891902923584,-0.3206382393836975
1790265316492382500,11.089382568359374,-6.666403770446777,-0.5623133182525635,-0.08135596662759781
1790265316509636600,11.10663671875,-6.1399827003479,0.49292147159576416,0.8662018179893494
1790265316526890800,11.123890869140626,-6.223731517791748,-0.0526420995593071,1.428515076637268
1790265316544145200,11.141145263671875,-6.1328043937683105,-0.5240281820297241,1.5290136337280273
1790265316561399300,11.1583994140625,-7.357929706573486,-0.13878370821475983,0.8327022790908813
1790265316578653400,11.1756533203125,-7.23589563369751,1.399801254272461,1.552941918373108
1790265316595907600,11.192907470703124,-5.855237007141113,1.7730815410614014,1.8424733877182007
1790265316613161700,11.21016162109375,-5.123033046722412,0.8207381963729858,1.8041882514953613
1790265316630416000,11.227415771484376,-5.737988471984863,-0.3158525824546814,0.5072783827781677
1790265316647670000,11.244669921875,-5.498706340789795,-0.5168496966362,0.2105683982372284
1790265316664924400,11.26192431640625,-5.556134223937988,0.17228323221206665,0.6269195079803467
1790265316682178600,11.279178466796875,-5.709274768829346,0.5886343717575073,2.0985054969787598
1790265316699433000,11.296432861328125,-6.187839508056641,0.4977070987224579,2.8115665912628174
1790265316716687400,11.313687255859374,-5.66620397567749,-0.1818545162677765,3.232703447341919
1790265316733941800,11.330941650390624,-6.015556335449219,-1.179661512374878,3.1489546298980713
1790265316751196200,11.348196044921876,-6.362515449523926,-1.9405791759490967,3.1585259437561035
1790265316768450300,11.3654501953125,-6.25723123550415,-2.3736801147460938,3.87876558303833
1790265316785704400,11.382704345703125,-5.72123908996582,-2.8450660705566406,4.754538536071777
1790265316802958800,11.399958740234375,-6.786045074462891,-4.417150497436523,5.493920803070068
1790265316820213000,11.417212890625,-7.183253765106201,-6.123233318328857,6.065805435180664
1790265316837467100,11.434467041015624,-6.664011001586914,-7.154539585113525,5.769095420837402
1790265316854721300,11.45172119140625,-6.135197162628174,-7.2335028648376465,5.161318302154541
1790265316871975700,11.4689755859375,-5.694917678833008,-6.652047157287598,5.221138954162598
1790265316889230000,11.48622998046875,-7.144968509674072,-5.936593055725098,5.194818019866943
1790265316906484200,11.503484130859375,-9.006584167480469,-5.580062389373779,4.268795490264893
1790265316923738600,11.520738525390625,-8.537590980529785,-6.565905570983887,4.867001056671143
1790265316940993000,11.537992919921875,-7.338787078857422,-8.776873588562012,5.711667537689209
1790265316958247400,11.555247314453124,-6.752545356750488,-10.908878326416016,6.056233882904053
1790265316975501600,11.57250146484375,-6.252445697784424,-11.889935493469238,6.783652305603027
1790265316992755700,11.589755615234376,-6.809973239898682,-9.954142570495605,6.262016773223877
1790265317010009900,11.607009765625,-6.991827964782715,-7.17368221282959,5.694917678833008
1790265317027264000,11.624263916015625,-6.92482852935791,-5.718846321105957,5.230710506439209
1790265317044518100,11.64151806640625,-7.8628153800964355,-5.639883041381836,5.376672267913818
1790265317061772500,11.6587724609375,-8.35573673248291,-6.460621356964111,6.577869415283203
1790265317079026700,11.676026611328124,-6.757331371307373,-9.083154678344727,8.827122688293457
1790265317096280800,11.69328076171875,-4.371686935424805,-11.631510734558105,9.578469276428223
1790265317113535000,11.710534912109376,-4.902893543243408,-10.638489723205566,7.513463020324707
1790265317130789000,11.7277890625,-5.704489231109619,-7.963313579559326,5.106283664703369
1790265317148043300,11.745043212890625,-6.1088762283325195,-6.156732559204102,4.058227062225342
1790265317165297400,11.76229736328125,-6.747759819030762,-5.163711071014404,3.720839262008667
1790265317182551800,11.7795517578125,-7.018148899078369,-5.056034088134766,5.115854740142822
1790265317199806200,11.79680615234375,-7.70249605178833,-6.783652305603027,7.003791809082031
1790265317217060600,11.814060546875,-4.54636287689209,-9.509077072143555,6.0466628074646
1790265317234314800,11.831314697265626,-3.8261234760284424,-10.418350219726562,4.438685894012451
1790265317251569200,11.848569091796875,-5.436492919921875,-10.16710376739502,3.78544545173645
1790265317268823600,11.865823486328125,-5.350351333618164,-9.755537986755371,4.213760852813721
1790265317286077700,11.88307763671875,-4.9124650955200195,-8.353343963623047,5.474778175354004
1790265317303331800,11.900331787109375,-6.5180487632751465,-6.3840508460998535,5.4795637130737305
1790265317320586200,11.917586181640624,-8.989834785461426,-6.120840549468994,4.8813581466674805
1790265317337840400,11.93484033203125,-7.750352382659912,-7.190432071685791,7.082755088806152
1790265317355094500,11.952094482421876,-4.7952165603637695,-8.72901725769043,7.776673793792725
1790265317372348700,11.9693486328125,-7.322037220001221,-9.300901412963867,6.537191390991211
1790265317389603000,11.98660302734375,-6.809973239898682,-8.410771369934082,6.187839508056641
1790265317406857500,12.003857421875,-6.585047721862793,-7.4225358963012695,4.833501815795898
1790265317424111900,12.02111181640625,-7.791030406951904,-7.161718368530273,4.78803825378418
1790265317441366300,12.0383662109375,-7.781459331512451,-6.570691108703613,6.321837425231934
1790265317458620700,12.05562060546875,-8.683553695678711,-6.333801746368408,6.716653347015381
1790265317475874800,12.072874755859376,-8.568697929382324,-6.4319071769714355,6.491727828979492
1790265317493129000,12.09012890625,-6.86261510848999,-6.781259536743164,6.096911907196045
1790265317510383000,12.107383056640625,-7.740781307220459,-6.005984783172607,5.300102233886719
1790265317527637200,12.12463720703125,-7.29093074798584,-4.364508628845215,4.110869407653809
1790265317544891400,12.141891357421875,-6.589833736419678,-2.794816732406616,3.469592809677124
1790265317562145500,12.1591455078125,-7.0995049476623535,-2.163111686706543,2.9718856811523438
1790265317579400000,12.17639990234375,-7.051648139953613,-2.335394859313965,1.9262222051620483
1790265317596654000,12.193654052734376,-6.453442573547363,-2.4335005283355713,1.155733346939087
1790265317613908200,12.210908203125,-6.869793891906738,-2.093719720840454,1.3710874319076538
1790265317631162400,12.228162353515625,-6.608976364135742,-2.1750757694244385,1.7132610082626343
1790265317648416500,12.24541650390625,-5.395814895629883,-2.792423963546753,2.0745773315429688
1790265317665670700,12.262670654296874,-5.237888813018799,-2.682354211807251,1.9716858863830566
1790265317682925000,12.279925048828124,-5.86002254486084,-1.0169496536254883,0.4019941985607147
1790265317700179500,12.297179443359376,-7.4464640617370605,0.7657032608985901,-0.7322037220001221
1790265317717433900,12.314433837890626,-7.551748275756836,1.9310078620910645,0.6221339106559753
1790265317734688300,12.331688232421875,-6.2428741455078125,1.588834285736084,1.4093725681304932
1790265317751942700,12.348942626953125,-5.548955917358398,0.4833501875400543,2.289931297302246
1790265317769196800,12.36619677734375,-5.594419479370117,-0.36610186100006104,2.0889341831207275
1790265317786451000,12.383450927734375,-5.1565327644348145,-0.9810572862625122,2.0961127281188965
1790265317803705000,12.400705078125,-3.981656789779663,-0.7082754969596863,1.1892328262329102
1790265317820959200,12.417959228515626,-3.022135019302368,0.035892341285943985,0.7465606927871704
1790265317838213600,12.435213623046875,-4.070191383361816,0.6556333899497986,1.4021940231323242
1790265317855467800,12.4524677734375,-4.9124650955200195,0.6029912829399109,2.115255117416382
1790265317872722000,12.469721923828125,-5.862415313720703,0.12442677468061447,2.2061824798583984
1790265317889976000,12.48697607421875,-5.8337016105651855,-0.28953152894973755,3.050848960876465
1790265317907230200,12.504230224609374,-6.86261510848999,-0.46899324655532837,3.902693748474121
1790265317924484400,12.521484375,-8.401200294494629,-1.074377417564392,5.182853698730469
1790265317941738500,12.538738525390626,-7.051648139953613,-2.9694929122924805,5.3216376304626465
1790265317958992600,12.55599267578125,-6.891329288482666,-5.5345988273620605,5.1565327644348145
1790265317976419300,12.57341943359375,-8.374878883361816,-7.379465103149414,5.458028316497803
1790265317994018600,12.5910185546875,-7.8556365966796875,-7.891529083251953,5.328815937042236
1790265318011617800,12.60861767578125,-7.0301127433776855,-8.678768157958984,5.00578498840332
1790265318029217000,12.626217041015625,-6.099305152893066,-9.05444049835205,5.127819061279297
1790265318046816000,12.64381591796875,-6.879364967346191,-8.207381248474121,5.5968122482299805
1790265318064415200,12.661415283203125,-6.534798622131348,-6.673582553863525,5.383851051330566
1790265318082014500,12.679014404296876,-7.307680130004883,-5.6925249099731445,4.575077056884766
1790265318099613700,12.69661376953125,-7.159325122833252,-5.618347644805908,4.342973232269287
1790265318117212700,12.714212646484375,-6.984649181365967,-6.350551128387451,4.991427898406982
1790265318134812000,12.73181201171875,-6.56829833984375,-7.200003147125244,6.2428741455078125
1790265318152411100,12.7494111328125,-6.482156753540039,-8.441878318786621,7.077969551086426
1790265318170010400,12.76701025390625,-6.022734642028809,-10.009177207946777,6.941578388214111
1790265318187325000,12.784324951171875,-5.850451469421387,-10.856236457824707,6.522834300994873
1790265318204639500,12.801639404296875,-6.745367050170898,-9.848857879638672,6.649653911590576
1790265318221954000,12.8189541015625,-7.427321434020996,-8.25523853302002,6.5491557121276855
1790265318239268600,12.8362685546875,-7.479963779449463,-7.456035137176514,5.056034088134766
1790265318256583200,12.853583251953125,-7.310073375701904,-7.8556365966796875,3.926621913909912
1790265318273882600,12.870882568359375,-7.314858913421631,-8.906085968017578,4.735395908355713
1790265318291137000,12.888136962890625,-6.680760860443115,-10.016355514526367,6.510870456695557
1790265318308391400,12.905391357421875,-6.044270038604736,-10.296316146850586,6.3529438972473145
1790265318325645800,12.922645751953125,-6.123233318328857,-9.906285285949707,4.88853645324707
1790265318342900200,12.939900146484375,-6.654439926147461,-9.573683738708496,4.280759811401367
1790265318360154600,12.957154541015624,-6.453442573547363,-8.920442581176758,4.137190341949463
1790265318377408800,12.97440869140625,-5.103890895843506,-7.707281589508057,4.0319061279296875
1790265318394663200,12.9916630859375,-4.467400074005127,-6.3361945152282715,3.2614171504974365
1790265318411917300,13.008917236328125,-6.881757736206055,-5.245067119598389,2.091326951980591
1790265318429171500,13.02617138671875,-9.903892517089844,-4.886143684387207,2.2301106452941895
1790265318446425600,13.043425537109375,-8.276773452758789,-5.821737289428711,5.857629776000977
1790265318463679700,13.0606796875,-5.407779216766357,-7.692924976348877,8.37009334564209
1790265318480934000,13.077933837890624,-5.197210788726807,-9.712467193603516,6.965506553649902
1790265318498188000,13.09518798828125,-8.286344528198242,-10.234102249145508,4.9124650955200195
1790265318515442200,13.112442138671875,-7.216753005981445,-8.74337387084961,6.168696880340576
1790265318532696300,13.1296962890625,-7.039684295654297,-7.735995769500732,6.888936519622803
1790265318549950500,13.146950439453125,-7.853243827819824,-6.666403770446777,7.0683979988098145
1790265318567204600,13.16420458984375,-8.164310455322266,-5.580062389373779,7.568498134613037
1790265318584459000,13.181458984375,-7.164111137390137,-4.500899314880371,7.609176158905029
1790265318601713200,13.198713134765624,-6.963113784790039,-4.098905086517334,7.013363361358643
1790265318618967300,13.21596728515625,-6.695117950439453,-4.613361835479736,6.821937561035156
1790265318636221400,13.233221435546875,-5.551348686218262,-4.855037212371826,6.096911907196045
1790265318653475600,13.2504755859375,-6.537191390991211,-5.132604598999023,5.314459323883057
1790265318670729700,13.267729736328125,-7.190432071685791,-5.84566593170166,3.675375461578369
1790265318687984000,13.284984130859375,-7.846065521240234,-5.821737289428711,1.550549030303955
1790265318705238500,13.302238525390624,-8.049455642700195,-4.869394302368164,1.0217353105545044
1790265318722493000,13.319492919921874,-7.867600917816162,-3.8907296657562256,1.7994025945663452
1790265318739747300,13.336747314453126,-8.082955360412598,-2.8833513259887695,3.067598581314087
1790265318757001700,13.354001708984375,-7.5326056480407715,-2.5459632873535156,4.194618225097656
1790265318774255900,13.371255859375,-5.72123908996582,-2.2947168350219727,3.9290146827697754
1790265318791510000,13.388510009765625,-6.142375946044922,-1.9716858863830566,3.510270833969116
1790265318808764200,13.40576416015625,-6.522834300994873,-1.9334007501602173,1.8951154947280884
1790265318826018300,13.423018310546874,-6.905686378479004,-1.337587833404541,1.6845471858978271
1790265318843272700,13.440272705078126,-7.264609336853027,-0.4426721930503845,1.6175481081008911
1790265318860526800,13.45752685546875,-5.936593055725098,-0.2392822653055191,1.4428720474243164
1790265318877781000,13.474781005859375,-5.601597785949707,-1.1270195245742798,2.115255117416382
1790265318895035100,13.49203515625,-4.960321426391602,-1.4883357286453247,1.6845471858978271
1790265318912289300,13.509289306640625,-5.221138954162598,-0.2991028428077698,-0.17946170270442963
1790265318929543400,13.52654345703125,-5.460421085357666,1.430907964706421,-0.31106695532798767
1790265318946797600,13.543797607421874,-4.5391845703125,1.950150489807129,0.40677985548973083
1790265318964051700,13.5610517578125,-4.199403762817383,1.7467604875564575,0.13878370821475983
1790265318981306000,13.57830615234375,-5.828916072845459,1.430907964706421,1.093519926071167
1790265318998560500,13.595560546875,-6.898507595062256,0.5814558863639832,2.8498518466949463
1790265319015815000,13.61281494140625,-6.527620315551758,-0.46420758962631226,4.374079704284668
1790265319033069300,13.6300693359375,-4.632504463195801,-1.1413763761520386,4.893322467803955
1790265319050323500,13.647323486328125,-4.493721008300781,-1.588834285736084,4.548755645751953
1790265319067577900,13.664577880859374,-4.926821708679199,-1.6893328428268433,3.3643085956573486
1790265319084832000,13.68183203125,-5.998806476593018,-1.526620864868164,3.046063184738159
1790265319102086400,13.69908642578125,-7.372286796569824,-1.5840486288070679,2.837887763977051
1790265319119340500,13.716340576171875,-6.97268533706665,-2.227717876434326,3.565305709838867
1790265319136594700,13.7335947265625,-6.6831536293029785,-2.524427890777588,4.146761417388916
1790265319153848800,13.750848876953125,-7.735995769500732,-3.153740167617798,4.675575256347656
1790265319171103000,13.76810302734375,-7.970492362976074,-4.893322467803955,5.300102233886719
1790265319188357000,13.785357177734374,-6.915257453918457,-7.408178806304932,5.931807518005371
1790265319205611300,13.802611328125,-7.161718368530273,-9.255437850952148,5.680561065673828
1790265319222865400,13.819865478515625,-7.202396392822266,-10.028319358825684,5.089533805847168
1790265319240119600,13.83711962890625,-5.230710506439209,-9.856036186218262,4.7473602294921875
1790265319257373700,13.854373779296875,-7.941778182983398,-9.05444049835205,4.161118507385254
1790265319274627800,13.8716279296875,-8.410771369934082,-7.3746795654296875,4.381258487701416
1790265319291882000,13.888882080078124,-8.090133666992188,-6.192625045776367,4.335794448852539
1790265319309136400,13.906136474609376,-6.25723123550415,-6.642475605010986,4.462614059448242
1790265319326390500,13.923390625,-5.850451469421387,-8.276773452758789,5.240281581878662
1790265319343644700,13.940644775390625,-6.020341873168945,-9.714859962463379,6.333801746368408
1790265319360898800,13.95789892578125,-6.116054534912109,-9.973284721374512,6.223731517791748
1790265319378153200,13.9751533203125,-6.5252275466918945,-9.016156196594238,6.92482852935791
1790265319395407400,13.992407470703125,-7.252645492553711,-7.566105365753174,6.97986364364624
1790265319412661800,14.009661865234374,-7.0683979988098145,-6.898507595062256,6.1088762283325195
1790265319429916200,14.026916259765626,-7.219145774841309,-6.8865437507629395,5.003392219543457
1790265319447170600,14.044170654296876,-6.6831536293029785,-8.049455642700195,5.881557941436768
1790265319464425000,14.061425048828125,-6.429514408111572,-9.734002113342285,6.448657035827637
1790265319481679000,14.07867919921875,-6.247660160064697,-9.937392234802246,5.647061347961426
1790265319498933200,14.095933349609375,-6.199803352355957,-8.776873588562012,5.00578498840332
1790265319516187400,14.1131875,-6.393621921539307,-7.814958572387695,4.831109046936035
1790265319533441500,14.130441650390624,-6.221338748931885,-7.939385414123535,5.367101192474365
1790265319550696000,14.147696044921876,-5.544169902801514,-8.434700012207031,4.986642360687256
1790265319567950000,14.1649501953125,-5.491528034210205,-8.93240737915039,4.024727821350098
1790265319585204200,14.182204345703125,-6.606583118438721,-8.997013092041016,3.871587038040161
1790265319602458400,14.199458251953125,-7.611568927764893,-8.496912956237793,4.53200626373291
1790265319619712500,14.21671240234375,-7.491927623748779,-7.994420528411865,4.955535888671875
1790265319636966700,14.233966552734374,-7.0683979988098145,-8.2695951461792,4.716253280639648
1790265319654220800,14.251220703125,-6.9344000816345215,-8.420342445373535,4.790431022644043
1790265319671475000,14.268474853515626,-6.498906135559082,-7.566105365753174,4.756931304931641
1790265319688729000,14.28572900390625,-6.884150981903076,-6.2668023109436035,4.321437835693359
1790265319705983200,14.302983154296875,-7.18086051940918,-5.781059741973877,4.225724697113037
1790265319723237400,14.3202373046875,-7.680960655212402,-5.66620397567749,4.668396949768066
1790265319740491500,14.337491455078125,-7.156932353973389,-5.570491313934326,5.654240131378174
1790265319757746000,14.354745849609374,-6.515655994415283,-5.527420520782471,5.647061347961426
1790265319775000000,14.372,-6.941578388214111,-5.836094379425049,5.359922885894775
1790265319792254200,14.389254150390625,-9.418149948120117,-5.907878875732422,5.627918720245361
1790265319809508400,14.40650830078125,-10.593026161193848,-5.699703693389893,6.843472957611084
1790265319826762500,14.423762451171875,-8.018348693847656,-5.161318302154541,7.417750358581543
1790265319844016600,14.4410166015625,-7.087540626525879,-4.716253280639648,6.372086524963379
1790265319861270800,14.458270751953124,-7.707281589508057,-4.5822553634643555,6.281159400939941
1790265319878525200,14.475525146484374,-10.047462463378906,-5.347958564758301,5.61116886138916
1790265319895779300,14.492779296875,-6.369693756103516,-4.761716842651367,4.333401679992676
1790265319913033700,14.51003369140625,-6.0370917320251465,-3.5270206928253174,3.4552359580993652
1790265319930288000,14.5272880859375,-7.36032247543335,-3.6083765029907227,3.366701364517212
1790265319947542500,14.54454248046875,-6.111268997192383,-4.01754903793335,2.5459632873535156
1790265319964797000,14.561796875,-6.175875186920166,-3.460021495819092,1.6510475873947144
1790265319982051000,14.579051025390624,-6.307480335235596,-2.1990039348602295,0.8446664214134216
1790265319999305200,14.59630517578125,-3.2470602989196777,-0.8638089895248413,-1.6845471858978271
1790265320016559600,14.6135595703125,-5.347958564758301,0.7920243144035339,-2.53399920463562
1790265320033813800,14.630813720703125,-6.357729911804199,1.4644074440002441,0.04546362906694412
1790265320051068000,14.64806787109375,-7.133004188537598,0.28235307335853577,2.0410776138305664
1790265320068322000,14.665322021484375,-6.530013084411621,-0.6771687865257263,2.825923442840576
1790265320085576200,14.682576171875,-6.087340831756592,-0.37088751792907715,3.19441819190979
1790265320102830300,14.699830322265624,-6.31944465637207,0.20338992774486542,2.0961127281188965
1790265320120084500,14.71708447265625,-6.26440954208374,0.8279166221618652,0.9906286001205444
1790265320137338600,14.734338623046876,-6.888936519622803,1.1054840087890625,0.727418065071106
1790265320154592800,14.7515927734375,-6.003592014312744,1.3854442834854126,1.3758729696273804
1790265320171847000,14.768846923828125,-5.529813289642334,1.3040883541107178,2.63449764251709
1790265320189101000,14.78610107421875,-5.044070243835449,0.8374879360198975,2.6368906497955322
1790265320206355500,14.80335546875,-5.405386447906494,-0.031106693670153618,2.541177749633789
1790265320223609600,14.820609619140624,-5.814558982849121,-0.7465606927871704,2.7014968395233154
1790265320240863700,14.83786376953125,-4.572684288024902,-1.0815558433532715,3.1800613403320312
1790265320258118000,14.855117919921875,-5.151747226715088,-1.5840486288070679,3.3571300506591797
1790265320275372000,14.8723720703125,-6.049055576324463,-2.1822543144226074,3.4193434715270996
1790265320292626200,14.889626220703125,-6.065805435180664,-2.715853691101074,3.658625841140747
1790265320309880300,14.90688037109375,-6.915257453918457,-3.421736478805542,3.761517286300659
1790265320327134500,14.924134521484374,-8.49452018737793,-4.402793884277344,4.639683246612549
1790265320344388600,14.941388671875,-7.527820110321045,-5.096712112426758,5.3694939613342285
1790265320361642800,14.958642822265626,-6.867401123046875,-6.128018856048584,5.254638671875
1790265320378897200,14.975897216796875,-7.410571575164795,-7.537391185760498,4.8574299812316895
1790265320396151600,14.993151611328125,-8.757730484008789,-8.415556907653809,4.527220249176025
1790265320413406000,15.010406005859375,-8.039883613586426,-8.212167739868164,4.541577339172363
1790265320430660400,15.027660400390625,-6.996613502502441,-7.6043901443481445,4.898108005523682
1790265320447914800,15.044914794921874,-7.04207706451416,-7.109076023101807,4.713860511779785
1790265320465169200,15.062169189453124,-6.0466628074646,-7.001399040222168,4.570291042327881
1790265320482423300,15.07942333984375,-6.5491557121276855,-7.178467750549316,4.474578380584717
1790265320499677400,15.096677490234375,-6.343372821807861,-7.405786037445068,5.553741455078125
1790265320516931600,15.113931640625,-6.6831536293029785,-7.9250288009643555,6.482156753540039
1790265320534185700,15.131185791015625,-6.116054534912109,-8.209774017333984,7.09711217880249
1790265320551440000,15.14843994140625,-6.532405853271484,-8.001599311828613,7.106683254241943
1790265320568694000,15.165694091796874,-7.197610378265381,-7.788637638092041,7.058826923370361
1790265320585948200,15.1829482421875,-7.534998416900635,-8.305487632751465,7.401000499725342
1790265320603202300,15.200202392578126,-7.051648139953613,-9.958928108215332,7.494320392608643
1790265320620456400,15.21745654296875,-6.831508636474609,-11.095519065856934,7.482356548309326
1790265320637710600,15.234710693359375,-6.479763507843018,-10.72702407836914,6.709474563598633
1790265320654965000,15.251965087890625,-6.522834300994873,-8.772088050842285,5.340780258178711
1790265320672219100,15.26921923828125,-6.503692150115967,-6.723831653594971,3.783052682876587
1790265320689473300,15.286473388671874,-7.018148899078369,-5.891129493713379,3.620340585708618
1790265320706727400,15.3037275390625,-6.415157318115234,-5.599205017089844,4.1419758796691895
1790265320723981600,15.320981689453125,-5.414957523345947,-6.013163089752197,4.687539577484131
1790265320741235700,15.338235595703125,-5.4173502922058105,-6.795616149902344,4.218546390533447
1790265320758489900,15.35548974609375,-6.2668023109436035,-7.69531774520874,3.680161237716675
1790265320775744000,15.372743896484375,-7.178467750549316,-8.336593627929688,3.9314076900482178
1790265320792998100,15.389998046875,-7.393822193145752,-9.047262191772461,5.048855781555176
1790265320810252300,15.407252197265626,-6.489335060119629,-9.858428955078125,6.288337707519531
1790265320827506400,15.42450634765625,-6.125626087188721,-10.451848983764648,7.015756130218506
1790265320844760800,15.4417607421875,-6.876972198486328,-9.250652313232422,6.539584159851074
1790265320862015000,15.459014892578125,-7.384250640869141,-7.312466144561768,6.374479293823242
1790265320879269000,15.47626904296875,-7.76470947265625,-6.10169792175293,6.752545356750488
1790265320896523300,15.493523193359374,-7.204789161682129,-5.8719868659973145,7.286144733428955
1790265320913777400,15.51077734375,-6.056233882904053,-5.958128452301025,7.10429048538208
1790265320931031600,15.528031494140626,-6.190232276916504,-6.099305152893066,6.826723098754883
1790265320948285700,15.54528564453125,-6.922435760498047,-6.305087566375732,6.563512325286865
1790265320965539800,15.562539794921875,-6.860222339630127,-6.230910301208496,5.814558982849121
1790265320982794000,15.5797939453125,-6.309873104095459,-5.7858452796936035,4.797609329223633
1790265321000048000,15.597048095703125,-5.994020938873291,-5.264209747314453,4.12761926651001
1790265321017302300,15.61430224609375,-6.98704195022583,-4.577469825744629,4.1347975730896
1790265321034556400,15.631556396484376,-8.384450912475586,-4.012763500213623,3.9696927070617676
1790265321051810800,15.648810791015626,-8.6907320022583,-3.5844483375549316,3.8524444103240967
1790265321069065000,15.66606494140625,-7.8819580078125,-3.2590243816375732,4.673182487487793
1790265321086319400,15.6833193359375,-7.642675399780273,-2.644068956375122,5.436492919921875
1790265321103573800,15.70057373046875,-8.817551612854004,-2.6153552532196045,5.675775527954102
1790265321120828200,15.717828125,-8.066205024719238,-3.737588882446289,5.694917678833008
1790265321138082300,15.735082275390624,-6.379265308380127,-4.797609329223633,4.9986066818237305
1790265321155336700,15.752336669921876,-6.118447303771973,-4.6301116943359375,4.082155227661133
1790265321172591000,15.769591064453126,-5.67338228225708,-3.2303106784820557,2.56510591506958
1790265321189845200,15.78684521484375,-5.247459888458252,-1.2442678213119507,0.6675975322723389
1790265321207099400,15.804099365234375,-5.149354457855225,0.7704889178276062,-0.42352959513664246
1790265321224353500,15.821353515625,-5.469992637634277,2.1343977451324463,-0.16510476171970367
1790265321241607700,15.838607666015625,-5.371886730194092,1.9692929983139038,0.5000999569892883
1790265321258861800,15.85586181640625,-5.082355499267578,-0.42352959513664246,1.4620146751403809
1790265321276116000,15.873115966796876,-5.522634506225586,-1.9908283948898315,1.6869399547576904
1790265321293370000,15.8903701171875,-5.836094379425049,-0.8733802437782288,1.2969099283218384
1790265321310624500,15.90762451171875,-5.690132141113281,1.4333007335662842,1.1629117727279663
1790265321327878700,15.924878662109375,-5.072783946990967,1.911865234375,1.2849457263946533
1790265321345132800,15.9421328125,-4.692325115203857,1.828116536140442,1.3878371715545654
1790265321362387000,15.959386962890624,-5.044070243835449,1.954936146736145,1.6031911373138428
1790265321379641000,15.97664111328125,-6.290730953216553,1.8640087842941284,2.383251428604126
1790265321396895200,15.993895263671876,-6.654439926147461,0.9236295223236084,3.0963125228881836
1790265321414149400,16.0111494140625,-5.840879917144775,-0.6867401003837585,4.405186653137207
1790265321431403500,16.028403564453125,-5.862415313720703,-2.2468605041503906,4.809573650360107
1790265321448657700,16.04565771484375,-6.532405853271484,-3.4672000408172607,4.967499732971191
1790265321465911800,16.062911865234376,-7.089933395385742,-4.35254430770874,4.6540398597717285
1790265321483166000,16.080166015625,-6.290730953216553,-4.893322467803955,4.479363918304443
1790265321500420400,16.09742041015625,-6.766902446746826,-5.091926574707031,4.35254430770874
1790265321517674500,16.114674560546874,-6.838686943054199,-4.878965377807617,4.536791801452637
1790265321534928600,16.1319287109375,-5.891129493713379,-4.273581027984619,4.199403762817383
1790265321552182800,16.149182861328125,-7.487142086029053,-4.694717884063721,3.266202926635742
1790265321569437000,16.16643701171875,-7.523034572601318,-6.309873104095459,3.6945180892944336
1790265321586691000,16.183691162109376,-6.592226505279541,-7.465606689453125,3.82373046875
1790265321603945200,16.2009453125,-5.989234924316406,-7.800601959228516,4.467400074005127
1790265321621199400,16.218199462890624,-5.986842155456543,-7.5565338134765625,5.295316696166992
1790265321638453500,16.23545361328125,-7.015756130218506,-7.444071292877197,5.410171985626221
1790265321655707600,16.252707763671875,-7.561319351196289,-8.516056060791016,6.128018856048584
1790265321672961800,16.2699619140625,-7.197610378265381,-9.80817985534668,7.3746795654296875
1790265321690216200,16.28721630859375,-6.790830612182617,-9.57607650756836,7.17368221282959
1790265321707470300,16.30447021484375,-6.726224422454834,-9.4061861038208,7.355536937713623
1790265321724724500,16.321724365234374,-6.833901405334473,-8.915657043457031,7.463213920593262
1790265321741978600,16.338978515625,-7.286144733428955,-8.10688304901123,7.381857872009277
1790265321759232800,16.356232666015625,-6.664011001586914,-7.566105365753174,7.549355506896973
1790265321776487000,16.37348681640625,-6.206982135772705,-7.389036178588867,7.140182971954346
1790265321793741000,16.390740966796876,-6.759724140167236,-7.463213920593262,5.824130535125732
1790265321810995200,16.4079951171875,-6.850651264190674,-7.6977105140686035,4.993820667266846
1790265321828249300,16.425249267578124,-6.69990348815918,-7.814958572387695,4.797609329223633
1790265321845503500,16.44250341796875,-6.151947021484375,-7.728816986083984,4.687539577484131
1790265321862757600,16.459757568359375,-6.058627128601074,-7.5565338134765625,4.256831645965576
1790265321880011800,16.47701171875,-6.159125328063965,-7.240681171417236,3.7184464931488037
1790265321897266200,16.49426611328125,-5.965306758880615,-7.082755088806152,3.524627685546875
1790265321914520300,16.511520263671876,-6.455835342407227,-7.573283672332764,3.641875982284546
1790265321931774500,16.5287744140625,-6.8171515464782715,-8.528019905090332,4.120440483093262
1790265321949028600,16.546028564453124,-7.195217609405518,-9.772287368774414,4.792823791503906
1790265321966282800,16.56328271484375,-6.91765022277832,-10.590633392333984,5.328815937042236
1790265321983537000,16.580536865234375,-7.460821151733398,-10.712666511535645,5.6925249099731445
1790265322000791000,16.597791015625,-7.989634990692139,-9.982855796813965,6.151947021484375
1790265322018045200,16.615045166015626,-7.75753116607666,-8.657232284545898,6.393621921539307
1790265322035299300,16.63229931640625,-7.226324558258057,-7.348358154296875,6.204588890075684
1790265322052553500,16.649553466796874,-6.400800704956055,-6.333801746368408,5.747560024261475
1790265322069807600,16.6668076171875,-6.372086524963379,-5.525027275085449,5.2977094650268555
1790265322087062000,16.68406201171875,-6.601797580718994,-4.914857864379883,5.1565327644348145
1790265322104316200,16.701316162109375,-6.556334018707275,-4.716253280639648,5.4173502922058105
1790265322121570300,16.7185703125,-6.884150981903076,-4.8191447257995605,5.651846885681152
1790265322138824400,16.735824462890626,-8.283951759338379,-5.3694939613342285,5.637490272521973
1790265322156078600,16.75307861328125,-8.757730484008789,-6.029912948608398,5.740381717681885
1790265322173332700,16.770332763671874,-8.429914474487305,-6.295516490936279,6.623332977294922
1790265322190587000,16.7875869140625,-8.09970474243164,-5.517848968505859,6.285944938659668
1790265322207841000,16.804841064453125,-7.64028263092041,-4.517649173736572,5.575276851654053
1790265322225095200,16.82209521484375,-7.475177764892578,-3.996013879776001,4.843072891235352
1790265322242349300,16.839349365234376,-7.463213920593262,-3.5509488582611084,4.115654945373535
1790265322259603500,16.856603515625,-8.60459041595459,-3.3236305713653564,3.775874137878418
1790265322276857900,16.87385791015625,-8.279166221618652,-3.1513473987579346,3.862015724182129
1790265322294112000,16.891112060546874,-7.1473612785339355,-3.6873397827148438,4.137190341949463
1790265322311366100,16.9083662109375,-5.434100151062012,-4.060619831085205,4.067798614501953
1790265322328620300,16.925620361328125,-5.6207404136657715,-3.4504501819610596,3.184846878051758
1790265322345874400,16.94287451171875,-4.158725738525391,-1.667797327041626,1.5002998113632202
1790265322363128600,16.960128662109376,-3.7471601963043213,0.6580262184143066,0.15553347766399384
1790265322380382700,16.9773828125,-4.417150497436523,1.7012969255447388,-0.27038896083831787
1790265322397636900,16.994636962890624,-4.821537494659424,1.7467604875564575,-0.7824530005455017
1790265322414891000,17.01189111328125,-6.0849480628967285,1.923829436302185,-0.7178468108177185
1790265322432145200,17.029145263671875,-6.329015731811523,1.6390835046768188,0.275174617767334
1790265322449399300,17.0463994140625,-6.601797580718994,0.8422735929489136,1.8592232465744019
1790265322466653700,17.06365380859375,-6.168696880340576,0.34695929288864136,2.8809585571289062
1790265322483907800,17.080907958984376,-6.750152587890625,0.4737788736820221,1.6031911373138428
1790265322501162200,17.098162353515626,-6.606583118438721,0.672383189201355,1.191625714302063
1790265322518416600,17.115416748046876,-6.372086524963379,0.4546363055706024,1.8831514120101929
1790265322535671000,17.132671142578126,-6.843472957611084,0.08374879509210587,2.3880369663238525
1790265322552925400,17.149925537109375,-6.333801746368408,-0.33499518036842346,3.0484559535980225
1790265322570179800,17.167179931640625,-5.649454116821289,-0.7226324677467346,3.1178479194641113
1790265322587434000,17.18443408203125,-5.357530117034912,-1.2011969089508057,3.3619158267974854
1790265322604688100,17.201688232421876,-5.886343479156494,-1.576870083808899,3.5222349166870117
1790265322621942300,17.2189423828125,-5.6207404136657715,-2.0578274726867676,3.3619158267974854
1790265322639196400,17.236196533203124,-5.434100151062012,-2.641676187515259,3.3571300506591797
1790265322656450600,17.253450439453125,-6.6352972984313965,-3.2135608196258545,3.4719855785369873
1790265322673704700,17.27070458984375,-7.350750923156738,-3.871587038040161,3.9290146827697754
1790265322690958800,17.287958740234377,-6.922435760498047,-4.685146808624268,4.1491546630859375
1790265322708213000,17.305212890625,-6.0849480628967285,-5.556134223937988,4.567898273468018
1790265322725467100,17.322467041015624,-6.857829570770264,-6.537191390991211,4.656432628631592
1790265322742721300,17.33972119140625,-7.168896675109863,-7.4464640617370605,4.543970108032227
1790265322759975400,17.356975341796876,-7.546962738037109,-7.927421569824219,4.910071849822998
1790265322777229600,17.3742294921875,-8.389236450195312,-8.123632431030273,5.044070243835449
1790265322794483700,17.391483642578127,-8.171489715576172,-8.023134231567383,5.292923450469971
1790265322811737900,17.40873779296875,-6.876972198486328,-7.934599876403809,5.680561065673828
1790265322828992000,17.425991943359374,-7.0683979988098145,-8.252845764160156,6.486942291259766
1790265322846246100,17.44324609375,-7.3914289474487305,-8.7505521774292,7.077969551086426
1790265322863500500,17.46050048828125,-7.283751964569092,-8.920442581176758,7.133004188537598
1790265322880754700,17.477754638671875,-6.324230194091797,-8.798408508300781,7.479963779449463
1790265322898008800,17.4950087890625,-6.187839508056641,-8.772088050842285,7.659425258636475
1790265322915263000,17.512262939453127,-6.915257453918457,-8.563912391662598,7.733603000640869
1790265322932517000,17.52951708984375,-7.106683254241943,-8.2695951461792,7.654639720916748
1790265322949771300,17.546771240234374,-6.905686378479004,-7.865208148956299,6.690331935882568
1790265322967025400,17.564025390625,-6.56829833984375,-7.685746192932129,6.111268997192383
1790265322984279600,17.581279541015626,-6.175875186920166,-7.611568927764893,5.467599868774414
1790265323001533700,17.59853369140625,-5.85284423828125,-7.238288402557373,4.59421968460083
1790265323018787800,17.615787841796877,-5.979663848876953,-6.879364967346191,4.0319061279296875
1790265323036042000,17.6330419921875,-6.424728870391846,-7.037291526794434,3.94815731048584
1790265323053296400,17.65029638671875,-6.8171515464782715,-7.791030406951904,4.548755645751953
1790265323070550300,17.66755029296875,-6.678368091583252,-8.554341316223145,5.19960355758667
1790265323087804400,17.684804443359376,-6.357729911804199,-9.135796546936035,4.948357105255127
1790265323105058300,17.702058349609374,-5.843272686004639,-9.291330337524414,4.668396949768066
1790265323122312200,17.719312255859375,-6.005984783172607,-9.037691116333008,4.661218643188477
1790265323139566000,17.736566162109376,-6.826723098754883,-8.482556343078613,5.197210788726807
1790265323156820200,17.7538203125,-6.9344000816345215,-8.09252643585205,5.9916276931762695
1790265323174074000,17.77107421875,-7.35314416885376,-7.89631462097168,6.348158359527588
1790265323191328500,17.78832861328125,-8.161917686462402,-7.714460372924805,6.539584159851074
1790265323208582700,17.805582763671875,-8.2695951461792,-7.568498134613037,6.97986364364624
1790265323225836800,17.8228369140625,-7.161718368530273,-7.10429048538208,6.759724140167236
1790265323243091000,17.840091064453127,-7.176074981689453,-6.329015731811523,6.412764549255371
1790265323260345000,17.857344970703124,-7.908278942108154,-6.113661766052246,6.86261510848999
1790265323277599200,17.87459912109375,-6.960721015930176,-5.931807518005371,6.745367050170898
1790265323294853400,17.891853271484376,-7.197610378265381,-5.54177713394165,6.089733600616455
1790265323312107500,17.909107421875,-7.793423175811768,-5.292923450469971,5.72841739654541
1790265323329361700,17.926361572265623,-7.207181930541992,-5.166104316711426,5.606383323669434
1790265323346615800,17.94361572265625,-8.047062873840332,-5.13739013671875,5.302495002746582
1790265323363870000,17.960869873046875,-8.142775535583496,-5.245067119598389,5.240281581878662
1790265323381124400,17.978124267578124,-7.628318786621094,-5.249852657318115,5.589633464813232
1790265323398378500,17.99537841796875,-5.9509501457214355,-4.419543266296387,5.340780258178711
1790265323415632600,18.012632568359376,-6.089733600616455,-3.2446675300598145,3.5365917682647705
1790265323432886800,18.02988671875,-6.1328043937683105,-2.581855535507202,2.225325107574463
1790265323450141000,18.047140869140627,-6.175875186920166,-2.029113531112671,1.9070796966552734
1790265323467395000,18.06439501953125,-6.228517532348633,-1.2801600694656372,1.1318050622940063
1790265323484649200,18.081649169921874,-6.056233882904053,-0.7441678643226624,1.153340458869934
1790265323501903400,18.0989033203125,-6.412764549255371,-0.3517449200153351,1.4763715267181396
1790265323519157500,18.116157470703126,-6.070590972900391,-0.14117653667926788,1.7778671979904175
1790265323536411600,18.13341162109375,-6.2189459800720215,-0.12921242415905,1.8352949619293213
1790265323553665800,18.150665771484373,-6.080162525177002,-0.09810572862625122,1.7204394340515137
1790265323570920000,18.167919921875,-5.828916072845459,0.12442677468061447,1.373480200767517
1790265323588174300,18.18517431640625,-5.618347644805908,0.4307080805301666,0.7680960893630981
1790265323605428500,18.202428466796874,-5.474778175354004,0.760917603969574,0.641276478767395
1790265323622682600,18.2196826171875,-5.252245903015137,1.2418749332427979,0.9475577473640442
1790265323639936800,18.236936767578126,-5.175675392150879,1.588834285736084,1.2251251935958862
1790265323657191000,18.25419091796875,-5.008177757263184,1.5122638940811157,1.1150553226470947
1790265323674445000,18.271445068359377,-5.151747226715088,1.0193424224853516,1.3615161180496216
1790265323691699200,18.28869921875,-5.419743061065674,0.4307080805301666,1.7922241687774658
1790265323708953300,18.305953369140624,-5.493920803070068,-0.07178468257188797,2.2468605041503906
1790265323726207500,18.32320751953125,-5.924628734588623,-0.5144568681716919,2.8450660705566406
1790265323743461600,18.340461669921876,-5.886343479156494,-1.1030912399291992,3.3092737197875977
1790265323760715800,18.3577158203125,-5.97727108001709,-1.8400806188583374,3.510270833969116
1790265323777970200,18.37497021484375,-6.348158359527588,-2.548356056213379,3.682554006576538
1790265323795224300,18.392224365234377,-7.056434154510498,-3.1968109607696533,3.814159393310547
1790265323812478500,18.409478515625,-7.573283672332764,-3.761517286300659,3.8596229553222656
1790265323829732600,18.426732666015624,-7.331608772277832,-4.304687976837158,3.955335855484009
1790265323846986800,18.44398681640625,-6.908079147338867,-4.874179840087891,4.094119548797607
1790265323864241000,18.461240966796876,-7.025327205657959,-5.453242778778076,4.2281174659729
1790265323881495000,18.4784951171875,-7.467999458312988,-6.001199245452881,4.156332969665527
1790265323898749200,18.495749267578127,-7.188039302825928,-6.3529438972473145,4.005585193634033
1790265323916003300,18.51300341796875,-6.754938125610352,-6.606583118438721,3.744767427444458
1790265323933257500,18.530257568359374,-6.604190349578857,-6.9344000816345215,3.751945972442627
1790265323950511600,18.54751171875,-6.723831653594971,-7.238288402557373,4.1970109939575195
1790265323967766000,18.56476611328125,-6.953542709350586,-7.661818027496338,4.883750915527344
1790265323985020200,18.582020263671875,-7.219145774841309,-8.219346046447754,5.592026710510254
1790265324002274300,18.5992744140625,-7.534998416900635,-8.812766075134277,6.099305152893066
1790265324019528400,18.616528564453127,-7.420143127441406,-9.260223388671875,6.728617191314697
1790265324036782600,18.633782470703125,-7.106683254241943,-9.56889820098877,7.444071292877197
1790265324054036700,18.65103662109375,-7.412964344024658,-9.559326171875,7.877171993255615
1790265324071291000,18.668290771484376,-7.463213920593262,-9.078369140625,7.893921852111816
1790265324088545000,18.685544921875,-7.113861560821533,-8.420342445373535,7.264609336853027
1790265324105799200,18.702799072265623,-6.776473522186279,-8.047062873840332,6.628118515014648
1790265324123053300,18.72005322265625,-6.63051176071167,-8.13798999786377,6.305087566375732
1790265324140307500,18.737307373046875,-6.733402729034424,-7.999206066131592,5.568098068237305
1790265324157561600,18.7545615234375,-6.891329288482666,-7.5565338134765625,4.66361141204834
1790265324174816000,18.77181591796875,-6.776473522186279,-7.274180889129639,4.393222332000732
1790265324192070100,18.789070068359376,-6.51326322555542,-7.216753005981445,4.548755645751953
1790265324209324300,18.80632421875,-6.474977970123291,-7.45364236831665,4.622933387756348
1790265324226578400,18.823578369140623,-6.5419769287109375,-7.910671710968018,4.668396949768066
1790265324243832600,18.84083251953125,-6.2668023109436035,-8.389236450195312,4.768895626068115
1790265324261086700,18.858086669921875,-6.094519138336182,-8.707481384277344,4.697110652923584
1790265324278340900,18.8753408203125,-6.599404811859131,-8.817551612854004,4.589433670043945
1790265324295595000,18.892594970703126,-7.286144733428955,-8.879764556884766,4.938786029815674
1790265324312849200,18.90984912109375,-7.534998416900635,-8.831908226013184,5.687739372253418
1790265324330103300,18.927103271484373,-7.365108013153076,-8.530412673950195,6.013163089752197
1790265324347357400,18.944357421875,-7.197610378265381,-8.049455642700195,6.022734642028809
1790265324364611800,18.96161181640625,-7.381857872009277,-7.472784996032715,6.1710896492004395
1790265324381866000,18.978865966796874,-7.846065521240234,-6.9822564125061035,6.345765590667725
1790265324399120100,18.9961201171875,-7.755138397216797,-6.477370738983154,6.374479293823242
1790265324416374300,19.013374267578126,-7.195217609405518,-5.142175674438477,6.125626087188721
1790265324433628400,19.03062841796875,-7.513463020324707,-4.778466701507568,6.278766632080078
1790265324450882600,19.047882568359373,-7.29093074798584,-4.622933387756348,6.041877269744873
1790265324468136700,19.06513671875,-6.690331935882568,-4.5583271980285645,5.580062389373779
1790265324485390800,19.082390869140625,-6.44387149810791,-4.685146808624268,5.245067119598389
1790265324502645000,19.09964501953125,-6.668796539306641,-4.7401814460754395,4.974678039550781
1790265324519899000,19.11689892578125,-7.475177764892578,-4.809573650360107,4.948357105255127
1790265324537153000,19.134153076171874,-7.908278942108154,-4.438685894012451,4.5391845703125
1790265324554407000,19.151406982421875,-7.214360237121582,-3.5676984786987305,3.9146578311920166
1790265324571660800,19.168660888671877,-7.0995049476623535,-2.9144580364227295,3.34995174407959
1790265324588914700,19.185914794921874,-7.841279983520508,-2.715853691101074,2.359323024749756
1790265324606168800,19.2031689453125,-7.441678524017334,-2.572284460067749,1.0552347898483276
1790265324623423000,19.220423095703126,-6.5419769287109375,-2.368894338607788,1.0719845294952393
1790265324640677000,19.237677001953124,-6.173482418060303,-1.8759729862213135,1.25144624710083
1790265324657931300,19.25493115234375,-5.793023586273193,-1.1772687435150146,0.5551348328590393
1790265324675185400,19.272185302734375,-5.017749309539795,-0.009571290574967861,0.02871387079358101
1790265324692439800,19.289439697265625,-4.417150497436523,1.3710874319076538,0.21296121180057526
1790265324709694000,19.30669384765625,-4.701896667480469,2.0027925968170166,0.17706887423992157
1790265324726948000,19.323947998046876,-5.2977094650268555,1.8400806188583374,0.31106695532798767
1790265324744202200,19.3412021484375,-4.989035129547119,1.4644074440002441,0.9786644577980042
1790265324761456400,19.358456298828123,-5.024927616119385,1.1222338676452637,1.466800332069397
1790265324778710500,19.37571044921875,-5.941378593444824,0.9068797826766968,1.2203395366668701
1790265324795964700,19.392964599609375,-5.802595138549805,0.5575276613235474,1.2873386144638062
1790265324813218800,19.41021875,-5.955735683441162,0.4737788736820221,1.8137595653533936
1790265324830473000,19.427472900390626,-5.742774486541748,0.27756741642951965,2.6368906497955322
1790265324847727000,19.44472705078125,-6.008377552032471,-0.2919243574142456,3.0245277881622314
1790265324864981200,19.461981201171874,-5.92223596572876,-1.0408778190612793,3.38105845451355
1790265324882235600,19.479235595703123,-5.656632900238037,-1.6103696823120117,3.139383316040039
1790265324899489800,19.49648974609375,-6.245266914367676,-2.139183521270752,3.428914785385132
1790265324916744000,19.513743896484375,-6.826723098754883,-2.682354211807251,3.7567315101623535
1790265324933998000,19.530998046875,-6.709474563598633,-3.2757742404937744,4.125226020812988
1790265324951252200,19.548252197265626,-5.91505765914917,-4.156332969665527,4.3549370765686035
1790265324968506400,19.56550634765625,-6.570691108703613,-5.252245903015137,4.48414945602417
1790265324985760500,19.582760498046873,-6.814758777618408,-5.912664890289307,4.7952165603637695
1790265325003014700,19.6000146484375,-6.929614543914795,-6.417550563812256,4.505684852600098
1790265325020268800,19.617268798828125,-6.8410797119140625,-7.077969551086426,4.012763500213623
1790265325037523000,19.63452294921875,-7.259823799133301,-7.668996810913086,4.027120590209961
1790265325054777000,19.651777099609376,-7.267002582550049,-8.346165657043457,4.639683246612549
1790265325072031500,19.669031494140626,-6.3840508460998535,-9.147761344909668,5.888736724853516
1790265325089285600,19.68628564453125,-7.396214962005615,-10.202995300292969,6.929614543914795
1790265325106539800,19.703539794921873,-8.140382766723633,-10.286744117736816,7.293323516845703
1790265325123794000,19.7207939453125,-7.616354465484619,-9.315258979797363,6.865008354187012
1790265325141048000,19.738048095703125,-6.673582553863525,-8.154739379882812,6.661618232727051
1790265325158302200,19.75530224609375,-6.927221775054932,-7.611568927764893,7.087540626525879
1790265325175556400,19.772556396484376,-7.3914289474487305,-7.707281589508057,7.513463020324707
1790265325192810500,19.789810546875,-7.0923261642456055,-8.11406135559082,7.774280548095703
1790265325210064400,19.807064453125,-6.946363925933838,-8.276773452758789,7.41535758972168
1790265325227318500,19.824318603515625,-6.953542709350586,-8.408378601074219,6.561119556427002
1790265325244572400,19.841572509765626,-6.527620315551758,-8.453842163085938,5.548955917358398
1790265325261826300,19.858826416015624,-6.69990348815918,-8.264809608459473,4.776073932647705
1790265325279080200,19.876080078125,-7.470392227172852,-8.461020469665527,4.18983268737793
1790265325296334300,19.893334228515624,-7.499105930328369,-8.819944381713867,4.285545349121094
1790265325313588500,19.91058837890625,-7.061219692230225,-9.22433090209961,5.252245903015137
1790265325330842600,19.927842529296875,-6.759724140167236,-9.353543281555176,5.6925249099731445
1790265325348096800,19.9450966796875,-5.730810165405273,-8.965906143188477,5.3694939613342285
1790265325365351000,19.962350830078126,-4.773681163787842,-7.513463020324707,4.694717884063721
1790265325382605000,19.97960498046875,-5.580062389373779,-6.068198204040527,4.5583271980285645
1790265325399859500,19.996859375,-6.967899322509766,-5.551348686218262,5.1182475090026855
1790265325417113600,20.014113525390623,-7.324429988861084,-5.886343479156494,6.362515449523926
1790265325434367700,20.03136767578125,-6.8004021644592285,-6.771687984466553,7.575676441192627
1790265325451622000,20.048621826171875,-7.04207706451416,-7.886743545532227,8.018348693847656
1790265325468876000,20.0658759765625,-6.448657035827637,-8.271987915039062,8.126026153564453
1790265325486130200,20.083130126953126,-6.096911907196045,-7.5804619789123535,7.554141044616699
1790265325503384300,20.10038427734375,-7.171289443969727,-6.908079147338867,6.908079147338867
1790265325520638500,20.117638427734374,-7.95134973526001,-6.795616149902344,6.5180487632751465
1790265325537892600,20.134892578125,-7.920242786407471,-6.9104719161987305,6.056233882904053
1790265325555146800,20.152146728515625,-8.595019340515137,-6.192625045776367,6.113661766052246
1790265325572401000,20.16940087890625,-8.327022552490234,-5.560919761657715,6.577869415283203
1790265325589655000,20.186655029296876,-6.790830612182617,-5.489135265350342,5.982056617736816
1790265325606909400,20.203909423828126,-6.419943332672119,-4.8502516746521,4.773681163787842
1790265325624163600,20.22116357421875,-5.965306758880615,-4.493721008300781,4.180261135101318
1790265325641417700,20.238417724609373,-5.9198431968688965,-4.54636287689209,3.5461630821228027
1790265325658671900,20.255671875,-6.884150981903076,-4.488935470581055,3.3403804302215576
1790265325675926000,20.272926025390625,-7.176074981689453,-4.213760852813721,3.2518460750579834
1790265325693180200,20.29018017578125,-7.125825881958008,-3.6083765029907227,3.1920254230499268
1790265325710434300,20.307434326171876,-6.613761901855469,-2.5459632873535156,2.6871397495269775
1790265325727688400,20.3246884765625,-7.3746795654296875,-1.3184453248977661,2.682354211807251
1790265325744942600,20.341942626953124,-6.721438884735107,-0.48095735907554626,2.9072794914245605
1790265325762196700,20.35919677734375,-6.104090690612793,-0.4331009089946747,2.4741785526275635
1790265325779451000,20.376450927734375,-5.441278457641602,-0.794417142868042,1.5912270545959473
1790265325796705000,20.393705078125,-5.371886730194092,-0.729810893535614,0.7537391185760498
1790265325813959000,20.410958984375,-5.474778175354004,0.6604190468788147,0.1339980661869049
1790265325831213000,20.428213134765624,-5.173282623291016,2.00518536567688,0.44027936458587646
1790265325848467000,20.445467041015625,-4.326223373413086,1.9645073413848877,1.0959128141403198
1790265325865720800,20.462720947265623,-3.8356947898864746,0.9834501147270203,1.5074782371520996
1790265325882975000,20.47997509765625,-4.314259052276611,0.8805587291717529,0.5575276613235474
1790265325900228900,20.497228759765626,-5.010570526123047,1.1318050622940063,0.5862415432929993
1790265325917483000,20.51448291015625,-5.2977094650268555,1.160519003868103,1.3495519161224365
1790265325934737400,20.5317373046875,-5.831308841705322,0.9092726111412048,1.9310078620910645
1790265325951991600,20.548991455078124,-5.714060306549072,0.5479564070701599,2.3712873458862305
1790265325969245700,20.56624560546875,-5.867201328277588,0.12921242415905,2.7828526496887207
1790265325986499800,20.583499755859375,-6.094519138336182,-0.5431707501411438,3.06999135017395
1790265326003754000,20.60075390625,-6.8410797119140625,-1.7587246894836426,3.4337005615234375
1790265326021008100,20.618008056640626,-6.300302028656006,-3.3332018852233887,3.8572301864624023
1790265326038262300,20.63526220703125,-6.001199245452881,-4.603790760040283,4.323830604553223
1790265326055516400,20.652516357421874,-7.223931789398193,-5.364708423614502,4.543970108032227
1790265326072770600,20.6697705078125,-7.061219692230225,-5.453242778778076,4.847858905792236
1790265326090024700,20.687024658203125,-6.829115867614746,-5.304887771606445,4.333401679992676
1790265326107278800,20.70427880859375,-6.893722057342529,-5.132604598999023,4.194618225097656
1790265326124533200,20.721533203125,-5.8719868659973145,-5.2283172607421875,4.536791801452637
1790265326141787400,20.738787353515626,-5.20678186416626,-5.974878311157227,4.5391845703125
1790265326159041500,20.75604150390625,-6.175875186920166,-7.032505512237549,4.780859470367432
1790265326176295700,20.773295654296874,-7.04207706451416,-8.446663856506348,5.467599868774414
1790265326193549600,20.790549560546875,-7.082755088806152,-9.712467193603516,6.563512325286865
1790265326210803700,20.8078037109375,-8.219346046447754,-10.164710998535156,6.503692150115967
1790265326228057600,20.8250576171875,-8.523234367370605,-9.343972206115723,6.422336101531982
1790265326245311500,20.8423115234375,-8.85344409942627,-8.181060791015625,6.238088607788086
1790265326262565600,20.859565673828126,-7.905886173248291,-8.133204460144043,6.089733600616455
1790265326279819500,20.876819580078124,-7.0683979988098145,-8.86780071258545,6.50608491897583
1790265326297073700,20.89407373046875,-6.8004021644592285,-9.322437286376953,6.5874409675598145
1790265326314327800,20.911327880859375,-6.845865726470947,-9.346364974975586,6.896114826202393
1790265326331582000,20.92858203125,-7.355536937713623,-9.044869422912598,6.522834300994873
1790265326348836000,20.945836181640626,-6.996613502502441,-8.451449394226074,6.118447303771973
1790265326366090200,20.96309033203125,-6.448657035827637,-7.994420528411865,5.340780258178711
1790265326383344400,20.980344482421874,-6.44387149810791,-7.204789161682129,4.457828521728516
1790265326400598500,20.9975986328125,-7.080362319946289,-6.860222339630127,4.543970108032227
1790265326417852700,21.014852783203125,-7.0923261642456055,-7.506284713745117,5.225924491882324
1790265326435106800,21.03210693359375,-6.606583118438721,-8.204988479614258,5.06082010269165
1790265326452361200,21.049361328125,-6.116054534912109,-8.566305160522461,4.431507587432861
1790265326469615400,21.066615478515626,-5.91505765914917,-8.286344528198242,4.319045066833496
1790265326486869500,21.083869384765624,-5.608776092529297,-7.752745151519775,4.419543266296387
1790265326504123600,21.10112353515625,-6.0610198974609375,-7.518248558044434,4.381258487701416
1790265326521377800,21.118377685546875,-6.994220733642578,-7.558926582336426,4.467400074005127
1790265326538632000,21.1356318359375,-7.788637638092041,-7.9585280418396,5.06799840927124
1790265326555886000,21.152885986328126,-7.89631462097168,-8.48016357421875,5.883950710296631
1790265326573140200,21.17014013671875,-8.0350980758667,-8.779266357421875,6.314659118652344
1790265326590394400,21.187394287109374,-7.326822757720947,-8.233702659606934,6.673582553863525
1790265326607648300,21.204648193359375,-7.759923934936523,-7.18086051940918,6.620940208435059
1790265326624902100,21.221902099609373,-7.960920810699463,-6.599404811859131,6.771687984466553
1790265326642156300,21.23915625,-7.4464640617370605,-6.293123722076416,6.551548480987549
1790265326659410200,21.25641015625,-7.601997375488281,-6.10169792175293,6.271588325500488
1790265326676664000,21.2736640625,-7.712067604064941,-6.135197162628174,6.259624004364014
1790265326693918200,21.290918212890624,-7.262216567993164,-6.159125328063965,5.986842155456543
1790265326711172400,21.30817236328125,-7.439285755157471,-5.9198431968688965,5.850451469421387
1790265326728426500,21.325426513671875,-8.2695951461792,-5.4628143310546875,5.85284423828125
1790265326745680600,21.3426806640625,-7.606783390045166,-5.154139995574951,5.2977094650268555
1790265326762934800,21.359934814453126,-6.7692952156066895,-4.962714195251465,4.405186653137207
1790265326780189200,21.377189208984376,-7.369893550872803,-4.560719966888428,3.838087558746338
1790265326797443300,21.394443359375,-7.3746795654296875,-4.041477680206299,2.9551360607147217
1790265326814697500,21.411697509765624,-7.008577346801758,-2.806781053543091,2.179861545562744
1790265326831951600,21.42895166015625,-5.3694939613342285,-1.4715858697891235,1.94297194480896
1790265326849205800,21.446205810546875,-4.847858905792236,-1.196411371231079,1.9405791759490967
1790265326866460000,21.4634599609375,-5.687739372253418,-1.5098711252212524,1.5481562614440918
1790265326883714000,21.480714111328126,-5.522634506225586,-0.9547362327575684,1.0289137363433838
1790265326900968200,21.49796826171875,-5.249852657318115,0.5982056856155396,0.916451096534729
1790265326918222300,21.515222412109374,-5.608776092529297,1.8640087842941284,1.0815558433532715
1790265326935476500,21.5324765625,-5.326423168182373,1.978864312171936,1.4261223077774048
1790265326952730600,21.549730712890625,-5.465207099914551,1.2251251935958862,1.3926228284835815
1790265326969985000,21.566985107421875,-4.682754039764404,0.8925228714942932,1.4572290182113647
1790265326987239000,21.584239013671876,-4.7952165603637695,1.0241280794143677,0.4378865361213684
1790265327004492800,21.601492919921874,-5.307280540466309,1.2370892763137817,0.44745782017707825
1790265327021747000,21.618746826171876,-5.230710506439209,1.0480563640594482,0.8662018179893494
1790265327039000800,21.636000732421873,-4.816751956939697,0.4331009089946747,1.399801254272461
1790265327056254700,21.653254638671875,-5.307280540466309,0.07178468257188797,1.5960127115249634
1790265327073508900,21.6705087890625,-5.8337016105651855,-0.08135596662759781,2.4191436767578125
1790265327090762800,21.6877626953125,-5.737988471984863,-0.1986042857170105,2.7326035499572754
1790265327108017200,21.70501708984375,-5.989234924316406,-0.7106683254241943,3.1968109607696533
1790265327125271300,21.722271240234374,-5.879165172576904,-1.6103696823120117,3.9122650623321533
1790265327142525400,21.739525390625,-6.049055576324463,-2.8977081775665283,4.091726779937744
1790265327159779600,21.756779541015625,-7.238288402557373,-4.280759811401367,4.232903480529785
1790265327177033700,21.77403369140625,-7.621140003204346,-5.357530117034912,4.797609329223633
1790265327194287900,21.791287841796876,-6.9822564125061035,-6.010770320892334,4.847858905792236
1790265327211542000,21.8085419921875,-6.391229152679443,-6.1399827003479,4.814359188079834
1790265327228796200,21.825796142578124,-7.032505512237549,-6.369693756103516,4.862215518951416
1790265327246050300,21.84305029296875,-7.255038261413574,-7.17368221282959,5.024927616119385
1790265327263304400,21.860304443359375,-7.051648139953613,-7.575676441192627,4.811966419219971
1790265327280558600,21.87755859375,-6.912864685058594,-7.688138961791992,4.536791801452637
1790265327297812700,21.894812744140626,-7.29810905456543,-7.759923934936523,4.948357105255127
1790265327315066600,21.912066650390624,-7.286144733428955,-7.805387496948242,5.290530681610107
1790265327332320500,21.929320556640626,-7.032505512237549,-8.023134231567383,5.733202934265137
1790265327349574400,21.946574462890624,-6.0538411140441895,-8.221738815307617,6.5419769287109375
1790265327366828500,21.96382861328125,-6.190232276916504,-8.535198211669922,6.4941205978393555
1790265327384082400,21.98108251953125,-6.64486837387085,-8.925228118896484,6.271588325500488
1790265327401336600,21.998336669921876,-7.731209754943848,-9.190832138061523,6.343372821807861
1790265327418590700,22.0155908203125,-8.595019340515137,-9.291330337524414,7.401000499725342
1790265327435845000,22.03284521484375,-8.346165657043457,-9.408578872680664,8.116454124450684
1790265327453099300,22.050099365234374,-7.841279983520508,-9.183652877807617,7.6498541831970215
1790265327470353400,22.067353515625,-7.302894592285156,-8.250452041625977,6.943971157073975
