time,seconds_elapsed,z,y,x
1790107841502573300,0.0695732421875,-8.758798651146888,-4.3493668831422925,-0.7326922704380006
1790107841512517000,0.07951708984375,-8.752069050630926,-4.3572251954272385,-0.765677717455849
1790107841522462500,0.08946240234375,-8.738457289385796,-4.381781544534862,-0.7808585546486079
1790107841532406300,0.09940625,-8.718472485977411,-4.422048965254426,-0.7772404372166841
1790107841542350300,0.109350341796875,-8.692786840578913,-4.475260330960154,-0.7601893491726368
1790107841552295200,0.119295166015625,-8.663290696981548,-4.535837256997824,-0.7375322578150778
1790107841562239200,0.1292392578125,-8.632151462352276,-4.597082583816349,-0.7233104749128222
1790107841572183300,0.139183349609375,-8.601617792400717,-4.654081651367247,-0.7225483314339071
1790107841582128400,0.14912841796875,-8.574106100618838,-4.70395568934381,-0.7265572748143225
1790107841592072200,0.159072265625,-8.551306239789724,-4.744735151238739,-0.7300938514426351
1790107841602016300,0.169016357421875,-8.532294665327667,-4.778428746525943,-0.7327680390879512
1790107841611960000,0.1789599609375,-8.514547411713004,-4.8097024211898445,-0.7345945969279855
1790107841621905000,0.18890478515625,-8.496605512309074,-4.841399581962824,-0.7341182115878909
1790107841631848700,0.1988486328125,-8.477665834039449,-4.874583474162221,-0.7334879508603364
1790107841641792800,0.208792724609375,-8.45640268125832,-4.910191378638148,-0.7413954360492527
1790107841651737900,0.21873779296875,-8.432313365140557,-4.948535430079699,-0.76057513361983
1790107841661682000,0.228681884765625,-8.408094285163283,-4.986334122598171,-0.7815440526947378
1790107841671625700,0.238625732421875,-8.387410393574834,-5.017889536812901,-0.8015726952448486
1790107841681569800,0.24856982421875,-8.372249064800142,-5.039261410665512,-0.8256353425513953
1790107841691515000,0.258514892578125,-8.364082709479332,-5.047990660566091,-0.8545758250273764
1790107841701459000,0.268458984375,-8.364921498391032,-5.041082780873775,-0.8865402584344149
1790107841711403000,0.278403076171875,-8.374185001298784,-5.018967395177484,-0.923780440287292
1790107841721347800,0.288347900390625,-8.389912731784582,-4.9846501150339835,-0.9659251261208206
1790107841731291600,0.298291748046875,-8.409920331546664,-4.94181810452342,-1.0109723284628243
1790107841741236000,0.308236083984375,-8.43079711535871,-4.896697398553789,-1.0556511358838527
1790107841751180800,0.318180908203125,-8.449523443138599,-4.855845455944538,-1.0939387809630483
1790107841761124900,0.328124755859375,-8.464214816313982,-4.8237633875072,-1.1219462203726172
1790107841771069000,0.33806884765625,-8.473975747349858,-4.802050737392902,-1.1412383653417228
1790107841781012700,0.3480126953125,-8.478176121649145,-4.790613982099295,-1.1579857211988418
1790107841790957800,0.357957763671875,-8.476369949010014,-4.789387070652842,-1.1761422132015227
1790107841800902000,0.36790185546875,-8.468763565659522,-4.7972012515351174,-1.1988686434682458
1790107841810846000,0.377845947265625,-8.455308456280827,-4.813788229198754,-1.227021774958819
1790107841820790800,0.387790771484375,-8.437555941969157,-4.837152153651416,-1.2569798369795084
1790107841830734800,0.39773486328125,-8.41863730648756,-4.8627398916333915,-1.2847944572307168
1790107841840679000,0.407678955078125,-8.401281098017096,-4.8847351580813525,-1.3146185176081955
1790107841850623000,0.417623046875,-8.387284136846661,-4.898623398180305,-1.3517910410523415
1790107841860567800,0.42756787109375,-8.376572773218154,-4.90433037765026,-1.3967648858971893
1790107841870511900,0.437511962890625,-8.367891454112529,-4.905172089171409,-1.4450145375423133
1790107841880456000,0.4474560546875,-8.359477261510492,-4.904892103186249,-1.4938399432487786
1790107841890400800,0.45740087890625,-8.34903419342935,-4.906213707178831,-1.5469611464530229
1790107841900344800,0.4673447265625,-8.334891101786495,-4.911128951749205,-1.606484471784532
1790107841910289000,0.477288818359375,-8.316499120527505,-4.920758949881792,-1.6710357082806526
1790107841920234000,0.48723388671875,-8.294948382976651,-4.934508073770999,-1.7363322101861238
1790107841930178000,0.497177978515625,-8.273567156773804,-4.948814831542968,-1.7965813655741512
1790107841940121900,0.507121826171875,-8.25542827349305,-4.959989721029997,-1.8484572448924184
1790107841950066000,0.51706591796875,-8.241475735986231,-4.967745157462359,-1.889436467143148
1790107841960010800,0.5270107421875,-8.229533953779935,-4.9713656860470765,-1.9314967626288533
1790107841969955000,0.536955078125,-8.223472461783885,-4.967099845296144,-1.9679415563203393
1790107841979899000,0.54689892578125,-8.22176507334411,-4.955405315849185,-2.004227506188303
1790107841989844000,0.556843994140625,-8.222491049531103,-4.93928127952218,-2.0407154083691537
1790107841999787800,0.566787841796875,-8.222647701397538,-4.922237790262699,-2.08087074701637
1790107842009731800,0.57673193359375,-8.218761799874901,-4.908270055186748,-2.128667394196987
1790107842019676000,0.586676025390625,-8.20925104420781,-4.8990828323855995,-2.185764953686297
1790107842029621000,0.59662109375,-8.194272670784592,-4.889373923797905,-2.262367424112558
1790107842039564800,0.606564697265625,-8.178962288928032,-4.870631521666049,-2.35624923838079
1790107842049508900,0.6165087890625,-8.168580011123419,-4.851166942739487,-2.431227614736557
1790107842059454000,0.626453857421875,-8.162282956805825,-4.843793491362035,-2.4668165222510696
1790107842069398000,0.63639794921875,-8.156884312632679,-4.851491352388263,-2.4695462394759056
1790107842079341800,0.646341796875,-8.14942347523272,-4.869294135582447,-2.4591160308763382
1790107842089287000,0.656286865234375,-8.138913771656155,-4.8901267879918215,-2.45257610771358
1790107842099230700,0.666230712890625,-8.12665342501998,-4.909152098718285,-2.455221946047246
1790107842109175000,0.676175048828125,-8.115840354582668,-4.923285253489017,-2.4626792763158676
1790107842119118800,0.686118896484375,-8.109208953744172,-4.930100778722763,-2.470875734513998
1790107842129064000,0.69606396484375,-8.107960999509691,-4.927836925444007,-2.479471128901839
1790107842139007700,0.7060078125,-8.112166634505988,-4.91669652274847,-2.48781547113806
1790107842148951800,0.715951904296875,-8.121487420558928,-4.898075701169669,-2.49412859980762
1790107842158897000,0.72589697265625,-8.1364061727494,-4.873141166399419,-2.4943475032553075
1790107842168841000,0.735841064453125,-8.15787332367003,-4.841256666360795,-2.486306235618889
1790107842178784800,0.74578466796875,-8.18537858571112,-4.801331190946698,-2.473293901571631
1790107842188728800,0.755728759765625,-8.218628528884052,-4.751375319905579,-2.4594638214007016
1790107842198674000,0.765673828125,-8.25722100212872,-4.685671552373469,-2.456250704573095
1790107842208618000,0.775617919921875,-8.300839194580911,-4.600394192582368,-2.4703891200408337
1790107842218561800,0.785561767578125,-8.349064588567614,-4.501991101497412,-2.489091482423246
1790107842228507000,0.7955068359375,-8.395096856424212,-4.402603383289278,-2.5119340133503076
1790107842238450700,0.80545068359375,-8.431502048757672,-4.315302116455137,-2.5413228971809145
1790107842248395000,0.81539501953125,-8.457491645538806,-4.245076487584412,-2.5730416852638123
1790107842258339800,0.82533984375,-8.476345399090647,-4.188995119400322,-2.6027432883054016
1790107842268284000,0.835283935546875,-8.492129828199744,-4.141417667928338,-2.6273127891555426
1790107842278227700,0.845227783203125,-8.50950181876123,-4.095697827021778,-2.6427292617350817
1790107842288171800,0.855171875,-8.53173060170412,-4.045401764240861,-2.6485239194884893
1790107842298116900,0.865116943359375,-8.559909817484021,-3.9869834775418043,-2.6461837861031294
1790107842308061000,0.87506103515625,-8.59465672121644,-3.9180347367390986,-2.6365263154417273
1790107842318004700,0.885004638671875,-8.636589152538775,-3.8355513915807005,-2.6207354565918446
1790107842327949800,0.89494970703125,-8.684013751536607,-3.737951433572173,-2.6049969124510883
1790107842337894000,0.904893798828125,-8.73328368614018,-3.6280104649066924,-2.595704475709796
1790107842347838000,0.914837890625,-8.781040293571353,-3.5127988623619077,-2.5930603909417984
1790107842357781800,0.92478173828125,-8.82654941433668,-3.4007425089776513,-2.5879262429237366
1790107842367726800,0.934726806640625,-8.870735762065648,-3.296657572863996,-2.5714748743385076
1790107842377670700,0.944670654296875,-8.913304153203963,-3.203850986611843,-2.5414047302454708
1790107842387615000,0.954614990234375,-8.953926670971512,-3.1248852941855785,-2.4965333228617905
1790107842397559800,0.964559814453125,-8.991869740396737,-3.0600042412132025,-2.4398835071399807
1790107842407504000,0.97450390625,-9.0281556902647,-3.0082705468446016,-2.369198005672544
1790107842417447700,0.98444775390625,-9.06431947505772,-2.9642452348962425,-2.285114531841129
1790107842427393000,0.99439306640625,-9.09899331355393,-2.9172169417396185,-2.2064798249349
1790107842437336800,1.0043369140625,-9.129417093390225,-2.85797301787138,-2.1578047874845563
1790107842447281000,1.014281005859375,-9.15262670406401,-2.783199224177003,-2.157222019160539
1790107842457225000,1.024224853515625,-9.167777511444687,-2.6960718526050447,-2.2030524808347223
1790107842467169800,1.034169677734375,-9.177427383321524,-2.5994951001644133,-2.2776808747090396
1790107842477113900,1.04411376953125,-9.187309310388564,-2.4933234209045767,-2.3552220872901377
1790107842487058000,1.054057861328125,-9.202896755620836,-2.3784987718507646,-2.4124293907642365
1790107842497002800,1.064002685546875,-9.224584271293878,-2.2620636188603935,-2.4414118857510387
1790107842506946800,1.07394677734375,-9.249932647562026,-2.156890741379559,-2.4406864940859374
1790107842516891000,1.083890869140625,-9.274433467090129,-2.0746724768981335,-2.418883827600628
1790107842526835000,1.0938349609375,-9.292154417219757,-2.0237807863116264,-2.393859276459366
1790107842536779800,1.10377978515625,-9.298988062632084,-2.006758485970646,-2.3816226029597223
1790107842546723800,1.113723876953125,-9.296509105297922,-2.017378518053889,-2.3823289976634086
1790107842556668000,1.12366796875,-9.289403072685003,-2.0423872871041295,-2.3887299507468938
1790107842566613000,1.133613037109375,-9.280881328055262,-2.072147780726105,-2.396211538673937
1790107842576556800,1.143556884765625,-9.2747865183115,-2.1009046502634883,-2.3947687925197183
1790107842586500900,1.1535009765625,-9.274514715632796,-2.1246618118174374,-2.3747779977619645
1790107842596445700,1.16344580078125,-9.281415581062436,-2.1410852694824336,-2.332694321400672
1790107842606389800,1.1733896484375,-9.293671836045384,-2.1502131633117796,-2.274780477092415
1790107842616334000,1.183333984375,-9.307146819168329,-2.1564162557356057,-2.2129776625216007
1790107842626278100,1.193278076171875,-9.319188554617762,-2.164677595863491,-2.153435194098204
1790107842636223000,1.203222900390625,-9.328697556719183,-2.1775722948804495,-2.0985639323562384
1790107842646167300,1.213167236328125,-9.333558440753817,-2.197645361094177,-2.0555835994161664
1790107842656111400,1.223111328125,-9.33340178888738,-2.2274108231522143,-2.0240157641112804
1790107842666056200,1.23305615234375,-9.331635363736748,-2.265961941473186,-1.989065300630778
1790107842676000000,1.243,-9.33090354233086,-2.310097143536806,-1.9411540871597825
1790107842685944000,1.252944091796875,-9.331678033834695,-2.3568568488851187,-1.8802631267368792
1790107842695888400,1.262888427734375,-9.33545638332963,-2.3992406772367656,-1.8064542325519024
1790107842705833200,1.272833251953125,-9.34162951900661,-2.431376813948899,-1.7299569760657847
1790107842715777300,1.28277734375,-9.347323931255936,-2.4586148033559323,-1.6592568615511059
1790107842725721000,1.29272119140625,-9.350985960894823,-2.487112583565712,-1.5949031934536992
1790107842735666200,1.302666259765625,-9.353179671546815,-2.5159444180354473,-1.5357210827752947
1790107842745610200,1.3126103515625,-9.353015420895815,-2.545399937361479,-1.4874220390304922
1790107842755554300,1.32255419921875,-9.347911375755071,-2.577992293408513,-1.4631791397862135
1790107842765499100,1.3324990234375,-9.33562121850252,-2.615883048124611,-1.4743521295771003
1790107842775443200,1.342443115234375,-9.307943522503972,-2.6778324315592643,-1.536811508360505
1790107842785387300,1.35238720703125,-9.256469355854392,-2.779843776269257,-1.6615129699148237
1790107842795331300,1.362331298828125,-9.199853734663128,-2.8609792139500376,-1.829719811196625
1790107842805276200,1.372276123046875,-9.147641901388765,-2.9023125103354452,-2.0168328668698665
1790107842815220200,1.38222021484375,-9.10371098972559,-2.928650189901888,-2.17159891955927
1790107842825164000,1.3921640625,-9.069026045313477,-2.922995817402005,-2.3193200221732257
1790107842835109000,1.402109130859375,-9.03158917184472,-2.905783401316404,-2.481371117304265
1790107842845053200,1.41205322265625,-8.97073459790945,-2.906050527819991,-2.6927994068056345
1790107842854997200,1.421997314453125,-8.861431342625618,-2.948945374433696,-2.9915117197453975
1790107842864941000,1.431941162109375,-8.684442206081748,-3.0476319586351512,-3.385674411444366
1790107842874886400,1.441886474609375,-8.435394964542985,-3.194755533747375,-3.848121242557466
1790107842884830200,1.451830322265625,-8.135396118924021,-3.356904536294937,-4.326304864245653
1790107842894774300,1.461774169921875,-7.825317193317413,-3.4870322606816884,-4.772358486701548
1790107842904719000,1.471718994140625,-7.529733241531252,-3.558436577942967,-5.1779380599498745
1790107842914663200,1.4816630859375,-7.235207858887314,-3.573793429289758,-5.572266463604569
1790107842924607200,1.491607177734375,-6.910734497225284,-3.5470594438821075,-5.985858955177664
1790107842934552300,1.50155224609375,-6.5094403462111945,-3.5004625278800723,-6.4454889753043645
1790107842944496000,1.51149609375,-5.98995060840547,-3.4528342230036855,-6.954768869262933
1790107842954440200,1.521440185546875,-5.338308654648065,-3.4011657028257845,-7.490321853119134
1790107842964384000,1.531384033203125,-4.59872158319503,-3.3227716728076335,-7.998833685314655
1790107842974329300,1.541329345703125,-3.908051102863252,-3.1951161837533113,-8.407660569921136
1790107842984273200,1.551273193359375,-3.3158041718825695,-3.0395208406329153,-8.714192032179236
1790107842994217200,1.56121728515625,-2.8156264527902004,-2.8580218254491685,-8.94842748903334
1790107843004162000,1.571162109375,-2.4290222136467694,-2.650891525402665,-9.123760675063728
1790107843014106400,1.5811064453125,-2.147593043941259,-2.4200527252495285,-9.25751565003693
1790107843024050200,1.59105029296875,-1.926042004354298,-2.1626066348083315,-9.3693048769176
1790107843033994200,1.600994140625,-1.7712231985643505,-1.9006644019916652,-9.456247831833362
1790107843043939000,1.61093896484375,-1.6722003681458533,-1.617792047740519,-9.526640633964538
1790107843053883100,1.620883056640625,-1.5740101891592144,-1.3603835128307342,-9.583435703375935
1790107843063827200,1.6308271484375,-1.4684621947556733,-1.0962350021414458,-9.63391209115982
1790107843073772300,1.640772216796875,-1.373240217924863,-0.8171923622462898,-9.67557739597857
1790107843083716000,1.650716064453125,-1.3335166948236525,-0.5471508479956537,-9.70014075934887
1790107843093660200,1.66066015625,-1.3125634847745298,-0.3019759178455919,-9.713720371890068
1790107843103604000,1.67060400390625,-1.2867661956951022,-0.05785664336145855,-9.721690912377834
1790107843113549300,1.68054931640625,-1.2473856408126651,0.18616258654799311,-9.725213241285084
1790107843123493000,1.6904931640625,-1.1685716318167745,0.4408160140633583,-9.726793788474797
1790107843133437200,1.700437255859375,-1.0604032257817686,0.6992158250328153,-9.724043028461933
1790107843143382000,1.710382080078125,-0.9311765418879687,0.9551005113761871,-9.71550725530684
1790107843153326300,1.720326416015625,-0.7883562169276177,1.1994930589769035,-9.70103566236198
1790107843163270100,1.730270263671875,-0.6438846176289021,1.4218592874042688,-9.68163713440895
1790107843173215200,1.74021533203125,-0.5389663359636441,1.6298355367556214,-9.655233111608029
1790107843183159000,1.750158935546875,-0.4936366634184494,1.8139862354919314,-9.624766661673783
1790107843193103000,1.76010302734375,-0.4820437311824411,1.9713570638522504,-9.594361002016067
1790107843203047200,1.770047119140625,-0.47948546153437344,2.1028462858505548,-9.56653074580431
1790107843212992300,1.7799921875,-0.42990368450265376,2.197360260542482,-9.547627307891846
1790107843222936000,1.78993603515625,-0.2928120576537214,2.2378746417604387,-9.54340355271697
1790107843232880000,1.799880126953125,-0.12013341385326348,2.234257035785168,-9.547986788854002
1790107843242825200,1.8098251953125,0.005537776365911122,2.2274268975041807,-9.550335982328653
1790107843252769300,1.819769287109375,0.06976417167170439,2.229520362652093,-9.54959422405064
1790107843262713000,1.829713134765625,0.10882589269620366,2.2204691873207687,-9.551337268325685
1790107843272658200,1.839658203125,0.1553137131674215,2.1656384037196634,-9.563277296966314
1790107843282602000,1.84960205078125,0.21272344387844203,2.0723004870697856,-9.582833061307667
1790107843292546300,1.85954638671875,0.2524386375427246,1.9569740259736774,-9.60608709564507
1790107843302490000,1.869489990234375,0.3017764314844273,1.8175487502790986,-9.632021162846684
1790107843312435200,1.879435302734375,0.3933858621075749,1.6435095495820045,-9.659942019951343
1790107843322379000,1.88937890625,0.539923527090624,1.4406011050142347,-9.68522142263651
1790107843332323000,1.899322998046875,0.7243772273615002,1.2188771200131625,-9.70360814319849
1790107843342268200,1.90926806640625,0.9017452071551233,0.9910164588879793,-9.714687755617499
1790107843352212200,1.919212158203125,1.0551350761204958,0.7813535716239363,-9.718361475694179
1790107843362156000,1.929156005859375,1.21435905806683,0.6196387227099388,-9.711424369907379
1790107843372100000,1.93910009765625,1.441996212634444,0.5249556750614196,-9.685836339664458
1790107843382045200,1.949045166015625,1.6462921660378573,0.42263698143530637,-9.658235216033459
1790107843391989200,1.9589892578125,1.7242464894644915,0.3490132710915059,-9.647567691546678
1790107843401933300,1.968933349609375,1.700031062749028,0.3277720378812402,-9.652609192845224
1790107843411878100,1.978878173828125,1.64848339247182,0.37214977999646215,-9.659938512820005
1790107843421822000,1.988822021484375,1.6115062454693019,0.4810690043987706,-9.661368253362179
1790107843431766300,1.998766357421875,1.578860990191251,0.6734250387594103,-9.655262337702512
1790107843441711000,2.008711181640625,1.5743443895496427,0.920403145873919,-9.635596098724006
1790107843451655200,2.0186552734375,1.6066922693163155,1.204285992341861,-9.5988875395298
1790107843461599200,2.02859912109375,1.659602460118383,1.4920483836568892,-9.549340541550517
1790107843471543000,2.03854296875,1.6929628779284656,1.7694057738788425,-9.495971354934573
1790107843481488100,2.048488037109375,1.6719152675941586,2.034146259111911,-9.44655178272724
1790107843491432200,2.05843212890625,1.6645980764485895,2.276893523723632,-9.392298214492202
1790107843501376300,2.068376220703125,1.6801999885976313,2.4625921825543045,-9.342533189848066
1790107843511321000,2.078321044921875,1.698508529356867,2.58822756395787,-9.3051875017941
1790107843521265200,2.08826513671875,1.7311521771997211,2.6616765387892722,-9.278412307593227
1790107843531209200,2.098209228515625,1.7773172776557504,2.730159707906842,-9.249743846991658
1790107843541153300,2.1081533203125,1.8555787673354147,2.828103949308395,-9.204839121860266
1790107843551098000,2.11809814453125,1.9088148290909825,2.9326486118882893,-9.16113383564651
1790107843561042200,2.128042236328125,1.905722123772651,3.0578745357081294,-9.120744542112947
1790107843570986200,2.137986328125,1.8784231979586183,3.228254483245313,-9.067541944235563
1790107843580931000,2.14793115234375,1.863408291917294,3.4525182889223096,-8.98766995061934
1790107843590875100,2.157875244140625,1.8874979002960026,3.716404495413601,-8.876715420997142
1790107843600819200,2.167819091796875,1.9513138082548975,3.9762122004196043,-8.749428765255212
1790107843610764300,2.177764404296875,2.0374492461800573,4.2093455412507055,-8.619781810122728
1790107843620708900,2.187708984375,2.142659533061832,4.432074392445386,-8.481516664248705
1790107843630653000,2.19765283203125,2.269970008070767,4.66074373960495,-8.324366200640798
1790107843640597000,2.207596923828125,2.3942614275194702,4.888362700928748,-8.157316274309158
1790107843650542000,2.2175419921875,2.4832018398627635,5.105909765571355,-7.995860222461819
1790107843660486000,2.22748583984375,2.5016435054823756,5.31909074395895,-7.849805737885832
1790107843670430000,2.237429931640625,2.4800150265201926,5.546482034006715,-7.697820694217086
1790107843680374800,2.247374755859375,2.4709110980883238,5.780870635595917,-7.526385684669017
1790107843690318800,2.25731884765625,2.4641765291363,6.0112038243144745,-7.345993461683392
1790107843700263000,2.267262939453125,2.4815260156050325,6.206373345193266,-7.175885316824913
1790107843710208000,2.2772080078125,2.5335744750112292,6.348004752629995,-7.032368826293945
1790107843720151800,2.28715185546875,2.590571496735513,6.442689699974656,-6.924670083597302
1790107843730095900,2.297095947265625,2.645565069682896,6.512431344720721,-6.83810063816905
1790107843740040000,2.3070400390625,2.710400237686932,6.574539133587479,-6.752745829227567
1790107843749985000,2.316985107421875,2.7856749666407703,6.63697659280002,-6.660400723007321
1790107843759928800,2.3269287109375,2.8647563944011925,6.703436147135496,-6.559532703113556
1790107843769873000,2.336872802734375,2.9438620798200366,6.772568720072507,-6.452625403055548
1790107843779817700,2.346817626953125,3.023924335311353,6.832036808085441,-6.352127970039844
1790107843789762000,2.356761962890625,3.1025618186965582,6.86122607769072,-6.282362944418192
1790107843799705900,2.366705810546875,3.17153569394052,6.855517636916041,-6.254087282526493
1790107843809650000,2.37664990234375,3.2315570319220424,6.8299868898183105,-6.251295605981349
1790107843819594800,2.3865947265625,3.2910464549839493,6.806265822491049,-6.246130770564079
1790107843829538800,2.396538818359375,3.3424054708212614,6.785515879929065,-6.241432383614778
1790107843839483100,2.406483154296875,3.3861285849526523,6.764448541980982,-6.2407309573471546
1790107843849428000,2.416427978515625,3.4355136703684925,6.754391842868924,-6.224612181717157
1790107843859371800,2.426371826171875,3.490627362564206,6.758934162473678,-6.188920106089115
1790107843869315800,2.43631591796875,3.545439733725786,6.78356766847074,-6.130534552615881
1790107843879261000,2.446260986328125,3.581768645952642,6.824550251722336,-6.063565295192599
1790107843889205000,2.456205078125,3.5979809450849887,6.874404123693704,-5.997291034296155
1790107843899149000,2.466149169921875,3.6305192328572273,6.925995779243111,-5.917794888255
1790107843909092900,2.4760927734375,3.702595165769756,6.986774949854612,-5.800527522224187
1790107843919037700,2.48603759765625,3.7602272705271838,7.056414887791871,-5.677860342976451
1790107843928982000,2.49598193359375,3.757341485957801,7.139909748080372,-5.5744467302531
1790107843938926000,2.505926025390625,3.6607077426329253,7.256238956478238,-5.487860333690047
1790107843948871000,2.515870849609375,3.469604740540683,7.416340086585283,-5.397236644434929
1790107843958815000,2.52581494140625,3.205722917963564,7.605325365871191,-5.29648611344099
1790107843968758800,2.5357587890625,2.8802716511800885,7.7875260995835065,-5.218130369606614
1790107843978704000,2.545703857421875,2.522455991886556,7.941073570263385,-5.1717415433973075
1790107843988648000,2.55564794921875,2.260031090119481,8.071957958236336,-5.089808525598049
1790107843998592000,2.565592041015625,2.124405206707865,8.187067269450425,-4.962782566618919
1790107844008535800,2.575535888671875,2.1281633901976047,8.290430613291264,-4.786449263635277
1790107844018481000,2.58548095703125,2.2197551938325164,8.354024841323495,-4.6317768805786965
1790107844028425000,2.595425048828125,2.1803246623285113,8.38051595788598,-4.602557215835154
1790107844038369000,2.605369140625,2.1552163784265517,8.404878830248117,-4.5698394798427815
1790107844048313900,2.61531396484375,2.2410700768008827,8.467540745866298,-4.410073280778527
1790107844058258000,2.6252578125,2.2882938925296066,8.454692370209097,-4.4104733860120175
1790107844068202000,2.635201904296875,2.3087815308935937,8.40175923692286,-4.500037629342079
1790107844078146000,2.64514599609375,2.2969674667201936,8.334601763451099,-4.629118767285346
1790107844088091000,2.6550908203125,2.2700367896966633,8.264916232806444,-4.765340132372081
1790107844098035000,2.665034912109375,2.258699695385247,8.1807550175637,-4.913649410137534
1790107844107978800,2.674978759765625,2.2838721305646,8.074108998790383,-5.075733823016286
1790107844117924000,2.684924072265625,2.3392609864398834,7.945773126256466,-5.2500394195646045
1790107844127868000,2.694867919921875,2.4109395905978976,7.801080577683448,-5.431471506991982
1790107844137812000,2.70481201171875,2.4828876593470572,7.649830278030038,-5.611216079723834
1790107844147756800,2.7147568359375,2.540044255547225,7.49422762838602,-5.792674470636248
1790107844157701000,2.724701171875,2.575750651961565,7.325303724876045,-5.989641396325826
1790107844167645000,2.73464501953125,2.584857503002882,7.134984566637873,-6.211350549083948
1790107844177589000,2.744589111328125,2.5532477282524106,6.925322410026192,-6.456872539106011
1790107844187533800,2.754533935546875,2.4961069141432644,6.699463736373186,-6.712452981805801
1790107844197478000,2.764477783203125,2.4193672272033986,6.453059118297696,-6.976753322055935
1790107844207422000,2.774421875,2.303598136906326,6.182223823320865,-7.255611764490604
1790107844217367000,2.784366943359375,2.1430070313252507,5.898530800336599,-7.535599503216147
1790107844227310800,2.794310791015625,1.9880407798886297,5.653950475078821,-7.7621467436552045
1790107844237255000,2.8042548828125,1.895864600494504,5.49594836307764,-7.897508569303154
1790107844247200000,2.814199951171875,1.853052317597717,5.413219226464629,-7.964525172999501
1790107844257144000,2.82414404296875,1.7894753329612314,5.352345363306999,-8.020010913378
1790107844267088000,2.834087890625,1.6986504220455885,5.27846881071329,-8.088433876740933
1790107844277032000,2.844031982421875,1.6473869755372403,5.197735231831669,-8.151077087658644
1790107844286976800,2.853976806640625,1.6549255543485284,5.117888372656703,-8.199930258154868
1790107844296921000,2.863921142578125,1.7042729381024837,5.034332137569785,-8.241439495629072
1790107844306865000,2.873864990234375,1.780527764134854,4.943084178936481,-8.28045983889699
1790107844316810000,2.88381005859375,1.8695760207667946,4.846517363367974,-8.31783183043599
1790107844326753800,2.89375390625,1.9562204311273992,4.751617896489798,-8.352586917474865
1790107844336697900,2.90369775390625,2.027925046509504,4.6621974455446,-8.38581114168465
1790107844346642000,2.913641845703125,2.0801403869152066,4.579861399902403,-8.418329847973585
1790107844356587000,2.9235869140625,2.108656287303567,4.5046597361847756,-8.451742872753739
1790107844366530800,2.93353076171875,2.1129726891979574,4.433468769413232,-8.488233405283093
1790107844376475000,2.943474853515625,2.095913563977927,4.361770437641441,-8.529506495913862
1790107844386420000,2.953419921875,2.0661329043507575,4.28703259204328,-8.574546830123662
1790107844396364000,2.963364013671875,2.0290160566166042,4.208616057932376,-8.622123989334701
1790107844406307800,2.973307861328125,1.9952889974512158,4.125883121927083,-8.669849032583832
1790107844416253000,2.9832529296875,1.9776022418521344,4.038217697955668,-8.7150612162292
1790107844426196700,2.99319677734375,1.9763954964108763,3.9465401157334443,-8.757231547960638
1790107844436141000,3.00314111328125,1.9852441349074244,3.853908301526308,-8.796398021700977
1790107844446084900,3.0130849609375,1.9896473383024333,3.762096863791346,-8.835061806616187
1790107844456030000,3.023030029296875,1.9919629217684267,3.674660572400689,-8.871263585332036
1790107844465973800,3.032973876953125,2.004782363592088,3.5943209612727163,-8.901240205922722
1790107844475917800,3.042917724609375,2.0250582589015362,3.5216295268103477,-8.925673805433512
1790107844485863000,3.05286279296875,2.042700736967474,3.456687391300499,-8.947014699625969
1790107844495807000,3.062806884765625,2.049685919679701,3.3960669183820484,-8.968606938230991
1790107844505750800,3.072750732421875,2.0418059800848365,3.339601519316435,-8.991576894930004
1790107844515694800,3.08269482421875,2.0191858597368,3.2873011309757825,-9.01592573876679
1790107844525640000,3.092639892578125,1.9938354376420377,3.240943868948519,-9.038323448535799
1790107844535584000,3.102583984375,1.9717501548230647,3.2082197032153603,-9.05482976217866
1790107844545527800,3.11252783203125,1.9338136612690984,3.1884955965697763,-9.069963033902644
1790107844555473000,3.122472900390625,1.8794696382716296,3.173389797374606,-9.086668669509887
1790107844565416700,3.132416748046875,1.8238265153743325,3.1586811808034776,-9.103120038095117
1790107844575361000,3.142361083984375,1.7678801717467605,3.1460753817304967,-9.118509914928675
1790107844585305900,3.152305908203125,1.7094437648691236,3.1393565948694944,-9.131955087435244
1790107844595250000,3.16225,1.659131481605768,3.1349431623414157,-9.14274477699697
1790107844605193700,3.17219384765625,1.6144007978670298,3.1298931854754684,-9.15247882002592
1790107844615137000,3.182136962890625,1.5726859548181293,3.126917676796019,-9.160754480940103
1790107844625082000,3.19208203125,1.5323475146889685,3.130221102255583,-9.166461168149112
1790107844635026200,3.202026123046875,1.4935978050559757,3.1416990663424134,-9.16893018861115
1790107844644970200,3.21197021484375,1.4620229554884134,3.1624040007188916,-9.166900728610157
1790107844654915000,3.2219150390625,1.4385853812776506,3.191327605125308,-9.160583216026424
1790107844664859100,3.231859130859375,1.4159366193570195,3.22676804407984,-9.151693222606182
1790107844674803000,3.241802978515625,1.3949353323824702,3.268234903717041,-9.140195677036047
1790107844684748300,3.251748291015625,1.3753895049132405,3.3165985371306537,-9.125725253134965
1790107844694692000,3.261692138671875,1.3516381885781883,3.373275240859389,-9.108485364520549
1790107844704636200,3.27163623046875,1.322713561258465,3.4376273015215992,-9.088648445150255
1790107844714580000,3.281580078125,1.288148297703266,3.5084035500124093,-9.06654182728231
1790107844724525300,3.291525390625,1.24748851666525,3.58423299023956,-9.042534344229102
1790107844734469000,3.30146923828125,1.2006987084396183,3.664772507853806,-9.016548254579305
1790107844744413200,3.3114130859375,1.1493434919945895,3.749823657673597,-8.9882275845021
1790107844754358000,3.32135791015625,1.0961014388896524,3.8398876672193407,-8.956797257971763
1790107844764302000,3.331302001953125,1.0469144333291798,3.9349548918798565,-8.92134892797172
1790107844774246100,3.34124609375,1.004546460133791,4.0339050954535605,-8.88194280025661
1790107844784190200,3.351190185546875,0.9621458267778158,4.134382654725015,-8.840337701192498
1790107844794135000,3.361135009765625,0.9219865426078439,4.23485056938529,-8.79695273297429
1790107844804079000,3.3710791015625,0.8869553420413285,4.335126760865748,-8.7515944188565
1790107844814023000,3.38102294921875,0.8543786219548434,4.436393424688279,-8.703955300325156
1790107844823968300,3.39096826171875,0.8225993358563631,4.5404570257529615,-8.653206525340675
1790107844833912000,3.400912109375,0.7902342857591808,4.649069376163184,-8.598376034000516
1790107844843856100,3.410856201171875,0.7579366018097847,4.7635000574633475,-8.538439743953942
1790107844853801000,3.420801025390625,0.7256213822036981,4.882438863837718,-8.47382260261476
1790107844863745300,3.430745361328125,0.6981482688665389,5.004374806201458,-8.404714579597115
1790107844873689000,3.440689208984375,0.6771416481297463,5.1284565284222365,-8.331313827821612
1790107844883633200,3.450633056640625,0.6611346623111516,5.252742833304405,-8.25481511003077
1790107844893578000,3.460577880859375,0.6518024050161242,5.375624532085657,-8.17607475079298
1790107844903522000,3.47052197265625,0.647203679049015,5.495061058849096,-8.096655177119374
1790107844913466000,3.480466064453125,0.6456575455855578,5.610356832545995,-8.017320359119772
1790107844923411200,3.4904111328125,0.642575215530768,5.722738764622807,-7.937743549057841
1790107844933355000,3.50035498046875,0.631526509706676,5.835058152857423,-7.8564400613337755
1790107844943299000,3.510299072265625,0.6094088955206797,5.951138354930281,-7.7706468609750265
1790107844953243100,3.5202431640625,0.5767393095189706,6.072824706447124,-7.678447885227203
1790107844963188200,3.530188232421875,0.5382106952907517,6.19903701095581,-7.579754286763071
1790107844973132000,3.540132080078125,0.5005929488297551,6.327474590298533,-7.4754849339932194
1790107844983076000,3.550076171875,0.46403216407578435,6.456022059756517,-7.3671455553054805
1790107844993021000,3.56002099609375,0.42571280868407335,6.585032470551133,-7.254412325572967
1790107845002965200,3.56996533203125,0.38706389254443346,6.713657096898555,-7.137744679000973
1790107845012909000,3.579908935546875,0.3486281076988205,6.839482447916269,-7.019281965705752
1790107845022854100,3.589854248046875,0.3150581387912854,6.960384955579042,-6.9010250041157
1790107845032798000,3.5997978515625,0.2910601724850945,7.074614561349153,-6.784944802042841
1790107845042742000,3.609741943359375,0.2716841668911278,7.179417582604288,-6.674768271055817
1790107845052686300,3.619686279296875,0.2591231933405623,7.27206839377284,-6.5742118013292545
1790107845062631200,3.629631103515625,0.254065581157431,7.352606742343306,-6.4842112124085425
1790107845072575000,3.639574951171875,0.25003893772354346,7.42285516756773,-6.403834191879629
1790107845082519000,3.64951904296875,0.2428958975684829,7.484414674901962,-6.332052565738558
1790107845092464000,3.659464111328125,0.23414969653310252,7.53909962029159,-6.267179403811693
1790107845102408200,3.669408203125,0.2265854170249775,7.5885981029540295,-6.207433667901158
1790107845112352300,3.679352294921875,0.2195115513822995,7.633955832549929,-6.151823424360155
1790107845122297000,3.689297119140625,0.21709588680900632,7.675645102766156,-6.0998150047034025
1790107845132241000,3.699240966796875,0.2201159104836173,7.712357169091701,-6.053222764876485
1790107845142185200,3.709185302734375,0.22597780652064828,7.74303813855946,-6.013707916089892
1790107845152129300,3.71912939453125,0.2323335504892282,7.765224251404404,-5.9847904491633175
1790107845162074000,3.72907421875,0.23166286641974002,7.776881955972313,-5.969659515526891
1790107845172018200,3.73901806640625,0.21813832680033518,7.784349223113059,-5.96042933036685
1790107845181962000,3.7489619140625,0.18948552042562514,7.793260843843221,-5.949753622573613
1790107845191907000,3.758906982421875,0.15618424892425536,7.803219343277812,-5.93765635754466
1790107845201851100,3.76885107421875,0.1449729181506671,7.812963323178887,-5.925113686835766
1790107845211795200,3.778795166015625,0.16113854686338452,7.8268240907490245,-5.906371576964855
1790107845221740300,3.788740234375,0.20080297845480963,7.848500500506162,-5.876315461397171
1790107845231684000,3.79868408203125,0.24554272228283805,7.8716066508054725,-5.843620814019442
1790107845241628200,3.808628173828125,0.2839447144567035,7.892303986397385,-5.8138891081005335
1790107845251572200,3.818572265625,0.31452560281716285,7.908393535932898,-5.790404772138595
1790107845261517000,3.82851708984375,0.3428434598827734,7.918654817706346,-5.774751860454678
1790107845271461000,3.838461181640625,0.36798126214016225,7.924051708313822,-5.76579640058279
1790107845281405200,3.8484052734375,0.3935729091122746,7.924114836677909,-5.764019454038142
1790107845291350000,3.85835009765625,0.42221060924939807,7.917050305119156,-5.771695395493507
1790107845301294000,3.868294189453125,0.45163339534960684,7.901665688982606,-5.790518753907084
1790107845311238100,3.878238037109375,0.4845164049062878,7.877695615330338,-5.820443352049589
1790107845321182000,3.888181884765625,0.5145718263542279,7.8435899321109055,-5.8637616847723715
1790107845331127000,3.898126953125,0.542081654972583,7.798195962157845,-5.92154284261167
1790107845341071000,3.908071044921875,0.5693801423951983,7.742296964803337,-5.991914601954817
1790107845351015200,3.91801513671875,0.5958890868753195,7.6765587104797355,-6.073363051107526
1790107845360960300,3.927960205078125,0.6224988613814115,7.60504596440792,-6.160047062826156
1790107845370904300,3.937904296875,0.6459819552343339,7.530324193161726,-6.248782746377587
1790107845380848000,3.94784814453125,0.6638598494913429,7.45278794901669,-6.339213543409109
1790107845390793000,3.95779296875,0.6877361073803157,7.374699331685901,-6.427379902639984
1790107845400737000,3.967737060546875,0.7182336831051855,7.296610129833221,-6.512602609634399
1790107845410681300,3.977681396484375,0.7489668211515993,7.22247755665183,-6.591300298774242
1790107845420625200,3.987625244140625,0.7778418371759355,7.154639699700474,-6.661566844177246
1790107845430570200,3.9975703125,0.8050116567175835,7.0936430869460105,-6.723285925987362
1790107845440514000,4.00751416015625,0.8310494034893811,7.039601115635037,-6.77670538148582
1790107845450458000,4.0174580078125,0.863153683758527,6.991371629995108,-6.822468184751272
1790107845460403200,4.0274033203125,0.9045769965149462,6.949346259692311,-6.8599366224020715
1790107845470347300,4.03734716796875,0.9407404890470206,6.913808497843146,-6.890908683770895
1790107845480291000,4.047291015625,0.9586831921685487,6.883072583317756,-6.919147520783543
1790107845490236200,4.057236083984375,0.9669416827522218,6.853332109570503,-6.9474640992075205
1790107845500180200,4.06718017578125,0.9739853907186538,6.823261965477466,-6.976020916128158
1790107845510124300,4.077124267578125,0.9788833188280462,6.790921538364887,-7.0068222971051926
1790107845520068000,4.087068115234375,0.982363123767823,6.75467825859487,-7.041283954155444
1790107845530013200,4.09701318359375,0.991826606227085,6.714709820821881,-7.078087205895781
1790107845539957000,4.10695703125,1.0129203937906772,6.672464085766673,-7.1149553395658724
1790107845549901300,4.1169013671875,1.0427972072687,6.6326710045605894,-7.147772736540436
1790107845559846100,4.12684619140625,1.0766581219468265,6.595770137664675,-7.176836918461323
1790107845569790200,4.136790283203125,1.1145319255281239,6.558729570037126,-7.20494774518013
1790107845579734000,4.146734130859375,1.1543051329899578,6.520611144044995,-7.233227498725056
1790107845589678000,4.156677978515625,1.1901425353728234,6.482334897142648,-7.261769118076563
1790107845599623200,4.166623046875,1.2179327518351375,6.443945252993703,-7.291269353327155
1790107845609567200,4.176567138671875,1.2352661639519036,6.405357455924153,-7.322287591925263
1790107845619510500,4.186510498046875,1.2469292753472923,6.36759675732851,-7.353181327360868
1790107845629456000,4.196455810546875,1.2609424570001662,6.330924438491463,-7.382398069494962
1790107845639399700,4.206399658203125,1.2810710527934133,6.294630889838934,-7.409916775539517
1790107845649343700,4.21634375,1.305137572557479,6.256521816197037,-7.437939339452981
1790107845659288600,4.22628857421875,1.3293617671012878,6.215048234558105,-7.468358443114161
1790107845669233000,4.23623291015625,1.353851334583014,6.169622700423002,-7.501548180532455
1790107845679176700,4.2461767578125,1.3845400489658117,6.119521575692295,-7.536903571552037
1790107845689120800,4.256120849609375,1.4237011158786714,6.065088559237122,-7.5735168536782265
1790107845699065600,4.266065673828125,1.4719962141007183,6.006185119369626,-7.611133175367116
1790107845709009700,4.276009765625,1.5309154360592365,5.943318621090055,-7.648768786278366
1790107845718953700,4.28595361328125,1.5988374641627072,5.875494792664051,-7.687174797040224
1790107845728898800,4.29589892578125,1.671518231100589,5.8027937135905026,-7.726838114386797
1790107845738842600,4.305842529296875,1.745731322172284,5.726914589002728,-7.766933393409848
1790107845748786700,4.31578662109375,1.8177046714931726,5.6477966286242,-7.808247985094785
1790107845758731800,4.325731689453125,1.8877305400080977,5.568133893844485,-7.848742492568492
1790107845768675800,4.33567578125,1.9487408890269695,5.488427319923043,-7.889865945595503
1790107845778619600,4.34561962890625,1.991007813000679,5.408145576462149,-7.934622786688804
1790107845788563700,4.355563720703125,2.009493317762017,5.329857052645087,-7.982792066574096
1790107845798508500,4.365508544921875,2.003916978934407,5.251781294795871,-8.035764947348833
1790107845808452900,4.375452880859375,1.9819427552744746,5.1748704890727995,-8.090922186425328
1790107845818397000,4.38539697265625,1.9529402404129503,5.097759776863455,-8.146732920974493
1790107845828341800,4.395341796875,1.9296780227690935,5.015142868453264,-8.20335789451599
1790107845838285600,4.40528564453125,1.92371648401618,4.932980133551359,-8.254417635145783
1790107845848229600,4.415229736328125,1.9348346748799083,4.84470797585845,-8.303951773643494
1790107845858174000,4.425174072265625,1.9574659011438489,4.746826862820983,-8.355018528535961
1790107845868118800,4.435118896484375,1.9820862553983927,4.643417049489915,-8.407162557271123
1790107845878062800,4.445062744140625,2.003548876274377,4.542963455615937,-8.4568118465811
1790107845888006700,4.455006591796875,2.017473064469546,4.446795576237141,-8.5044819447726
1790107845897951700,4.46495166015625,2.0205428273037076,4.347462218564749,-8.554962424209714
1790107845907895800,4.474895751953125,2.0100892378285526,4.246584846320748,-8.607927706199884
1790107845917840000,4.48483984375,1.9947488992251454,4.148672461362183,-8.659093245291709
1790107845927784700,4.49478466796875,1.9784556438110767,4.049680464473367,-8.709546836721897
1790107845937728800,4.504728759765625,1.9704228517420588,3.9399975622221826,-8.76152076958716
1790107845947672800,4.5146728515625,1.978249161453545,3.8268510755136607,-8.809774220624565
1790107845957617000,4.524616943359375,2.009321468326449,3.7166020638123154,-8.849854886600374
1790107845967561700,4.534561767578125,2.0454139414489267,3.6078476745828985,-8.8865114233464
1790107845977505800,4.544505859375,2.0700605991885066,3.502877772328257,-8.92272839963138
1790107845987449600,4.55444970703125,2.0876127686224875,3.403265013192594,-8.957121083098649
1790107845997394700,4.564394775390625,2.1137653008803725,3.3126150204524394,-8.984930881044269
1790107846007338800,4.5743388671875,2.1469690668240187,3.2326082945406434,-9.006174160081148
1790107846017282800,4.58428271484375,2.1747801799438893,3.159506525711715,-9.025421881386638
1790107846027227600,4.5942275390625,2.1942419823914765,3.09348507053256,-9.04356310275495
1790107846037172000,4.604171875,2.2013892237976194,3.041479573485255,-9.05945391484797
1790107846047115800,4.61411572265625,2.1970956182569266,3.0012220896378157,-9.073910894745588
1790107846057059800,4.624059814453125,2.18373578594625,2.9726231871411204,-9.086539490172266
1790107846067004700,4.634004638671875,2.1564240006506443,2.95076616012007,-9.100174632292985
1790107846076948700,4.64394873046875,2.1208974908478555,2.9334762948840853,-9.114103788924217
1790107846086892800,4.653892822265625,2.0818593196623025,2.9247306783705946,-9.125907623964547
1790107846096837600,4.663837646484375,2.037237795386463,2.923691690711677,-9.136305099338292
1790107846106781700,4.67378173828125,1.985076961646974,2.927653580079973,-9.146514943185448
1790107846116725800,4.683725830078125,1.9235513565823434,2.939544216620922,-9.155840989935397
1790107846126669600,4.693669677734375,1.8520849338702856,2.961907439598441,-9.163367293787003
1790107846136615000,4.703614990234375,1.779558772972226,2.9932547640204428,-9.1675501324296
1790107846146558700,4.713558837890625,1.7160362950019536,3.032794162726402,-9.166666335332392
1790107846156502800,4.723502685546875,1.6613732691831886,3.0815912191212176,-9.16046046642959
1790107846166447600,4.733447509765625,1.6110661004863678,3.1395150003015995,-9.149768976545333
1790107846176392000,4.743391845703125,1.5619110244341194,3.2061589712932705,-9.13517288043797
1790107846186335700,4.753335693359375,1.5146090289026497,3.282841228957474,-9.115881904512642
1790107846196280800,4.76328076171875,1.468848125333339,3.3683234636709094,-9.092153238400817
1790107846206224600,4.773224609375,1.4250113216944038,3.46187999150753,-9.06394596557021
1790107846216168700,4.783168701171875,1.3823517451412974,3.5634663888037204,-9.03112330789864
1790107846226112800,4.79311279296875,1.338795512009412,3.6715298731595274,-8.994323563289642
1790107846236057900,4.803057861328125,1.298710023728013,3.784276254634559,-8.953377804917096
1790107846246001700,4.813001708984375,1.2606389440089463,3.9016476655617356,-8.908328118357062
1790107846255945700,4.82294580078125,1.2227534499898551,4.024659712724388,-8.858745464542508
1790107846265890800,4.832890869140625,1.184114141928777,4.152751839630305,-8.804709922972322
1790107846275835000,4.8428349609375,1.1428182549443096,4.285994481167197,-8.746119786837696
1790107846285778700,4.85277880859375,1.0957254451841116,4.425702519325911,-8.682335004669428
1790107846295723800,4.862723876953125,1.0433932734657079,4.571767233034968,-8.61281956989467
1790107846305667600,4.87266748046875,0.9887447876289487,4.723520513774455,-8.537045074725151
1790107846315612000,4.88261181640625,0.9329819838747382,4.8813133669391275,-8.454154025548696
1790107846325555700,4.8925556640625,0.8751612977426498,5.0457706464290615,-8.363295358493923
1790107846335500800,4.902500732421875,0.8138990197893231,5.215407082122564,-8.264832646176218
1790107846345444600,4.912444580078125,0.7525876419972628,5.388361848583817,-8.159018402051926
1790107846355388700,4.922388671875,0.6943253495775162,5.563749979671836,-8.045681361207366
1790107846365333800,4.932333740234375,0.6302431188326328,5.739339770811796,-7.9267370018750425
1790107846375277800,4.94227783203125,0.5659226588850841,5.913752919387817,-7.802413872113823
1790107846385221600,4.9522216796875,0.5081250979002565,6.08437719707489,-7.674148142206668
1790107846395165700,4.962165771484375,0.4584133743459359,6.2470268426209685,-7.545521762293577
1790107846405110800,4.97211083984375,0.42788861835319547,6.401999962189794,-7.416311445012688
1790107846415054800,4.982054931640625,0.4134905655685812,6.548903172549605,-7.287750531551241
1790107846424998700,4.99199853515625,0.4070450061583891,6.686887747916579,-7.1617217669159166
1790107846434943700,5.00194384765625,0.406019462502934,6.817443634587526,-7.037614910253882
1790107846444887600,5.011887451171875,0.41003505481984465,6.942654068577289,-6.9138839011669155
1790107846454831900,5.021831787109375,0.4210413097416982,7.0627855918675655,-6.790446322068572
1790107846464776700,5.031776611328125,0.43860082223191854,7.178382978859544,-6.666997052532434
1790107846474720800,5.041720703125,0.45486437662746754,7.2916481235116715,-6.541815260115265
1790107846484664600,5.05166455078125,0.46389242681153114,7.399751355355978,-6.418634286126494
1790107846494608600,5.061608642578125,0.46267914203163235,7.498858210796118,-6.302652868252992
1790107846504553700,5.0715537109375,0.4481105184530839,7.5882707706958055,-6.195781808552145
1790107846514497800,5.081497802734375,0.41886542700733986,7.668527964237332,-6.098245563429594
1790107846524441600,5.091441650390625,0.3834329156309366,7.739421701627969,-6.010381986537575
1790107846534386700,5.10138671875,0.35607875249832865,7.799665450188517,-5.9337032360047095
1790107846544330800,5.111330810546875,0.33971729068625717,7.848123483887314,-5.870428156924247
1790107846554274800,5.12127490234375,0.33019217770025133,7.885822807684541,-5.820237600344419
1790107846564219600,5.1312197265625,0.3295957461770624,7.915600106310844,-5.779709775123
1790107846574163700,5.141163818359375,0.33894988651033486,7.93925512266457,-5.746625836166739
1790107846584107500,5.151107421875,0.3555401886422187,7.958513949885964,-5.718921252161264
1790107846594051800,5.1610517578125,0.3800337016467005,7.975124892947077,-5.694150968042016
1790107846603996700,5.17099658203125,0.40357225201390684,7.987991388782858,-5.6744619327098125
1790107846613940700,5.180940673828125,0.40655499415174123,7.996203336811065,-5.6626686190634965
1790107846623885000,5.190885009765625,0.3774091983620077,8.001120919468999,-5.65773700788021
1790107846633830100,5.200830078125,0.33383378560561683,8.004896346354483,-5.655138223558664
1790107846643774000,5.21077392578125,0.31651228312235324,8.005026110213995,-5.655949539941549
1790107846653718000,5.220718017578125,0.33316951301060616,8.002734784406423,-5.658237943139672
1790107846663663000,5.2306630859375,0.3577941415814683,8.001122088512778,-5.6590100965559476
1790107846673607200,5.240607177734375,0.37814251760523765,7.997796158960461,-5.662386879512668
1790107846683551000,5.250551025390625,0.4083029337976128,7.990304926422238,-5.670863615956902
1790107846693495000,5.2604951171875,0.4535606370851397,7.978631439763307,-5.6838470161706205
1790107846703440000,5.27043994140625,0.5022626356076448,7.961997115826606,-5.703045053115487
1790107846713384200,5.28038427734375,0.5434338732991367,7.9380767265349625,-5.732540027669072
1790107846723328000,5.290327880859375,0.5766807111995295,7.903439128395915,-5.776976550766825
1790107846733273000,5.300273193359375,0.6027313539855181,7.857659958517551,-5.836459836348891
1790107846743217000,5.310216796875,0.6205909088682383,7.801217940327525,-5.909844221511483
1790107846753161000,5.320160888671875,0.6339489145480096,7.734770076429843,-5.995151684179902
1790107846763106000,5.33010595703125,0.6490982606239617,7.660909890449046,-6.087652273222804
1790107846773050000,5.340050048828125,0.672505805022642,7.5818743476569646,-6.183308111426234
1790107846782994000,5.349993896484375,0.7002596349973231,7.500161694610118,-6.279138137152791
1790107846792938000,5.35993798828125,0.7322318133193999,7.416948573872447,-6.373625516098738
1790107846802883000,5.369883056640625,0.7711573179107158,7.332853994125127,-6.465676023286581
1790107846812827100,5.3798271484375,0.8162428795017301,7.250128364643454,-6.552844019129872
1790107846822771200,5.389771240234375,0.8609901490490883,7.171438858810067,-6.633217532527446
1790107846832716000,5.399716064453125,0.8999594197168945,7.098833056804537,-6.705747346687317
1790107846842659800,5.409659912109375,0.9321281435243784,7.034138758575916,-6.76922583938539
1790107846852604200,5.419604248046875,0.9647906421981751,6.977222108611464,-6.823336784279346
1790107846862548200,5.42954833984375,1.0000314669273793,6.927858065983653,-6.868412189802527
1790107846872493000,5.4394931640625,1.036211983659491,6.886294467973709,-6.904752500206231
1790107846882436900,5.449436767578125,1.0702845683269202,6.851722920808196,-6.933883902144432
1790107846892381000,5.459380859375,1.0954860834702849,6.823585790604352,-6.957656991919874
1790107846902326000,5.469325927734375,1.1100941622763871,6.8000091001838445,-6.978392321434617
1790107846912270000,5.47927001953125,1.1225133527360855,6.778114079239964,-6.997679790228605
1790107846922214100,5.489214111328125,1.1373930150251834,6.7569584784865375,-7.015713459569215
1790107846932159000,5.499158935546875,1.1522277421940117,6.735790018251538,-7.033626132878661
1790107846942103000,5.50910302734375,1.1648587487734854,6.712429600930213,-7.0538500057399265
1790107846952047000,5.519047119140625,1.1724164706766604,6.68733315359652,-7.076399691200256
1790107846961991200,5.5289912109375,1.1748563381094486,6.662366470122337,-7.099506426021456
1790107846971936000,5.53893603515625,1.1751459687057881,6.638055620208382,-7.1221934741258615
1790107846981880000,5.548880126953125,1.1748129373591392,6.61400079088211,-7.144591768416762
1790107846991824100,5.55882421875,1.1755096143864094,6.587639438179135,-7.168790974649786
1790107847001769000,5.56876904296875,1.1769167047053575,6.5562985434979195,-7.197236147889495
1790107847011713000,5.578713134765625,1.1775714422870427,6.518320402759313,-7.23154349116087
1790107847021657000,5.588656982421875,1.179002571068704,6.473493419039249,-7.271465751704573
1790107847031601000,5.598600830078125,1.1839398813404143,6.423335011163354,-7.315014386051893
1790107847041546000,5.6085458984375,1.1926659894358367,6.369771178758144,-7.360294958758354
1790107847051490000,5.618489990234375,1.2018819268748164,6.313365400925278,-7.40724375693798
1790107847061434000,5.62843408203125,1.2066247374877332,6.254397079128027,-7.456337165930867
1790107847071379000,5.63837890625,1.205404036586359,6.1930374782800675,-7.507573432171344
1790107847081323300,5.6483232421875,1.200857698393613,6.128927117419242,-7.560724592122435
1790107847091267000,5.65826708984375,1.1992830694880336,6.061898238763213,-7.614823262056708
1790107847101212000,5.6682119140625,1.2056898677904158,5.992675649455189,-7.668412813425063
1790107847111156000,5.678156005859375,1.2285901933193206,5.9219368103653185,-7.719560816860199
1790107847121100000,5.68810009765625,1.270473086411506,5.848576390600204,-7.768554272609949
1790107847131044000,5.698044189453125,1.3218126668959855,5.77245410490632,-7.816774405899643
1790107847140989200,5.7079892578125,1.3715601558834314,5.694021788704395,-7.865579645600914
1790107847150933000,5.71793310546875,1.4098898865386842,5.614008925312757,-7.916156571149825
1790107847160877000,5.727876953125,1.4340901156850159,5.532769734996557,-7.968827838629483
1790107847170822100,5.737822265625,1.447157979311794,5.451136576926708,-8.022545400291682
1790107847180766200,5.74776611328125,1.4605582897633314,5.369129909369349,-8.075244724822044
1790107847190710000,5.7577099609375,1.4833838695555925,5.285530419662594,-8.12607474834919
1790107847200655000,5.767655029296875,1.5229090936057268,5.198962143278122,-8.17446790011823
1790107847210599000,5.777598876953125,1.5766510590568183,5.10909073369503,-8.220809964576363
1790107847220543200,5.787543212890625,1.6323045572176575,5.020284322994947,-8.264546814972162
1790107847230487000,5.797487060546875,1.6741452186033128,4.935983991542458,-8.306845741519332
1790107847240432000,5.80743212890625,1.687876368444413,4.851787997247278,-8.353539688155054
1790107847250376000,5.8173759765625,1.668851057717949,4.761178336517513,-8.409308921650052
1790107847260320000,5.827320068359375,1.6258827074766158,4.664987660785019,-8.471409696254133
1790107847270265000,5.83726513671875,1.5720989487104118,4.567246248479187,-8.534587744700907
1790107847280209200,5.847209228515625,1.5207514771804214,4.468146407301724,-8.596124455681442
1790107847290153000,5.857153076171875,1.4872102959759532,4.367716778825224,-8.653418122264743
1790107847300098000,5.86709814453125,1.4780074372142553,4.265161536496877,-8.705991190066934
1790107847310042000,5.8770419921875,1.4912147093117236,4.159376810728014,-8.754784739330411
1790107847319986200,5.886986083984375,1.5077841513186692,4.0532770276606085,-8.801586237993837
1790107847329930000,5.896929931640625,1.509623349444568,3.9511502398774025,-8.84758927975595
1790107847339875000,5.906875,1.5069281190112231,3.8575475348114967,-8.889258091706036
1790107847349819000,5.91681884765625,1.5261892843201756,3.772759127581119,-8.92229877604246
1790107847359763200,5.92676318359375,1.5788342483147977,3.6957790560141204,-8.945326600408553
1790107847369708000,5.9367080078125,1.6527018869496881,3.627363691435754,-8.959979395139216
1790107847379652000,5.946652099609375,1.7162063908718526,3.5681153836533426,-8.971821224102378
1790107847389596000,5.956595947265625,1.7480011668004094,3.519890866449475,-8.98472396029532
1790107847399540000,5.9665400390625,1.7513398097038269,3.4805402683138844,-8.999391368073224
1790107847409485000,5.976485107421875,1.7421704148203134,3.4500139048859473,-9.012915451034903
1790107847419429000,5.98642919921875,1.7276244414649902,3.428796929334104,-9.023803924795985
1790107847429373000,5.996373046875,1.7062566592656074,3.4155782590597865,-9.032880965220928
1790107847439318000,6.006318115234375,1.6703151389211415,3.407091293482482,-9.042797379079461
1790107847449262000,6.016261962890625,1.6168172113589943,3.40410234079957,-9.053638506567477
1790107847459206100,6.0262060546875,1.5529061724625528,3.4063092031940814,-9.063990973755716
1790107847469151000,6.03615087890625,1.4891656678274272,3.4130639381513,-9.072142716029285
1790107847479095000,6.046094970703125,1.4269437510617076,3.427421549327671,-9.076728874775768
1790107847489038800,6.056038818359375,1.3658483541078865,3.450980704091489,-9.077200583940744
1790107847498983200,6.065983154296875,1.3114778814949095,3.4838635675176977,-9.07265826433599
1790107847508928000,6.075927978515625,1.266187079655379,3.527069379776716,-9.062392306387425
1790107847518872000,6.0858720703125,1.2242761295124889,3.5805271214589474,-9.047173109945655
1790107847528815900,6.09581591796875,1.180265430611372,3.6438714663833376,-9.02771203815043
1790107847538761200,6.10576123046875,1.1342561783041805,3.7158068217813964,-9.004256343761085
1790107847548705000,6.115705078125,1.085745391504839,3.794677529400587,-8.977304039427638
1790107847558649000,6.125649169921875,1.0315869542073457,3.880635564932227,-8.946891950029134
1790107847568594000,6.135593994140625,0.977998425752297,3.973594711397588,-8.912039832356571
1790107847578538000,6.1455380859375,0.9269565861053765,4.07176457824856,-8.873098399543762
1790107847588482000,6.15548193359375,0.8733604588657617,4.174686608062684,-8.830605996251105
1790107847598426000,6.165426025390625,0.8175289737895131,4.283746409979463,-8.783595238751172
1790107847608371000,6.175370849609375,0.7641187245108186,4.399773712821305,-8.73089474517703
1790107847618315000,6.18531494140625,0.7181774228733032,4.5226787924781435,-8.67179315238893
1790107847628258800,6.1952587890625,0.6798476191528141,4.651930026291311,-8.606261234292388
1790107847638204000,6.205203857421875,0.6501612136803567,4.785939560547471,-8.534777129793166
1790107847648147700,6.215147705078125,0.6311562881547957,4.923221540603041,-8.457771631523967
1790107847658092000,6.225092041015625,0.622948870171234,5.062303848078846,-8.375883037388324
1790107847668036000,6.2350361328125,0.6203636759836226,5.204268432992697,-8.288615088301897
1790107847677981000,6.24498095703125,0.6164676183931529,5.350583614331484,-8.195219596245884
1790107847687924700,6.2549248046875,0.6120954677235335,5.500895756351947,-8.095423589497804
1790107847697868800,6.264868896484375,0.6095078623831272,5.652694337537884,-7.990366301220655
1790107847707814000,6.27481396484375,0.606188326038979,5.801767877674102,-7.88304515966475
1790107847717758000,6.284758056640625,0.6007741555031388,5.94813858859241,-7.773616232174635
1790107847727702000,6.294701904296875,0.590621740931645,6.094535018473863,-7.660169301214814
1790107847737646800,6.304646728515625,0.5724122766327112,6.241424784830212,-7.542370604786276
1790107847747591000,6.3145908203125,0.5587705951733515,6.3866884112894535,-7.420809340953826
1790107847757535000,6.324534912109375,0.5622345449568703,6.526646332556009,-7.297751116561889
1790107847767479000,6.33447900390625,0.588210661201924,6.65663640203774,-7.177294599100947
1790107847777424000,6.344423828125,0.6410729212090372,6.772779732474684,-7.06320644762814
1790107847787368000,6.354367919921875,0.7183385317191481,6.870777165368199,-6.960373265141248
1790107847797312000,6.36431201171875,0.8151902286436409,6.948689841610193,-6.871795402500033
1790107847807256800,6.3742568359375,0.9283147957812994,7.012500342741609,-6.792160724771023
1790107847817201000,6.384200927734375,1.0459144625063985,7.070347551554441,-6.714660720983147
1790107847827145000,6.39414501953125,1.1461163466416298,7.125712880423665,-6.639355012369156
1790107847837090000,6.404090087890625,1.2150029089283196,7.177184708985686,-6.571315495365858
1790107847847033900,6.414033935546875,1.2478550118900835,7.223507484221458,-6.514153930729627
1790107847856978000,6.42397802734375,1.242147886289656,7.2643287394315,-6.469696364843845
1790107847866922000,6.433921875,1.188752980710566,7.302582774502039,-6.436577939096093
1790107847876866800,6.44386669921875,1.1023594763711093,7.342761055633425,-6.406172279438376
1790107847886811100,6.45381103515625,1.0261981007758527,7.382504452478885,-6.37306145247519
1790107847896755000,6.4637548828125,1.0020867189567535,7.418391758418083,-6.335114875918626
1790107847906699800,6.47369970703125,1.0286000473510473,7.456433612042665,-6.286010945531726
1790107847916643800,6.483643798828125,1.0734878944128752,7.505515330597758,-6.219746621507406
1790107847926588000,6.493587890625,1.1102836204338817,7.562887907636165,-6.143319799908995
1790107847936533000,6.503532958984375,1.1397860476415604,7.618888611799478,-6.068260175010562
1790107847946477000,6.51347705078125,1.1791931252047418,7.664013117161392,-6.003562954172492
1790107847956420900,6.5234208984375,1.2368065252617,7.695161704140901,-5.95190583217144
1790107847966365000,6.533364990234375,1.2977386944778262,7.715078118488192,-5.913023436069488
1790107847976310000,6.54331005859375,1.3474693784609437,7.726808303770422,-5.886522967156767
1790107847986254000,6.553254150390625,1.3846682053901254,7.730023174163699,-5.873655886799097
1790107847996198000,6.563197998046875,1.4098393253952264,7.724307719126343,-5.875184411540627
1790107848006143000,6.57314306640625,1.4215809088543057,7.711627685773372,-5.888997832837701
1790107848016086800,6.583086669921875,1.4267451597496867,7.692331449151038,-5.912936342307925
1790107848026031000,6.593031005859375,1.4363194821722804,7.665114940923452,-5.945871228182315
1790107848035976000,6.602975830078125,1.4539821262434125,7.630798829823732,-5.985585983455181
1790107848045920000,6.612919921875,1.467432413316518,7.593138084471225,-6.030034196990728
1790107848055863800,6.62286376953125,1.4736455887429416,7.553239204803108,-6.078432609456777
1790107848065808000,6.632807861328125,1.4855756805114446,7.5088804231166835,-6.130263334459066
1790107848075753000,6.6427529296875,1.5075943278349935,7.460081028634309,-6.184232825055718
1790107848085697000,6.652697021484375,1.526985549264401,7.4092615265011785,-6.240315362283587
1790107848095640800,6.662640869140625,1.5362221641652285,7.357813078814744,-6.298651231396198
1790107848105586000,6.6725859375,1.5414594802968202,7.304768886369466,-6.358823668286204
1790107848115530000,6.682530029296875,1.5545783434584737,7.248522683012485,-6.419702207618951
1790107848125474000,6.69247412109375,1.5707520641461015,7.1913149411469695,-6.479822622060776
1790107848135417900,6.70241796875,1.5735457865178584,7.1364926331132645,-6.539481848731636
1790107848145363000,6.712363037109375,1.5602040743857621,7.083387650391459,-6.600134178093075
1790107848155306800,6.722306640625,1.548577933999896,7.028129873549938,-6.661658614113927
1790107848165251000,6.7322509765625,1.5470122921183704,6.969288393002748,-6.72355246796906
1790107848175196000,6.74219580078125,1.5502226324670016,6.908404592972993,-6.785362150672078
1790107848185140000,6.752139892578125,1.5593747839547694,6.846158856940269,-6.846080531007051
1790107848195083800,6.762083740234375,1.5736004393145442,6.784349758759141,-6.904110110649466
1790107848205029000,6.772029052734375,1.5911705827966331,6.7231421336025,-6.95973613628149
1790107848214973000,6.781972900390625,1.6132789542302488,6.661032006648182,-7.014154539689422
1790107848224917000,6.7919169921875,1.6366332340717316,6.596551643431186,-7.069464923501014
1790107848234860800,6.80186083984375,1.6573180024430154,6.53138212890625,-7.124936050832271
1790107848244806000,6.811805908203125,1.6770757190972565,6.46502486590147,-7.180617606043815
1790107848254750000,6.82175,1.6968819510683417,6.3979264291405675,-7.235850832965969
1790107848264694000,6.831694091796875,1.7143452731750906,6.332002881377935,-7.289522801920771
1790107848274638800,6.841638916015625,1.728853983259946,6.2665089572042225,-7.3424997743487355
1790107848284583000,6.8515830078125,1.741671525387466,6.200185596469044,-7.3955837142825125
1790107848294526700,6.861526611328125,1.750629031085968,6.134253865399956,-7.448264334112405
1790107848304471000,6.871470947265625,1.7525586839742957,6.069118837666511,-7.500981194299459
1790107848314415900,6.881415771484375,1.750440230515599,6.003332652547956,-7.554225877752899
1790107848324360000,6.89135986328125,1.7507795454725623,5.93484071560204,-7.608073787796497
1790107848334303700,6.9013037109375,1.7556094498470425,5.861465682789683,-7.66364369932711
1790107848344249000,6.9112490234375,1.76759653249979,5.781923944041132,-7.721096355864405
1790107848354193000,6.92119287109375,1.7918600361406802,5.692552300673723,-7.781677373555302
1790107848364137000,6.931136962890625,1.8272835239604115,5.5903316971272226,-7.8472689128845925
1790107848374081800,6.941081787109375,1.8673114368356762,5.477732322907447,-7.916942753091454
1790107848384025900,6.95102587890625,1.9086090773858129,5.358469399145245,-7.988393539842963
1790107848393970000,6.960969970703125,1.9511225234664975,5.234222841751575,-8.060176919549702
1790107848403914000,6.9709140625,1.9949032130040227,5.1063271142005915,-8.13118522323072
1790107848413858800,6.98085888671875,2.0353892449103292,4.9774207483023405,-8.2007842446357
1790107848423803000,6.990802978515625,2.06848282847777,4.85209165636897,-8.267344921258092
1790107848433746700,7.00074658203125,2.0934468816034495,4.732632333251834,-8.33006821167469
1790107848443692000,7.010692138671875,2.1096445676885542,4.620713634772598,-8.38861158605814
1790107848453635800,7.0206357421875,2.125500454598665,4.510553470398485,-8.444380235031247
1790107848463580000,7.030579833984375,2.1503836975730954,4.395813869279623,-8.498416361123322
1790107848473524700,7.040524658203125,2.1845383345007896,4.275318188852071,-8.551012809801101
1790107848483469000,7.050468994140625,2.221650359929353,4.151765166680515,-8.602179517936706
1790107848493412900,7.060412841796875,2.2530678269781172,4.0268917095601555,-8.653219384822249
1790107848503357000,7.07035693359375,2.269073059231043,3.9025133424803613,-8.705864933338761
1790107848513301800,7.0803017578125,2.2656452767394484,3.7797003250211474,-8.7607702434808
1790107848523245800,7.090245849609375,2.2494174877770243,3.6591859398931263,-8.815943264648318
1790107848533190000,7.10018994140625,2.2359511263519525,3.548402675184607,-8.86452170985639
1790107848543135000,7.110135009765625,2.2416250803351403,3.4505081181436776,-8.901658139073849
1790107848553078800,7.120078857421875,2.2588899572603403,3.3635935125395653,-8.930513646680117
1790107848563022800,7.13002294921875,2.264442184560001,3.2837767562419176,-8.958765927696227
1790107848572968000,7.139968017578125,2.2541109062902627,3.2117054995045065,-8.987455431085824
1790107848582912000,7.149912109375,2.238413717073202,3.1507442503243683,-9.012918373644352
1790107848592855800,7.159855712890625,2.232181983076781,3.0987007593542337,-9.032486412945389
1790107848602799900,7.1697998046875,2.2370221165843307,3.056642655825615,-9.045610098412633
1790107848612744700,7.17974462890625,2.243943878671527,3.025399376299977,-9.054396046936512
1790107848622689300,7.189689208984375,2.2426915405228733,3.0023639531493185,-9.062368925511837
1790107848632633000,7.199633056640625,2.23906955063343,2.9849875786736604,-9.06900324895978
1790107848642578400,7.209578369140625,2.2342457837387917,2.973581803040206,-9.073937198230624
1790107848652522200,7.219522216796875,2.2261830349229275,2.9709853568062186,-9.076769206786155
1790107848662466300,7.22946630859375,2.2168064270295202,2.9796611229538916,-9.076221509775518
1790107848672410400,7.239410400390625,2.209476084141433,2.9993630177676676,-9.07151903117299
1790107848682355200,7.249355224609375,2.2033770366139707,3.0298256683096287,-9.062872783380746
1790107848692299300,7.25929931640625,2.1933399189852176,3.070614774815738,-9.051572806209325
1790107848702243300,7.269243408203125,2.173070161155611,3.1212410924643277,-9.039137103006244
1790107848712188200,7.279188232421875,2.1404780973695217,3.1827132137760517,-9.025469227659702
1790107848722132200,7.28913232421875,2.0941674509629604,3.256241099062562,-9.010091625785828
1790107848732076300,7.299076171875,2.036430570656806,3.3423584168091414,-8.99177212524116
1790107848742021400,7.309021484375,1.9728404342778025,3.4386434928268192,-8.969617576578258
1790107848751965200,7.318965087890625,1.9094167405068874,3.5418542764544485,-8.943140488541125
1790107848761909200,7.3289091796875,1.8488433216005562,3.6510596243217583,-8.911898962581157
1790107848771853300,7.338853271484375,1.7912967031694949,3.7669048485949634,-8.875363421866297
1790107848781798400,7.34879833984375,1.7380195787511765,3.889054433709383,-8.83317263186872
1790107848791742200,7.3587421875,1.6905230835609137,4.016230322553217,-8.785351727029681
1790107848801686300,7.368686279296875,1.65004085104689,4.148309765529632,-8.73151141577065
1790107848811631000,7.378631103515625,1.6102869328074156,4.286776863716542,-8.671844590315223
1790107848821575200,7.3885751953125,1.5697051854416728,4.432006587906182,-8.606028594580293
1790107848831519500,7.39851953125,1.5298213572122157,4.5831467051833865,-8.533744864135981
1790107848841464300,7.40846435546875,1.4921743481241165,4.7383875357776875,-8.455264032617212
1790107848851408100,7.418408203125,1.4541832017734646,4.895485684676468,-8.37197433951199
1790107848861352200,7.428352294921875,1.415181563206017,5.052886031392217,-8.284682425028086
1790107848871296300,7.438296142578125,1.3823615358829497,5.209101844498515,-8.192966848883032
1790107848881241300,7.448241455078125,1.358171974261105,5.363257802465558,-8.096988939118384
1790107848891185400,7.458185302734375,1.3423869606301189,5.5174383103519675,-7.995389097818732
1790107848901129200,7.468129150390625,1.338112059789896,5.672947436493635,-7.886540600565075
1790107848911074000,7.478073974609375,1.3470042451672255,5.830383731305599,-7.769336947420239
1790107848921018400,7.488018310546875,1.3721079990245402,5.989329846158624,-7.643012999230622
1790107848930962400,7.49796240234375,1.417532364115864,6.145106683325767,-7.509903336423635
1790107848940906200,7.50790625,1.4804365640573203,6.294217048341036,-7.373025845515728
1790107848950851300,7.517851318359375,1.5623055767096579,6.43764702963233,-7.2309274050891394
1790107848960795100,7.527795166015625,1.665642178674042,6.5705532788217065,-7.086877830594777
1790107848970739500,7.537739501953125,1.7822369061402976,6.686016810300946,-6.949184931650757
1790107848980684300,7.547684326171875,1.9029416992738841,6.786711811715364,-6.818340291166305
1790107848990628400,7.55762841796875,2.017276811245084,6.874421659350395,-6.696511900830268
1790107849000572200,7.567572265625,2.1080140438772736,6.9517644267499445,-6.587838760143518
1790107849010517200,7.577517333984375,2.1629477033309636,7.0229580238699905,-6.493852900978922
1790107849020461300,7.58746142578125,2.1711017836920914,7.088207033371925,-6.41981677390933
1790107849030405400,7.5974052734375,2.12171479858011,7.143810847172141,-6.374535616680979
1790107849040349200,7.60734912109375,2.014125507607311,7.195164017790556,-6.351639309740066
1790107849050294300,7.617294189453125,1.8765905757039785,7.249172671353817,-6.3323208612859245
1790107849060238300,7.62723828125,1.7607973738789557,7.3012979953885075,-6.305633929890393
1790107849070182400,7.637182373046875,1.7054776377171277,7.3476990965574975,-6.266821091893315
1790107849080127200,7.647127197265625,1.6999683727763593,7.3913482686698435,-6.21679127883315
1790107849090071300,7.6570712890625,1.717619910931587,7.439684137293696,-6.153962189954519
1790107849100015000,7.66701513671875,1.7397181993626056,7.495621713092922,-6.079425712147355
1790107849109960200,7.676960205078125,1.757145281112194,7.55062580743432,-6.005903379818797
1790107849119904300,7.686904296875,1.7680109585195778,7.598106520533562,-5.942497952356934
1790107849129848300,7.696848388671875,1.783826075027883,7.635517675039171,-5.889586446380615
1790107849139792100,7.706792236328125,1.805441402247548,7.662232663485407,-5.848156703883409
1790107849149737500,7.716737548828125,1.8245584829106927,7.679408254691958,-5.819627944013476
1790107849159681300,7.726681396484375,1.8401010660879313,7.685678421002626,-5.806440545660257
1790107849169625300,7.736625244140625,1.8527381370820104,7.679263877785205,-5.810905708375572
1790107849179570200,7.746570068359375,1.8634684976719318,7.659484241560101,-5.833539564988016
1790107849189514200,7.75651416015625,1.8674654583536088,7.628250314384698,-5.873052075687051
1790107849199458300,7.766458251953125,1.8679492963477968,7.586556367993355,-5.926660916277766
1790107849209402400,7.77640234375,1.8825035991400478,7.533243295478821,-5.98972673652172
1790107849219347200,7.78634716796875,1.906181411847472,7.472476399827003,-6.057967329055071
1790107849229291300,7.796291259765625,1.9178554830282926,7.410183902043104,-6.130365625789761
1790107849239235000,7.806235107421875,1.9141034370183942,7.347077165266871,-6.207016319271922
1790107849249180400,7.816180419921875,1.9039194582648573,7.281726448956132,-6.286646320825815
1790107849259124200,7.826124267578125,1.8969246309414505,7.213216976353526,-6.367225585928559
1790107849269068300,7.836068359375,1.8851592282153664,7.14403588809967,-6.4481999878287315
1790107849279013000,7.84601318359375,1.8563531127087771,7.077917694547772,-6.528969807067513
1790107849288957400,7.85595751953125,1.8270714886449275,7.012847548744082,-6.606977175855636
1790107849298901200,7.8659013671875,1.8176516261316835,6.947104033723473,-6.678644820228219
1790107849308845300,7.87584521484375,1.8034411683410405,6.886874898210167,-6.744549078768491
1790107849318790100,7.8857900390625,1.7558127173341809,6.837835265231132,-6.806727010262012
1790107849328734200,7.895734130859375,1.713023961443454,6.789569539234042,-6.865691240406036
1790107849338678300,7.90567822265625,1.6993629542291164,6.735162241742015,-6.922437794500589
1790107849348623400,7.915623291015625,1.7068676307708024,6.675894060215353,-6.977779157972336
1790107849358567200,7.925567138671875,1.718824902807176,6.614294805392623,-7.033287694704533
1790107849368511200,7.93551123046875,1.7154247389748691,6.5538955740094185,-7.090428801074624
1790107849378456300,7.945456298828125,1.7014453134611247,6.49424920682013,-7.148441429582237
1790107849388400400,7.955400390625,1.6977691091664135,6.431703026536106,-7.2056345584005115
1790107849398344200,7.96534423828125,1.706889258080721,6.363104122084379,-7.264147537645697
1790107849408288300,7.975288330078125,1.7122034388408063,6.287250131937861,-7.3286588805228465
1790107849418233000,7.985233154296875,1.7133515859626232,6.2065726671576495,-7.396842189911007
1790107849428177400,7.995177490234375,1.7307735531456767,6.120659055289626,-7.4640698060095305
1790107849438121200,8.005121337890625,1.7684883667729794,6.023924774199724,-7.5336039454847565
1790107849448066300,8.01506640625,1.8086073189325629,5.916269286122918,-7.609014283517003
1790107849458010000,8.025010009765625,1.8361456064604222,5.803664651206136,-7.688722026482224
1790107849467954200,8.0349541015625,1.8445565841920673,5.693496888047457,-7.768661824637651
1790107849477899300,8.044899169921875,1.8437093197129666,5.589741330018639,-7.8438459526985875
1790107849487843300,8.05484326171875,1.8453698002710937,5.492060123467445,-7.9121613640338175
1790107849497787100,8.064787109375,1.8596702744327485,5.401137159004807,-7.971179954713582
1790107849507731200,8.074731201171875,1.8860056159116327,5.314861728087068,-8.022818372014164
1790107849517676300,8.08467626953125,1.9205362465448677,5.232343019354343,-8.068737242624163
1790107849527620400,8.094620361328126,1.9593891242913901,5.156121364939213,-8.108366073179244
1790107849537564200,8.104564208984375,1.988235279547423,5.087134922474623,-8.144836731964348
1790107849547509200,8.11450927734375,1.984698191462457,5.025465525025129,-8.1838892239362
1790107849557453000,8.124453125,1.938913322495669,4.969079036414623,-8.22917155020833
1790107849567397400,8.1343974609375,1.8735646520115434,4.906845575341582,-8.281488012900947
1790107849577341400,8.144341552734375,1.8270720731668173,4.823065760631859,-8.340876605936884
1790107849587286300,8.154286376953126,1.8274631183110177,4.718885547450185,-8.400171675470471
1790107849597230000,8.16422998046875,1.884017803095281,4.617626774673163,-8.443837214195728
1790107849607174100,8.174174072265625,1.9895114369630813,4.52424326531589,-8.470151220625638
1790107849617119200,8.184119140625,2.129490401017666,4.429113789074123,-8.486377548283338
1790107849627063000,8.19406298828125,2.266543979144841,4.326614660847187,-8.50373843292892
1790107849637007400,8.20400732421875,2.359642680211365,4.215950346343219,-8.533944770622252
1790107849646952200,8.2139521484375,2.390976852890849,4.095766216082871,-8.583607503935694
1790107849656896000,8.22389599609375,2.3708877123251555,3.968135861469805,-8.648885155010223
1790107849666840000,8.233840087890625,2.326480561452359,3.844720494203269,-8.71642198318839
1790107849676784000,8.2437841796875,2.2850213005997237,3.7331492939874527,-8.775684904018044
1790107849686729200,8.253729248046875,2.237437419386953,3.644790334793925,-8.824950746968389
1790107849696673300,8.26367333984375,2.149013139872253,3.572385316057503,-8.87638458160758
1790107849706617000,8.2736171875,2.0210592523932456,3.504840012311935,-8.933184911715983
1790107849716562000,8.28356201171875,1.8801225492224096,3.4379423588201403,-8.98977539846599
1790107849726506200,8.29350634765625,1.7558103792466222,3.36940366012305,-9.040720572805403
1790107849736450300,8.3034501953125,1.6618289039961993,3.296633607466519,-9.085202104088664
1790107849746394000,8.31339404296875,1.5948111312560735,3.2226191077068447,-9.123687609827519
1790107849756339200,8.323339111328124,1.55179207374081,3.153926095230877,-9.155055977037549
1790107849766283000,8.333282958984375,1.533125367193669,3.089632194496691,-9.180092218616604
1790107849776227300,8.343227294921874,1.5345441479504107,3.0272283452928064,-9.200622965469956
1790107849786172200,8.353172119140625,1.5454028110951183,2.970029078994691,-9.217432061451673
1790107849796116200,8.3631162109375,1.56471219945997,2.9215234067618847,-9.229667273646593
1790107849806060000,8.37306005859375,1.593132822780311,2.8814021165147423,-9.237414526772499
1790107849816005000,8.383005126953124,1.6168806319840252,2.849213080571592,-9.24326968254149
1790107849825949200,8.39294921875,1.6206962447494266,2.824519661080837,-9.250179315799475
1790107849835893200,8.402893310546874,1.597432419670373,2.809698816306889,-9.258735547220706
1790107849845837000,8.412837158203125,1.56429222048223,2.8028648786336183,-9.266463511124252
1790107849855782100,8.4227822265625,1.5429650625541804,2.799159594374895,-9.271157806420325
1790107849865726200,8.432726318359375,1.5376624261014162,2.8018197534948586,-9.271236132353543
1790107849875670300,8.442670166015626,1.5474927691116929,2.812460389974713,-9.266375832840799
1790107849885615000,8.452614990234375,1.5555217617884278,2.827816656799614,-9.260357595464587
1790107849895559200,8.46255908203125,1.5423706037923692,2.844811046220362,-9.257349645820259
1790107849905503000,8.4725029296875,1.509725933036208,2.8619799154251813,-9.257440246713161
1790107849915448000,8.482447998046876,1.4789813968129455,2.8784511577546597,-9.257297038850188
1790107849925392100,8.49239208984375,1.4697788303121924,2.894979975490272,-9.253605783116816
1790107849935336200,8.502336181640626,1.4843093138374388,2.9110850148558614,-9.246232039478421
1790107849945280000,8.512280029296875,1.5064368283629417,2.9244530304729937,-9.238431010338664
1790107849955225300,8.522225341796876,1.5214267460934816,2.9304277209684253,-9.234081582957506
1790107849965169200,8.532169189453125,1.5230845963031052,2.926630959033966,-9.235013310849666
1790107849975113200,8.54211328125,1.5196486305050552,2.9140432801395653,-9.23955563045442
1790107849985058000,8.55205810546875,1.5257145064152777,2.896205133371055,-9.24416400103271
1790107849995002000,8.562002197265626,1.5404238536387682,2.8753683893084525,-9.248227012687922
1790107850004946200,8.5719462890625,1.5590924598820506,2.851739968700707,-9.252415696549415
1790107850014890200,8.58189013671875,1.5824964240841566,2.8266318309292195,-9.256144946205616
1790107850024835000,8.5918349609375,1.609608449023962,2.803475119486451,-9.258513428902626
1790107850034779100,8.601779052734376,1.639784099318087,2.785082845966518,-9.258770034012198
1790107850044723000,8.611722900390625,1.671692564754188,2.7742931564047932,-9.25630276711583
1790107850054668300,8.621668212890626,1.7030558173976837,2.7712881293699145,-9.251484553179145
1790107850064612000,8.631612060546875,1.7307006340399385,2.7725129949897527,-9.245983617675304
1790107850074556200,8.64155615234375,1.7566650963798165,2.7745813256964085,-9.240466315558551
1790107850084501000,8.6515009765625,1.7821128413692116,2.7751667243689297,-9.23541663095355
1790107850094445300,8.6614453125,1.8070925304554402,2.7741528711512684,-9.230863789954782
1790107850104389000,8.67138916015625,1.8316808821365236,2.772917191876471,-9.22638869036734
1790107850114333200,8.681333251953125,1.8558406331419943,2.7721885853409765,-9.221779150745272
1790107850124278000,8.691278076171875,1.8800763719931244,2.7699890294700857,-9.21753026112914
1790107850134222000,8.70122216796875,1.9099008707620202,2.765800345608592,-9.212655348569154
1790107850144166100,8.711166259765625,1.9461790757149457,2.760807944148779,-9.206558200737833
1790107850154111200,8.721111328125,1.9860059130601584,2.7603125618472695,-9.198197199627757
1790107850164055000,8.731054931640625,2.0250440842457116,2.766367039580643,-9.187861683574319
1790107850173999000,8.7409990234375,2.0614083600468933,2.7757550456508993,-9.176938138499855
1790107850183944200,8.750944091796875,2.0917479687310756,2.78417479121089,-9.167517983725666
1790107850193888300,8.76088818359375,2.109378610228747,2.790261709909141,-9.161624834033846
1790107850203832000,8.77083203125,2.113730229566991,2.7951696479558943,-9.159124249389768
1790107850213776100,8.780776123046875,2.1108720636568963,2.800427422353625,-9.158176154884696
1790107850223721000,8.790720947265624,2.107544526669383,2.8056711682260036,-9.157338535016775
1790107850233665300,8.800665283203125,2.1042912239618596,2.810615931151807,-9.156570473253726
1790107850243609000,8.810609130859374,2.097451002678275,2.8160537382915614,-9.15646935096681
1790107850253554200,8.82055419921875,2.086408215138316,2.8230858288854357,-9.156828247407079
1790107850263498000,8.830498046875,2.073423792011291,2.833581503936648,-9.156533063852786
1790107850273442000,8.840442138671875,2.058358763217926,2.8502286873549223,-9.154764885136485
1790107850283387100,8.85038720703125,2.0391693479709327,2.8744743630781766,-9.151479872116447
1790107850293331200,8.860331298828125,2.014831756180525,2.9047721784472462,-9.147302878692745
1790107850303275000,8.87027490234375,1.974405637767911,2.940768789979815,-9.144617585131526
1790107850313219000,8.880218994140625,1.9066143964372575,2.984388151475787,-9.14486951406598
1790107850323164200,8.8901640625,1.820561960620433,3.0335023109957575,-9.146244894072414
1790107850333108200,8.900108154296875,1.7386856414444745,3.085329236605763,-9.144838534405826
1790107850343052000,8.910052001953124,1.6763409750819205,3.138642893642187,-9.138336312904954
1790107850352997000,8.9199970703125,1.6315177907541394,3.193722099046409,-9.12735782277286
1790107850362941000,8.92994091796875,1.5978759256541728,3.251431360693276,-9.11292247018516
1790107850372885200,8.93988525390625,1.5674826870866119,3.313011618554592,-9.09600757574141
1790107850382830000,8.949830078125,1.5341872973367572,3.379496891853213,-9.07720526011586
1790107850392774100,8.959774169921875,1.4962456892162561,3.4515593807622786,-9.056398618930578
1790107850402718000,8.969718017578124,1.451479349642247,3.531394549499452,-9.03287570452392
1790107850412662000,8.979662109375,1.3986409089021383,3.621272681084275,-9.005586131060124
1790107850422607000,8.989607177734374,1.3412404209434985,3.7225975048348308,-8.972944675174356
1790107850432551200,8.99955126953125,1.2829065976575016,3.83582231747657,-8.933700460022687
1790107850442495200,9.0094951171875,1.2238739784523844,3.960336585895717,-8.887533752131462
1790107850452440000,9.019440185546875,1.1660240662258117,4.094804969835281,-8.834213665354252
1790107850462384000,9.029384033203126,1.1160573815297334,4.237964025230705,-8.772939404702186
1790107850472328200,9.039328125,1.0767925619814545,4.388969994734228,-8.703324016684293
1790107850482273000,9.04927294921875,1.0470203779216856,4.54670731831938,-8.62563521232605
1790107850492217000,9.059217041015625,1.0244505995213984,4.710788750234246,-8.539868899974227
1790107850502161200,9.0691611328125,1.0093217847768217,4.8800005307748915,-8.446138476875424
1790107850512105200,9.079105224609375,1.0031618739075958,5.053317993068695,-8.344339898133278
1790107850522050000,9.089050048828126,1.0097220361407846,5.230149308702349,-8.233855908632277
1790107850531994000,9.098994140625,1.0321649732910096,5.408638912937045,-8.114903365993499
1790107850541938200,9.108938232421876,1.0658922516521065,5.586626997390389,-7.988983906951546
1790107850551883300,9.11888330078125,1.109793571894616,5.761032547181844,-7.858070877406001
1790107850561827000,9.1288271484375,1.1573270380944012,5.9230012247264385,-7.729749033397436
1790107850571771100,9.138771240234375,1.1908096209794283,6.064702774789929,-7.613915499562024
1790107850581715200,9.148715087890626,1.1910952329877764,6.187305072107911,-7.514579511541128
1790107850591660000,9.158659912109375,1.1542457309529184,6.300946648856997,-7.425374456912278
1790107850601604000,9.16860400390625,1.0896466367270796,6.412107514706253,-7.339478380700945
1790107850611548200,9.178548095703125,1.0080046377636491,6.518920706740022,-7.256582655349374
1790107850621492700,9.18849267578125,0.9274730842601507,6.623692748335004,-7.171950899985432
1790107850631436500,9.1984365234375,0.8626249106440692,6.728206431254744,-7.082194056692719
1790107850641380600,9.208380615234375,0.8362189150817692,6.831864374127984,-6.985467374387383
1790107850651324400,9.218324462890624,0.8508386112604289,6.928993207493424,-6.887344853809475
1790107850661269800,9.228269775390626,0.8804875342667102,7.0121771021366115,-6.7988610991925
1790107850671213600,9.238213623046875,0.907806626085937,7.079425176501274,-6.725178023344278
1790107850681157600,9.24815771484375,0.9251197260670363,7.131192773139476,-6.667879096063971
1790107850691102700,9.258102783203125,0.9351356547772883,7.1706152674674986,-6.624059828081727
1790107850701046800,9.268046875,0.938998394620046,7.198833061692119,-6.59283408421278
1790107850710990600,9.277990478515624,0.930626652920246,7.219878187808394,-6.570971211972832
1790107850720935700,9.287935791015625,0.9140911862481385,7.242692661684751,-6.548145632180571
1790107850730879500,9.29787939453125,0.9073484339896589,7.272344872626662,-6.516141889676451
1790107850740823800,9.30782373046875,0.9102397715169935,7.304039403051138,-6.480190870851278
1790107850750767600,9.317767578125,0.9101266665313392,7.333076112443209,-6.4473302192568775
1790107850760712700,9.327712646484375,0.8999289515133947,7.3560706190615885,-6.422519603127241
1790107850770656500,9.337656494140624,0.8801272495869547,7.37027976167798,-6.4089569417208425
1790107850780600600,9.3476005859375,0.8585067347355186,7.3756521023660895,-6.405709922623634
1790107850790545700,9.357545654296874,0.8294732402138412,7.373959326973557,-6.411481491762399
1790107850800489700,9.36748974609375,0.7937335260517895,7.365572606900334,-6.4256298441022635
1790107850810433500,9.37743359375,0.7618648811694234,7.349933139219879,-6.447357691785693
1790107850820378600,9.387378662109375,0.7373266522403806,7.327854578402638,-6.47528264054358
1790107850830322700,9.39732275390625,0.7164443885356188,7.301269353815913,-6.507579228514433
1790107850840266800,9.407266845703125,0.6974599212761968,7.2721110638707875,-6.542199290996789
1790107850850210600,9.41721044921875,0.6851948984649032,7.240842065382004,-6.578078998151421
1790107850860155600,9.42715576171875,0.6788503517437726,7.207559388983249,-6.615183278664946
1790107850870099500,9.437099365234374,0.6721120564647018,7.1723472058266395,-6.654027680844068
1790107850880043800,9.447043701171875,0.6587554390244186,7.135537524345517,-6.694815033784509
1790107850889988600,9.456988525390624,0.6371599124837667,7.096919332137704,-6.737815386599302
1790107850899932700,9.4669326171875,0.6126933605514466,7.055381453090906,-6.783551301857829
1790107850909876500,9.47687646484375,0.5939326190453023,7.010089189946651,-6.832003490337729
1790107850919821800,9.48682177734375,0.5838385105323046,6.961687270349263,-6.882182941001653
1790107850929765600,9.496765625,0.5751370619541034,6.91210461653471,-6.932704921492934
1790107850939709700,9.506709716796875,0.5625174170188606,6.862538329333066,-6.982802539092302
1790107850949653500,9.516653564453126,0.5536686689244583,6.81174688425064,-7.033062069255113
1790107850959598600,9.5265986328125,0.5515355293532833,6.759363786062598,-7.083587556877732
1790107850969542700,9.536542724609374,0.5484413992628455,6.704798083138465,-7.135496023291349
1790107850979486700,9.54648681640625,0.5437856093462556,6.6452154288351535,-7.1913698862046
1790107850989431600,9.556431640625,0.5338714239774272,6.578313975951075,-7.253355509996414
1790107850999375600,9.566375732421875,0.5204549661086872,6.503842380073666,-7.321169986072182
1790107851009319400,9.5763193359375,0.5103897183639928,6.421839804169535,-7.393906720981001
1790107851019264800,9.5862646484375,0.4992328394576907,6.3329831245869395,-7.470911634728312
1790107851029208600,9.59620849609375,0.4828319954833016,6.239444424667954,-7.55027100264728
1790107851039152600,9.606152587890625,0.46762814274113623,6.141509535616636,-7.631091675290465
1790107851049096700,9.6160966796875,0.459227174946852,6.040973524156213,-7.711427779287099
1790107851059041800,9.626041748046875,0.4509929420216009,5.942739359897375,-7.787865122279524
1790107851068985600,9.635985595703126,0.43463381829708814,5.852301548603177,-7.856976067906618
1790107851078929700,9.6459296875,0.42195718247760083,5.768596260434388,-7.919320003616809
1790107851088874500,9.65587451171875,0.4172636908991262,5.688545403119921,-7.977263074019551
1790107851098818600,9.665818603515625,0.4117863919992,5.610827957189083,-8.032400439351797
1790107851108762600,9.6757626953125,0.4058209807887673,5.534221687370539,-8.085672010812162
1790107851118706700,9.685706787109375,0.4111617938274517,5.457276394855976,-8.137535469040275
1790107851128651500,9.695651611328126,0.4328809832803905,5.378768090808391,-8.188519806346298
1790107851138595600,9.705595703125,0.4653089425459504,5.299089573937654,-8.238538513490557
1790107851148539600,9.71553955078125,0.5021952694598585,5.217377505412697,-8.288374849805235
1790107851158484700,9.725484619140625,0.5409804522650316,5.131847924426197,-8.339175647237896
1790107851168428500,9.735428466796876,0.57859122099597,5.039696879473328,-8.392680442932248
1790107851178372600,9.74537255859375,0.6090769601525738,4.941652684828639,-8.448636723431944
1790107851188317400,9.7553173828125,0.6352401964675635,4.838459144596755,-8.506244278270005
1790107851198261800,9.76526171875,0.6650235595084727,4.730097846338152,-8.564711664807795
1790107851208205800,9.775205810546876,0.70516808450073,4.615641446074843,-8.623744868534803
1790107851218149600,9.785149658203125,0.7610191510602832,4.496714330138266,-8.681635916489363
1790107851228094500,9.795094482421876,0.8233003237325698,4.379175745950639,-8.735868441936374
1790107851238038500,9.80503857421875,0.8713206966664642,4.266458590570092,-8.786838166195153
1790107851247982800,9.81498291015625,0.8966027297001331,4.15783367293924,-8.836227927786112
1790107851257927700,9.824927734375,0.9096620446942746,4.049568528531491,-8.88503901270628
1790107851267871700,9.834871826171875,0.9113865303993225,3.94124230158627,-8.933441516825557
1790107851277815600,9.844815673828125,0.8981888298477977,3.8330993222534655,-8.98170256664753
1790107851287760600,9.8547607421875,0.8723767815906553,3.7263632871091366,-9.029041240927576
1790107851297704700,9.86470458984375,0.8465209672570229,3.6248920406252143,-9.072703857043384
1790107851307648800,9.874648681640625,0.82231613500081,3.5240731205701827,-9.114555039823054
1790107851317592600,9.884592529296874,0.797736258887127,3.4223186732307074,-9.155422472262382
1790107851327537700,9.89453759765625,0.7867367259670048,3.3265584978699683,-9.191596778449416
1790107851337481700,9.904481689453124,0.7969326143540442,3.243254776239395,-9.220443518227338
1790107851347425800,9.91442578125,0.7988274881899357,3.1753900312811134,-9.243871740087867
1790107851357370600,9.92437060546875,0.7536038333024829,3.11773045399487,-9.267266644200681
1790107851367314700,9.934314697265625,0.6498451334685087,3.0636198013618587,-9.293134660428763
1790107851377258500,9.944258544921874,0.5245872801404446,3.0131250011384485,-9.317524420797824
1790107851387202800,9.954202880859375,0.4213270313479006,2.9738261331900953,-9.335375134786963
1790107851397147600,9.964147705078124,0.34674770077969874,2.9474785167515276,-9.346791431814431
1790107851407091700,9.974091796875,0.27955183152630925,2.928689060607552,-9.35494492765367
1790107851417035500,9.984035400390624,0.20294479452278463,2.9130153983965514,-9.361813644379376
1790107851426980600,9.993980712890625,0.12626914012930354,2.901227929969132,-9.366819489842653
1790107851436924700,10.003924560546874,0.05806205257333349,2.8968215117037293,-9.368854210540652
1790107851446868700,10.01386865234375,-0.01259711001809337,2.9023142639011144,-9.36732627032101
1790107851456813600,10.0238134765625,-0.09434573285239749,2.9163670469120144,-9.362494027858972
1790107851466757600,10.033757568359375,-0.18071548185693098,2.9380855422452092,-9.354429379346966
1790107851476701700,10.04370166015625,-0.25975429431833325,2.9667928735524414,-9.343504080706834
1790107851486645800,10.053645751953125,-0.32889285860471423,3.0031250006496903,-9.329709364110231
1790107851496590600,10.063590576171874,-0.40194687930177897,3.048615124453604,-9.312076676785946
1790107851506534700,10.07353466796875,-0.48408298192508514,3.104165746761858,-9.289791195219754
1790107851516478500,10.083478515625,-0.573978320373036,3.169626645448804,-9.262527925240994
1790107851526423800,10.093423828125,-0.6697496381822973,3.244315975730121,-9.230181652909517
1790107851536367600,10.10336767578125,-0.7705950078528374,3.327854967421293,-9.192494019550084
1790107851546311700,10.113311767578125,-0.8720863472767174,3.4207425099551676,-9.149228293797373
1790107851556256500,10.123256591796874,-0.9738030929543078,3.522306403158605,-9.100300304499267
1790107851566200800,10.133200927734375,-1.08342162473239,3.6322684146121142,-9.0445123663038
1790107851576144600,10.14314453125,-1.197062690024823,3.748319098329544,-8.982623773145676
1790107851586088700,10.153088623046875,-1.3005689494676886,3.867822260588407,-8.917334431633353
1790107851596033500,10.163033447265626,-1.3835381784468888,3.991235874289274,-8.850212029474973
1790107851605977600,10.1729775390625,-1.4545859373554586,4.11965796380192,-8.779693555137515
1790107851615921700,10.182921630859376,-1.527919469113648,4.255326078920066,-8.702187121608853
1790107851625867300,10.1928671875,-1.6034113479495047,4.398518744324147,-8.616987795490026
1790107851635811300,10.202811279296874,-1.6665025948956609,4.548054349014163,-8.52691940203011
1790107851645755400,10.21275537109375,-1.712226819716394,4.703483687917888,-8.433024728280305
1790107851655699200,10.22269921875,-1.7509259682059286,4.865637951162457,-8.332480533513426
1790107851665644300,10.232644287109375,-1.7848019343227146,5.032085235425829,-8.225752097153663
1790107851675588400,10.24258837890625,-1.8062325526252387,5.198915966048836,-8.116600233039259
1790107851685532400,10.252532470703125,-1.8115056707225738,5.364574730283022,-8.00688255173564
1790107851695477200,10.262477294921876,-1.8001288289226591,5.530244015911221,-7.895967769601941
1790107851705421300,10.27242138671875,-1.7729700422316788,5.6944508277714245,-7.784611673441529
1790107851715365000,10.282365234375,-1.7307064792588351,5.854065635666251,-7.674955951458215
1790107851725310200,10.292310302734375,-1.6752375438846647,6.006472119617462,-7.568768782368302
1790107851735254300,10.302254150390626,-1.6198581864900885,6.14905571321249,-7.465624634236097
1790107851745198300,10.3121982421875,-1.5694003572762012,6.279114756277203,-7.3675015291363
1790107851755142100,10.32214208984375,-1.518641060897708,6.394460798856616,-7.278389998009801
1790107851765087500,10.33208740234375,-1.4630533214494585,6.496472143566608,-7.199006664693355
1790107851775031300,10.34203125,-1.4140734558336436,6.589760668116807,-7.123610939708351
1790107851784975400,10.351975341796875,-1.3842689769394696,6.674167382553219,-7.050507709574699
1790107851794920200,10.361920166015626,-1.3810812868140636,6.747875008320808,-6.9806292867064474
1790107851804864300,10.3718642578125,-1.414673175292462,6.814260328376292,-6.909049320617318
1790107851814808300,10.381808349609376,-1.4883024751268326,6.87512074753046,-6.832865075603127
1790107851824753400,10.39175341796875,-1.5702701258480547,6.932239642068743,-6.756379801815748
1790107851834697200,10.401697265625,-1.6153089987531304,6.990488417419791,-6.68537442074418
1790107851844641300,10.411641357421875,-1.6155995061323045,7.047079488691687,-6.625623424136638
1790107851854585000,10.421585205078125,-1.5934282985955477,7.102837031748891,-6.571231324213743
1790107851864530400,10.431530517578125,-1.5639290862582622,7.163202360862493,-6.512530128920078
1790107851874474200,10.44147412109375,-1.539013256188482,7.223705637142062,-6.451347053682804
1790107851884418300,10.451418212890625,-1.5258727657169102,7.283652448582648,-6.386742771825194
1790107851894363100,10.461363037109376,-1.5160238641366361,7.34096248177886,-6.323157896143198
1790107851904307500,10.471307373046875,-1.497241714516282,7.391002231711148,-6.269109495091438
1790107851914251300,10.481251220703125,-1.4688886034741997,7.432572259461879,-6.226524152818322
1790107851924196400,10.4911962890625,-1.437449509115517,7.467755216524004,-6.191666774448752
1790107851934140200,10.50114013671875,-1.3878490273833275,7.4943404411107295,-6.170828569081426
1790107851944084200,10.511084228515625,-1.3179377251587807,7.510366862282156,-6.166670280358195
1790107851954028300,10.5210283203125,-1.25524205340147,7.518387087130546,-6.169976920688152
1790107851963973400,10.530973388671875,-1.2141436617504804,7.517946942147612,-6.178731305029988
1790107851973917200,10.540917236328125,-1.1750188351947815,7.506292744711041,-6.200427004009485
1790107851983861200,10.550861328125,-1.1283110792294144,7.483792743611335,-6.236197990092635
1790107851993806300,10.560806396484375,-1.0950186851542443,7.453429169529676,-6.2783531242549415
1790107852003750400,10.57075048828125,-1.0746344340994953,7.415812263318895,-6.326238326501846
1790107852013694200,10.580694091796875,-1.051910341920331,7.372082427185774,-6.38093028615415
1790107852023638300,10.59063818359375,-1.0153462326981126,7.324004917237162,-6.441924560821056
1790107852033583000,10.6005830078125,-0.9799239139221608,7.274481300133466,-6.503234477308392
1790107852043527400,10.61052734375,-0.9685083475470543,7.226127311331033,-6.558617926356196
1790107852053471200,10.62047119140625,-0.9540130814656614,7.176821136370301,-6.614642595916986
1790107852063416300,10.630416259765624,-0.9149171887435018,7.126462237486243,-6.674344492685794
1790107852073360100,10.640360107421875,-0.886886514588818,7.07870504553318,-6.7287266557365655
1790107852083304200,10.65030419921875,-0.9072392014615237,7.03482148014307,-6.771896519899368
1790107852093248300,10.660248291015625,-0.9287471227839589,6.989251569101214,-6.816024415439367
1790107852103193300,10.670193359375,-0.9150386962313204,6.940740343910456,-6.867258343592286
1790107852113137200,10.68013720703125,-0.8823153342157601,6.891480930700898,-6.920940833941102
1790107852123081200,10.690081298828124,-0.8605784995082766,6.84125179567635,-6.97331282621324
1790107852133026300,10.7000263671875,-0.8557065095577389,6.788358994400501,-7.025406586065888
1790107852142970400,10.709970458984374,-0.8468629125624895,6.732500329056382,-7.080017881697416
1790107852152914200,10.7199140625,-0.8217237951308488,6.673461864632368,-7.138632567751407
1790107852162859300,10.729859375,-0.7871884883224963,6.609000206115842,-7.202211013692617
1790107852172803000,10.739802978515625,-0.751193118898943,6.536870204928517,-7.271549338334799
1790107852182747400,10.749747314453124,-0.713364834959805,6.456939174601435,-7.34638801395893
1790107852192691200,10.759691162109375,-0.6699130120504647,6.371952029928565,-7.42427204862833
1790107852202636300,10.76963623046875,-0.6236269886285066,6.285421162945032,-7.501663331344723
1790107852212580000,10.779580078125,-0.5752858593076468,6.200329388853907,-7.575970092049241
1790107852222524200,10.789524169921876,-0.5113326252372935,6.116151806998253,-7.6486349307656285
1790107852232469200,10.79946923828125,-0.4278110596049577,6.032106911611557,-7.720171642234921
1790107852242413300,10.809413330078126,-0.336666013356857,5.947375203004479,-7.790105594682693
1790107852252357000,10.819357177734375,-0.2507180790941231,5.861180436107516,-7.858376582354307
1790107852262302200,10.82930224609375,-0.17341801832513884,5.77437484383583,-7.924449767720699
1790107852272246300,10.839246337890625,-0.10584927890505641,5.687916457566619,-7.987915985459089
1790107852282190300,10.8491904296875,-0.04356208748393692,5.5992304583758115,-8.050906986901163
1790107852292134400,10.859134521484375,0.02578616489721462,5.50523641590476,-8.115545171028375
1790107852302079200,10.869079345703126,0.10590647985185496,5.40538371053338,-8.181748704776167
1790107852312023000,10.87902294921875,0.19418025411311535,5.3022676194518805,-8.247340828627348
1790107852321967400,10.88896728515625,0.28454474444277583,5.198140890023112,-8.310762038180231
1790107852331912200,10.898912109375,0.37230847768951203,5.093465294539929,-8.37188023148775
1790107852341856300,10.908856201171876,0.4637361402712762,4.986446350800991,-8.431528936764597
1790107852351800300,10.91880029296875,0.557702673680894,4.876687460704147,-8.489832072651385
1790107852361745400,10.928745361328126,0.6450554880391806,4.766135958924889,-8.546241357615589
1790107852371689200,10.938689208984375,0.7201167934380471,4.658286117319762,-8.59954390873611
1790107852381633300,10.94863330078125,0.781940212405473,4.5552682259157296,-8.64918910639286
1790107852391577300,10.958577392578125,0.8299997483059763,4.457077316276729,-8.695742767775059
1790107852401522200,10.968522216796876,0.851577519994229,4.358834384189546,-8.743328110292554
1790107852411466200,10.97846630859375,0.8527553316019475,4.258536273138225,-8.792500429740548
1790107852421410300,10.988410400390626,0.842474468345195,4.157981556977331,-8.841483948618173
1790107852431355100,10.998355224609375,0.8368027793843299,4.055767967693507,-8.889370904430747
1790107852441299200,11.00829931640625,0.8478811496943235,3.952167892487347,-8.934867750236391
1790107852451243300,11.0182431640625,0.8821907579880207,3.8461052265599367,-8.97772781779766
1790107852461188400,11.028188232421876,0.9284362302038818,3.735961428798735,-9.019478462812303
1790107852471132200,11.038132080078125,0.9753201464537531,3.6270734763175247,-9.058887513136863
1790107852481076200,11.048076171875,1.0207232495613396,3.523936050187051,-9.094523474663495
1790107852491020300,11.058020263671875,1.0524843424160033,3.4262069128409025,-9.128184921246767
1790107852500965400,11.06796533203125,1.0650811544649301,3.3358333989545703,-9.160140732955933
1790107852510909400,11.077909423828125,1.0732109771676361,3.256080647803843,-9.187847655048966
1790107852520853200,11.087853271484375,1.092519488749653,3.18837693862617,-9.209292009615897
1790107852530798000,11.097798095703125,1.1212151296190918,3.128774702839553,-9.226267694336176
1790107852540742100,11.1077421875,1.1371461275920272,3.0785759629532694,-9.241193460789322
1790107852550686500,11.1176865234375,1.1359618131782858,3.0415508851557966,-9.253590001025795
1790107852560630300,11.12763037109375,1.138157715787366,3.0169147488102315,-9.261381677815317
1790107852570575400,11.137575439453125,1.1502521312721072,3.000395867946744,-9.265253550812602
1790107852580519200,11.147519287109375,1.16191728849411,2.9891201484337446,-9.267443169811367
1790107852590463200,11.157463134765624,1.1604331143509596,2.9842803071871398,-9.269187383130193
1790107852600408300,11.167408203125,1.145955237795785,2.986169189673662,-9.270380976828932
1790107852610352400,11.177352294921874,1.1239328641451896,2.993580927234888,-9.270686681777239
1790107852620296200,11.187296142578125,1.1003265092387795,3.0088325646415353,-9.268581233930588
1790107852630241000,11.197240966796874,1.076829825251922,3.0346491429433224,-9.262923062038421
1790107852640184800,11.207184814453125,1.0560520448349415,3.0725586023598908,-9.252812586912512
1790107852650129000,11.21712890625,1.0399661485612393,3.1235452777534722,-9.237550135850906
1790107852660072700,11.22707275390625,1.0292538350846618,3.1871932817995545,-9.216987240293621
1790107852670018000,11.23701806640625,1.0204190789829939,3.262531723639369,-9.191572813051938
1790107852679961900,11.2469619140625,1.0042035649802534,3.3465921088561412,-9.16309198397696
1790107852689906000,11.256906005859374,0.9827643249798566,3.4378020735666155,-9.131596775516867
1790107852699850800,11.266850830078125,0.9609113896120339,3.5347540890604257,-9.096843442043662
1790107852709794800,11.276794921875,0.9412703581400215,3.6381016508102415,-9.058069182491302
1790107852719739000,11.28673876953125,0.9222872791200876,3.748343063727021,-9.014969460955262
1790107852729684000,11.29668408203125,0.8904673687502741,3.8677357513487336,-8.967612666496635
1790107852739627800,11.306627685546875,0.8421564884372055,3.997215240959823,-8.915347057208418
1790107852749571800,11.31657177734375,0.7842449822165072,4.134421233169734,-8.857872773361205
1790107852759515600,11.326515625,0.7281731125131249,4.275376933301985,-8.795525915041566
1790107852769461000,11.3364609375,0.67499214194566,4.416482855559885,-8.729802858287096
1790107852779404800,11.34640478515625,0.6163052674382925,4.557846844232082,-8.661211552619934
1790107852789348900,11.356348876953126,0.5469926252266392,4.702344454754889,-8.58831465871334
1790107852799294000,11.3662939453125,0.46903125100471077,4.853121291677653,-8.50867881194055
1790107852809238000,11.376238037109376,0.3922927696412429,5.011384977224469,-8.420363984149693
1790107852819181800,11.386181884765625,0.32865799040291455,5.175215356987715,-8.323432719182968
1790107852829126000,11.3961259765625,0.2792361897058785,5.340394228750467,-8.22025583782494
1790107852839070700,11.40607080078125,0.23768563384059815,5.505139969792962,-8.112173648768662
1790107852849015000,11.41601513671875,0.21175339326988904,5.669793940898776,-7.998685216754675
1790107852858958800,11.425958740234375,0.20702698580250142,5.834338021889328,-7.879597065037489
1790107852868904000,11.435904052734376,0.2187895024517551,5.997564590540528,-7.755754412269591
1790107852878847700,11.44584765625,0.2434336029080674,6.1581584726005785,-7.628120550525188
1790107852888791800,11.455791748046876,0.2792237868820317,6.314902108973264,-7.497626623174548
1790107852898737000,11.46573681640625,0.3213165050663054,6.465140016713738,-7.36675509468317
1790107852908681000,11.475680908203126,0.37021490294374526,6.604774697375297,-7.239495326948165
1790107852918624800,11.485624755859375,0.431578741575405,6.730465023836493,-7.119339253738522
1790107852928568800,11.49556884765625,0.502718051224947,6.840634540560841,-7.008806748920679
1790107852938514000,11.505513916015625,0.5714100773202255,6.932084159246086,-6.913038097992539
1790107852948458000,11.5154580078125,0.6186721427001058,7.005198495295644,-6.8348232239335776
1790107852958401800,11.52540185546875,0.6323397257857024,7.066417810890078,-6.770248168170451
1790107852968347000,11.535346923828126,0.6072761212756856,7.1234285688787695,-6.712553519570827
1790107852978290700,11.545290771484375,0.5474560414873063,7.180237082293629,-6.656942106986046
1790107852988235000,11.555235107421876,0.4786520794501528,7.239652563336491,-6.597629501795768
1790107852998179800,11.565179931640625,0.43347613616194575,7.298810854747891,-6.53527913634479
1790107853008124000,11.5751240234375,0.43270109666883944,7.35586369831264,-6.471044272321462
1790107853018067700,11.585067626953125,0.46115087301842866,7.41414462236762,-6.402202206763625
1790107853028011800,11.59501171875,0.4807368863675743,7.475703545179963,-6.328754108715057
1790107853037956900,11.604956787109375,0.48170123788770286,7.540227163016795,-6.251664439293742
1790107853047901000,11.61490087890625,0.49225890879184003,7.605207292449474,-6.171618258154392
1790107853057845000,11.624844970703125,0.5118998671986162,7.665177484765648,-6.095358025294542
1790107853067789800,11.634789794921875,0.5278816455107181,7.719030655506253,-6.025634500727057
1790107853077734000,11.64473388671875,0.5449163304092363,7.766811228334904,-5.9623921548724175
1790107853087678000,11.654677978515625,0.5728218803469092,7.805859044131636,-5.908537815088033
1790107853097622000,11.6646220703125,0.6114100792752578,7.833446723759174,-5.868019342216849
1790107853107566800,11.67456689453125,0.6446094247721135,7.848657736894488,-5.844093107706308
1790107853117511000,11.684510986328124,0.6639318918142467,7.850385583600401,-5.8396098248124115
1790107853127455000,11.694455078125,0.6751192023914308,7.839556146550178,-5.852860936051607
1790107853137399800,11.70439990234375,0.6927084159001707,7.817512072524428,-5.880225912839174
1790107853147344000,11.71434375,0.712163277150318,7.786974895441531,-5.91829816160202
1790107853157288000,11.724287841796874,0.721039315110445,7.749498274484276,-5.966217266118526
1790107853167233000,11.73423291015625,0.72928253505975,7.7031375053256745,-6.024966392207145
1790107853177176800,11.7441767578125,0.7506742095913738,7.645860205355286,-6.094889238739014
1790107853187121000,11.754120849609375,0.7864224723860621,7.577741777896881,-6.174930159181356
1790107853197065000,11.76406494140625,0.8221363214544951,7.501269363591074,-6.263022284132242
1790107853207009800,11.774009765625,0.8410837446391582,7.419187292709946,-6.3575640236139295
1790107853216954000,11.7839541015625,0.8480619861539452,7.331882518744468,-6.4571420036971565
1790107853226898000,11.79389794921875,0.8629282044395804,7.238557753837108,-6.559651361057162
1790107853236842800,11.8038427734375,0.887391176175326,7.142444819515943,-6.660960110455751
1790107853246786800,11.813786865234375,0.9059875208999961,7.049865904539823,-6.756400844603776
1790107853256731000,11.82373095703125,0.9083343762870878,6.965224796825647,-6.8433134043812744
1790107853266676000,11.833676025390625,0.9031455024071037,6.888370105203986,-6.9213499992638825
1790107853276620000,11.8436201171875,0.9057039547182619,6.817725374138355,-6.990615843191742
1790107853286563800,11.853563720703125,0.9209647252794355,6.752601452320814,-7.051565109673142
1790107853296508000,11.8635078125,0.9446312859404832,6.69406626124382,-7.10405049919188
1790107853306453000,11.873452880859375,0.9756225634664296,6.641418959161639,-7.149131749933957
1790107853316397000,11.88339697265625,1.016636637834832,6.592279372939467,-7.188790391105413
1790107853326340900,11.8933408203125,1.0642335977248847,6.546358748763799,-7.223778117856383
1790107853336286000,11.903285888671874,1.1046700183358042,6.501108571195602,-7.258489950275421
1790107853346229800,11.913229736328125,1.1279119969092308,6.452246048349141,-7.298404027512669
1790107853356174000,11.923174072265626,1.1402189591661096,6.396764984145761,-7.345182729822397
1790107853366119000,11.933118896484375,1.1523143975641579,6.334870545768737,-7.396754511627554
1790107853376063000,11.94306298828125,1.1639862037226556,6.267081204134225,-7.452464708411693
1790107853386006800,11.9530068359375,1.17545291576311,6.193660578614473,-7.511807124218344
1790107853395950800,11.962950927734376,1.1900719543546439,6.115813368824124,-7.5730422219038
1790107853405896000,11.97289599609375,1.2061847386352718,6.034314066267013,-7.635610614019632
1790107853415840000,11.982840087890626,1.219208982316032,5.948053248396516,-7.7009473018050185
1790107853425783800,11.99278369140625,1.2315681862168013,5.855063999053836,-7.769933159747719
1790107853435729000,12.00272900390625,1.2481238919593394,5.753818962541223,-7.842585138982534
1790107853445673000,12.0126728515625,1.272012570938468,5.643133312988281,-7.918800363656878
1790107853455617000,12.022616943359376,1.3023814057171343,5.524281892636418,-7.997280610653758
1790107853465561900,12.032561767578125,1.3355999308384954,5.399783406308293,-8.076440656608343
1790107853475506000,12.042505859375,1.372167181865871,5.27386277822256,-8.1531538939327
1790107853485449700,12.05244970703125,1.4103769394032657,5.149305255183577,-8.22592803824246
1790107853495394000,12.06239404296875,1.4417460372656583,5.025450327455997,-8.296784950754047
1790107853505339000,12.0723388671875,1.4559524034030735,4.900018944191932,-8.369014905184507
1790107853515283000,12.082282958984376,1.4463367260567843,4.771835047349334,-8.44441004564762
1790107853525226800,12.092226806640625,1.4247517939753829,4.641704984875023,-8.520271634578704
1790107853535172000,12.102172119140626,1.413537449260801,4.511819544811546,-8.591610777649283
1790107853545116000,12.112115966796875,1.4237250812761484,4.382404937130213,-8.656668648493289
1790107853555060000,12.12206005859375,1.4506998897023498,4.254956661085784,-8.715572672882676
1790107853565004800,12.1320048828125,1.478683144518733,4.129945841321349,-8.770828696158528
1790107853574948900,12.141948974609376,1.4999430824294686,4.007040469403565,-8.824068118914962
1790107853584893000,12.151892822265625,1.5140522718027234,3.8852892359569666,-8.875953788974881
1790107853594837000,12.1618369140625,1.5222075212076305,3.766772746647894,-8.925506632173061
1790107853604781800,12.17178173828125,1.5263503201007842,3.6544445905849336,-8.971379910075663
1790107853614726000,12.181725830078125,1.5317510101005434,3.5442172061935064,-9.014579000332951
1790107853624669700,12.191669677734374,1.5433438327386975,3.433841645503044,-9.055230744194985
1790107853634615000,12.201614990234376,1.5660316114954649,3.324300489810109,-9.092136871787906
1790107853644558800,12.211558837890625,1.5955258553966878,3.2240871344327924,-9.123045220270752
1790107853654503000,12.2215029296875,1.614954632357508,3.139938778671622,-9.148939539983868
1790107853664446700,12.23144677734375,1.6131234714075922,3.074600337320566,-9.17142726612389
1790107853674392000,12.24139208984375,1.5881883521154523,3.0247289296925066,-9.192337367683649
1790107853684335900,12.2513359375,1.545153512509167,2.9844053948715326,-9.21282895157039
1790107853694280000,12.261280029296875,1.5035674104064702,2.9562858003243804,-9.228761264717578
1790107853704224800,12.271224853515625,1.4812569405294953,2.941707239873707,-9.237025235193967
1790107853714168800,12.2811689453125,1.4720711790330707,2.9353929421603677,-9.240500217828155
1790107853724113000,12.29111279296875,1.455894389605522,2.9339158553451297,-9.243533301913738
1790107853734058000,12.30105810546875,1.428839647810906,2.9398721334010363,-9.245862037122249
1790107853744001800,12.311001708984374,1.397493638563156,2.957558304478228,-9.245012142294645
1790107853753945900,12.32094580078125,1.3586241019427776,2.988118277914822,-9.240979525777696
1790107853763889700,12.3308896484375,1.3114637068390846,3.0310587172359225,-9.233803935059905
1790107853773835000,12.3408349609375,1.2622509092502294,3.0848548970922827,-9.222839473453163
1790107853783778800,12.35077880859375,1.2138692287232726,3.1481115637332198,-9.20794644022584
1790107853793723000,12.360722900390625,1.1668015534043312,3.2209985207676888,-9.188804517382383
1790107853803667700,12.370667724609374,1.1191075628805904,3.3031656395837663,-9.165537039041519
1790107853813612000,12.380612060546875,1.064497070966661,3.393421372309327,-9.13903306299746
1790107853823555800,12.390555908203124,0.9994067591577768,3.489956915956735,-9.109981740558148
1790107853833501000,12.4005009765625,0.9279648863650858,3.591395429214835,-9.078058662074804
1790107853843444700,12.41044482421875,0.8566867527667432,3.696378775472939,-9.042857000312209
1790107853853388800,12.420388916015625,0.788828656744957,3.8048315514072772,-9.0039664209038
1790107853863332900,12.430332763671874,0.7183843436222523,3.9182553937524554,-8.961115705692768
1790107853873278000,12.44027783203125,0.6388396822642535,4.038578055700659,-8.913595245105027
1790107853883221800,12.4502216796875,0.5547588022487238,4.166361847309768,-8.86025119293034
1790107853893165800,12.460165771484375,0.4749912553876638,4.30242860635668,-8.799650886017083
1790107853903111000,12.47011083984375,0.4030054484440014,4.446411837616562,-8.731402110177278
1790107853913055000,12.480054931640625,0.33563743749409913,4.595843981932103,-8.65655349768102
1790107853922998800,12.489998779296876,0.2764756572176702,4.7498330588996405,-8.575141288885474
1790107853932942800,12.49994287109375,0.22749361791107803,4.906866033607721,-8.48771551888883
1790107853942887700,12.5098876953125,0.18625996424155308,5.066040696519613,-8.394695874407887
1790107853952832000,12.51983203125,0.15168917512786573,5.227961443269252,-8.29552822869122
1790107853962776000,12.529776123046876,0.12147127486090176,5.393951046893,-8.18907276405394
1790107853972721000,12.539720947265625,0.08736553684254177,5.564818485686183,-8.07437612529397
1790107853982664700,12.549664794921876,0.05476639486169442,5.738944634014368,-7.951847477734089
1790107853992608800,12.55960888671875,0.03914662282897625,5.915363861715793,-7.821593204358219
1790107854002553900,12.569553955078124,0.04933611344126984,6.094601069447398,-7.682692683190107
1790107854012498000,12.579497802734375,0.08579044214608147,6.271331847316026,-7.538792746299505
1790107854022442000,12.58944189453125,0.14717293981243856,6.434186660045385,-7.399322316288948
1790107854032385800,12.5993857421875,0.22544300552420315,6.5783695055305955,-7.2694292774409055
1790107854042331000,12.609330810546876,0.3071394015559926,6.703338531979918,-7.151315523713826
1790107854052275000,12.61927490234375,0.3841970684038475,6.810608235609531,-7.04545276427269
1790107854062219000,12.629218994140626,0.4529562414512038,6.905268048512935,-6.948560077750683
1790107854072163800,12.639163818359375,0.5061331568980589,6.990940837362408,-6.858639568328857
1790107854082108000,12.64910791015625,0.5288565914900973,7.067249585539102,-6.778250272840261
1790107854092052000,12.659052001953125,0.5047579960873351,7.136305001586675,-6.707364134234189
1790107854101996800,12.668996826171876,0.43445367595721035,7.204282559269666,-6.6392749328702685
1790107854111940900,12.67894091796875,0.3423536670718342,7.274832597789168,-6.567342500081658
1790107854121885000,12.688885009765626,0.270856977085676,7.34549252642393,-6.4915919703096145
1790107854131828700,12.698828857421875,0.2563265848919749,7.410285608851909,-6.418126921126246
1790107854141773800,12.70877392578125,0.28976472584707663,7.46714848280251,-6.350441624388099
1790107854151718000,12.7187177734375,0.3251417259102687,7.520621714314818,-6.285293152651191
1790107854161662000,12.728661865234375,0.3323396380577236,7.572766327571869,-6.221989431998133
1790107854171606800,12.738606689453125,0.3284617006458342,7.620884169530868,-6.163166071629524
1790107854181551000,12.748551025390626,0.35280791413411494,7.662572270703316,-6.109901514431834
1790107854191495000,12.758494873046875,0.4001817327927798,7.695007390362024,-6.066061203661561
1790107854201439700,12.768439697265626,0.45324945224411783,7.716115060320496,-6.035440439948439
1790107854211383800,12.7783837890625,0.5017162537712604,7.721632362437248,-6.024537937662005
1790107854221328000,12.788327880859375,0.5287346090782433,7.711292754730581,-6.035460313692688
1790107854231272000,12.79827197265625,0.5329535419475286,7.687621371763944,-6.065213646921515
1790107854241217000,12.808217041015626,0.5248499131320045,7.652918891695141,-6.109643155756593
1790107854251160800,12.818160888671875,0.5150671721231193,7.609965885153413,-6.163885618075728
