time,seconds_elapsed,z,y,x
1790107841502573300,0.0695732421875,0.6805135607719421,-0.1334158331155777,0.0420970544219017
1790107841512517000,0.07951708984375,0.6493319272994995,0.04295546934008598,0.2453654706478119
1790107841522462500,0.08946240234375,0.5363738536834717,0.20051245391368866,0.4198755621910095
1790107841532406300,0.09940625,0.4133369028568268,0.351025253534317,0.583612859249115
1790107841542350300,0.109350341796875,0.3160415589809418,0.4153459370136261,0.6979898810386658
1790107841552295200,0.119295166015625,0.29645800590515137,0.402577668428421,0.7451831698417664
1790107841562239200,0.1292392578125,0.2910833954811096,0.2306702882051468,0.7193204164505005
1790107841572183300,0.139183349609375,0.29809311032295227,0.12300775200128555,0.6533499360084534
1790107841582128400,0.14912841796875,0.3352060317993164,0.1401038020849228,0.5585944056510925
1790107841592072200,0.159072265625,0.4059547781944275,0.18795521557331085,0.4610835015773773
1790107841602016300,0.169016357421875,0.5018261671066284,0.2529059052467346,0.4146570563316345
1790107841611960000,0.1789599609375,0.573806881904602,0.31360411643981934,0.415813148021698
1790107841621905000,0.18890478515625,0.5971219539642334,0.3586081266403198,0.4307243525981903
1790107841631848700,0.1988486328125,0.5986729860305786,0.32592687010765076,0.4547463357448578
1790107841641792800,0.208792724609375,0.545663058757782,0.14326316118240356,0.4889056980609894
1790107841651737900,0.21873779296875,0.4425675570964813,-0.0032762098126113415,0.5039965510368347
1790107841661682000,0.228681884765625,0.3507114052772522,-0.02817666158080101,0.45817431807518005
1790107841671625700,0.238625732421875,0.30187302827835083,-0.07283095270395279,0.35068967938423157
1790107841681569800,0.24856982421875,0.3091777265071869,-0.13853061199188232,0.21847853064537048
1790107841691515000,0.258514892578125,0.3244868814945221,-0.16903552412986755,0.04594670608639717
1790107841701459000,0.268458984375,0.3561802804470062,-0.1966940313577652,-0.14475668966770172
1790107841711403000,0.278403076171875,0.4218069612979889,-0.22863651812076569,-0.3011905252933502
1790107841721347800,0.288347900390625,0.4729730784893036,-0.24719847738742828,-0.42069000005722046
1790107841731291600,0.298291748046875,0.4887925386428833,-0.2567592263221741,-0.4839179813861847
1790107841741236000,0.308236083984375,0.46300947666168213,-0.23993974924087524,-0.4691449701786041
1790107841751180800,0.318180908203125,0.41469627618789673,-0.16097861528396606,-0.38850632309913635
1790107841761124900,0.328124755859375,0.39116403460502625,-0.04560346528887749,-0.26851850748062134
1790107841771069000,0.33806884765625,0.38869449496269226,0.019751310348510742,-0.14721712470054626
1790107841781012700,0.3480126953125,0.40057244896888733,0.02754867449402809,-0.02142154611647129
1790107841790957800,0.357957763671875,0.40871161222457886,-0.006514487322419882,0.09674424678087234
1790107841800902000,0.36790185546875,0.39907747507095337,-0.07665947079658508,0.1994880586862564
1790107841810846000,0.377845947265625,0.360811322927475,-0.15537665784358978,0.294728547334671
1790107841820790800,0.387790771484375,0.32169264554977417,-0.16133511066436768,0.3522420823574066
1790107841830734800,0.39773486328125,0.3441140651702881,-0.12798088788986206,0.35045725107192993
1790107841840679000,0.407678955078125,0.40829676389694214,-0.1530257761478424,0.28280577063560486
1790107841850623000,0.417623046875,0.49553102254867554,-0.2133258730173111,0.19083109498023987
1790107841860567800,0.42756787109375,0.5801210999488831,-0.23191221058368683,0.12362485378980637
1790107841870511900,0.437511962890625,0.6368054151535034,-0.20496635138988495,0.10397125035524368
1790107841880456000,0.4474560546875,0.6570664644241333,-0.21606594324111938,0.11503729224205017
1790107841890400800,0.45740087890625,0.657764732837677,-0.29374024271965027,0.15578897297382355
1790107841900344800,0.4673447265625,0.6417937278747559,-0.3746204674243927,0.20906870067119598
1790107841910289000,0.477288818359375,0.6087670922279358,-0.4394465982913971,0.26829978823661804
1790107841920234000,0.48723388671875,0.5349360704421997,-0.4518654942512512,0.2913530468940735
1790107841930178000,0.497177978515625,0.4401973485946655,-0.4270472228527069,0.2522333562374115
1790107841940121900,0.507121826171875,0.31643497943878174,-0.36260560154914856,0.18628725409507751
1790107841950066000,0.51706591796875,0.2335834801197052,-0.381845086812973,0.12775497138500214
1790107841960010800,0.5270107421875,0.17094260454177856,-0.3645571172237396,0.038811661303043365
1790107841969955000,0.536955078125,0.15038779377937317,-0.35061973333358765,-0.06643779575824738
1790107841979899000,0.54689892578125,0.14623066782951355,-0.3523005545139313,-0.14279282093048096
1790107841989844000,0.556843994140625,0.12080707401037216,-0.38538527488708496,-0.18231786787509918
1790107841999787800,0.566787841796875,0.09090857207775116,-0.4784412980079651,-0.17737947404384613
1790107842009731800,0.57673193359375,0.057496823370456696,-0.6014300584793091,-0.125945046544075
1790107842019676000,0.586676025390625,0.03851325437426567,-0.7527671456336975,-0.08272664248943329
1790107842029621000,0.59662109375,0.01852276921272278,-1.1001946926116943,-0.1613205224275589
1790107842039564800,0.606564697265625,-0.05346357077360153,-1.1515437364578247,-0.2909404933452606
1790107842049508900,0.6165087890625,-0.13011521100997925,-0.77040034532547,-0.22250735759735107
1790107842059454000,0.626453857421875,-0.2274869829416275,-0.33295243978500366,-0.0624694861471653
1790107842069398000,0.63639794921875,-0.34152886271476746,-0.10691158473491669,0.06960466504096985
1790107842079341800,0.646341796875,-0.4492497742176056,-0.1362796127796173,0.11654632538557053
1790107842089287000,0.656286865234375,-0.5383698344230652,-0.30560392141342163,0.0898880809545517
1790107842099230700,0.666230712890625,-0.6151756048202515,-0.4432966113090515,0.02361302636563778
1790107842109175000,0.676175048828125,-0.7057632803916931,-0.5289055109024048,-0.07892613112926483
1790107842119118800,0.686118896484375,-0.7987880110740662,-0.5900041460990906,-0.21579813957214355
1790107842129064000,0.69606396484375,-0.8690872192382812,-0.638843834400177,-0.3505847156047821
1790107842139007700,0.7060078125,-0.9182880520820618,-0.6496143937110901,-0.47368037700653076
1790107842148951800,0.715951904296875,-0.9421372413635254,-0.6191750168800354,-0.5588434934616089
1790107842158897000,0.72589697265625,-0.932887852191925,-0.5069296360015869,-0.6368909478187561
1790107842168841000,0.735841064453125,-0.8856484293937683,-0.3818465769290924,-0.7103132605552673
1790107842178784800,0.74578466796875,-0.8237581849098206,-0.31321266293525696,-0.7940062880516052
1790107842188728800,0.755728759765625,-0.6879026293754578,-0.24109850823879242,-0.9012917280197144
1790107842198674000,0.765673828125,-0.24766314029693604,-0.23518025875091553,-0.9940800666809082
1790107842208618000,0.775617919921875,0.2881976068019867,-0.059216417372226715,-1.0520951747894287
1790107842218561800,0.785561767578125,0.4607534110546112,0.010592118836939335,-1.086851954460144
1790107842228507000,0.7955068359375,0.5143636465072632,-0.04580138251185417,-0.9877943992614746
1790107842238450700,0.80545068359375,0.5354034900665283,-0.10253535211086273,-0.7805542349815369
1790107842248395000,0.81539501953125,0.47100961208343506,-0.13589702546596527,-0.5992438197135925
1790107842258339800,0.82533984375,0.4014665186405182,-0.1334376484155655,-0.47806593775749207
1790107842268284000,0.835283935546875,0.38033193349838257,-0.05773463472723961,-0.42037948966026306
1790107842278227700,0.845227783203125,0.3824771046638489,0.062199488282203674,-0.43973612785339355
1790107842288171800,0.855171875,0.3932865858078003,0.16951817274093628,-0.5140917897224426
1790107842298116900,0.865116943359375,0.40285050868988037,0.25795799493789673,-0.6198877096176147
1790107842308061000,0.87506103515625,0.3852241337299347,0.3330516815185547,-0.7635756134986877
1790107842318004700,0.885004638671875,0.3639996349811554,0.36287081241607666,-0.9407127499580383
1790107842327949800,0.89494970703125,0.36669206619262695,0.3116752505302429,-1.1060892343521118
1790107842337894000,0.904893798828125,0.38155344128608704,0.21942566335201263,-1.2039469480514526
1790107842347838000,0.914837890625,0.4054230749607086,0.1786891520023346,-1.1971070766448975
1790107842357781800,0.92478173828125,0.41348814964294434,0.2739567756652832,-1.1188753843307495
1790107842367726800,0.934726806640625,0.43492311239242554,0.4222716689109802,-0.9970016479492188
1790107842377670700,0.944670654296875,0.5177547335624695,0.6107344031333923,-0.8273600935935974
1790107842387615000,0.954614990234375,0.6326727867126465,0.8001514673233032,-0.6306252479553223
1790107842397559800,0.964559814453125,0.7733271718025208,0.960910439491272,-0.4400288164615631
1790107842407504000,0.97450390625,0.9265926480293274,1.1932337284088135,-0.2729412913322449
1790107842417447700,0.98444775390625,1.055397868156433,1.3014612197875977,-0.21751020848751068
1790107842427393000,0.99439306640625,1.0544780492782593,1.0914634466171265,-0.31762588024139404
1790107842437336800,1.0043369140625,0.900059163570404,0.5741942524909973,-0.5286024212837219
1790107842447281000,1.014281005859375,0.6511558294296265,-0.07993640750646591,-0.7469478249549866
1790107842457225000,1.024224853515625,0.3618291914463043,-0.5936025381088257,-0.9247397184371948
1790107842467169800,1.034169677734375,0.10411857813596725,-0.8684482574462891,-1.082961082458496
1790107842477113900,1.04411376953125,-0.07418347895145416,-0.7826336026191711,-1.239060640335083
1790107842487058000,1.054057861328125,-0.1798555701971054,-0.5272378325462341,-1.334924578666687
1790107842497002800,1.064002685546875,-0.23330412805080414,-0.20417414605617523,-1.300107717514038
1790107842506946800,1.07394677734375,-0.1814795434474945,0.10971294343471527,-1.0890413522720337
1790107842516891000,1.083890869140625,-0.027175799012184143,0.2895117700099945,-0.7441819310188293
1790107842526835000,1.0938349609375,0.14544150233268738,0.2548600435256958,-0.32787713408470154
1790107842536779800,1.10377978515625,0.22109949588775635,0.09443330764770508,0.04377029091119766
1790107842546723800,1.113723876953125,0.17047040164470673,-0.01087101362645626,0.26190608739852905
1790107842556668000,1.12366796875,0.05249590799212456,-0.0762234777212143,0.32250821590423584
1790107842566613000,1.133613037109375,-0.10484897345304489,-0.08022620528936386,0.29757702350616455
1790107842576556800,1.143556884765625,-0.2776903212070465,0.039384327828884125,0.21556104719638824
1790107842586500900,1.1535009765625,-0.4557817578315735,0.23265205323696136,0.1050097644329071
1790107842596445700,1.16344580078125,-0.6031511425971985,0.42699122428894043,-0.01999126560986042
1790107842606389800,1.1733896484375,-0.6892865896224976,0.5115905404090881,-0.10017585009336472
1790107842616334000,1.183333984375,-0.7069737315177917,0.49590182304382324,-0.1004846841096878
1790107842626278100,1.193278076171875,-0.6856189370155334,0.46680331230163574,-0.052546724677085876
1790107842636223000,1.203222900390625,-0.6589220762252808,0.39345839619636536,0.0213419571518898
1790107842646167300,1.213167236328125,-0.6767735481262207,0.21850894391536713,0.11585860699415207
1790107842656111400,1.223111328125,-0.7695294618606567,0.144728884100914,0.20588962733745575
1790107842666056200,1.23305615234375,-0.867303192615509,0.2308720201253891,0.26512661576271057
1790107842676000000,1.243,-0.9183496236801147,0.361666202545166,0.3043208420276642
1790107842685944000,1.252944091796875,-0.9104123115539551,0.5007780194282532,0.31388533115386963
1790107842695888400,1.262888427734375,-0.849398136138916,0.6280970573425293,0.23564673960208893
1790107842705833200,1.272833251953125,-0.716485321521759,0.6087061166763306,0.16376402974128723
1790107842715777300,1.28277734375,-0.5848991870880127,0.5815926790237427,0.19457411766052246
1790107842725721000,1.29272119140625,-0.45727813243865967,0.5416516661643982,0.23224931955337524
1790107842735666200,1.302666259765625,-0.31756553053855896,0.5159413814544678,0.2556475102901459
1790107842745610200,1.3126103515625,-0.19521191716194153,0.36624032258987427,0.295835942029953
1790107842755554300,1.32255419921875,-0.10080332309007645,0.05500207841396332,0.3600209951400757
1790107842765499100,1.3324990234375,-0.007458191830664873,-0.33041912317276,0.44637611508369446
1790107842775443200,1.342443115234375,0.5492440462112427,-0.8845037817955017,1.04678213596344
1790107842785387300,1.35238720703125,0.07603179663419724,-1.5728545188903809,1.1515239477157593
1790107842795331300,1.362331298828125,-0.3516843020915985,-2.179913282394409,0.519489049911499
1790107842805276200,1.372276123046875,0.031941916793584824,-1.8854751586914062,0.39827921986579895
1790107842815220200,1.38222021484375,0.29478004574775696,-1.5010465383529663,0.19580772519111633
1790107842825164000,1.3921640625,0.592807412147522,-1.4851874113082886,-0.049855027347803116
1790107842835109000,1.402109130859375,1.043615698814392,-1.6502556800842285,0.1357927769422531
1790107842845053200,1.41205322265625,1.5529733896255493,-2.291977882385254,0.6631679534912109
1790107842854997200,1.421997314453125,2.0125112533569336,-3.2819581031799316,1.4676694869995117
1790107842864941000,1.431941162109375,2.3368072509765625,-4.229671001434326,2.376380205154419
1790107842874886400,1.441886474609375,2.3225040435791016,-4.86521053314209,3.002547025680542
1790107842884830200,1.451830322265625,2.008970260620117,-4.943373203277588,2.9835288524627686
1790107842894774300,1.461774169921875,1.9056590795516968,-4.582548141479492,2.4778244495391846
1790107842904719000,1.471718994140625,2.070399284362793,-4.2899041175842285,1.9720423221588135
1790107842914663200,1.4816630859375,2.2765204906463623,-4.397049427032471,1.6296254396438599
1790107842924607200,1.491607177734375,2.5881056785583496,-4.9712347984313965,1.637091875076294
1790107842934552300,1.50155224609375,2.9268007278442383,-5.938634395599365,2.139218807220459
1790107842944496000,1.51149609375,3.2326574325561523,-7.001697063446045,2.958890676498413
1790107842954440200,1.521440185546875,3.4828898906707764,-7.893550872802734,3.763958215713501
1790107842964384000,1.531384033203125,3.6220433712005615,-7.596587657928467,4.061572551727295
1790107842974329300,1.541329345703125,3.339782238006592,-6.272883415222168,3.427924156188965
1790107842984273200,1.551273193359375,2.8918817043304443,-5.493767738342285,2.520552158355713
1790107842994217200,1.56121728515625,2.560100793838501,-4.57689094543457,1.3820958137512207
1790107843004162000,1.571162109375,2.5081357955932617,-3.490781307220459,0.2994864583015442
1790107843014106400,1.5811064453125,2.554436683654785,-2.7554407119750977,-0.4689907729625702
1790107843024050200,1.59105029296875,2.6512551307678223,-2.198150157928467,-0.8427837491035461
1790107843033994200,1.600994140625,2.6705222129821777,-1.5223909616470337,-1.220706582069397
1790107843043939000,1.61093896484375,2.6892504692077637,-1.1575957536697388,-1.3993252515792847
1790107843053883100,1.620883056640625,2.3731443881988525,-1.3245011568069458,-1.2904566526412964
1790107843063827200,1.6308271484375,2.770805597305298,-1.1870173215866089,-0.8501412272453308
1790107843073772300,1.640772216796875,2.8537051677703857,-0.8227707147598267,-0.6030226945877075
1790107843083716000,1.650716064453125,2.5246729850769043,-0.18688002228736877,-0.5818372368812561
1790107843093660200,1.66066015625,2.473407506942749,-0.3039803206920624,-0.4383537173271179
1790107843103604000,1.67060400390625,2.4754133224487305,-0.24375055730342865,-0.16201773285865784
1790107843113549300,1.68054931640625,2.577955722808838,-0.637560248374939,-0.003696559928357601
1790107843123493000,1.6904931640625,2.6836023330688477,-0.9441351294517517,0.10510661453008652
1790107843133437200,1.700437255859375,2.681032657623291,-1.2968579530715942,0.1148197278380394
1790107843143382000,1.710382080078125,2.601383686065674,-1.3928853273391724,-0.10595659166574478
1790107843153326300,1.720326416015625,2.366947650909424,-1.4398635625839233,-0.7541180849075317
1790107843163270100,1.730270263671875,2.098160982131958,-1.1705830097198486,-1.7882413864135742
1790107843173215200,1.74021533203125,1.9608666896820068,-0.43259698152542114,-1.832556128501892
1790107843183159000,1.750158935546875,1.7161272764205933,0.07138282805681229,-1.5753434896469116
1790107843193103000,1.76010302734375,1.4540507793426514,0.19195502996444702,-1.088553547859192
1790107843203047200,1.770047119140625,1.20835542678833,-0.07049815356731415,-0.3349177837371826
1790107843212992300,1.7799921875,0.7748950719833374,-1.2252485752105713,0.7770341038703918
1790107843222936000,1.78993603515625,0.17283962666988373,-2.1450483798980713,1.6071357727050781
1790107843232880000,1.799880126953125,-0.10730516910552979,-2.001605987548828,1.1651729345321655
1790107843242825200,1.8098251953125,-0.01743893139064312,-0.7966561913490295,-0.5001811981201172
1790107843252769300,1.819769287109375,0.06664387881755829,-0.07008852809667587,-1.8147917985916138
1790107843262713000,1.829713134765625,-0.29524773359298706,0.03450525552034378,-1.7140864133834839
1790107843272658200,1.839658203125,-0.798429012298584,-0.33172106742858887,-1.2991600036621094
1790107843282602000,1.84960205078125,-1.0854312181472778,-0.2529820501804352,-1.1780285835266113
1790107843292546300,1.85954638671875,-1.270128607749939,-0.09389922767877579,-1.3774354457855225
1790107843302490000,1.869489990234375,-1.5834215879440308,-0.4259309768676758,-1.4060553312301636
1790107843312435200,1.879435302734375,-1.9246231317520142,-1.0101029872894287,-1.3636614084243774
1790107843322379000,1.88937890625,-2.1472952365875244,-1.575262188911438,-1.2980185747146606
1790107843332323000,1.899322998046875,-2.275190591812134,-1.832282543182373,-1.2163074016571045
1790107843342268200,1.90926806640625,-2.1753952503204346,-1.5498615503311157,-1.204927682876587
1790107843352212200,1.919212158203125,-1.8788875341415405,-1.4601103067398071,-1.1093780994415283
1790107843362156000,1.929156005859375,-1.108144760131836,-1.8764516115188599,-1.0364176034927368
1790107843372100000,1.93910009765625,-0.7534990310668945,-2.6749441623687744,-1.1998391151428223
1790107843382045200,1.949045166015625,-0.9388630390167236,-1.5029689073562622,-0.48032864928245544
1790107843391989200,1.9589892578125,-0.4323192536830902,-0.06550198793411255,-0.5870510339736938
1790107843401933300,1.968933349609375,0.3349513113498688,0.5472218990325928,-1.1584104299545288
1790107843411878100,1.978878173828125,0.988583505153656,0.5534573197364807,-1.2441214323043823
1790107843421822000,1.988822021484375,1.8020766973495483,0.41937458515167236,-1.3177235126495361
1790107843431766300,1.998766357421875,2.502897024154663,0.31425029039382935,-0.9229134321212769
1790107843441711000,2.008711181640625,2.8977322578430176,-0.09021838754415512,-0.4988638460636139
1790107843451655200,2.0186552734375,3.064898729324341,-0.5526970624923706,-0.06558246910572052
1790107843461599200,2.02859912109375,2.9943859577178955,-0.5243034958839417,-0.02723987028002739
1790107843471543000,2.03854296875,2.824606418609619,-0.011202379129827023,0.11804048717021942
1790107843481488100,2.048488037109375,2.714308738708496,0.18338868021965027,0.3860226571559906
1790107843491432200,2.05843212890625,2.2384867668151855,-0.23062026500701904,0.4999103248119354
1790107843501376300,2.068376220703125,1.6389622688293457,-0.216780886054039,0.25663456320762634
1790107843511321000,2.078321044921875,1.038492202758789,-0.2463272660970688,-0.16739271581172943
1790107843521265200,2.08826513671875,0.7749449610710144,-0.24646122753620148,-0.5058231949806213
1790107843531209200,2.098209228515625,1.0164716243743896,-0.5130231380462646,-0.5985350608825684
1790107843541153300,2.1081533203125,1.2991759777069092,-0.6329439878463745,-0.6738452911376953
1790107843551098000,2.11809814453125,1.341031551361084,-0.02337145060300827,-0.7753150463104248
1790107843561042200,2.128042236328125,1.7597832679748535,0.5002601146697998,-0.6668285131454468
1790107843570986200,2.137986328125,2.264857530593872,0.47886767983436584,-0.45135390758514404
1790107843580931000,2.14793115234375,2.8550143241882324,0.059386253356933594,-0.19373516738414764
1790107843590875100,2.157875244140625,3.0247104167938232,-0.5741639733314514,0.12558388710021973
1790107843600819200,2.167819091796875,2.783987283706665,-1.0208035707473755,0.288673996925354
1790107843610764300,2.177764404296875,2.5340211391448975,-1.2083306312561035,0.2235816866159439
1790107843620708900,2.187708984375,2.627990961074829,-1.5154327154159546,0.24331943690776825
1790107843630653000,2.19765283203125,2.695733070373535,-1.7557988166809082,0.2695085108280182
1790107843640597000,2.207596923828125,2.6625752449035645,-1.6536036729812622,0.42455747723579407
1790107843650542000,2.2175419921875,2.4113664627075195,-1.180729627609253,0.7454685568809509
1790107843660486000,2.22748583984375,2.547792434692383,-0.402278333902359,0.8580635786056519
1790107843670430000,2.237429931640625,2.844313144683838,-0.19071167707443237,0.6329910755157471
1790107843680374800,2.247374755859375,3.0721023082733154,-0.13963811099529266,0.25021785497665405
1790107843690318800,2.25731884765625,3.1033058166503906,0.2894357740879059,-0.2860269546508789
1790107843700263000,2.267262939453125,2.5566625595092773,-0.08593785762786865,-0.5387505292892456
1790107843710208000,2.2772080078125,1.709060549736023,-0.6976706981658936,-0.1690499484539032
1790107843720151800,2.28715185546875,1.1015913486480713,-0.8542448878288269,0.08183979988098145
1790107843730095900,2.297095947265625,0.8632003664970398,-1.0459771156311035,0.19831641018390656
1790107843740040000,2.3070400390625,0.8187910914421082,-1.2962135076522827,0.24963447451591492
1790107843749985000,2.316985107421875,0.877202033996582,-1.400078296661377,0.21109209954738617
1790107843759928800,2.3269287109375,1.027968168258667,-1.2769649028778076,0.0733688548207283
1790107843769873000,2.336872802734375,1.1022433042526245,-1.1419258117675781,-0.09543174505233765
1790107843779817700,2.346817626953125,0.9027488231658936,-0.9292705655097961,-0.29980194568634033
1790107843789762000,2.356761962890625,0.3959517478942871,-0.7181059122085571,-0.4348074793815613
1790107843799705900,2.366705810546875,-0.1468614786863327,-0.593556821346283,-0.37056803703308105
1790107843809650000,2.37664990234375,-0.27689874172210693,-0.6485818028450012,-0.28624042868614197
1790107843819594800,2.3865947265625,-0.15108542144298553,-0.5536789894104004,-0.3266408443450928
1790107843829538800,2.396538818359375,-0.18561038374900818,-0.33804386854171753,-0.32972967624664307
1790107843839483100,2.406483154296875,-0.006929581984877586,-0.26592278480529785,-0.46410641074180603
1790107843849428000,2.416427978515625,0.2414635270833969,-0.20663699507713318,-0.5548229217529297
1790107843859371800,2.426371826171875,0.5892596244812012,-0.27060025930404663,-0.619507372379303
1790107843869315800,2.43631591796875,0.889750063419342,-0.17193613946437836,-0.5704805254936218
1790107843879261000,2.446260986328125,1.0361214876174927,0.11073096841573715,-0.42099833488464355
1790107843889205000,2.456205078125,0.979335367679596,-0.047516364604234695,-0.20571665465831757
1790107843899149000,2.466149169921875,0.9563357830047607,-0.8208842277526855,-0.06305164098739624
1790107843909092900,2.4760927734375,1.0437309741973877,-1.53608238697052,0.14864234626293182
1790107843919037700,2.48603759765625,1.0046796798706055,-1.1246870756149292,0.46343809366226196
1790107843928982000,2.49598193359375,1.3399542570114136,-0.0035863881930708885,0.6250823736190796
1790107843938926000,2.505926025390625,1.8056249618530273,1.365357756614685,0.9866392016410828
1790107843948871000,2.515870849609375,2.3940043449401855,2.11039137840271,1.6619693040847778
1790107843958815000,2.52581494140625,2.363046407699585,2.663233995437622,2.0143136978149414
1790107843968758800,2.5357587890625,2.072791337966919,3.705807685852051,2.157564163208008
1790107843978704000,2.545703857421875,2.2274632453918457,4.802114963531494,1.0690679550170898
1790107843988648000,2.55564794921875,2.8010356426239014,5.50203800201416,-0.9882937669754028
1790107843998592000,2.565592041015625,3.255246162414551,5.172912120819092,-2.3551411628723145
1790107844008535800,2.575535888671875,3.5310730934143066,4.884955406188965,-3.6078128814697266
1790107844018481000,2.58548095703125,2.0543019771575928,2.934335470199585,-2.655165433883667
1790107844028425000,2.595425048828125,-0.5599772334098816,0.3873453140258789,1.2279527187347412
1790107844038369000,2.605369140625,1.7621269226074219,-1.5240157842636108,-0.031336039304733276
1790107844048313900,2.61531396484375,0.4045499265193939,-1.5443178415298462,0.033120714128017426
1790107844058258000,2.6252578125,-0.9260034561157227,-1.2499825954437256,0.23795907199382782
1790107844068202000,2.635201904296875,-1.5908907651901245,-0.5780315399169922,0.25592344999313354
1790107844078146000,2.64514599609375,-1.5801262855529785,0.1114712506532669,0.24547989666461945
1790107844088091000,2.6550908203125,-1.6070629358291626,0.37723419070243835,0.08892982453107834
1790107844098035000,2.665034912109375,-1.8395299911499023,0.23918339610099792,-0.21205690503120422
1790107844107978800,2.674978759765625,-2.0974862575531006,-0.033562153577804565,-0.5080407857894897
1790107844117924000,2.684924072265625,-2.3661105632781982,-0.3304516077041626,-0.6084946990013123
1790107844127868000,2.694867919921875,-2.5194520950317383,-0.6259052157402039,-0.5296254754066467
1790107844137812000,2.70481201171875,-2.610050678253174,-0.8118561506271362,-0.2724456191062927
1790107844147756800,2.7147568359375,-2.7471210956573486,-0.749634325504303,-0.033341970294713974
1790107844157701000,2.724701171875,-3.0303919315338135,-0.510540783405304,0.06993461400270462
1790107844167645000,2.73464501953125,-3.360088348388672,-0.1589517593383789,0.2847478985786438
1790107844177589000,2.744589111328125,-3.745389461517334,-0.21896688640117645,0.9387217164039612
1790107844187533800,2.754533935546875,-4.097299575805664,-0.5963350534439087,1.5524863004684448
1790107844197478000,2.764477783203125,-4.347156524658203,-0.3233325481414795,1.809135913848877
1790107844207422000,2.774421875,-4.3930583000183105,0.6341981887817383,1.5640583038330078
1790107844217367000,2.784366943359375,-3.9936435222625732,1.5243496894836426,0.9838740229606628
1790107844227310800,2.794310791015625,-2.683629035949707,1.5758826732635498,0.16128051280975342
1790107844237255000,2.8042548828125,-1.2147375345230103,1.3427958488464355,-0.9040123820304871
1790107844247200000,2.814199951171875,-0.4768213629722595,1.3397860527038574,-1.2067996263504028
1790107844257144000,2.82414404296875,-0.702344536781311,1.4556061029434204,-0.5410876870155334
1790107844267088000,2.834087890625,-1.056903600692749,0.8239883184432983,0.31640270352363586
1790107844277032000,2.844031982421875,-1.0923001766204834,-0.09772159159183502,0.5303237438201904
1790107844286976800,2.853976806640625,-1.0364023447036743,-0.5654167532920837,0.29228559136390686
1790107844296921000,2.863921142578125,-1.045291781425476,-0.7528777122497559,-0.06252603232860565
1790107844306865000,2.873864990234375,-1.0806173086166382,-0.8500117063522339,-0.30217790603637695
1790107844316810000,2.88381005859375,-1.0758004188537598,-0.862704336643219,-0.3916880786418915
1790107844326753800,2.89375390625,-1.0204416513442993,-0.7577559947967529,-0.3661005198955536
1790107844336697900,2.90369775390625,-0.9721689820289612,-0.6112081408500671,-0.23623518645763397
1790107844346642000,2.913641845703125,-0.9178059101104736,-0.4637962281703949,-0.03993741422891617
1790107844356587000,2.9235869140625,-0.8914089202880859,-0.2661028504371643,0.14908550679683685
1790107844366530800,2.93353076171875,-0.8957049250602722,-0.023621441796422005,0.2341827154159546
1790107844376475000,2.943474853515625,-0.8968167901039124,0.18458423018455505,0.2046668976545334
1790107844386420000,2.953419921875,-0.9298471808433533,0.3531453609466553,0.12747599184513092
1790107844396364000,2.963364013671875,-0.9479561448097229,0.40244072675704956,0.0867738351225853
1790107844406307800,2.973307861328125,-1.0027371644973755,0.2892645299434662,0.07288621366024017
1790107844416253000,2.9832529296875,-1.0459829568862915,0.0696306899189949,0.05713707208633423
1790107844426196700,2.99319677734375,-1.0623303651809692,-0.06691812723875046,0.011672488413751125
1790107844436141000,3.00314111328125,-1.0314114093780518,-0.08654296398162842,-0.055628519505262375
1790107844446084900,3.0130849609375,-1.0189307928085327,0.032263729721307755,-0.04931819438934326
1790107844456030000,3.023030029296875,-0.9348042607307434,-0.05484240874648094,-0.04479854553937912
1790107844465973800,3.032973876953125,-0.8677546977996826,-0.19759218394756317,0.001071014441549778
1790107844475917800,3.042917724609375,-0.7553216814994812,-0.23165853321552277,-0.012402183376252651
1790107844485863000,3.05286279296875,-0.6878576278686523,-0.12218981236219406,-0.06405417621135712
1790107844495807000,3.062806884765625,-0.637599766254425,0.029722485691308975,-0.06522437185049057
1790107844505750800,3.072750732421875,-0.5971794724464417,0.19096116721630096,-0.02667098119854927
1790107844515694800,3.08269482421875,-0.5646955966949463,0.2667161226272583,0.04318559914827347
1790107844525640000,3.092639892578125,-0.484783411026001,0.19609008729457855,0.16579166054725647
1790107844535584000,3.102583984375,-0.3219825327396393,0.22213499248027802,0.1936672329902649
1790107844545527800,3.11252783203125,-0.20730279386043549,0.49471721053123474,0.1770879328250885
1790107844555473000,3.122472900390625,-0.2123766392469406,0.5309494733810425,0.21974803507328033
1790107844565416700,3.132416748046875,-0.21745038032531738,0.500748336315155,0.3045632839202881
1790107844575361000,3.142361083984375,-0.1825760155916214,0.5159336924552917,0.3683103024959564
1790107844585305900,3.152305908203125,-0.11418528854846954,0.4965152144432068,0.3703848719596863
1790107844595250000,3.16225,-0.12271033227443695,0.37567004561424255,0.3790888786315918
1790107844605193700,3.17219384765625,-0.12324555218219757,0.33754613995552063,0.40750938653945923
1790107844615137000,3.182136962890625,-0.0789172351360321,0.3018435537815094,0.43044477701187134
1790107844625082000,3.19208203125,0.00816754437983036,0.2834565341472626,0.4421817362308502
1790107844635026200,3.202026123046875,0.10018216073513031,0.25445765256881714,0.47384166717529297
1790107844644970200,3.21197021484375,0.19636118412017822,0.11258047074079514,0.5055431127548218
1790107844654915000,3.2219150390625,0.272931307554245,0.05192271247506142,0.5453876852989197
1790107844664859100,3.231859130859375,0.33432215452194214,0.04382452741265297,0.5776188373565674
1790107844674803000,3.241802978515625,0.39935895800590515,-0.004158978816121817,0.6075636744499207
1790107844684748300,3.251748291015625,0.48299771547317505,0.0024578412994742393,0.6340641975402832
1790107844694692000,3.261692138671875,0.5749614238739014,0.04755287989974022,0.6611400246620178
1790107844704636200,3.27163623046875,0.6526753306388855,0.09077464044094086,0.6905345320701599
1790107844714580000,3.281580078125,0.7159402966499329,0.14827309548854828,0.6993253827095032
1790107844724525300,3.291525390625,0.7747535705566406,0.21278631687164307,0.6954893469810486
1790107844734469000,3.30146923828125,0.8277840614318848,0.26120525598526,0.7140917778015137
1790107844744413200,3.3114130859375,0.884323239326477,0.28696584701538086,0.7317743301391602
1790107844754358000,3.32135791015625,0.9525241851806641,0.29184290766716003,0.714157223701477
1790107844764302000,3.331302001953125,1.0261874198913574,0.22280777990818024,0.6327276825904846
1790107844774246100,3.34124609375,1.070003628730774,0.21513333916664124,0.5700421929359436
1790107844784190200,3.351190185546875,1.088523030281067,0.2394850254058838,0.5264258980751038
1790107844794135000,3.361135009765625,1.0993924140930176,0.19856689870357513,0.4753483235836029
1790107844804079000,3.3710791015625,1.1130048036575317,0.1808548867702484,0.4171057641506195
1790107844814023000,3.38102294921875,1.1472400426864624,0.1873098462820053,0.3534966707229614
1790107844823968300,3.39096826171875,1.20428466796875,0.21990375220775604,0.29517850279808044
1790107844833912000,3.400912109375,1.2822368144989014,0.23700068891048431,0.25408047437667847
1790107844843856100,3.410856201171875,1.362457275390625,0.2615911662578583,0.2262164205312729
1790107844853801000,3.420801025390625,1.4118435382843018,0.24853472411632538,0.20245622098445892
1790107844863745300,3.430745361328125,1.4643347263336182,0.18397687375545502,0.1749558001756668
1790107844873689000,3.440689208984375,1.4913886785507202,0.1393207311630249,0.141879603266716
1790107844883633200,3.450633056640625,1.5053606033325195,0.10872560739517212,0.07903410494327545
1790107844893578000,3.460577880859375,1.494732141494751,0.08061860501766205,-0.007439000997692347
1790107844903522000,3.47052197265625,1.4647445678710938,0.09809862822294235,-0.09166274964809418
1790107844913466000,3.480466064453125,1.4376380443572998,0.1256149262189865,-0.15842926502227783
1790107844923411200,3.4904111328125,1.429498314857483,0.19596385955810547,-0.17011259496212006
1790107844933355000,3.50035498046875,1.4640538692474365,0.31904906034469604,-0.14006654918193817
1790107844943299000,3.510299072265625,1.5492196083068848,0.4554760158061981,-0.1272055208683014
1790107844953243100,3.5202431640625,1.6376680135726929,0.597183346748352,-0.14033730328083038
1790107844963188200,3.530188232421875,1.7109525203704834,0.6670856475830078,-0.1865350753068924
1790107844973132000,3.540132080078125,1.749848484992981,0.6999034881591797,-0.2459171861410141
1790107844983076000,3.550076171875,1.7726686000823975,0.7688459157943726,-0.29639947414398193
1790107844993021000,3.56002099609375,1.8115499019622803,0.8341975212097168,-0.3244870603084564
1790107845002965200,3.56996533203125,1.8194836378097534,0.8582808375358582,-0.3362613618373871
1790107845012909000,3.579908935546875,1.7888202667236328,0.8683531880378723,-0.3319483697414398
1790107845022854100,3.589854248046875,1.7347297668457031,0.739626944065094,-0.3238476812839508
1790107845032798000,3.5997978515625,1.6480011940002441,0.6547413468360901,-0.3233603239059448
1790107845042742000,3.609741943359375,1.5076619386672974,0.624259352684021,-0.34402406215667725
1790107845052686300,3.619686279296875,1.3344329595565796,0.5105245113372803,-0.34787046909332275
1790107845062631200,3.629631103515625,1.178864598274231,0.4289976954460144,-0.3346257507801056
1790107845072575000,3.639574951171875,1.0414694547653198,0.470944881439209,-0.3325013518333435
1790107845082519000,3.64951904296875,0.9308708310127258,0.5466194152832031,-0.33458924293518066
1790107845092464000,3.659464111328125,0.8469011187553406,0.5098413825035095,-0.3130360245704651
1790107845102408200,3.669408203125,0.7737001180648804,0.42359688878059387,-0.23989222943782806
1790107845112352300,3.679352294921875,0.7191758751869202,0.29718515276908875,-0.17088733613491058
1790107845122297000,3.689297119140625,0.6580938100814819,0.14713869988918304,-0.12452545017004013
1790107845132241000,3.699240966796875,0.5644897818565369,0.038021013140678406,-0.08978185057640076
1790107845142185200,3.709185302734375,0.4607445299625397,-0.039278604090213776,-0.054867442697286606
1790107845152129300,3.71912939453125,0.2837870717048645,-0.016809780150651932,-0.046145856380462646
1790107845162074000,3.72907421875,0.13271337747573853,0.09831364452838898,0.011137040331959724
1790107845172018200,3.73901806640625,0.13331390917301178,0.23783159255981445,0.09232963621616364
1790107845181962000,3.7489619140625,0.162313774228096,0.39241960644721985,0.1587122678756714
1790107845191907000,3.758906982421875,0.16991470754146576,0.40929821133613586,0.027518831193447113
1790107845201851100,3.76885107421875,0.17078882455825806,-0.06762085855007172,0.022602826356887817
1790107845211795200,3.778795166015625,0.30939915776252747,-0.6421501636505127,0.0912894755601883
1790107845221740300,3.788740234375,0.4062580168247223,-0.971611499786377,0.14775697886943817
1790107845231684000,3.79868408203125,0.3671018183231354,-0.9695057272911072,0.18244758248329163
1790107845241628200,3.808628173828125,0.3309020698070526,-0.7812114357948303,0.13333848118782043
1790107845251572200,3.818572265625,0.21967965364456177,-0.6272008419036865,0.100065216422081
1790107845261517000,3.82851708984375,0.12886430323123932,-0.6364389061927795,0.12507586181163788
1790107845271461000,3.838461181640625,0.039383165538311005,-0.7164943814277649,0.2080802023410797
1790107845281405200,3.8484052734375,-0.06823738664388657,-0.8338043093681335,0.25816968083381653
1790107845291350000,3.85835009765625,-0.2101207673549652,-0.839752733707428,0.25891804695129395
1790107845301294000,3.868294189453125,-0.35634467005729675,-0.8725912570953369,0.22708134353160858
1790107845311238100,3.878238037109375,-0.5066745281219482,-0.793017566204071,0.17982913553714752
1790107845321182000,3.888181884765625,-0.6916081309318542,-0.6448116302490234,0.12714195251464844
1790107845331127000,3.898126953125,-0.8670223355293274,-0.5629585385322571,0.07756295055150986
1790107845341071000,3.908071044921875,-1.0254695415496826,-0.5092290639877319,0.044839344918727875
1790107845351015200,3.91801513671875,-1.1470696926116943,-0.461340069770813,0.012418819591403008
1790107845360960300,3.927960205078125,-1.1900358200073242,-0.381841778755188,-0.02239173650741577
1790107845370904300,3.937904296875,-1.2229524850845337,-0.2907171845436096,-0.02996736392378807
1790107845380848000,3.94784814453125,-1.232899785041809,-0.24565191566944122,-0.020471179857850075
1790107845390793000,3.95779296875,-1.214458703994751,-0.39076700806617737,-0.06511880457401276
1790107845400737000,3.967737060546875,-1.1746183633804321,-0.38818877935409546,-0.07539060711860657
1790107845410681300,3.977681396484375,-1.0812724828720093,-0.3721315264701843,-0.06451718509197235
1790107845420625200,3.987625244140625,-0.9574791789054871,-0.3803730607032776,-0.044024351984262466
1790107845430570200,3.9975703125,-0.8533143997192383,-0.3639235198497772,-0.018981583416461945
1790107845440514000,4.00751416015625,-0.7516674995422363,-0.3896012604236603,-0.006563976407051086
1790107845450458000,4.0174580078125,-0.6625453233718872,-0.5281301140785217,-0.023830845952033997
1790107845460403200,4.0274033203125,-0.5560389161109924,-0.5898135304450989,-0.036460913717746735
1790107845470347300,4.03734716796875,-0.4702305197715759,-0.38575834035873413,-0.006315528880804777
1790107845480291000,4.047291015625,-0.435021311044693,-0.19820982217788696,0.05466005578637123
1790107845490236200,4.057236083984375,-0.4442062973976135,-0.21063533425331116,0.11294147372245789
1790107845500180200,4.06718017578125,-0.4571287930011749,-0.23011095821857452,0.14371952414512634
1790107845510124300,4.077124267578125,-0.5044757723808289,-0.15212056040763855,0.11617684364318848
1790107845520068000,4.087068115234375,-0.5460616946220398,-0.10058507323265076,0.034491367638111115
1790107845530013200,4.09701318359375,-0.5885595679283142,-0.18337370455265045,-0.028331272304058075
1790107845539957000,4.10695703125,-0.5778008103370667,-0.30907946825027466,-0.06589614599943161
1790107845549901300,4.1169013671875,-0.5184482336044312,-0.38536569476127625,-0.07237854599952698
1790107845559846100,4.12684619140625,-0.49449077248573303,-0.40890252590179443,-0.09082213044166565
1790107845569790200,4.136790283203125,-0.5037415623664856,-0.4334944188594818,-0.13152562081813812
1790107845579734000,4.146734130859375,-0.5029612183570862,-0.39223936200141907,-0.1578444093465805
1790107845589678000,4.156677978515625,-0.504173755645752,-0.31852012872695923,-0.1404893845319748
1790107845599623200,4.166623046875,-0.5122634172439575,-0.22389285266399384,-0.09357096999883652
1790107845609567200,4.176567138671875,-0.51289302110672,-0.11607556790113449,-0.0674046128988266
1790107845619510500,4.186510498046875,-0.49081867933273315,-0.07766416668891907,-0.08648265153169632
1790107845629456000,4.196455810546875,-0.46519508957862854,-0.11373535543680191,-0.13505977392196655
1790107845639399700,4.206399658203125,-0.46033746004104614,-0.13178427517414093,-0.20028705894947052
1790107845649343700,4.21634375,-0.486050009727478,-0.09874588996171951,-0.28085196018218994
1790107845659288600,4.22628857421875,-0.5145140886306763,-0.015658866614103317,-0.35275736451148987
1790107845669233000,4.23623291015625,-0.5612562894821167,-0.009757833555340767,-0.42049700021743774
1790107845679176700,4.2461767578125,-0.6061765551567078,-0.08271267265081406,-0.46424922347068787
1790107845689120800,4.256120849609375,-0.6637279987335205,-0.17979927361011505,-0.49138951301574707
1790107845699065600,4.266065673828125,-0.6983292698860168,-0.30134615302085876,-0.505678117275238
1790107845709009700,4.276009765625,-0.7500603795051575,-0.43443629145622253,-0.5207870006561279
1790107845718953700,4.28595361328125,-0.8126674294471741,-0.5271859169006348,-0.5194854736328125
1790107845728898800,4.29589892578125,-0.8451231122016907,-0.5638461709022522,-0.529178261756897
1790107845738842600,4.305842529296875,-0.8829394578933716,-0.5385063886642456,-0.5474660396575928
1790107845748786700,4.31578662109375,-0.8828137516975403,-0.4968969225883484,-0.580319881439209
1790107845758731800,4.325731689453125,-0.8699545860290527,-0.43727925419807434,-0.5979569554328918
1790107845768675800,4.33567578125,-0.8752042055130005,-0.26525476574897766,-0.5814341902732849
1790107845778619600,4.34561962890625,-0.8758548498153687,-0.037766069173812866,-0.5184980034828186
1790107845788563700,4.355563720703125,-0.8692440986633301,0.19118055701255798,-0.38133135437965393
1790107845798508500,4.365508544921875,-0.882575511932373,0.41231614351272583,-0.3439500629901886
1790107845808452900,4.375452880859375,-0.859849750995636,0.5411596298217773,-0.2906559407711029
1790107845818397000,4.38539697265625,-0.8911868929862976,0.5778139233589172,-0.35724419355392456
1790107845828341800,4.395341796875,-0.9218335151672363,0.43154963850975037,-0.390051931142807
1790107845838285600,4.40528564453125,-0.9163385629653931,0.1899714171886444,-0.37608614563941956
1790107845848229600,4.415229736328125,-1.0333740711212158,0.027433358132839203,-0.41590121388435364
1790107845858174000,4.425174072265625,-1.114904761314392,-0.08197158575057983,-0.40608519315719604
1790107845868118800,4.435118896484375,-1.1664597988128662,-0.08077555894851685,-0.36297738552093506
1790107845878062800,4.445062744140625,-1.073570966720581,-0.07162878662347794,-0.2530687749385834
1790107845888006700,4.455006591796875,-1.0893746614456177,0.020515520125627518,-0.23947946727275848
1790107845897951700,4.46495166015625,-1.1257517337799072,0.15902037918567657,-0.22047793865203857
1790107845907895800,4.474895751953125,-1.128957986831665,0.2532121241092682,-0.15212604403495789
1790107845917840000,4.48483984375,-1.075728416442871,0.2501136064529419,-0.11355027556419373
1790107845927784700,4.49478466796875,-1.1612155437469482,0.2418633997440338,-0.1695227175951004
1790107845937728800,4.504728759765625,-1.2385811805725098,0.10291868448257446,-0.24184706807136536
1790107845947672800,4.5146728515625,-1.230954647064209,-0.1521330326795578,-0.2290220856666565
1790107845957617000,4.524616943359375,-1.188238263130188,-0.31598496437072754,-0.1914987415075302
1790107845967561700,4.534561767578125,-1.151180386543274,-0.2825438976287842,-0.2420268952846527
1790107845977505800,4.544505859375,-1.120194435119629,-0.10311440378427505,-0.22761712968349457
1790107845987449600,4.55444970703125,-1.0165170431137085,-0.14493907988071442,-0.19644084572792053
1790107845997394700,4.564394775390625,-0.9006405472755432,-0.2941899597644806,-0.16472239792346954
1790107846007338800,4.5743388671875,-0.8316039443016052,-0.3203784227371216,-0.08477803319692612
1790107846017282800,4.58428271484375,-0.7701342701911926,-0.2630082368850708,-0.02747819945216179
1790107846027227600,4.5942275390625,-0.6685671806335449,-0.15286946296691895,0.004848849028348923
1790107846037172000,4.604171875,-0.5310782790184021,-0.03856261819601059,0.12452543526887894
1790107846047115800,4.61411572265625,-0.42124179005622864,0.016508888453245163,0.18236982822418213
1790107846057059800,4.624059814453125,-0.3346683979034424,0.13446617126464844,0.30965346097946167
1790107846067004700,4.634004638671875,-0.31561505794525146,0.23764902353286743,0.3901624381542206
1790107846076948700,4.64394873046875,-0.2579993009567261,0.2572678327560425,0.4809775948524475
1790107846086892800,4.653892822265625,-0.17058607935905457,0.27964264154434204,0.5439355373382568
1790107846096837600,4.663837646484375,-0.09715059399604797,0.36489027738571167,0.5181046724319458
1790107846106781700,4.67378173828125,-0.03349119424819946,0.45707079768180847,0.5148276090621948
1790107846116725800,4.683725830078125,0.06289856880903244,0.5420532822608948,0.5978477001190186
1790107846126669600,4.693669677734375,0.16804176568984985,0.6066809892654419,0.6554550528526306
1790107846136615000,4.703614990234375,0.25854921340942383,0.5415024757385254,0.6629707217216492
1790107846146558700,4.713558837890625,0.3629760146141052,0.42737457156181335,0.6468644142150879
1790107846156502800,4.723502685546875,0.4826737642288208,0.36261001229286194,0.5950766801834106
1790107846166447600,4.733447509765625,0.5876864790916443,0.3590642809867859,0.5397542715072632
1790107846176392000,4.743391845703125,0.6964415907859802,0.34479567408561707,0.5460052490234375
1790107846186335700,4.753335693359375,0.8020249605178833,0.2919550836086273,0.60580974817276
1790107846196280800,4.76328076171875,0.8835938572883606,0.2491120994091034,0.6632258296012878
1790107846206224600,4.773224609375,0.970759391784668,0.20449241995811462,0.7182989120483398
1790107846216168700,4.783168701171875,1.0608474016189575,0.18248482048511505,0.7548525333404541
1790107846226112800,4.79311279296875,1.127082109451294,0.17455019056797028,0.7352926731109619
1790107846236057900,4.803057861328125,1.188657283782959,0.1327497661113739,0.7110382914543152
1790107846246001700,4.813001708984375,1.2550599575042725,0.11158081889152527,0.7130172848701477
1790107846255945700,4.82294580078125,1.3265045881271362,0.09843452274799347,0.7371747493743896
1790107846265890800,4.832890869140625,1.3897209167480469,0.10088382661342621,0.7370642423629761
1790107846275835000,4.8428349609375,1.4741616249084473,0.15131022036075592,0.7213431000709534
1790107846285778700,4.85277880859375,1.569076418876648,0.2274521291255951,0.6988460421562195
1790107846295723800,4.862723876953125,1.6589962244033813,0.280423104763031,0.6600597500801086
1790107846305667600,4.87266748046875,1.7468287944793701,0.3008684515953064,0.6303939819335938
1790107846315612000,4.88261181640625,1.8514556884765625,0.3182683289051056,0.6164652705192566
1790107846325555700,4.8925556640625,1.946908950805664,0.3487503230571747,0.6072161197662354
1790107846335500800,4.902500732421875,2.025864839553833,0.3953671455383301,0.5980610251426697
1790107846345444600,4.912444580078125,2.0988481044769287,0.34122002124786377,0.56525057554245
1790107846355388700,4.922388671875,2.148804187774658,0.36779865622520447,0.568147599697113
1790107846365333800,4.932333740234375,2.180879831314087,0.4521782398223877,0.5327339768409729
1790107846375277800,4.94227783203125,2.21175479888916,0.495478093624115,0.38152793049812317
1790107846385221600,4.9522216796875,2.168989419937134,0.5495479702949524,0.22828806936740875
1790107846395165700,4.962165771484375,2.10697865486145,0.452439546585083,0.11979270726442337
1790107846405110800,4.97211083984375,2.0490527153015137,0.24652019143104553,0.04277781397104263
1790107846415054800,4.982054931640625,1.9611423015594482,0.09609711915254593,0.04176367074251175
1790107846424998700,4.99199853515625,1.875519871711731,-0.047374553978443146,0.10254260152578354
1790107846434943700,5.00194384765625,1.8144512176513672,-0.18158867955207825,0.1648254692554474
1790107846444887600,5.011887451171875,1.7760818004608154,-0.2557140290737152,0.15719205141067505
1790107846454831900,5.021831787109375,1.7334517240524292,-0.3477286696434021,0.10982945561408997
1790107846464776700,5.031776611328125,1.7196149826049805,-0.3670283555984497,0.08641520142555237
1790107846474720800,5.041720703125,1.7137576341629028,-0.27333495020866394,0.058793965727090836
1790107846484664600,5.05166455078125,1.6217366456985474,-0.14486749470233917,0.07114890962839127
1790107846494608600,5.061608642578125,1.4981037378311157,-0.01517249271273613,0.10858488082885742
1790107846504553700,5.0715537109375,1.3637349605560303,0.1776462197303772,0.15025749802589417
1790107846514497800,5.081497802734375,1.2404372692108154,0.3940867781639099,0.14972719550132751
1790107846524441600,5.091441650390625,1.0926190614700317,0.373382568359375,0.14389166235923767
1790107846534386700,5.10138671875,0.9156171679496765,0.17799773812294006,0.1384545862674713
1790107846544330800,5.111330810546875,0.7247185707092285,0.05110211297869682,0.11637565493583679
1790107846554274800,5.12127490234375,0.5691000819206238,-0.015288559719920158,0.09154783934354782
1790107846564219600,5.1312197265625,0.4607253968715668,-0.1864435374736786,0.06886675953865051
1790107846574163700,5.141163818359375,0.359756201505661,-0.34059250354766846,0.08423126488924026
1790107846584107500,5.151107421875,0.3143942952156067,-0.5740204453468323,0.15205985307693481
1790107846594051800,5.1610517578125,0.24406802654266357,-0.7120771408081055,0.1702062040567398
1790107846603996700,5.17099658203125,0.18671712279319763,-0.48665735125541687,0.1365949809551239
1790107846613940700,5.180940673828125,0.08582998067140579,-0.08996600657701492,0.22540591657161713
1790107846623885000,5.190885009765625,0.059490788727998734,0.32431507110595703,0.32206693291664124
1790107846633830100,5.200830078125,0.02898891270160675,0.2487216591835022,0.2840302884578705
1790107846643774000,5.21077392578125,-0.04350712522864342,-0.2997933626174927,0.1682853251695633
1790107846653718000,5.220718017578125,-0.0415484756231308,-0.6429740190505981,0.12985488772392273
1790107846663663000,5.2306630859375,-0.03674067184329033,-0.5879286527633667,0.15008266270160675
1790107846673607200,5.240607177734375,-0.10416943579912186,-0.5946431756019592,0.13983513414859772
1790107846683551000,5.250551025390625,-0.17491629719734192,-0.8651177883148193,0.1291406750679016
1790107846693495000,5.2604951171875,-0.2588740289211273,-1.1068360805511475,0.15481825172901154
1790107846703440000,5.27043994140625,-0.36579620838165283,-1.1043015718460083,0.2125350832939148
1790107846713384200,5.28038427734375,-0.5246970653533936,-0.9764237999916077,0.24500150978565216
1790107846723328000,5.290327880859375,-0.7279077172279358,-0.8654349446296692,0.2488979697227478
1790107846733273000,5.300273193359375,-0.8996633291244507,-0.6631835103034973,0.22061431407928467
1790107846743217000,5.310216796875,-1.0655760765075684,-0.4461963474750519,0.15133057534694672
1790107846753161000,5.320160888671875,-1.1905474662780762,-0.27756360173225403,0.05175263062119484
1790107846763106000,5.33010595703125,-1.262724757194519,-0.2546398937702179,-0.04519708454608917
1790107846773050000,5.340050048828125,-1.3012230396270752,-0.2780972719192505,-0.1268479824066162
1790107846782994000,5.349993896484375,-1.3000123500823975,-0.2706744968891144,-0.16481932997703552
1790107846792938000,5.35993798828125,-1.2941879034042358,-0.30273038148880005,-0.20977680385112762
1790107846802883000,5.369883056640625,-1.273814082145691,-0.37395766377449036,-0.259935587644577
1790107846812827100,5.3798271484375,-1.203583002090454,-0.38883960247039795,-0.281699001789093
1790107846822771200,5.389771240234375,-1.1165789365768433,-0.34480661153793335,-0.28307586908340454
1790107846832716000,5.399716064453125,-0.99419105052948,-0.2493838518857956,-0.2557019591331482
1790107846842659800,5.409659912109375,-0.8672668933868408,-0.21999746561050415,-0.22629879415035248
1790107846852604200,5.419604248046875,-0.7548401355743408,-0.30008140206336975,-0.20420774817466736
1790107846862548200,5.42954833984375,-0.6383302807807922,-0.37175875902175903,-0.14658387005329132
1790107846872493000,5.4394931640625,-0.539100706577301,-0.4551258683204651,-0.0710674449801445
1790107846882436900,5.449436767578125,-0.45749956369400024,-0.47341325879096985,0.03056010603904724
1790107846892381000,5.459380859375,-0.3865669071674347,-0.41206568479537964,0.13723520934581757
1790107846902326000,5.469325927734375,-0.3524422347545624,-0.36178892850875854,0.20190687477588654
1790107846912270000,5.47927001953125,-0.3361799716949463,-0.3535440266132355,0.1650235950946808
1790107846922214100,5.489214111328125,-0.30841729044914246,-0.2981792986392975,0.08089618384838104
1790107846932159000,5.499158935546875,-0.3159959614276886,-0.22837749123573303,0.028212256729602814
1790107846942103000,5.50910302734375,-0.3555944859981537,-0.16023066639900208,0.015007768757641315
1790107846952047000,5.519047119140625,-0.35675546526908875,-0.07827498763799667,0.012076213955879211
1790107846961991200,5.5289912109375,-0.35447660088539124,-0.020561086013913155,0.01459423266351223
1790107846971936000,5.53893603515625,-0.34149420261383057,-0.03906992822885513,0.04508761689066887
1790107846981880000,5.548880126953125,-0.356026291847229,-0.04953934997320175,0.05480309575796127
1790107846991824100,5.55882421875,-0.3997948169708252,-0.03683768957853317,0.01666581630706787
1790107847001769000,5.56876904296875,-0.4774978756904602,0.011759673245251179,-0.0268425140529871
1790107847011713000,5.578713134765625,-0.5638275742530823,0.0689777210354805,-0.08451232314109802
1790107847021657000,5.588656982421875,-0.6359297633171082,0.10272397100925446,-0.16068458557128906
1790107847031601000,5.598600830078125,-0.67836993932724,0.09706662595272064,-0.2179088443517685
1790107847041546000,5.6085458984375,-0.7102418541908264,0.08210818469524384,-0.25239065289497375
1790107847051490000,5.618489990234375,-0.7384119033813477,0.12359582632780075,-0.2665671706199646
1790107847061434000,5.62843408203125,-0.761864185333252,0.2282055765390396,-0.2936722934246063
1790107847071379000,5.63837890625,-0.7835190296173096,0.32902419567108154,-0.3347521424293518
1790107847081323300,5.6483232421875,-0.8135949373245239,0.351292222738266,-0.3634626269340515
1790107847091267000,5.65826708984375,-0.84065842628479,0.2877165675163269,-0.38419845700263977
1790107847101212000,5.6682119140625,-0.8515523672103882,0.14943671226501465,-0.40913310647010803
1790107847111156000,5.678156005859375,-0.8565555214881897,-0.07801194489002228,-0.4652652442455292
1790107847121100000,5.68810009765625,-0.8826635479927063,-0.2505144774913788,-0.5097339153289795
1790107847131044000,5.698044189453125,-0.9043799042701721,-0.2870301902294159,-0.5208596587181091
1790107847140989200,5.7079892578125,-0.9290884137153625,-0.2338327318429947,-0.4819335639476776
1790107847150933000,5.71793310546875,-0.9500020146369934,-0.10280773788690567,-0.40210816264152527
1790107847160877000,5.727876953125,-0.9623718857765198,0.024069521576166153,-0.3568413555622101
1790107847170822100,5.737822265625,-0.9548330903053284,0.11420303583145142,-0.36113056540489197
1790107847180766200,5.74776611328125,-0.9495592713356018,0.0735301822423935,-0.4267343580722809
1790107847190710000,5.7577099609375,-0.9555795788764954,-0.04998829960823059,-0.49689027667045593
1790107847200655000,5.767655029296875,-0.9749186635017395,-0.22572043538093567,-0.5852089524269104
1790107847210599000,5.777598876953125,-0.9930276274681091,-0.3192248046398163,-0.6027281284332275
1790107847220543200,5.787543212890625,-0.9318833351135254,-0.2853776216506958,-0.5586898326873779
1790107847230487000,5.797487060546875,-0.9135923385620117,-0.11465436220169067,-0.4265693724155426
1790107847240432000,5.80743212890625,-0.9837716817855835,0.217677503824234,-0.2961312234401703
1790107847250376000,5.8173759765625,-1.081560492515564,0.5100087523460388,-0.20526933670043945
1790107847260320000,5.827320068359375,-1.1300866603851318,0.6841480731964111,-0.13513340055942535
1790107847270265000,5.83726513671875,-1.1387670040130615,0.6856793165206909,-0.07911141216754913
1790107847280209200,5.847209228515625,-1.15494966506958,0.5749565362930298,-0.07547646760940552
1790107847290153000,5.857153076171875,-1.143409252166748,0.3396243751049042,-0.18408766388893127
1790107847300098000,5.86709814453125,-1.162077784538269,0.09938913583755493,-0.264272004365921
1790107847310042000,5.8770419921875,-1.1747987270355225,-0.11260606348514557,-0.27199724316596985
1790107847319986200,5.886986083984375,-1.1611063480377197,-0.009014425799250603,-0.21595874428749084
1790107847329930000,5.896929931640625,-1.087501883506775,0.10931754857301712,-0.13623285293579102
1790107847339875000,5.906875,-0.9854142069816589,0.01894398033618927,-0.12495117634534836
1790107847349819000,5.91681884765625,-0.8743585348129272,-0.31888315081596375,-0.2151697725057602
1790107847359763200,5.92676318359375,-0.7789047360420227,-0.659076452255249,-0.24315613508224487
1790107847369708000,5.9367080078125,-0.6725612282752991,-0.7712317109107971,-0.19581285119056702
1790107847379652000,5.946652099609375,-0.5813374519348145,-0.5018860101699829,-0.13872843980789185
1790107847389596000,5.956595947265625,-0.46311450004577637,-0.11478366702795029,-0.09850288182497025
1790107847399540000,5.9665400390625,-0.3732788860797882,0.07496975362300873,-0.04748496413230896
1790107847409485000,5.976485107421875,-0.29441481828689575,0.138618603348732,-0.009501048363745213
1790107847419429000,5.98642919921875,-0.1986139863729477,0.15574698150157928,0.09016482532024384
1790107847429373000,5.996373046875,-0.16173100471496582,0.20878158509731293,0.23618029057979584
1790107847439318000,6.006318115234375,-0.12690404057502747,0.3760605752468109,0.32583001255989075
1790107847449262000,6.016261962890625,-0.06816477328538895,0.5329318642616272,0.38096073269844055
1790107847459206100,6.0262060546875,-0.022988511249423027,0.5669865012168884,0.415070503950119
1790107847469151000,6.03615087890625,0.03568911924958229,0.5267191529273987,0.43589383363723755
1790107847479095000,6.046094970703125,0.14266642928123474,0.5242272615432739,0.44129979610443115
1790107847489038800,6.056038818359375,0.2505611181259155,0.4989563524723053,0.4024864137172699
1790107847498983200,6.065983154296875,0.3643132448196411,0.3980129659175873,0.39419281482696533
1790107847508928000,6.075927978515625,0.48073405027389526,0.3095841705799103,0.3980226218700409
1790107847518872000,6.0858720703125,0.5999168753623962,0.3226059675216675,0.3832373023033142
1790107847528815900,6.09581591796875,0.7104805707931519,0.3618282377719879,0.3514353036880493
1790107847538761200,6.10576123046875,0.7958835959434509,0.3691261112689972,0.3679461181163788
1790107847548705000,6.115705078125,0.8694995641708374,0.3930840492248535,0.4267105460166931
1790107847558649000,6.125649169921875,0.9506953358650208,0.4191068410873413,0.4800899028778076
1790107847568594000,6.135593994140625,1.028374195098877,0.35561618208885193,0.49847346544265747
1790107847578538000,6.1455380859375,1.0842664241790771,0.3575746715068817,0.4954015612602234
1790107847588482000,6.15548193359375,1.15479576587677,0.39711135625839233,0.49663880467414856
1790107847598426000,6.165426025390625,1.2430875301361084,0.4030829668045044,0.4772954285144806
1790107847608371000,6.175370849609375,1.3362325429916382,0.35479238629341125,0.44527480006217957
1790107847618315000,6.18531494140625,1.4313292503356934,0.27353161573410034,0.40575110912323
1790107847628258800,6.1952587890625,1.5142815113067627,0.22001692652702332,0.336124062538147
1790107847638204000,6.205203857421875,1.583430290222168,0.14857763051986694,0.2546377182006836
1790107847648147700,6.215147705078125,1.6296794414520264,0.041940685361623764,0.20050419867038727
1790107847658092000,6.225092041015625,1.6702321767807007,-0.05623088777065277,0.17198175191879272
1790107847668036000,6.2350361328125,1.7330563068389893,-0.08646011352539062,0.18447063863277435
1790107847677981000,6.24498095703125,1.8092975616455078,-0.07078501582145691,0.2035210281610489
1790107847687924700,6.2549248046875,1.8705575466156006,-0.08668091893196106,0.18936018645763397
1790107847697868800,6.264868896484375,1.8869082927703857,-0.10214562714099884,0.17967453598976135
1790107847707814000,6.27481396484375,1.865439534187317,-0.06485167145729065,0.1641552895307541
1790107847717758000,6.284758056640625,1.8781406879425049,-0.0340799055993557,0.15278811752796173
1790107847727702000,6.294701904296875,1.9146982431411743,0.047613199800252914,0.18633241951465607
1790107847737646800,6.304646728515625,1.9381740093231201,0.09748008847236633,0.19648198783397675
1790107847747591000,6.3145908203125,1.9351458549499512,-0.04481242969632149,0.15458029508590698
1790107847757535000,6.324534912109375,1.8642226457595825,-0.2800814211368561,0.09789731353521347
1790107847767479000,6.33447900390625,1.7355488538742065,-0.5589269995689392,0.014522337354719639
1790107847777424000,6.344423828125,1.5420573949813843,-0.8705437183380127,-0.07486453652381897
1790107847787368000,6.354367919921875,1.2837854623794556,-1.1296879053115845,-0.13882136344909668
1790107847797312000,6.36431201171875,1.0353703498840332,-1.324155330657959,-0.22974301874637604
1790107847807256800,6.3742568359375,0.9150624871253967,-1.5214464664459229,-0.2247050404548645
1790107847817201000,6.384200927734375,0.8729587197303772,-1.5268793106079102,-0.16398844122886658
1790107847827145000,6.39414501953125,0.8324719071388245,-1.166406273841858,-0.12051653861999512
1790107847837090000,6.404090087890625,0.7689046263694763,-0.6870628595352173,-0.09194454550743103
1790107847847033900,6.414033935546875,0.6834246516227722,-0.17583830654621124,-0.050929006189107895
1790107847856978000,6.42397802734375,0.5709497928619385,0.2997460663318634,0.12869694828987122
1790107847866922000,6.433921875,0.5295838713645935,0.687046468257904,0.4353145658969879
1790107847876866800,6.44386669921875,0.5499266982078552,0.8097313642501831,0.5482752323150635
1790107847886811100,6.45381103515625,0.5402966737747192,0.4198492169380188,0.37258410453796387
1790107847896755000,6.4637548828125,0.5112873911857605,-0.39704588055610657,0.2606663703918457
1790107847906699800,6.47369970703125,0.6442588567733765,-0.9945650100708008,0.2713104784488678
1790107847916643800,6.483643798828125,0.8310689330101013,-1.0904468297958374,0.3249798119068146
1790107847926588000,6.493587890625,0.8957356810569763,-0.9484559297561646,0.35768556594848633
1790107847936533000,6.503532958984375,0.8103634715080261,-0.8924731016159058,0.3044449985027313
1790107847946477000,6.51347705078125,0.5908194184303284,-1.0899800062179565,0.19976910948753357
1790107847956420900,6.5234208984375,0.3956930935382843,-1.2291152477264404,0.12646879255771637
1790107847966365000,6.533364990234375,0.2348661720752716,-1.1386678218841553,0.1301155686378479
1790107847976310000,6.54331005859375,0.09434155374765396,-0.9693725109100342,0.1781850904226303
1790107847986254000,6.553254150390625,-0.07954579591751099,-0.8404918909072876,0.22649633884429932
1790107847996198000,6.563197998046875,-0.2278902530670166,-0.6662678718566895,0.27132534980773926
1790107848006143000,6.57314306640625,-0.33594608306884766,-0.49078577756881714,0.28767159581184387
1790107848016086800,6.583086669921875,-0.45495501160621643,-0.43285059928894043,0.2692355811595917
1790107848026031000,6.593031005859375,-0.5826346278190613,-0.5387769937515259,0.21819905936717987
1790107848035976000,6.602975830078125,-0.6600567102432251,-0.5456228852272034,0.1914646476507187
1790107848045920000,6.612919921875,-0.6919060349464417,-0.3889012336730957,0.20205999910831451
1790107848055863800,6.62286376953125,-0.7303714156150818,-0.32519814372062683,0.17851659655570984
1790107848065808000,6.632807861328125,-0.7960900068283081,-0.43806469440460205,0.106499582529068
1790107848075753000,6.6427529296875,-0.834050178527832,-0.45990633964538574,0.07270325720310211
1790107848085697000,6.652697021484375,-0.8430824875831604,-0.327382355928421,0.07708816975355148
1790107848095640800,6.662640869140625,-0.8448577523231506,-0.1631569266319275,0.07849618047475815
1790107848105586000,6.6725859375,-0.870947539806366,-0.17100726068019867,0.036909542977809906
1790107848115530000,6.682530029296875,-0.8960582613945007,-0.2498014122247696,-0.018149448558688164
1790107848125474000,6.69247412109375,-0.8688247799873352,-0.16361837089061737,-0.025750668719410896
1790107848135417900,6.70241796875,-0.816669225692749,0.1215561255812645,-0.009373027831315994
1790107848145363000,6.712363037109375,-0.8027142286300659,0.3037512004375458,-0.05055871233344078
1790107848155306800,6.722306640625,-0.8233787417411804,0.2542435824871063,-0.1600111722946167
1790107848165251000,6.7322509765625,-0.8483947515487671,0.21643462777137756,-0.22842340171337128
1790107848175196000,6.74219580078125,-0.8556457161903381,0.17286796867847443,-0.2537117004394531
1790107848185140000,6.752139892578125,-0.85155189037323,0.09801356494426727,-0.2825292944908142
1790107848195083800,6.762083740234375,-0.8198049068450928,0.07667604833841324,-0.31276628375053406
1790107848205029000,6.772029052734375,-0.8031334280967712,0.04872386157512665,-0.345843642950058
1790107848214973000,6.781972900390625,-0.8227620124816895,0.021384384483098984,-0.3885687291622162
1790107848224917000,6.7919169921875,-0.8270911574363708,0.08266016840934753,-0.4268980920314789
1790107848234860800,6.80186083984375,-0.8173295855522156,0.13417528569698334,-0.4531283378601074
1790107848244806000,6.811805908203125,-0.8330819606781006,0.1362658590078354,-0.4619126319885254
1790107848254750000,6.82175,-0.8170201778411865,0.13572975993156433,-0.45307812094688416
1790107848264694000,6.831694091796875,-0.8031896948814392,0.1474156528711319,-0.4217740297317505
1790107848274638800,6.841638916015625,-0.8017702698707581,0.16470275819301605,-0.4161406457424164
1790107848284583000,6.8515830078125,-0.8011888265609741,0.20211245119571686,-0.4286470115184784
1790107848294526700,6.861526611328125,-0.7786944508552551,0.2809460163116455,-0.4343285858631134
1790107848304471000,6.871470947265625,-0.7788701057434082,0.34089070558547974,-0.39889848232269287
1790107848314415900,6.881415771484375,-0.8069195747375488,0.305527925491333,-0.35478296875953674
1790107848324360000,6.89135986328125,-0.8542307019233704,0.2235148400068283,-0.3331257104873657
1790107848334303700,6.9013037109375,-0.9219397306442261,0.15304014086723328,-0.3291453719139099
1790107848344249000,6.9112490234375,-1.0094001293182373,0.019424933940172195,-0.3347617983818054
1790107848354193000,6.92119287109375,-1.1526530981063843,-0.13413932919502258,-0.36427041888237
1790107848364137000,6.931136962890625,-1.2921816110610962,-0.22454582154750824,-0.39348021149635315
1790107848374081800,6.941081787109375,-1.3823293447494507,-0.24148885905742645,-0.4081265330314636
1790107848384025900,6.95102587890625,-1.4328190088272095,-0.24518898129463196,-0.42451852560043335
1790107848393970000,6.960969970703125,-1.4691685438156128,-0.26378557085990906,-0.4310304820537567
1790107848403914000,6.9709140625,-1.4843937158584595,-0.2631179690361023,-0.444642573595047
1790107848413858800,6.98085888671875,-1.45849609375,-0.2035939246416092,-0.42270877957344055
1790107848423803000,6.990802978515625,-1.3937337398529053,-0.13461676239967346,-0.3838414251804352
1790107848433746700,7.00074658203125,-1.3047823905944824,-0.0587100125849247,-0.3346363306045532
1790107848443692000,7.010692138671875,-1.2492098808288574,-0.0339379608631134,-0.24950338900089264
1790107848453635800,7.0206357421875,-1.2709537744522095,-0.10036171972751617,-0.23607920110225677
1790107848463580000,7.030579833984375,-1.3210710287094116,-0.22313733398914337,-0.2825458347797394
1790107848473524700,7.040524658203125,-1.3638427257537842,-0.2835442125797272,-0.31242117285728455
1790107848483469000,7.050468994140625,-1.370947003364563,-0.2892557680606842,-0.28807371854782104
1790107848493412900,7.060412841796875,-1.3894317150115967,-0.1641732156276703,-0.26739373803138733
1790107848503357000,7.07035693359375,-1.3709640502929688,0.0025090891867876053,-0.1898040473461151
1790107848513301800,7.0803017578125,-1.386174201965332,0.17183952033519745,-0.07290726155042648
1790107848523245800,7.090245849609375,-1.3452417850494385,0.1935783475637436,0.01968458481132984
1790107848533190000,7.10018994140625,-1.2091729640960693,0.020281925797462463,0.11315807700157166
1790107848543135000,7.110135009765625,-1.090158224105835,-0.27653953433036804,0.22157008945941925
1790107848553078800,7.120078857421875,-1.0101710557937622,-0.26866188645362854,0.28899627923965454
1790107848563022800,7.13002294921875,-0.9237694144248962,-0.06266646087169647,0.25958800315856934
1790107848572968000,7.139968017578125,-0.8090814352035522,0.08209231495857239,0.2717333436012268
1790107848582912000,7.149912109375,-0.7232920527458191,0.008973903022706509,0.3709571063518524
1790107848592855800,7.159855712890625,-0.63550865650177,-0.14855873584747314,0.4307887554168701
1790107848602799900,7.1697998046875,-0.5331529378890991,-0.27302905917167664,0.5178372263908386
1790107848612744700,7.17974462890625,-0.4508197009563446,-0.25358614325523376,0.6352719664573669
1790107848622689300,7.189689208984375,-0.3987295627593994,-0.19203920662403107,0.7174659371376038
1790107848632633000,7.199633056640625,-0.3495103418827057,-0.20960062742233276,0.7518808841705322
1790107848642578400,7.209578369140625,-0.26613837480545044,-0.17261216044425964,0.7352471947669983
1790107848652522200,7.219522216796875,-0.1386057287454605,-0.12570670247077942,0.6990164518356323
1790107848662466300,7.22946630859375,-0.016893064603209496,-0.1439381241798401,0.7188569903373718
1790107848672410400,7.239410400390625,0.0911250114440918,-0.1840170919895172,0.7607634663581848
1790107848682355200,7.249355224609375,0.20888684689998627,-0.18952876329421997,0.7720984816551208
1790107848692299300,7.25929931640625,0.3222157955169678,-0.09533540904521942,0.7593291401863098
1790107848702243300,7.269243408203125,0.4345199763774872,0.02005578950047493,0.7721675038337708
1790107848712188200,7.279188232421875,0.5484782457351685,0.13730092346668243,0.8499019742012024
1790107848722132200,7.28913232421875,0.6681624054908752,0.2405293732881546,0.9682124257087708
1790107848732076300,7.299076171875,0.7928492426872253,0.30642372369766235,1.0410114526748657
1790107848742021400,7.309021484375,0.8910287618637085,0.3184763789176941,1.0550260543823242
1790107848751965200,7.318965087890625,0.9716610312461853,0.28517380356788635,1.037554383277893
1790107848761909200,7.3289091796875,1.0498710870742798,0.23476769030094147,1.054996371269226
1790107848771853300,7.338853271484375,1.133081316947937,0.17199406027793884,1.0727463960647583
1790107848781798400,7.34879833984375,1.215904951095581,0.11529480665922165,1.054618000984192
1790107848791742200,7.3587421875,1.286582350730896,0.03634486347436905,1.007460594177246
1790107848801686300,7.368686279296875,1.3722877502441406,-0.012076151557266712,0.9645341038703918
1790107848811631000,7.378631103515625,1.4786248207092285,0.018980301916599274,0.9148685932159424
1790107848821575200,7.3885751953125,1.5825080871582031,0.0374864786863327,0.8386465907096863
1790107848831519500,7.39851953125,1.6688847541809082,0.036897920072078705,0.7786655426025391
1790107848841464300,7.40846435546875,1.7330197095870972,0.02703508734703064,0.7341535091400146
1790107848851408100,7.418408203125,1.7710938453674316,0.0725216194987297,0.6840925216674805
1790107848861352200,7.428352294921875,1.8060086965560913,0.0919097512960434,0.5943633913993835
1790107848871296300,7.438296142578125,1.8194611072540283,0.028045278042554855,0.4907264709472656
1790107848881241300,7.448241455078125,1.8420284986495972,-0.01702163927257061,0.4121742248535156
1790107848891185400,7.458185302734375,1.8885067701339722,-0.09906058013439178,0.33744940161705017
1790107848901129200,7.468129150390625,1.9454596042633057,-0.22715863585472107,0.27872350811958313
1790107848911074000,7.478073974609375,2.014307737350464,-0.37755876779556274,0.22290366888046265
1790107848921018400,7.488018310546875,2.0569584369659424,-0.5941061973571777,0.16426752507686615
1790107848930962400,7.49796240234375,2.0241780281066895,-0.8149855732917786,0.09575958549976349
1790107848940906200,7.50790625,1.9880410432815552,-1.0028156042099,0.03787285462021828
1790107848950851300,7.517851318359375,1.9382097721099854,-1.3380646705627441,0.040682222694158554
1790107848960795100,7.527795166015625,1.7537367343902588,-1.6424829959869385,0.05143745243549347
1790107848970739500,7.537739501953125,1.5455139875411987,-1.7573539018630981,0.018922653049230576
1790107848980684300,7.547684326171875,1.4101060628890991,-1.7028319835662842,-0.0756460577249527
1790107848990628400,7.55762841796875,1.2678611278533936,-1.4344135522842407,-0.14389461278915405
1790107849000572200,7.567572265625,1.125052809715271,-1.1456431150436401,0.004047250375151634
1790107849010517200,7.577517333984375,0.9980736970901489,-0.7389228343963623,0.20108520984649658
1790107849020461300,7.58746142578125,0.8180062770843506,-0.14884187281131744,0.3946683704853058
1790107849030405400,7.5974052734375,0.5700728893280029,0.47715169191360474,0.717170774936676
1790107849040349200,7.60734912109375,0.5043591260910034,0.8767163753509521,1.042536735534668
1790107849050294300,7.617294189453125,0.5449030995368958,0.9492188096046448,1.083019495010376
1790107849060238300,7.62723828125,0.5716202855110168,0.5208271741867065,0.7609684467315674
1790107849070182400,7.637182373046875,0.5505179166793823,-0.28467094898223877,0.5833920240402222
1790107849080127200,7.647127197265625,0.5422424674034119,-0.917324960231781,0.631601870059967
1790107849090071300,7.6570712890625,0.6769645810127258,-1.1935226917266846,0.6849114298820496
1790107849100015000,7.66701513671875,0.7633706331253052,-1.1571706533432007,0.647938072681427
1790107849109960200,7.676960205078125,0.6913824677467346,-0.9835584163665771,0.609911322593689
1790107849119904300,7.686904296875,0.5655266046524048,-0.8787203431129456,0.5364669561386108
1790107849129848300,7.696848388671875,0.39863404631614685,-0.9816371202468872,0.4844575822353363
1790107849139792100,7.706792236328125,0.2169591784477234,-1.0427173376083374,0.5122372508049011
1790107849149737500,7.716737548828125,0.05341285467147827,-0.9669232368469238,0.503730058670044
1790107849159681300,7.726681396484375,-0.14206507802009583,-0.8432356715202332,0.45458510518074036
1790107849169625300,7.736625244140625,-0.3476012051105499,-0.7167776226997375,0.3800024688243866
1790107849179570200,7.746570068359375,-0.5456596612930298,-0.5458613038063049,0.30073970556259155
1790107849189514200,7.75651416015625,-0.6924096941947937,-0.3005911111831665,0.23210576176643372
1790107849199458300,7.766458251953125,-0.8468521237373352,-0.2490149438381195,0.12253335118293762
1790107849209402400,7.77640234375,-0.9824219346046448,-0.41184860467910767,0.01578666642308235
1790107849219347200,7.78634716796875,-1.0354326963424683,-0.36692139506340027,0.01676030457019806
1790107849229291300,7.796291259765625,-1.0498448610305786,-0.14885860681533813,0.06841710954904556
1790107849239235000,7.806235107421875,-1.0559731721878052,0.06178150326013565,0.07579023391008377
1790107849249180400,7.816180419921875,-1.0847246646881104,0.08694784343242645,0.045015543699264526
1790107849259124200,7.826124267578125,-1.1032404899597168,0.08467479795217514,0.013212975114583969
1790107849269068300,7.836068359375,-1.0738532543182373,0.24222899973392487,0.04083581268787384
1790107849279013000,7.84601318359375,-1.0165661573410034,0.4591901898384094,0.08162656426429749
1790107849288957400,7.85595751953125,-1.0078407526016235,0.2677669823169708,0.021922487765550613
1790107849298901200,7.8659013671875,-0.9644854664802551,0.06686213612556458,-0.03430027887225151
1790107849308845300,7.87584521484375,-0.8222071528434753,0.4137769341468811,0.06256208568811417
1790107849318790100,7.8857900390625,-0.7175926566123962,0.6532479524612427,0.14828504621982574
1790107849328734200,7.895734130859375,-0.7703011631965637,0.33658987283706665,0.0758124440908432
1790107849338678300,7.90567822265625,-0.8314834237098694,-0.005527033936232328,0.004896584432572126
1790107849348623400,7.915623291015625,-0.8697197437286377,-0.16579073667526245,-0.032708313316106796
1790107849358567200,7.925567138671875,-0.8757470846176147,-0.09038697928190231,-0.025423873215913773
1790107849368511200,7.93551123046875,-0.8542543053627014,0.12298282235860825,0.06199997663497925
1790107849378456300,7.945456298828125,-0.8741848468780518,0.06191209331154823,0.10275399684906006
1790107849388400400,7.955400390625,-0.9268645644187927,-0.14107057452201843,0.08273448050022125
1790107849398344200,7.96534423828125,-1.0102016925811768,-0.2017463743686676,0.04397164657711983
1790107849408288300,7.975288330078125,-1.08125638961792,0.008787156082689762,-0.005737318657338619
1790107849418233000,7.985233154296875,-1.0764909982681274,0.06747664511203766,-0.18863415718078613
1790107849428177400,7.995177490234375,-1.1215261220932007,-0.06181849539279938,-0.42005032300949097
1790107849438121200,8.005121337890625,-1.2329816818237305,-0.08867646753787994,-0.6091356873512268
1790107849448066300,8.01506640625,-1.3168164491653442,0.021614350378513336,-0.6547811627388
1790107849458010000,8.025010009765625,-1.3508321046829224,0.15282027423381805,-0.524084210395813
1790107849467954200,8.0349541015625,-1.3128612041473389,0.19292296469211578,-0.29698634147644043
1790107849477899300,8.044899169921875,-1.2546740770339966,0.06407160311937332,-0.12846806645393372
1790107849487843300,8.05484326171875,-1.1676318645477295,-0.11742761731147766,-0.07856255769729614
1790107849497787100,8.064787109375,-1.0644046068191528,-0.23636943101882935,-0.14996641874313354
1790107849507731200,8.074731201171875,-0.9634289741516113,-0.19989930093288422,-0.3816518485546112
1790107849517676300,8.08467626953125,-0.8316664695739746,-0.08508531004190445,-0.6668767929077148
1790107849527620400,8.094620361328126,-0.7152884602546692,0.009881946258246899,-0.7657312154769897
1790107849537564200,8.104564208984375,-0.672805666923523,0.12175557017326355,-0.5478644967079163
1790107849547509200,8.11450927734375,-0.6845041513442993,0.3823719620704651,-0.11857779324054718
1790107849557453000,8.124453125,-0.7508906722068787,0.58234703540802,0.2858869135379791
1790107849567397400,8.1343974609375,-0.9546430110931396,0.4990295469760895,0.41620898246765137
1790107849577341400,8.144341552734375,-1.2141653299331665,0.18312251567840576,0.20826397836208344
1790107849587286300,8.154286376953126,-1.2437831163406372,-0.29516711831092834,-0.1378236562013626
1790107849597230000,8.16422998046875,-1.0548129081726074,-0.777145504951477,-0.37901195883750916
1790107849607174100,8.174174072265625,-0.9744323492050171,-1.2316349744796753,-0.5294342041015625
1790107849617119200,8.184119140625,-0.9963093996047974,-1.400848627090454,-0.6669927835464478
1790107849627063000,8.19406298828125,-1.0697170495986938,-1.0599133968353271,-0.7359585165977478
1790107849637007400,8.20400732421875,-1.1448553800582886,-0.38787177205085754,-0.7261255979537964
1790107849646952200,8.2139521484375,-1.3023110628128052,0.2867785692214966,-0.6320139765739441
1790107849656896000,8.22389599609375,-1.365294337272644,0.6119431257247925,-0.4060184061527252
1790107849666840000,8.233840087890625,-1.3698368072509766,0.5307803750038147,-0.023645464330911636
1790107849676784000,8.2437841796875,-1.2423425912857056,0.2563728392124176,0.3325277268886566
1790107849686729200,8.253729248046875,-1.0157009363174438,0.5218756198883057,0.515593945980072
1790107849696673300,8.26367333984375,-0.9105743169784546,1.0345757007598877,0.549628496170044
1790107849706617000,8.2736171875,-0.8716726899147034,1.3752422332763672,0.5243766903877258
1790107849716562000,8.28356201171875,-0.8627640604972839,1.3276172876358032,0.5266576409339905
1790107849726506200,8.29350634765625,-0.8927821516990662,1.0089412927627563,0.5710320472717285
1790107849736450300,8.3034501953125,-0.9308963418006897,0.6608919501304626,0.5715954303741455
1790107849746394000,8.31339404296875,-0.8887736797332764,0.4326058030128479,0.5151867270469666
1790107849756339200,8.323339111328124,-0.7925897836685181,0.179327130317688,0.4357469975948334
1790107849766283000,8.333282958984375,-0.7522796392440796,-0.03849814832210541,0.34391161799430847
1790107849776227300,8.343227294921874,-0.7027818560600281,-0.15935908257961273,0.21792063117027283
1790107849786172200,8.353172119140625,-0.597668468952179,-0.19382810592651367,0.12328200787305832
1790107849796116200,8.3631162109375,-0.4946465790271759,-0.29887905716896057,0.07441652566194534
1790107849806060000,8.37306005859375,-0.3969368040561676,-0.3375747799873352,0.02607456035912037
1790107849816005000,8.383005126953124,-0.3018608093261719,-0.15556348860263824,-0.04094536975026131
1790107849825949200,8.39294921875,-0.20738382637500763,0.1261344999074936,-0.0835048109292984
1790107849835893200,8.402893310546874,-0.0943346843123436,0.3919799029827118,-0.07182761281728745
1790107849845837000,8.412837158203125,-0.04806066304445267,0.32483333349227905,-0.05688968300819397
1790107849855782100,8.4227822265625,0.003478357568383217,0.18664656579494476,-0.10666516423225403
1790107849865726200,8.432726318359375,0.11017097532749176,0.01691371202468872,-0.2229374498128891
1790107849875670300,8.442670166015626,0.20203104615211487,-0.049352336674928665,-0.30744150280952454
1790107849885615000,8.452614990234375,0.222100630402565,0.08274684846401215,-0.2774101197719574
1790107849895559200,8.46255908203125,0.21772481501102448,0.3336147964000702,-0.1773330420255661
1790107849905503000,8.4725029296875,0.20138072967529297,0.43244069814682007,-0.12183941900730133
1790107849915448000,8.482447998046876,0.20435307919979095,0.2890089750289917,-0.15883445739746094
1790107849925392100,8.49239208984375,0.21656183898448944,0.027751121670007706,-0.24590392410755157
1790107849935336200,8.502336181640626,0.21587826311588287,-0.14903731644153595,-0.2983390688896179
1790107849945280000,8.512280029296875,0.1620030552148819,-0.13103966414928436,-0.2975981831550598
1790107849955225300,8.522225341796876,0.06130993738770485,-0.002284540794789791,-0.2895030677318573
1790107849965169200,8.532169189453125,-0.053405456244945526,0.14071843028068542,-0.2683282494544983
1790107849975113200,8.54211328125,-0.12926484644412994,0.0761244148015976,-0.25849801301956177
1790107849985058000,8.55205810546875,-0.16720636188983917,-0.04797276109457016,-0.27048519253730774
1790107849995002000,8.562002197265626,-0.1942242980003357,-0.08793484419584274,-0.30798256397247314
1790107850004946200,8.5719462890625,-0.21178384125232697,-0.12312798947095871,-0.3475472629070282
1790107850014890200,8.58189013671875,-0.20590579509735107,-0.1597614884376526,-0.38562092185020447
1790107850024835000,8.5918349609375,-0.15661494433879852,-0.18682639300823212,-0.41910430788993835
1790107850034779100,8.601779052734376,-0.09155026078224182,-0.21870139241218567,-0.4198105037212372
1790107850044723000,8.611722900390625,-0.003359682159498334,-0.2359916865825653,-0.37683242559432983
1790107850054668300,8.621668212890626,0.05848893150687218,-0.22683484852313995,-0.3297825753688812
1790107850064612000,8.631612060546875,0.08185364305973053,-0.19486413896083832,-0.30768337845802307
1790107850074556200,8.64155615234375,0.07449772208929062,-0.19156759977340698,-0.30136770009994507
1790107850084501000,8.6515009765625,0.047480758279561996,-0.19054946303367615,-0.28238922357559204
1790107850094445300,8.6614453125,0.03091653250157833,-0.19707705080509186,-0.2382574826478958
1790107850104389000,8.67138916015625,0.027154019102454185,-0.20809295773506165,-0.19266682863235474
1790107850114333200,8.681333251953125,0.025561142712831497,-0.2104216367006302,-0.17740000784397125
1790107850124278000,8.691278076171875,0.002803631592541933,-0.2325277328491211,-0.188700869679451
1790107850134222000,8.70122216796875,-0.021346017718315125,-0.3120386600494385,-0.17433544993400574
1790107850144166100,8.711166259765625,-0.02004532888531685,-0.3926916718482971,-0.11490914225578308
1790107850154111200,8.721111328125,0.0362582765519619,-0.4341098964214325,-0.013589407317340374
1790107850164055000,8.731054931640625,0.07752501964569092,-0.4405781924724579,0.07285546511411667
1790107850173999000,8.7409990234375,0.07560044527053833,-0.4165959358215332,0.12108010798692703
1790107850183944200,8.750944091796875,0.051205359399318695,-0.3114287555217743,0.11392419040203094
1790107850193888300,8.76088818359375,0.03387659788131714,-0.14073869585990906,0.0915190726518631
1790107850203832000,8.77083203125,0.03578714653849602,-0.02168314717710018,0.08565133064985275
1790107850213776100,8.780776123046875,0.02975469082593918,0.006633213721215725,0.11826346814632416
1790107850223721000,8.790720947265624,0.017381377518177032,-0.024012047797441483,0.1660301834344864
1790107850233665300,8.800665283203125,0.004851844627410173,-0.0206054225564003,0.21681049466133118
1790107850243609000,8.810609130859374,0.0077767944894731045,0.021885845810174942,0.25726819038391113
1790107850253554200,8.82055419921875,0.02022637613117695,0.039731524884700775,0.3107433319091797
1790107850263498000,8.830498046875,0.05541818588972092,0.029636546969413757,0.37324264645576477
1790107850273442000,8.840442138671875,0.12079405784606934,0.04607585817575455,0.46089601516723633
1790107850283387100,8.85038720703125,0.17514678835868835,0.04886205494403839,0.5771850943565369
1790107850293331200,8.860331298828125,0.19982850551605225,0.08971899002790451,0.7264747023582458
1790107850303275000,8.87027490234375,0.24655580520629883,0.3030336797237396,0.8754604458808899
1790107850313219000,8.880218994140625,0.32355764508247375,0.584144651889801,0.9331187605857849
1790107850323164200,8.8901640625,0.38016021251678467,0.6692140102386475,0.9010756015777588
1790107850333108200,8.900108154296875,0.41325244307518005,0.5086320638656616,0.8757213354110718
1790107850343052000,8.910052001953124,0.43404534459114075,0.2684381306171417,0.8734773397445679
1790107850352997000,8.9199970703125,0.46752873063087463,0.124577097594738,0.8456361293792725
1790107850362941000,8.92994091796875,0.5146384239196777,0.046682558953762054,0.793821394443512
1790107850372885200,8.93988525390625,0.5779014825820923,0.07134518027305603,0.7527279853820801
1790107850382830000,8.949830078125,0.639046847820282,0.11596564948558807,0.7397122979164124
1790107850392774100,8.959774169921875,0.7088908553123474,0.15698575973510742,0.7663405537605286
1790107850402718000,8.969718017578124,0.8067838549613953,0.21906669437885284,0.831836998462677
1790107850412662000,8.979662109375,0.9228361248970032,0.2606251537799835,0.9048194289207458
1790107850422607000,8.989607177734374,1.0594695806503296,0.2568506598472595,0.9505528211593628
1790107850432551200,8.99955126953125,1.202207326889038,0.24480092525482178,0.9580788612365723
1790107850442495200,9.0094951171875,1.34269380569458,0.2634688913822174,0.9132205843925476
1790107850452440000,9.019440185546875,1.4730966091156006,0.24103708565235138,0.8294591307640076
1790107850462384000,9.029384033203126,1.5937501192092896,0.1524726152420044,0.7456046938896179
1790107850472328200,9.039328125,1.6993931531906128,0.03613670915365219,0.6962208151817322
1790107850482273000,9.04927294921875,1.7935454845428467,-0.05502142757177353,0.6774961352348328
1790107850492217000,9.059217041015625,1.8858814239501953,-0.144916832447052,0.6690497994422913
1790107850502161200,9.0691611328125,1.9601740837097168,-0.25603243708610535,0.6629799008369446
1790107850512105200,9.079105224609375,2.0296497344970703,-0.39455392956733704,0.6667485237121582
1790107850522050000,9.089050048828126,2.096705675125122,-0.5894853472709656,0.640013575553894
1790107850531994000,9.098994140625,2.1382639408111572,-0.7474526762962341,0.5803142786026001
1790107850541938200,9.108938232421876,2.1565418243408203,-0.8850158452987671,0.5670682191848755
1790107850551883300,9.11888330078125,2.093106985092163,-1.0467963218688965,0.5954165458679199
1790107850561827000,9.1288271484375,1.8843210935592651,-1.1186527013778687,0.684624433517456
1790107850571771100,9.138771240234375,1.5936217308044434,-0.9407637119293213,0.8666356801986694
1790107850581715200,9.148715087890626,1.3952442407608032,-0.5541201233863831,0.9842840433120728
1790107850591660000,9.158659912109375,1.3752503395080566,-0.08214353770017624,0.9296161532402039
1790107850601604000,9.16860400390625,1.3739824295043945,0.3185167908668518,0.8297979235649109
1790107850611548200,9.178548095703125,1.3534125089645386,0.49877822399139404,0.7327149510383606
1790107850621492700,9.18849267578125,1.3722807168960571,0.40226343274116516,0.7152456641197205
1790107850631436500,9.1984365234375,1.3866828680038452,-0.003417381551116705,0.7554489374160767
1790107850641380600,9.208380615234375,1.383056640625,-0.7067995071411133,0.7373988628387451
1790107850651324400,9.218324462890624,1.2500615119934082,-1.0038676261901855,0.6047808527946472
1790107850661269800,9.228269775390626,1.051856279373169,-0.97258061170578,0.5068175196647644
1790107850671213600,9.238213623046875,0.8161290287971497,-0.8616085052490234,0.49557074904441833
1790107850681157600,9.24815771484375,0.6053188443183899,-0.7477388978004456,0.5181708931922913
1790107850691102700,9.258102783203125,0.4354422092437744,-0.7224844098091125,0.560405433177948
1790107850701046800,9.268046875,0.26742735505104065,-0.6440495252609253,0.5930147767066956
1790107850710990600,9.277990478515624,0.22124706208705902,-0.4476625919342041,0.6207965016365051
1790107850720935700,9.287935791015625,0.3190849721431732,-0.4600992798805237,0.6022912859916687
1790107850730879500,9.29787939453125,0.4140571057796478,-0.6476575136184692,0.5761452317237854
1790107850740823800,9.30782373046875,0.40394747257232666,-0.6806796193122864,0.5464829802513123
1790107850750767600,9.317767578125,0.33657005429267883,-0.5516995191574097,0.5432363748550415
1790107850760712700,9.327712646484375,0.21856753528118134,-0.3829307556152344,0.5594198703765869
1790107850770656500,9.337656494140624,0.07076650857925415,-0.3265472948551178,0.564428985118866
1790107850780600600,9.3476005859375,-0.05020651966333389,-0.278859943151474,0.5606837868690491
1790107850790545700,9.357545654296874,-0.1508249193429947,-0.09864221513271332,0.5498025417327881
1790107850800489700,9.36748974609375,-0.2502460479736328,-0.02482364885509014,0.4992474913597107
1790107850810433500,9.37743359375,-0.3451022505760193,-0.04225320741534233,0.4228740632534027
1790107850820378600,9.387378662109375,-0.42577794194221497,-0.07223374396562576,0.35019320249557495
1790107850830322700,9.39732275390625,-0.4671204090118408,-0.03061326965689659,0.30498993396759033
1790107850840266800,9.407266845703125,-0.4921826124191284,-0.048203181475400925,0.26873257756233215
1790107850850210600,9.41721044921875,-0.5212403535842896,-0.15422679483890533,0.2496289312839508
1790107850860155600,9.42715576171875,-0.547822117805481,-0.2197650671005249,0.26214951276779175
1790107850870099500,9.437099365234374,-0.5746551752090454,-0.17651163041591644,0.2864970564842224
1790107850880043800,9.447043701171875,-0.5916562676429749,-0.05477001518011093,0.30562254786491394
1790107850889988600,9.456988525390624,-0.6224983334541321,0.048119209706783295,0.294507771730423
1790107850899932700,9.4669326171875,-0.6666857600212097,0.07334999740123749,0.2529565989971161
1790107850909876500,9.47687646484375,-0.7089507579803467,0.02052375301718712,0.17738032341003418
1790107850919821800,9.48682177734375,-0.7290970683097839,-0.01376604288816452,0.11746293306350708
1790107850929765600,9.496765625,-0.7232126593589783,0.07583113014698029,0.07742039114236832
1790107850939709700,9.506709716796875,-0.7208594679832458,0.14826883375644684,0.034874796867370605
1790107850949653500,9.516653564453126,-0.7376542091369629,0.06515128165483475,-0.008894686587154865
1790107850959598600,9.5265986328125,-0.7533791065216064,0.04719278961420059,-0.030701182782649994
1790107850969542700,9.536542724609374,-0.78950434923172,0.11716340482234955,-0.07161568105220795
1790107850979486700,9.54648681640625,-0.8716732263565063,0.22073374688625336,-0.14711976051330566
1790107850989431600,9.556431640625,-0.9667084217071533,0.3773939609527588,-0.21805234253406525
1790107850999375600,9.566375732421875,-1.0506037473678589,0.4331858456134796,-0.301730215549469
1790107851009319400,9.5763193359375,-1.1435681581497192,0.4565325975418091,-0.3915483355522156
1790107851019264800,9.5862646484375,-1.2018791437149048,0.5800958275794983,-0.4647336006164551
1790107851029208600,9.59620849609375,-1.237973928451538,0.690315842628479,-0.5562560558319092
1790107851039152600,9.606152587890625,-1.2762504816055298,0.7021881937980652,-0.6855990886688232
1790107851049096700,9.6160966796875,-1.2646162509918213,0.6805053949356079,-0.7794150114059448
1790107851059041800,9.626041748046875,-1.179088830947876,0.7467866539955139,-0.7655889391899109
1790107851068985600,9.635985595703126,-1.0674512386322021,0.7393185496330261,-0.7021808624267578
1790107851078929700,9.6459296875,-0.9972045421600342,0.6121691465377808,-0.7149618864059448
1790107851088874500,9.65587451171875,-0.9535529613494873,0.5699982047080994,-0.745313286781311
1790107851098818600,9.665818603515625,-0.9266102910041809,0.6123174428939819,-0.7485445141792297
1790107851108762600,9.6757626953125,-0.9146935939788818,0.5452526807785034,-0.7575260996818542
1790107851118706700,9.685706787109375,-0.9204484224319458,0.374135285615921,-0.8144335746765137
1790107851128651500,9.695651611328126,-0.9260899424552917,0.22267740964889526,-0.8844137191772461
1790107851138595600,9.705595703125,-0.932420015335083,0.15561766922473907,-0.9104024171829224
1790107851148539600,9.71553955078125,-0.9528745412826538,0.11132354289293289,-0.9220123887062073
1790107851158484700,9.725484619140625,-1.0091450214385986,0.09949511289596558,-0.9274657964706421
1790107851168428500,9.735428466796876,-1.0806810855865479,0.13078460097312927,-0.923069179058075
1790107851178372600,9.74537255859375,-1.138564944267273,0.1906426101922989,-0.8833417296409607
1790107851188317400,9.7553173828125,-1.1856707334518433,0.16651980578899384,-0.8563537001609802
1790107851198261800,9.76526171875,-1.2432142496109009,0.06588853895664215,-0.8379808664321899
1790107851208205800,9.775205810546876,-1.312471628189087,-0.13636928796768188,-0.7971960306167603
1790107851218149600,9.785149658203125,-1.309767246246338,-0.3123725354671478,-0.8140634298324585
1790107851228094500,9.795094482421876,-1.2532081604003906,-0.26391613483428955,-0.8407787084579468
1790107851238038500,9.80503857421875,-1.1836360692977905,-0.03558787703514099,-0.7769898772239685
1790107851247982800,9.81498291015625,-1.1609231233596802,0.11789098381996155,-0.685798168182373
1790107851257927700,9.824927734375,-1.1638870239257812,0.21480154991149902,-0.6931726932525635
1790107851267871700,9.834871826171875,-1.1537998914718628,0.3413657546043396,-0.6418595314025879
1790107851277815600,9.844815673828125,-1.1653164625167847,0.4209442138671875,-0.4687519073486328
1790107851287760600,9.8547607421875,-1.1392532587051392,0.4282849133014679,-0.2825242578983307
1790107851297704700,9.86470458984375,-1.0853703022003174,0.35828453302383423,-0.2552686929702759
1790107851307648800,9.874648681640625,-1.1020210981369019,0.40078505873680115,-0.3215561509132385
1790107851317592600,9.884592529296874,-1.0723297595977783,0.38029733300209045,-0.3892616927623749
1790107851327537700,9.89453759765625,-0.9621744751930237,0.10497613251209259,-0.35548943281173706
1790107851337481700,9.904481689453124,-0.8061542510986328,-0.089972585439682,-0.1971282809972763
1790107851347425800,9.91442578125,-0.6686970591545105,0.18481865525245667,-0.04515250772237778
1790107851357370600,9.92437060546875,-0.5982809662818909,0.8227365016937256,0.021820930764079094
1790107851367314700,9.934314697265625,-0.5846065282821655,1.3376716375350952,0.038280729204416275
1790107851377258500,9.944258544921874,-0.5044984221458435,1.2655152082443237,0.06890548020601273
1790107851387202800,9.954202880859375,-0.35458287596702576,0.8968913555145264,0.10231982916593552
1790107851397147600,9.964147705078124,-0.23783069849014282,0.655816376209259,0.16523541510105133
1790107851407091700,9.974091796875,-0.18997988104820251,0.6908079385757446,0.23065656423568726
1790107851417035500,9.984035400390624,-0.15960973501205444,0.7735020518302917,0.2660004198551178
1790107851426980600,9.993980712890625,-0.1003706082701683,0.6716853380203247,0.30256131291389465
1790107851436924700,10.003924560546874,0.007062641903758049,0.6203587651252747,0.2992376685142517
1790107851446868700,10.01386865234375,0.10674946755170822,0.7274400591850281,0.2695290148258209
1790107851456813600,10.0238134765625,0.19656512141227722,0.8545639514923096,0.24102094769477844
1790107851466757600,10.033757568359375,0.2736772894859314,0.8292402625083923,0.25252431631088257
1790107851476701700,10.04370166015625,0.3592457175254822,0.6860449910163879,0.29993337392807007
1790107851486645800,10.053645751953125,0.44674918055534363,0.622634768486023,0.3325723707675934
1790107851496590600,10.063590576171874,0.5565563440322876,0.739562451839447,0.33133986592292786
1790107851506534700,10.07353466796875,0.672307014465332,0.8244035840034485,0.3037828207015991
1790107851516478500,10.083478515625,0.7759655117988586,0.9304269552230835,0.25465551018714905
1790107851526423800,10.093423828125,0.8738964796066284,0.9995838403701782,0.18937845528125763
1790107851536367600,10.10336767578125,0.9798396825790405,1.051533818244934,0.19660361111164093
1790107851546311700,10.113311767578125,1.091069221496582,1.011992335319519,0.23750603199005127
1790107851556256500,10.123256591796874,1.1929796934127808,1.0712209939956665,0.22952213883399963
1790107851566200800,10.133200927734375,1.2893577814102173,1.1727441549301147,0.2144547402858734
1790107851576144600,10.14314453125,1.351535439491272,1.15433931350708,0.2421651929616928
1790107851586088700,10.153088623046875,1.4055862426757812,0.9367086887359619,0.266747385263443
1790107851596033500,10.163033447265626,1.4575538635253906,0.7471129298210144,0.21236616373062134
1790107851605977600,10.1729775390625,1.5181928873062134,0.7709624767303467,0.06836909055709839
1790107851615921700,10.182921630859376,1.5964765548706055,0.9159103631973267,-0.07016400992870331
1790107851625867300,10.1928671875,1.689153790473938,0.9171358942985535,-0.1537666618824005
1790107851635811300,10.202811279296874,1.7487324476242065,0.7505629062652588,-0.21939519047737122
1790107851645755400,10.21275537109375,1.8386543989181519,0.6233450174331665,-0.2705530524253845
1790107851655699200,10.22269921875,1.928817868232727,0.6263580918312073,-0.29453617334365845
1790107851665644300,10.232644287109375,1.9766901731491089,0.5396524667739868,-0.3013283312320709
1790107851675588400,10.24258837890625,1.989815592765808,0.3577820062637329,-0.30464795231819153
1790107851685532400,10.252532470703125,1.9962965250015259,0.21140944957733154,-0.3652639389038086
1790107851695477200,10.262477294921876,2.003070592880249,0.06233953684568405,-0.45232534408569336
1790107851705421300,10.27242138671875,1.9950745105743408,-0.1111462190747261,-0.45567893981933594
1790107851715365000,10.282365234375,1.9619988203048706,-0.36349138617515564,-0.39382943511009216
1790107851725310200,10.292310302734375,1.8926584720611572,-0.5143042802810669,-0.3205448091030121
1790107851735254300,10.302254150390626,1.780881643295288,-0.4626895487308502,-0.2948349118232727
1790107851745198300,10.3121982421875,1.6027116775512695,-0.37412601709365845,-0.3459317088127136
1790107851755142100,10.32214208984375,1.402064561843872,-0.3736003041267395,-0.4202142059803009
1790107851765087500,10.33208740234375,1.253934621810913,-0.3406844437122345,-0.4805368185043335
1790107851775031300,10.34203125,1.1732677221298218,-0.1403588056564331,-0.4741497337818146
1790107851784975400,10.351975341796875,1.0414422750473022,0.14525136351585388,-0.41505420207977295
1790107851794920200,10.361920166015626,0.9429985880851746,0.44085079431533813,-0.2719561755657196
1790107851804864300,10.3718642578125,0.9001907110214233,0.9454146027565002,-0.13296140730381012
1790107851814808300,10.381808349609376,0.8535816669464111,1.2760764360427856,0.003662752453237772
1790107851824753400,10.39175341796875,0.8611670732498169,1.003807783126831,0.036548227071762085
1790107851834697200,10.401697265625,0.8567315340042114,0.38914379477500916,-0.09500952810049057
1790107851844641300,10.411641357421875,0.789160966873169,-0.04852008447051048,-0.16833597421646118
1790107851854585000,10.421585205078125,0.846630334854126,-0.24514685571193695,-0.16459903120994568
1790107851864530400,10.431530517578125,0.911364734172821,-0.2594802677631378,-0.1750551164150238
1790107851874474200,10.44147412109375,0.9034484624862671,-0.16654261946678162,-0.11354541033506393
1790107851884418300,10.451418212890625,0.9231709241867065,-0.0693412497639656,-0.06522594392299652
1790107851894363100,10.461363037109376,0.8419831395149231,-0.08054516464471817,-0.09256089478731155
1790107851904307500,10.471307373046875,0.6840277314186096,-0.2147894948720932,-0.16990390419960022
1790107851914251300,10.481251220703125,0.5612807869911194,-0.188261479139328,-0.23653912544250488
1790107851924196400,10.4911962890625,0.4372512102127075,-0.19844450056552887,-0.3213474154472351
1790107851934140200,10.50114013671875,0.24231687188148499,-0.4869072139263153,-0.4471335709095001
1790107851944084200,10.511084228515625,0.07162456959486008,-0.5295699834823608,-0.5315738320350647
1790107851954028300,10.5210283203125,-0.0400761254131794,-0.1621008962392807,-0.5454902052879333
1790107851963973400,10.530973388671875,-0.20458877086639404,0.11711160838603973,-0.5547144412994385
1790107851973917200,10.540917236328125,-0.3979600965976715,-0.029698345810174942,-0.5835751295089722
1790107851983861200,10.550861328125,-0.5355349779129028,-0.03965125232934952,-0.5595378279685974
1790107851993806300,10.560806396484375,-0.632728099822998,0.22360780835151672,-0.4980930984020233
1790107852003750400,10.57075048828125,-0.7441186308860779,0.30668148398399353,-0.5205681324005127
1790107852013694200,10.580694091796875,-0.8240715265274048,0.23903398215770721,-0.5871639251708984
1790107852023638300,10.59063818359375,-0.8823497891426086,0.06307455897331238,-0.6462347507476807
1790107852033583000,10.6005830078125,-0.8425025343894958,0.31050166487693787,-0.5835738182067871
1790107852043527400,10.61052734375,-0.824553370475769,0.5317222476005554,-0.5547941327095032
1790107852053471200,10.62047119140625,-0.8603838086128235,0.3027961552143097,-0.6572542190551758
1790107852063416300,10.630416259765624,-0.8575548529624939,0.10715161263942719,-0.7446520924568176
1790107852073360100,10.640360107421875,-0.7606490850448608,0.6467570066452026,-0.6388058066368103
1790107852083304200,10.65030419921875,-0.7247959971427917,1.081644892692566,-0.5575037598609924
1790107852093248300,10.660248291015625,-0.7891473174095154,0.730341911315918,-0.6450823545455933
1790107852103193300,10.670193359375,-0.8137409090995789,0.27191904187202454,-0.6883955597877502
1790107852113137200,10.68013720703125,-0.8007729649543762,0.1946878880262375,-0.654786229133606
1790107852123081200,10.690081298828124,-0.8199539184570312,0.44747862219810486,-0.6071390509605408
1790107852133026300,10.7000263671875,-0.8592312932014465,0.5857909321784973,-0.6336316466331482
1790107852142970400,10.709970458984374,-0.8998503684997559,0.4408765733242035,-0.7135140299797058
1790107852152914200,10.7199140625,-0.952962338924408,0.2631414532661438,-0.7563635110855103
1790107852162859300,10.729859375,-1.0351651906967163,0.2208380550146103,-0.7838737368583679
1790107852172803000,10.739802978515625,-1.1423914432525635,0.24245305359363556,-0.8209238648414612
1790107852182747400,10.749747314453124,-1.2231090068817139,0.2139531522989273,-0.8601760268211365
1790107852192691200,10.759691162109375,-1.2527157068252563,0.1299184411764145,-0.8743096590042114
1790107852202636300,10.76963623046875,-1.2253729104995728,0.10398907214403152,-0.8481122851371765
1790107852212580000,10.779580078125,-1.1884561777114868,0.00765667948871851,-0.8651102185249329
1790107852222524200,10.789524169921876,-1.1688499450683594,-0.20913687348365784,-0.9600321650505066
1790107852232469200,10.79946923828125,-1.1609712839126587,-0.33352941274642944,-1.063262701034546
1790107852242413300,10.809413330078126,-1.1530377864837646,-0.30877962708473206,-1.0989751815795898
1790107852252357000,10.819357177734375,-1.1479880809783936,-0.21411702036857605,-1.0954444408416748
1790107852262302200,10.82930224609375,-1.126854658126831,-0.10058744251728058,-1.0982469320297241
1790107852272246300,10.839246337890625,-1.1141458749771118,0.02726266346871853,-1.1137419939041138
1790107852282190300,10.8491904296875,-1.1527682542800903,0.061873551458120346,-1.158362627029419
1790107852292134400,10.859134521484375,-1.211532473564148,-0.02395719662308693,-1.2212454080581665
1790107852302079200,10.869079345703126,-1.249173641204834,-0.13746240735054016,-1.2645686864852905
1790107852312023000,10.87902294921875,-1.2430942058563232,-0.22631585597991943,-1.2750740051269531
1790107852321967400,10.88896728515625,-1.2200969457626343,-0.22937119007110596,-1.289961576461792
1790107852331912200,10.898912109375,-1.2106260061264038,-0.20117470622062683,-1.3252098560333252
1790107852341856300,10.908856201171876,-1.2211045026779175,-0.2660033106803894,-1.36844003200531
1790107852351800300,10.91880029296875,-1.2281514406204224,-0.29403015971183777,-1.3048573732376099
1790107852361745400,10.928745361328126,-1.201281189918518,-0.2471778392791748,-1.2042840719223022
1790107852371689200,10.938689208984375,-1.1417797803878784,-0.1391829252243042,-1.1273623704910278
1790107852381633300,10.94863330078125,-1.067543387413025,-0.05119398236274719,-1.103398323059082
1790107852391577300,10.958577392578125,-1.0249067544937134,0.15949055552482605,-1.0801430940628052
1790107852401522200,10.968522216796876,-1.0492112636566162,0.40776124596595764,-1.0039403438568115
1790107852411466200,10.97846630859375,-1.056077480316162,0.5224438905715942,-0.9221938252449036
1790107852421410300,10.988410400390626,-1.0763814449310303,0.5221027135848999,-0.8131336569786072
1790107852431355100,10.998355224609375,-1.0900397300720215,0.36576080322265625,-0.7965573668479919
1790107852441299200,11.00829931640625,-1.0985034704208374,0.07515138387680054,-0.7728083729743958
1790107852451243300,11.0182431640625,-1.144940733909607,-0.16372299194335938,-0.7097353935241699
1790107852461188400,11.028188232421876,-1.1741050481796265,-0.26185569167137146,-0.6414034366607666
1790107852471132200,11.038132080078125,-1.1111756563186646,-0.2848201096057892,-0.5938180685043335
1790107852481076200,11.048076171875,-1.0563329458236694,-0.24094265699386597,-0.5470355153083801
1790107852491020300,11.058020263671875,-0.992470383644104,-0.043133970350027084,-0.4630410075187683
1790107852500965400,11.06796533203125,-0.8980804085731506,0.06757038086652756,-0.36853572726249695
1790107852510909400,11.077909423828125,-0.7705501914024353,-0.039314523339271545,-0.24650540947914124
1790107852520853200,11.087853271484375,-0.6847254633903503,-0.2706174850463867,-0.06751567125320435
1790107852530798000,11.097798095703125,-0.6155738234519958,-0.3156659007072449,0.08164425194263458
1790107852540742100,11.1077421875,-0.5010314583778381,-0.0884268507361412,0.1331535428762436
1790107852550686500,11.1176865234375,-0.33692264556884766,0.001573348417878151,0.11697883903980255
1790107852560630300,11.12763037109375,-0.23005343973636627,-0.11938980221748352,0.09483732283115387
1790107852570575400,11.137575439453125,-0.16326268017292023,-0.19633570313453674,0.1141367182135582
1790107852580519200,11.147519287109375,-0.11318414658308029,-0.1185649111866951,0.1609961837530136
1790107852590463200,11.157463134765624,-0.04187747463583946,0.03121659904718399,0.226178377866745
1790107852600408300,11.167408203125,0.010748345404863358,0.10359235852956772,0.31705451011657715
1790107852610352400,11.177352294921874,0.06391222774982452,0.12722285091876984,0.41530197858810425
1790107852620296200,11.187296142578125,0.16481667757034302,0.09825040400028229,0.48364076018333435
1790107852630241000,11.197240966796874,0.2819574177265167,0.08312124758958817,0.5042893290519714
1790107852640184800,11.207184814453125,0.4248815178871155,0.025704536586999893,0.526596188545227
1790107852650129000,11.21712890625,0.5620662569999695,-0.037593740969896317,0.5535910725593567
1790107852660072700,11.22707275390625,0.6951359510421753,-0.12290555238723755,0.6074262857437134
1790107852670018000,11.23701806640625,0.7988887429237366,-0.11497359722852707,0.6759099960327148
1790107852679961900,11.2469619140625,0.8896744251251221,-0.025097006931900978,0.6840620636940002
1790107852689906000,11.256906005859374,0.9644488096237183,-0.01963832601904869,0.6927186846733093
1790107852699850800,11.266850830078125,1.0283746719360352,-0.04101650416851044,0.7221288681030273
1790107852709794800,11.276794921875,1.106521487236023,-0.10410864651203156,0.7431545257568359
1790107852719739000,11.28673876953125,1.1958943605422974,-0.06535639613866806,0.7688291072845459
1790107852729684000,11.29668408203125,1.3173466920852661,0.11752926558256149,0.794610857963562
1790107852739627800,11.306627685546875,1.434070110321045,0.2487230747938156,0.8271703124046326
1790107852749571800,11.31657177734375,1.5092428922653198,0.26197096705436707,0.8775905966758728
1790107852759515600,11.326515625,1.5424665212631226,0.17073290050029755,0.9021642208099365
1790107852769461000,11.3364609375,1.5540320873260498,0.17624911665916443,0.8841567635536194
1790107852779404800,11.34640478515625,1.590378999710083,0.2901606857776642,0.8515934944152832
1790107852789348900,11.356348876953126,1.6711572408676147,0.4334041178226471,0.818507969379425
1790107852799294000,11.3662939453125,1.7845808267593384,0.5234323740005493,0.7332085371017456
1790107852809238000,11.376238037109376,1.903103232383728,0.49590620398521423,0.607066810131073
1790107852819181800,11.386181884765625,1.976412057876587,0.3686346113681793,0.4876827895641327
1790107852829126000,11.3961259765625,2.0048277378082275,0.28400495648384094,0.4170014560222626
1790107852839070700,11.40607080078125,2.027707099914551,0.18792395293712616,0.3860129117965698
1790107852849015000,11.41601513671875,2.0616233348846436,-0.051950953900814056,0.3370687961578369
1790107852858958800,11.425958740234375,2.0878124237060547,-0.27588823437690735,0.2896839678287506
1790107852868904000,11.435904052734376,2.0949089527130127,-0.4424109160900116,0.26856669783592224
1790107852878847700,11.44584765625,2.0880706310272217,-0.5840315222740173,0.21791115403175354
1790107852888791800,11.455791748046876,2.059324026107788,-0.7014686465263367,0.1988583654165268
1790107852898737000,11.46573681640625,1.9852274656295776,-0.7690722942352295,0.18417499959468842
1790107852908681000,11.475680908203126,1.8394577503204346,-0.8581653833389282,0.11791130155324936
1790107852918624800,11.485624755859375,1.6738922595977783,-0.9666351079940796,0.007360996212810278
1790107852928568800,11.49556884765625,1.4557833671569824,-0.9431068897247314,-0.09634488821029663
1790107852938514000,11.505513916015625,1.2031333446502686,-0.7383165955543518,-0.15913362801074982
1790107852948458000,11.5154580078125,0.9709922075271606,-0.3582041263580322,-0.10110468417406082
1790107852958401800,11.52540185546875,0.8585113883018494,0.02093448117375374,0.05036623030900955
1790107852968347000,11.535346923828126,0.8176065683364868,0.3678942918777466,0.2935572862625122
1790107852978290700,11.545290771484375,0.8361979126930237,0.5509729385375977,0.47826769948005676
1790107852988235000,11.555235107421876,0.8880326151847839,0.45070093870162964,0.46321338415145874
1790107852998179800,11.565179931640625,0.8622281551361084,-0.03908257186412811,0.36604732275009155
1790107853008124000,11.5751240234375,0.8638787865638733,-0.6790667772293091,0.3236583173274994
1790107853018067700,11.585067626953125,0.912816047668457,-0.9104688763618469,0.370614230632782
1790107853028011800,11.59501171875,0.9694902300834656,-0.6318691968917847,0.44010648131370544
1790107853037956900,11.604956787109375,1.0260480642318726,-0.5723325610160828,0.4662695527076721
1790107853047901000,11.61490087890625,0.9909918308258057,-0.9055387377738953,0.4878755211830139
1790107853057845000,11.624844970703125,0.8900119066238403,-0.9635842442512512,0.5238581299781799
1790107853067789800,11.634789794921875,0.8098225593566895,-0.9099066853523254,0.522290050983429
1790107853077734000,11.64473388671875,0.6996878385543823,-0.9137959480285645,0.43280625343322754
1790107853087678000,11.654677978515625,0.5460460782051086,-0.979712963104248,0.2852540612220764
1790107853097622000,11.6646220703125,0.350587397813797,-0.8794636726379395,0.15930220484733582
1790107853107566800,11.67456689453125,0.13843360543251038,-0.587727427482605,0.10051611065864563
1790107853117511000,11.684510986328124,-0.09718857705593109,-0.3662058413028717,0.10537298023700714
1790107853127455000,11.694455078125,-0.30237793922424316,-0.3716983497142792,0.12923863530158997
1790107853137399800,11.70439990234375,-0.4774726331233978,-0.5524262189865112,0.1261155903339386
1790107853147344000,11.71434375,-0.5915238261222839,-0.4159237742424011,0.13978320360183716
1790107853157288000,11.724287841796874,-0.7109382748603821,-0.20486286282539368,0.08535116165876389
1790107853167233000,11.73423291015625,-0.8553396463394165,-0.15719947218894958,-0.04322385787963867
1790107853177176800,11.7441767578125,-1.0174568891525269,-0.2640419006347656,-0.17844167351722717
1790107853187121000,11.754120849609375,-1.1517435312271118,-0.3152289092540741,-0.27231544256210327
1790107853197065000,11.76406494140625,-1.2405229806900024,-0.1030515506863594,-0.3025374412536621
1790107853207009800,11.774009765625,-1.292325496673584,0.2282281070947647,-0.32161659002304077
1790107853216954000,11.7839541015625,-1.3561519384384155,0.3155246376991272,-0.3870912194252014
1790107853226898000,11.79389794921875,-1.4086955785751343,0.1663586050271988,-0.44887736439704895
1790107853236842800,11.8038427734375,-1.3851854801177979,0.09836161136627197,-0.4408990740776062
1790107853246786800,11.813786865234375,-1.2778253555297852,0.20557567477226257,-0.34654247760772705
1790107853256731000,11.82373095703125,-1.1515554189682007,0.3138658404350281,-0.24260349571704865
1790107853266676000,11.833676025390625,-1.0397878885269165,0.24784955382347107,-0.19121967256069183
1790107853276620000,11.8436201171875,-0.9553645253181458,0.04111718013882637,-0.18063054978847504
1790107853286563800,11.853563720703125,-0.8654288053512573,-0.13257232308387756,-0.1649852693080902
1790107853296508000,11.8635078125,-0.7633678317070007,-0.2581324577331543,-0.12977232038974762
1790107853306453000,11.873452880859375,-0.6945078372955322,-0.37597545981407166,-0.1299411654472351
1790107853316397000,11.88339697265625,-0.6356109976768494,-0.470456063747406,-0.19300304353237152
1790107853326340900,11.8933408203125,-0.5857536792755127,-0.4243897497653961,-0.24854007363319397
1790107853336286000,11.903285888671874,-0.6051889657974243,-0.21495380997657776,-0.26489314436912537
1790107853346229800,11.913229736328125,-0.6683237552642822,0.050519946962594986,-0.28929540514945984
1790107853356174000,11.923174072265626,-0.7473319172859192,0.17562459409236908,-0.3799035847187042
1790107853366119000,11.933118896484375,-0.8080613017082214,0.24412722885608673,-0.48057374358177185
1790107853376063000,11.94306298828125,-0.8737185597419739,0.2945703864097595,-0.5242297649383545
1790107853386006800,11.9530068359375,-0.9337882995605469,0.2706480026245117,-0.5324365496635437
1790107853395950800,11.962950927734376,-0.9685807228088379,0.24374502897262573,-0.5696988701820374
1790107853405896000,11.97289599609375,-1.0019985437393188,0.2985885441303253,-0.6208179593086243
1790107853415840000,11.982840087890626,-1.059147596359253,0.3656577467918396,-0.6683439612388611
1790107853425783800,11.99278369140625,-1.1398663520812988,0.3600757420063019,-0.7124243378639221
1790107853435729000,12.00272900390625,-1.241209626197815,0.2823638319969177,-0.7321191430091858
1790107853445673000,12.0126728515625,-1.344440221786499,0.1785634160041809,-0.7342051863670349
1790107853455617000,12.022616943359376,-1.4199986457824707,0.11274558305740356,-0.7410656213760376
1790107853465561900,12.032561767578125,-1.4381412267684937,0.09631521254777908,-0.7795704007148743
1790107853475506000,12.042505859375,-1.4073020219802856,0.08189232647418976,-0.8471425175666809
1790107853485449700,12.05244970703125,-1.3521767854690552,0.1318095475435257,-0.9156389832496643
1790107853495394000,12.06239404296875,-1.3476465940475464,0.2824304401874542,-0.9329928159713745
1790107853505339000,12.0723388671875,-1.3739445209503174,0.459604948759079,-0.8323434591293335
1790107853515283000,12.082282958984376,-1.434722900390625,0.6259360313415527,-0.6515883803367615
1790107853525226800,12.092226806640625,-1.433953046798706,0.5573436617851257,-0.5958167314529419
1790107853535172000,12.102172119140626,-1.4138283729553223,0.36890408396720886,-0.652601420879364
1790107853545116000,12.112115966796875,-1.3791658878326416,0.1159389391541481,-0.7134284973144531
1790107853555060000,12.12206005859375,-1.3427807092666626,-0.014757480472326279,-0.6695212125778198
1790107853565004800,12.1320048828125,-1.3225371837615967,-0.020013228058815002,-0.5682159066200256
1790107853574948900,12.141948974609376,-1.3070509433746338,0.03984694555401802,-0.5157421827316284
1790107853584893000,12.151892822265625,-1.2868602275848389,0.09678958356380463,-0.48704794049263
1790107853594837000,12.1618369140625,-1.2284660339355469,0.11916129291057587,-0.42958205938339233
1790107853604781800,12.17178173828125,-1.186614751815796,0.10456450283527374,-0.3272828757762909
1790107853614726000,12.181725830078125,-1.1713725328445435,0.05840858817100525,-0.3420078456401825
1790107853624669700,12.191669677734374,-1.1674185991287231,-0.054267626255750656,-0.3545295000076294
1790107853634615000,12.201614990234376,-1.125163197517395,-0.18196050822734833,-0.343776673078537
1790107853644558800,12.211558837890625,-0.9884332418441772,-0.2236568182706833,-0.22622287273406982
1790107853654503000,12.2215029296875,-0.8134797215461731,-0.09242147207260132,-0.03353231027722359
1790107853664446700,12.23144677734375,-0.645530104637146,0.09543551504611969,0.14760498702526093
1790107853674392000,12.24139208984375,-0.5273879766464233,0.33502039313316345,0.22715744376182556
1790107853684335900,12.2513359375,-0.41759437322616577,0.4436635375022888,0.1938261240720749
1790107853694280000,12.261280029296875,-0.24645915627479553,0.32652395963668823,0.1273116171360016
1790107853704224800,12.271224853515625,-0.1261039823293686,0.08126813173294067,0.15213839709758759
1790107853714168800,12.2811689453125,-0.07929002493619919,0.03188227489590645,0.22945159673690796
1790107853724113000,12.29111279296875,-0.03050943650305271,0.16798552870750427,0.26743948459625244
1790107853734058000,12.30105810546875,0.07783538848161697,0.22508098185062408,0.2968829274177551
1790107853744001800,12.311001708984374,0.21719886362552643,0.2793695032596588,0.28654906153678894
1790107853753945900,12.32094580078125,0.360339879989624,0.3876029849052429,0.28320902585983276
1790107853763889700,12.3308896484375,0.4926723539829254,0.44360581040382385,0.28464314341545105
1790107853773835000,12.3408349609375,0.5963089466094971,0.43368226289749146,0.295927494764328
1790107853783778800,12.35077880859375,0.7010622620582581,0.41605961322784424,0.31024783849716187
1790107853793723000,12.360722900390625,0.8092642426490784,0.3979465663433075,0.3172510862350464
1790107853803667700,12.370667724609374,0.9114025831222534,0.43344438076019287,0.31865349411964417
1790107853813612000,12.380612060546875,0.992878258228302,0.5477358102798462,0.30892470479011536
1790107853823555800,12.390555908203124,1.0615748167037964,0.6511521935462952,0.2997133731842041
1790107853833501000,12.4005009765625,1.1113213300704956,0.675588846206665,0.32990726828575134
1790107853843444700,12.41044482421875,1.1459040641784668,0.609528124332428,0.3947019577026367
