time,seconds_elapsed,z,y,x
1790107841487657200,0.0546572265625,0.6683314442634583,-0.3261171281337738,-0.21791954338550568
1790107841497601300,0.064601318359375,0.6802735924720764,-0.20155255496501923,-0.0612601600587368
1790107841507545300,0.07454541015625,0.6787531971931458,-0.035162780433893204,0.15180790424346924
1790107841517490200,0.084490234375,0.5980730056762695,0.13347284495830536,0.33727869391441345
1790107841527434200,0.094434326171875,0.47510847449302673,0.2959837317466736,0.5106102824211121
1790107841537378300,0.10437841796875,0.3559066951274872,0.3883852958679199,0.651688277721405
1790107841547323100,0.1143232421875,0.3037921190261841,0.442367285490036,0.7343288660049438
1790107841557267200,0.12426708984375,0.29144302010536194,0.33273640275001526,0.7409220337867737
1790107841567211300,0.134211181640625,0.2966838777065277,0.1679953932762146,0.6931273341178894
1790107841577155300,0.1441552734375,0.3153230547904968,0.128624826669693,0.614928662776947
1790107841587100200,0.15410009765625,0.36785924434661865,0.1701059490442276,0.5106840133666992
1790107841597044200,0.164044189453125,0.4546210467815399,0.23282605409622192,0.43334558606147766
1790107841606988300,0.17398828125,0.5484095811843872,0.29430752992630005,0.41649842262268066
1790107841616932900,0.183932861328125,0.5887314081192017,0.3510086238384247,0.4280296266078949
1790107841626877000,0.193876953125,0.6049487590789795,0.3708246648311615,0.44822466373443604
1790107841636820700,0.20382080078125,0.5837910175323486,0.25506797432899475,0.47531405091285706
1790107841646765000,0.21376513671875,0.49655917286872864,0.06108838692307472,0.5056767463684082
1790107841656710000,0.2237099609375,0.3928458094596863,-0.009718406945466995,0.49507153034210205
1790107841666654000,0.233654052734375,0.32228216528892517,-0.033127594739198685,0.41355350613594055
1790107841676597800,0.24359765625,0.303724467754364,-0.09649484604597092,0.2886728048324585
1790107841686543000,0.253543212890625,0.31786319613456726,-0.14937324821949005,0.1425267904996872
1790107841696487000,0.26348681640625,0.33944785594940186,-0.16595488786697388,-0.044622063636779785
1790107841706431000,0.273430908203125,0.3918154537677765,-0.20318986475467682,-0.22263360023498535
1790107841716375800,0.283375732421875,0.45129233598709106,-0.2271798849105835,-0.35967373847961426
1790107841726319900,0.29331982421875,0.48726579546928406,-0.24479509890079498,-0.45785996317863464
1790107841736264000,0.303263916015625,0.48348891735076904,-0.24859197437763214,-0.4819543957710266
1790107841746208000,0.3132080078125,0.4416746199131012,-0.19336865842342377,-0.43088799715042114
1790107841756152800,0.32315283203125,0.40205690264701843,-0.09234937280416489,-0.32745563983917236
1790107841766097000,0.333096923828125,0.38808223605155945,0.006711964961141348,-0.2022939771413803
1790107841776040700,0.343040771484375,0.39604002237319946,0.036249350756406784,-0.07834220677614212
1790107841785986000,0.352986083984375,0.4055698812007904,0.026506176218390465,0.046236470341682434
1790107841795929900,0.362929931640625,0.40659570693969727,-0.029401564970612526,0.15243934094905853
1790107841805874000,0.3728740234375,0.3830712139606476,-0.10982423275709152,0.2579798698425293
1790107841815817700,0.382817626953125,0.3388268053531647,-0.15634272992610931,0.3343138098716736
1790107841825763000,0.39276318359375,0.3271610736846924,-0.1291273534297943,0.3603893518447876
1790107841835707000,0.402706787109375,0.3746146261692047,-0.12744717299938202,0.327039897441864
1790107841845651000,0.41265087890625,0.4514276385307312,-0.17086894810199738,0.2410709410905838
1790107841855595800,0.422595703125,0.5392568111419678,-0.21640634536743164,0.15802238881587982
1790107841865539800,0.432539794921875,0.6147869825363159,-0.21387313306331635,0.11584404110908508
1790107841875484000,0.44248388671875,0.6504080891609192,-0.19265839457511902,0.11350206285715103
1790107841885429000,0.452428955078125,0.6606756448745728,-0.23978357017040253,0.1380675882101059
1790107841895372800,0.462372802734375,0.6531863212585449,-0.32415303587913513,0.18417489528656006
1790107841905316900,0.47231689453125,0.6282191872596741,-0.4021115005016327,0.2425074428319931
1790107841915260700,0.4822607421875,0.5781738758087158,-0.44296783208847046,0.29082465171813965
1790107841925206000,0.4922060546875,0.4892154932022095,-0.43046191334724426,0.2856839597225189
1790107841935149800,0.50214990234375,0.39193475246429443,-0.3957614600658417,0.2244301736354828
1790107841945094000,0.512093994140625,0.2576533854007721,-0.2962777316570282,0.15460848808288574
1790107841955038700,0.522038818359375,0.19920924305915833,-0.4014158844947815,0.10007093846797943
1790107841964983000,0.531983154296875,0.15586496889591217,-0.3320322632789612,-0.013621802441775799
1790107841974926800,0.5419267578125,0.15339460968971252,-0.34380611777305603,-0.10679648816585541
1790107841984871000,0.551870849609375,0.13965536653995514,-0.34906452894210815,-0.1627870500087738
1790107841994815700,0.561815673828125,0.11113131791353226,-0.4099574387073517,-0.1808885633945465
1790107842004759800,0.571759765625,0.07167737931013107,-0.5320284962654114,-0.15095356106758118
1790107842014703900,0.581703857421875,0.04448144882917404,-0.6555882096290588,-0.09457710385322571
1790107842024649000,0.59164892578125,0.045528069138526917,-0.8975521326065063,-0.09428282827138901
1790107842034592800,0.6015927734375,-0.01116130780428648,-1.1876596212387085,-0.24086320400238037
1790107842044536800,0.611536865234375,-0.09136346727609634,-0.9827687740325928,-0.27436044812202454
1790107842054481000,0.62148095703125,-0.17196324467658997,-0.5229132771492004,-0.14276008307933807
1790107842064426000,0.631426025390625,-0.2820111811161041,-0.17375448346138,0.016393886879086494
1790107842074369800,0.641369873046875,-0.39285674691200256,-0.08089324831962585,0.10950279235839844
1790107842084313900,0.65131396484375,-0.4967924654483795,-0.2010345757007599,0.11417610943317413
1790107842094258700,0.6612587890625,-0.5744132399559021,-0.37449902296066284,0.0680227279663086
1790107842104203000,0.671203125,-0.653180718421936,-0.4837898313999176,-0.01853480190038681
1790107842114147000,0.68114697265625,-0.7497965097427368,-0.5459999442100525,-0.13889184594154358
1790107842124091000,0.6910908203125,-0.8362264633178711,-0.6040611267089844,-0.28124284744262695
1790107842134035700,0.70103564453125,-0.8941315412521362,-0.637861430644989,-0.4101121425628662
1790107842143979800,0.710979736328125,-0.931429922580719,-0.6375828385353088,-0.5149900913238525
1790107842153924000,0.720924072265625,-0.9419150352478027,-0.5620103478431702,-0.5942838788032532
1790107842163869000,0.730868896484375,-0.9087440371513367,-0.4310975968837738,-0.6678882837295532
1790107842173813000,0.74081298828125,-0.8516411185264587,-0.32906976342201233,-0.7469652891159058
1790107842183756800,0.7507568359375,-0.7816953063011169,-0.2693116366863251,-0.8383417725563049
1790107842193702000,0.760701904296875,-0.5075138211250305,-0.23258663713932037,-0.9458131194114685
1790107842203646000,0.77064599609375,0.05216972902417183,-0.14642485976219177,-1.0256723165512085
1790107842213590000,0.780590087890625,0.4148235619068146,0.013626595959067345,-1.0715221166610718
1790107842223533800,0.790533935546875,0.49020618200302124,-0.0014032195322215557,-1.0568715333938599
1790107842233479000,0.80047900390625,0.5370370745658875,-0.06857213377952576,-0.8827159404754639
1790107842243423000,0.810423095703125,0.510850191116333,-0.11250204592943192,-0.6744567155838013
1790107842253367000,0.820366943359375,0.42718249559402466,-0.1309817135334015,-0.5284217596054077
1790107842263312000,0.830311767578125,0.38775280117988586,-0.09478696435689926,-0.43763458728790283
1790107842273256000,0.840255859375,0.38386884331703186,0.01362526509910822,-0.413520485162735
1790107842283199700,0.85019970703125,0.3877551853656769,0.12777847051620483,-0.46860581636428833
1790107842293144800,0.860144775390625,0.39987948536872864,0.22628027200698853,-0.5597469210624695
1790107842303089000,0.8700888671875,0.39503785967826843,0.3045782744884491,-0.6812486052513123
1790107842313033000,0.880032958984375,0.37349823117256165,0.3673955798149109,-0.8443661332130432
1790107842322976800,0.889976806640625,0.3643673062324524,0.35743990540504456,-1.0221582651138306
1790107842332921900,0.899921875,0.37364521622657776,0.2754978835582733,-1.1601091623306274
1790107842342866000,0.909865966796875,0.3967902362346649,0.19406268000602722,-1.2107923030853271
1790107842352810000,0.91981005859375,0.41113296151161194,0.22333961725234985,-1.1599153280258179
1790107842362754800,0.9297548828125,0.4201118052005768,0.3554542362689972,-1.0609205961227417
1790107842372699000,0.939698974609375,0.4726165533065796,0.5206496119499207,-0.9137657284736633
1790107842382643000,0.949642822265625,0.5757501125335693,0.722601592540741,-0.7239819169044495
1790107842392587000,0.9595869140625,0.7036955952644348,0.8841825127601624,-0.5317355394363403
1790107842402531800,0.96953173828125,0.8517382740974426,1.0841704607009888,-0.34404313564300537
1790107842412476000,0.979475830078125,1.0041099786758423,1.2912768125534058,-0.22023622691631317
1790107842422419700,0.989419677734375,1.0783871412277222,1.246646523475647,-0.246249720454216
1790107842432365000,0.999364990234375,0.9932464361190796,0.8769422173500061,-0.412445604801178
1790107842442308900,1.009308837890625,0.7896789312362671,0.26017218828201294,-0.6379114985466003
1790107842452253000,1.0192529296875,0.5068961977958679,-0.35494929552078247,-0.8357223272323608
1790107842462197800,1.02919775390625,0.23049739003181458,-0.7600419521331787,-0.999945878982544
1790107842472142000,1.03914208984375,0.005367867648601532,-0.8560837507247925,-1.158948540687561
1790107842482086000,1.0490859375,-0.1298655867576599,-0.6534166932106018,-1.290745735168457
1790107842492030000,1.059030029296875,-0.2135130763053894,-0.3617140054702759,-1.334143877029419
1790107842501974800,1.068974853515625,-0.22171401977539062,-0.02870834432542324,-1.2084234952926636
1790107842511918800,1.0789189453125,-0.11238912492990494,0.23521704971790314,-0.9252862930297852
1790107842521863000,1.08886279296875,0.06439230591058731,0.30818605422973633,-0.5342966914176941
1790107842531808000,1.09880810546875,0.2012348473072052,0.18446677923202515,-0.12722718715667725
1790107842541751800,1.108751708984375,0.20967945456504822,0.04175969585776329,0.18095140159130096
1790107842551696000,1.11869580078125,0.11828643083572388,-0.03371801599860191,0.3082209527492523
1790107842561639700,1.1286396484375,-0.022589731961488724,-0.08350208401679993,0.32215994596481323
1790107842571585000,1.1385849609375,-0.1901198774576187,-0.022905582562088966,0.2685947120189667
1790107842581528800,1.14852880859375,-0.36667147278785706,0.14164341986179352,0.16662946343421936
1790107842591473000,1.158472900390625,-0.5326279401779175,0.34948715567588806,0.04440421611070633
1790107842601417700,1.168417724609375,-0.6542438864707947,0.49577805399894714,-0.06430309265851974
1790107842611362000,1.178362060546875,-0.7039659023284912,0.5196136236190796,-0.10314635932445526
1790107842621306000,1.18830615234375,-0.7007764577865601,0.4919266104698181,-0.07182438671588898
1790107842631251200,1.198251220703125,-0.6705333590507507,0.4522225856781006,-0.011565309949219227
1790107842641195000,1.208195068359375,-0.6542537212371826,0.3219764530658722,0.07085899263620377
1790107842651139300,1.218139404296875,-0.7156047224998474,0.16906945407390594,0.16720257699489594
1790107842661083100,1.228083251953125,-0.8205372095108032,0.18227925896644592,0.24383077025413513
1790107842671028200,1.2380283203125,-0.897214949131012,0.30903640389442444,0.29051706194877625
1790107842680972000,1.247971923828125,-0.9199394583702087,0.4341184198856354,0.3240286707878113
1790107842690916000,1.257916015625,-0.8851526975631714,0.5879543423652649,0.29080867767333984
1790107842700861200,1.267861083984375,-0.7844244837760925,0.6352853775024414,0.19654181599617004
1790107842710805200,1.27780517578125,-0.6452215909957886,0.599313497543335,0.17311425507068634
1790107842720749000,1.2877490234375,-0.5180255770683289,0.559790849685669,0.21998350322246552
1790107842730693000,1.297693115234375,-0.3867778182029724,0.5485858917236328,0.24772724509239197
1790107842740638200,1.30763818359375,-0.25151240825653076,0.47184503078460693,0.27702653408050537
1790107842750582300,1.317582275390625,-0.1410985291004181,0.24331384897232056,0.32911184430122375
1790107842760526000,1.327526123046875,-0.06910210847854614,-0.12542715668678284,0.39484184980392456
1790107842770471200,1.33747119140625,0.2728525698184967,-0.5738728642463684,0.679860532283783
1790107842780415000,1.3474150390625,0.4059043526649475,-1.2514406442642212,1.235656976699829
1790107842790359300,1.357359375,-0.22819854319095612,-1.891094446182251,0.8641811013221741
1790107842800304000,1.36730419921875,-0.20430706441402435,-2.1717169284820557,0.37367504835128784
1790107842810248200,1.377248291015625,0.16646407544612885,-1.6005730628967285,0.3617688715457916
1790107842820192000,1.38719189453125,0.432576984167099,-1.4829429388046265,0.021089306101202965
1790107842830136000,1.397135986328125,0.8046586513519287,-1.4991458654403687,0.008069644682109356
1790107842840081200,1.4070810546875,1.3013912439346313,-1.902595043182373,0.35655492544174194
1790107842850025200,1.417025146484375,1.7940112352371216,-2.7657036781311035,1.0445506572723389
1790107842859969000,1.426968994140625,2.2005856037139893,-3.773561477661133,1.932419776916504
1790107842869914000,1.4369140625,2.3813700675964355,-4.5868377685546875,2.7579615116119385
1790107842879858200,1.446858154296875,2.184887409210205,-4.970114707946777,3.088346004486084
1790107842889802200,1.45680224609375,1.9130468368530273,-4.80500602722168,2.756211996078491
1790107842899746300,1.466746337890625,1.9778947830200195,-4.353597164154053,2.2179415225982666
1790107842909691100,1.476691162109375,2.1630303859710693,-4.291050910949707,1.7766640186309814
1790107842919635000,1.486635009765625,2.4245288372039795,-4.617845058441162,1.5766280889511108
1790107842929579300,1.496579345703125,2.7607975006103516,-5.407272815704346,1.8299157619476318
1790107842939524000,1.506524169921875,3.0948450565338135,-6.466087818145752,2.5427334308624268
1790107842949468200,1.51646826171875,3.360062837600708,-7.481527328491211,3.3768577575683594
1790107842959412200,1.526412109375,3.590325117111206,-7.97789192199707,4.061484336853027
1790107842969357300,1.536357421875,3.5701003074645996,-6.967975616455078,3.8286921977996826
1790107842979301000,1.546301025390625,3.0637595653533936,-5.835507869720459,3.004439353942871
1790107842989245200,1.5562451171875,2.7551329135894775,-5.045894622802734,1.9222286939620972
1790107842999189200,1.566189208984375,2.56581711769104,-4.043291091918945,0.8401042819023132
1790107843009134000,1.576134033203125,2.4731125831604004,-3.0762596130371094,-0.11182507127523422
1790107843019078100,1.586078125,2.7156357765197754,-2.567007541656494,-0.4487037658691406
1790107843029022200,1.596022216796875,2.5314199924468994,-1.8808647394180298,-1.033029556274414
1790107843038967000,1.605967041015625,2.830227851867676,-1.240014910697937,-1.3560600280761719
1790107843048911000,1.6159111328125,2.4286623001098633,-1.2333663702011108,-1.35029137134552
1790107843058855200,1.625855224609375,2.588529348373413,-1.2402615547180176,-1.2515922784805298
1790107843068799200,1.63579931640625,2.800283193588257,-1.101423740386963,-0.627930223941803
1790107843078744000,1.645744140625,2.7546656131744385,-0.38924363255500793,-0.569188117980957
1790107843088688000,1.655688232421875,2.438281297683716,-0.2225145697593689,-0.5349196195602417
1790107843098632200,1.665632080078125,2.4995129108428955,-0.2593383491039276,-0.2854309380054474
1790107843108577300,1.675577392578125,2.5002248287200928,-0.36086446046829224,-0.06925816833972931
1790107843118521000,1.68552099609375,2.6484057903289795,-0.8302351236343384,0.05712081119418144
1790107843128465200,1.695465087890625,2.6890997886657715,-1.1180543899536133,0.13160809874534607
1790107843138410000,1.705409912109375,2.65921688079834,-1.3202905654907227,0.053220875561237335
1790107843148354000,1.71535400390625,2.5106637477874756,-1.4405754804611206,-0.3524613678455353
1790107843158298400,1.72529833984375,2.193457841873169,-1.327049732208252,-1.3125027418136597
1790107843168242200,1.7352421875,2.0710418224334717,-0.7801839709281921,-1.9049663543701172
1790107843178187000,1.74518701171875,1.8230583667755127,-0.14423973858356476,-1.693563461303711
1790107843188131000,1.755131103515625,1.5691890716552734,0.18476611375808716,-1.4363993406295776
1790107843198075100,1.7650751953125,1.3602571487426758,0.19570451974868774,-0.683504045009613
1790107843208020200,1.775020263671875,1.013266682624817,-0.4538295567035675,0.09606794267892838
1790107843217964300,1.78496435546875,0.4770001173019409,-1.777076005935669,1.334324598312378
1790107843227908000,1.794908203125,-0.04166009649634361,-2.243364095687866,1.5721545219421387
1790107843237852200,1.80485205078125,-0.07146512717008591,-1.4099403619766235,0.42748475074768066
1790107843247797200,1.81479736328125,0.034823227673769,-0.323003351688385,-1.3310798406600952
1790107843257741300,1.8247412109375,-0.037575338035821915,0.06105882674455643,-1.8789280652999878
1790107843267685000,1.83468505859375,-0.5612526535987854,-0.12452275305986404,-1.4874305725097656
1790107843277630200,1.844630126953125,-0.9668611884117126,-0.3614506125450134,-1.1782413721084595
1790107843287574000,1.854573974609375,-1.1715381145477295,-0.1079416498541832,-1.2669661045074463
1790107843297518300,1.864518310546875,-1.4012075662612915,-0.20188331604003906,-1.4239202737808228
1790107843307463200,1.874463134765625,-1.7690529823303223,-0.6798424124717712,-1.371429681777954
1790107843317407200,1.8844072265625,-2.0475995540618896,-1.3104726076126099,-1.3430774211883545
1790107843327351000,1.89435107421875,-2.2180898189544678,-1.7623116970062256,-1.244733214378357
1790107843337295000,1.904295166015625,-2.2816600799560547,-1.6888043880462646,-1.2243491411209106
1790107843347240200,1.914240234375,-2.069485664367676,-1.4409054517745972,-1.1720830202102661
1790107843357184300,1.924184326171875,-1.5989906787872314,-1.4595019817352295,-1.043211579322815
1790107843367128000,1.934128173828125,-0.7301802039146423,-2.302217960357666,-1.0297447443008423
1790107843377073400,1.944073486328125,-1.0093774795532227,-2.060713529586792,-0.815996527671814
1790107843387017200,1.954017333984375,-0.6690345406532288,-0.7860775589942932,-0.4423273503780365
1790107843396961300,1.963961181640625,-0.07550940662622452,0.3391439616680145,-0.874416172504425
1790107843406906000,1.973906005859375,0.6940445303916931,0.625539243221283,-1.2440447807312012
1790107843416850200,1.98385009765625,1.331996202468872,0.4151548445224762,-1.4032886028289795
1790107843426794000,1.9937939453125,2.221522569656372,0.45608630776405334,-1.0692315101623535
1790107843436738300,2.00373828125,2.6895408630371094,0.11323601007461548,-0.724902868270874
1790107843446683100,2.01368310546875,3.0402064323425293,-0.2895423471927643,-0.19818419218063354
1790107843456627200,2.023627197265625,3.0390737056732178,-0.5437650084495544,-0.059594620019197464
1790107843466571000,2.033571044921875,2.9335765838623047,-0.4424828886985779,0.07115620374679565
1790107843476516400,2.043516357421875,2.7698616981506348,0.27603718638420105,0.23965945839881897
1790107843486460200,2.053460205078125,2.5460054874420166,-0.020493557676672935,0.49473994970321655
1790107843496404200,2.063404296875,1.911932349205017,-0.29654592275619507,0.4162060022354126
1790107843506348000,2.07334814453125,1.3575330972671509,-0.17551963031291962,0.06173340603709221
1790107843516293400,2.08329345703125,0.8155339360237122,-0.2496362030506134,-0.34750309586524963
1790107843526237200,2.0932373046875,0.8131645321846008,-0.27340543270111084,-0.5859630703926086
1790107843536181200,2.10318115234375,1.2257803678512573,-0.7447764277458191,-0.589069128036499
1790107843546126000,2.1131259765625,1.2807892560958862,-0.35481321811676025,-0.7506631016731262
1790107843556070100,2.123070068359375,1.5180736780166626,0.3263789117336273,-0.7351294159889221
1790107843566014000,2.133013916015625,1.9942607879638672,0.5150651931762695,-0.5449575781822205
1790107843575959300,2.142959228515625,2.578225612640381,0.323677659034729,-0.324868381023407
1790107843585903000,2.152903076171875,3.0226857662200928,-0.24144510924816132,-0.0282132625579834
1790107843595847200,2.16284716796875,2.933806896209717,-0.8369345664978027,0.24563133716583252
1790107843605791000,2.172791015625,2.626953601837158,-1.1069079637527466,0.26977208256721497
1790107843615737000,2.182737060546875,2.5550055503845215,-1.321740746498108,0.22135715186595917
1790107843625681000,2.192680908203125,2.6818289756774902,-1.6744542121887207,0.2684040367603302
1790107843635625000,2.202625,2.7065987586975098,-1.6712355613708496,0.28030702471733093
1790107843645569800,2.21256982421875,2.5249340534210205,-1.5200018882751465,0.6158632040023804
1790107843655514000,2.22251416015625,2.423748254776001,-0.7346665263175964,0.8396928310394287
1790107843665458000,2.2324580078125,2.699730157852173,-0.2024625539779663,0.8001957535743713
1790107843675402000,2.242402099609375,2.956414222717285,-0.22560462355613708,0.4361884891986847
1790107843685346800,2.252346923828125,3.1521835327148438,0.13647182285785675,0.01101430132985115
1790107843695291000,2.262290771484375,2.9085919857025146,0.24342916905879974,-0.5442121624946594
1790107843705235000,2.27223486328125,2.1347241401672363,-0.43245288729667664,-0.3592875897884369
1790107843715180000,2.282179931640625,1.3497710227966309,-0.7991490960121155,-0.00708693778142333
1790107843725123800,2.292123779296875,0.9537139534950256,-0.9083791971206665,0.15093359351158142
1790107843735068000,2.30206787109375,0.8250427842140198,-1.1668895483016968,0.23616832494735718
1790107843745013000,2.312012939453125,0.8362253904342651,-1.3593988418579102,0.2523278594017029
1790107843754957000,2.32195703125,0.9491780400276184,-1.3501933813095093,0.16356949508190155
1790107843764900900,2.33190087890625,1.088775396347046,-1.1948192119598389,-0.002996056107804179
1790107843774845000,2.341844970703125,1.0574251413345337,-1.0394301414489746,-0.19110098481178284
1790107843784790000,2.3517900390625,0.663650393486023,-0.8194035291671753,-0.40179458260536194
1790107843794734000,2.361734130859375,0.10831049084663391,-0.6442319750785828,-0.40726205706596375
1790107843804678000,2.371677978515625,-0.2717097997665405,-0.5837369561195374,-0.31024760007858276
1790107843814623000,2.381623046875,-0.23021535575389862,-0.6418883800506592,-0.28453078866004944
1790107843824566800,2.39156689453125,-0.13314740359783173,-0.45213016867637634,-0.34245428442955017
1790107843834510800,2.4015107421875,-0.15961602330207825,-0.2501659095287323,-0.3682187795639038
1790107843844456000,2.4114560546875,0.12726899981498718,-0.2242155224084854,-0.5111831426620483
1790107843854400000,2.42139990234375,0.3978445827960968,-0.242010235786438,-0.5880765914916992
1790107843864343800,2.43134375,0.758746325969696,-0.2270938754081726,-0.6017971634864807
1790107843874287900,2.441287841796875,0.9818826913833618,-0.029564816504716873,-0.5010567307472229
1790107843884233000,2.45123291015625,1.0355685949325562,0.16010285913944244,-0.3094633221626282
1790107843894177000,2.461177001953125,0.9211472272872925,-0.3767733871936798,-0.09317415207624435
1790107843904120800,2.471120849609375,1.0656535625457764,-1.3282963037490845,0.004780374001711607
1790107843914066000,2.48106591796875,1.02279531955719,-1.4214246273040771,0.31312569975852966
1790107843924010000,2.491010009765625,1.093937635421753,-0.6813015937805176,0.5457128882408142
1790107843933954000,2.5009541015625,1.5916123390197754,0.7734922170639038,0.7970721125602722
1790107843943897900,2.51089794921875,2.102515935897827,1.8028995990753174,1.3048466444015503
1790107843953843000,2.520843017578125,2.414280414581299,2.3332762718200684,1.8849982023239136
1790107843963786800,2.530786865234375,2.2944836616516113,3.0593438148498535,2.172022819519043
1790107843973730800,2.540730712890625,1.988674283027649,4.372719764709473,1.856060266494751
1790107843983676000,2.550676025390625,2.627424716949463,5.22631311416626,-0.08259714394807816
1790107843993620000,2.560619873046875,2.98205828666687,5.339741230010986,-1.562330961227417
1790107844003563800,2.570563720703125,3.5071053504943848,5.0713043212890625,-3.0724830627441406
1790107844013509000,2.580509033203125,3.0686092376708984,4.237723350524902,-3.6759562492370605
1790107844023453000,2.590452880859375,0.7649983167648315,1.3899037837982178,-0.007792941760271788
1790107844033397000,2.60039697265625,-0.08674794435501099,-0.48742613196372986,0.5953832268714905
1790107844043340800,2.6103408203125,1.8395417928695679,-1.8738884925842285,-0.22263041138648987
1790107844053286000,2.620285888671875,-0.4781452715396881,-1.3379143476486206,0.17979319393634796
1790107844063230000,2.63022998046875,-1.3872448205947876,-0.9625383019447327,0.2695712745189667
1790107844073174000,2.640174072265625,-1.6244102716445923,-0.17503519356250763,0.27140727639198303
1790107844083118800,2.650118896484375,-1.5481863021850586,0.30978500843048096,0.18947219848632812
1790107844093063000,2.66006298828125,-1.7127002477645874,0.35722842812538147,-0.0321507453918457
1790107844103006700,2.6700068359375,-1.9702779054641724,0.11948298662900925,-0.37602344155311584
1790107844112952000,2.6799521484375,-2.2357826232910156,-0.17638808488845825,-0.5744909644126892
1790107844122896000,2.689895751953125,-2.4646575450897217,-0.46959465742111206,-0.5893871188163757
1790107844132840000,2.69983984375,-2.561415910720825,-0.7302877902984619,-0.40608838200569153
1790107844142784000,2.709783935546875,-2.658588171005249,-0.8140977025032043,-0.13518285751342773
1790107844152729000,2.71972900390625,-2.8794829845428467,-0.6214728951454163,0.034747060388326645
1790107844162673000,2.7296728515625,-3.199320077896118,-0.3260420262813568,0.15317437052726746
1790107844172617000,2.739616943359375,-3.5392251014709473,-0.016638631001114845,0.5070922374725342
1790107844182561800,2.749561767578125,-3.9349215030670166,-0.45125558972358704,1.3018125295639038
1790107844192505900,2.759505859375,-4.230171203613281,-0.543123185634613,1.7352060079574585
1790107844202450000,2.769449951171875,-4.417454719543457,0.07340656965970993,1.7599796056747437
1790107844212394000,2.77939404296875,-4.284024238586426,1.202884316444397,1.2964673042297363
1790107844222338800,2.7893388671875,-3.4062089920043945,1.6354022026062012,0.6265991926193237
1790107844232283000,2.799282958984375,-1.9118937253952026,1.4648315906524658,-0.3875565230846405
1790107844242227000,2.80922705078125,-0.7099406719207764,1.3086557388305664,-1.1920934915542603
1790107844252172000,2.819172119140625,-0.5099652409553528,1.4623795747756958,-0.9646432995796204
1790107844262115800,2.82911572265625,-0.9138568043708801,1.2638685703277588,-0.05814319849014282
1790107844272060000,2.839059814453125,-1.1027114391326904,0.3254004716873169,0.5131714344024658
1790107844282004700,2.849004638671875,-1.0570605993270874,-0.374598890542984,0.45001962780952454
1790107844291949000,2.858948974609375,-1.0326892137527466,-0.6670821905136108,0.11478011310100555
1790107844301893000,2.86889306640625,-1.0601873397827148,-0.8022050857543945,-0.19688856601715088
1790107844311837000,2.8788369140625,-1.0872951745986938,-0.8595738410949707,-0.36038294434547424
1790107844321781800,2.88878173828125,-1.0464372634887695,-0.8130843639373779,-0.3896569609642029
1790107844331725800,2.898725830078125,-0.98903888463974,-0.6708691716194153,-0.30948248505592346
1790107844341670100,2.908670166015625,-0.9413297176361084,-0.5370512008666992,-0.13796480000019073
1790107844351615000,2.918614990234375,-0.9027213454246521,-0.3587475121021271,0.0686352550983429
1790107844361559000,2.92855908203125,-0.88241046667099,-0.1494842916727066,0.21306248009204865
1790107844371502800,2.9385029296875,-0.8976269364356995,0.10551683604717255,0.24144858121871948
1790107844381448000,2.948447998046875,-0.9094439148902893,0.2862871587276459,0.1617276519536972
1790107844391392000,2.95839208984375,-0.9328160881996155,0.4033043086528778,0.1103249117732048
1790107844401336000,2.968336181640625,-0.9727949500083923,0.38073694705963135,0.08247783035039902
1790107844411280000,2.97827978515625,-1.0214698314666748,0.18482257425785065,0.0733940526843071
1790107844421225000,2.988224853515625,-1.0614979267120361,0.008429969660937786,0.048232775181531906
1790107844431169000,2.9981689453125,-1.0515531301498413,-0.08530078083276749,-0.02569311298429966
1790107844441113000,3.008113037109375,-1.032285451889038,-0.008207862265408039,-0.05337480828166008
1790107844451058000,3.018057861328125,-0.9760674238204956,0.015896940603852272,-0.043355997651815414
1790107844461002000,3.028001953125,-0.8949019908905029,-0.1271720677614212,-0.02160782366991043
1790107844470945800,3.03794580078125,-0.819058358669281,-0.22799934446811676,0.014283065684139729
1790107844480890000,3.04789013671875,-0.7131298184394836,-0.17509432137012482,-0.031857799738645554
1790107844490835000,3.0578349609375,-0.6566148996353149,-0.040520526468753815,-0.07358153909444809
1790107844500779000,3.067779052734375,-0.6169306039810181,0.11691223829984665,-0.044565603137016296
1790107844510722800,3.077722900390625,-0.5823771357536316,0.28598275780677795,0.010696053504943848
1790107844520668000,3.08766796875,-0.5489699244499207,0.26870018243789673,0.11905980855226517
1790107844530612000,3.097612060546875,-0.3980371057987213,0.16433142125606537,0.1943630874156952
1790107844540556000,3.10755615234375,-0.24612988531589508,0.36678120493888855,0.18875446915626526
1790107844550499800,3.117499755859375,-0.19940844178199768,0.5696030259132385,0.19110257923603058
1790107844560445000,3.12744482421875,-0.21085551381111145,0.5461975336074829,0.26481062173843384
1790107844570389000,3.137388916015625,-0.20593984425067902,0.5060400366783142,0.3441842794418335
1790107844580333000,3.1473330078125,-0.13614238798618317,0.5382072925567627,0.37980273365974426
1790107844590278000,3.15727783203125,-0.1104266420006752,0.42908692359924316,0.37340155243873596
1790107844600222000,3.167221923828125,-0.12311367690563202,0.3714902102947235,0.3950873911380768
1790107844610165800,3.177165771484375,-0.10563774406909943,0.3218901455402374,0.4274437427520752
1790107844620110000,3.187110107421875,-0.03436250239610672,0.3087032437324524,0.4378838539123535
1790107844630054100,3.19705419921875,0.052314069122076035,0.2824748456478119,0.4578027129173279
1790107844639998200,3.206998291015625,0.1548556238412857,0.18921412527561188,0.48318344354629517
1790107844649942300,3.2169423828125,0.23859766125679016,0.08069217950105667,0.5301594734191895
1790107844659887000,3.22688720703125,0.3043154180049896,0.0686272606253624,0.5669185519218445
1790107844669831000,3.236830810546875,0.367536723613739,0.03421522676944733,0.5963555574417114
1790107844679775200,3.246775146484375,0.4398505985736847,-0.0033774208277463913,0.6248817443847656
1790107844689720000,3.256719970703125,0.5319278240203857,0.03690129145979881,0.6512510180473328
1790107844699664100,3.2666640625,0.6140085458755493,0.07660609483718872,0.6813271641731262
1790107844709608200,3.276608154296875,0.6867061853408813,0.12407854199409485,0.7078522443771362
1790107844719553300,3.28655322265625,0.7477948665618896,0.18980881571769714,0.699653685092926
1790107844729497000,3.2964970703125,0.8057356476783752,0.2529433071613312,0.7070519328117371
1790107844739441200,3.306441162109375,0.8584864735603333,0.28827306628227234,0.7327285408973694
1790107844749385200,3.31638525390625,0.9220489263534546,0.30169007182121277,0.7352843880653381
1790107844759330000,3.326330078125,0.9911859631538391,0.27368560433387756,0.6838750243186951
1790107844769274000,3.336274169921875,1.0531054735183716,0.21456262469291687,0.60155189037323
1790107844779218200,3.34621826171875,1.0832085609436035,0.24258413910865784,0.5523492097854614
1790107844789163000,3.3561630859375,1.0934460163116455,0.23312540352344513,0.5072986483573914
1790107844799107000,3.366107177734375,1.1038017272949219,0.1902029663324356,0.45063480734825134
1790107844809051100,3.376051025390625,1.130178689956665,0.19268237054347992,0.3886454701423645
1790107844818996200,3.385996337890625,1.1763736009597778,0.21008053421974182,0.32891663908958435
1790107844828940000,3.39593994140625,1.2414442300796509,0.24747397005558014,0.2771482467651367
1790107844838884000,3.405884033203125,1.3237167596817017,0.2584003806114197,0.24360786378383636
1790107844848828200,3.415828125,1.3903253078460693,0.2761823236942291,0.2234320193529129
1790107844858773200,3.425773193359375,1.439293622970581,0.2299724817276001,0.1936648041009903
1790107844868717300,3.43571728515625,1.4815891981124878,0.16338759660720825,0.16435672342777252
1790107844878661000,3.4456611328125,1.500858187675476,0.1361788809299469,0.11936021596193314
1790107844888606000,3.45560595703125,1.5050804615020752,0.09760352224111557,0.04488198831677437
1790107844898550000,3.465550048828125,1.483819603919983,0.10424970835447311,-0.04574858024716377
1790107844908494300,3.475494384765625,1.4508254528045654,0.11763022840023041,-0.12818433344364166
1790107844918438100,3.485438232421875,1.4297113418579102,0.16797834634780884,-0.16589362919330597
1790107844928383200,3.49538330078125,1.442193627357483,0.26517945528030396,-0.1519908607006073
1790107844938327000,3.5053271484375,1.5054622888565063,0.39417633414268494,-0.1253102570772171
1790107844948271000,3.51527099609375,1.5981863737106323,0.5413351655006409,-0.12315894663333893
1790107844958216200,3.52521630859375,1.6792594194412231,0.6556665301322937,-0.15356957912445068
1790107844968160300,3.53516015625,1.7340811491012573,0.6944597363471985,-0.21104513108730316
1790107844978104000,3.54510400390625,1.7611393928527832,0.740894079208374,-0.27086344361305237
1790107844988049200,3.555049072265625,1.7975621223449707,0.8190626502037048,-0.30473726987838745
1790107844997993200,3.5649931640625,1.8198554515838623,0.8573623895645142,-0.32474640011787415
1790107845007937300,3.574937255859375,1.8091721534729004,0.8856467008590698,-0.33297982811927795
1790107845017881000,3.584881103515625,1.766028642654419,0.827573835849762,-0.32102862000465393
1790107845027826200,3.594826171875,1.698111653327942,0.6857964396476746,-0.3189236521720886
1790107845037770000,3.60477001953125,1.5856311321258545,0.6571645736694336,-0.3256012797355652
1790107845047714300,3.61471435546875,1.4234566688537598,0.584588885307312,-0.34265509247779846
1790107845057659100,3.6246591796875,1.2548359632492065,0.46505823731422424,-0.3366294205188751
1790107845067603200,3.634603271484375,1.112463355064392,0.4487881660461426,-0.3229396939277649
1790107845077547000,3.644547119140625,0.9889203906059265,0.5246805548667908,-0.33901268243789673
1790107845087492400,3.654492431640625,0.8861993551254272,0.5447559952735901,-0.3244830071926117
1790107845097436200,3.664436279296875,0.8115147352218628,0.4760131537914276,-0.28268203139305115
1790107845107380200,3.674380126953125,0.749413251876831,0.3824480473995209,-0.19383923709392548
1790107845117324000,3.684323974609375,0.69562166929245,0.23868395388126373,-0.14079706370830536
1790107845127269000,3.69426904296875,0.6169388294219971,0.09669751673936844,-0.10448352992534637
1790107845137213200,3.704213134765625,0.5207254886627197,-0.002620816696435213,-0.06107480451464653
1790107845147157200,3.7141572265625,0.38110634684562683,-0.03404638543725014,-0.049621615558862686
1790107845157102000,3.72410205078125,0.19106103479862213,0.04405534267425537,-0.013727263547480106
1790107845167046100,3.734046142578125,0.12083853781223297,0.17438484728336334,0.052018992602825165
1790107845176990000,3.743989990234375,0.1499040126800537,0.3177010118961334,0.1470770686864853
1790107845186935300,3.753935302734375,0.17038877308368683,0.4587090015411377,0.12700535356998444
1790107845196879000,3.763879150390625,0.16555088758468628,0.20573292672634125,-0.00603472301736474
1790107845206823200,3.7738232421875,0.2340007722377777,-0.3326999247074127,0.06365274637937546
1790107845216767000,3.78376708984375,0.38037821650505066,-0.8567855358123779,0.12962457537651062
1790107845226712300,3.79371240234375,0.3992038369178772,-1.001137375831604,0.17651671171188354
1790107845236656000,3.80365625,0.35610857605934143,-0.8751727938652039,0.1734767109155655
1790107845246600200,3.81360009765625,0.27676182985305786,-0.6449151039123535,0.11235637217760086
1790107845256545000,3.823544921875,0.1765366792678833,-0.6281435489654541,0.10536077618598938
1790107845266489000,3.833489013671875,0.0894225537776947,-0.6450847387313843,0.1749747395515442
1790107845276433200,3.84343310546875,-0.008359395898878574,-0.7552351951599121,0.24791818857192993
1790107845286377200,3.853377197265625,-0.13738848268985748,-0.8597309589385986,0.26712092757225037
1790107845296322000,3.863322021484375,-0.28259894251823425,-0.8261637091636658,0.25601980090141296
1790107845306266000,3.87326611328125,-0.4250713884830475,-0.8440305590629578,0.20991568267345428
1790107845316210000,3.8832099609375,-0.5943158268928528,-0.710336446762085,0.1576298475265503
1790107845326155300,3.8931552734375,-0.7810108661651611,-0.5857657194137573,0.10497914254665375
1790107845336099000,3.90309912109375,-0.9454847574234009,-0.5295027494430542,0.06804908812046051
1790107845346043100,3.913043212890625,-1.1034784317016602,-0.4555262327194214,0.03552230820059776
1790107845355988000,3.922988037109375,-1.1732285022735596,-0.4181368052959442,-0.002822684356942773
1790107845365932300,3.932932373046875,-1.2012497186660767,-0.3377862870693207,-0.024232102558016777
1790107845375876000,3.9428759765625,-1.2357594966888428,-0.22808855772018433,-0.01570865511894226
1790107845385820200,3.952820068359375,-1.2177211046218872,-0.3137797713279724,-0.03771115839481354
1790107845395765000,3.962764892578125,-1.2076658010482788,-0.3762607276439667,-0.06738676130771637
1790107845405709000,3.972708984375,-1.1219980716705322,-0.3844717741012573,-0.06792312115430832
1790107845415653000,3.982653076171875,-1.017488956451416,-0.3601565957069397,-0.051053330302238464
1790107845425598200,3.99259814453125,-0.9108564853668213,-0.3565804958343506,-0.027108583599328995
1790107845435542000,4.0025419921875,-0.7960271239280701,-0.35506463050842285,-0.005456284619867802
1790107845445486000,4.012486083984375,-0.7070831060409546,-0.4400511384010315,-0.009759419597685337
1790107845455430100,4.02243017578125,-0.6098857522010803,-0.5786846876144409,-0.02400067448616028
1790107845465375200,4.032375244140625,-0.5111846923828125,-0.4995746612548828,-0.024095483124256134
1790107845475319000,4.042319091796875,-0.4410325288772583,-0.25985315442085266,0.029798641800880432
1790107845485263000,4.05226318359375,-0.4380955994129181,-0.18124142289161682,0.0887993797659874
1790107845495208000,4.0622080078125,-0.4463718831539154,-0.22017045319080353,0.13823163509368896
1790107845505152300,4.07215234375,-0.4786480665206909,-0.1895185261964798,0.14137044548988342
1790107845515096000,4.082095947265625,-0.5260515213012695,-0.10196391493082047,0.08324748277664185
1790107845525041200,4.092041259765625,-0.5639264583587646,-0.1117427796125412,0.005495699122548103
1790107845534985000,4.10198486328125,-0.5928366780281067,-0.24096441268920898,-0.04487293213605881
1790107845544929000,4.111928955078125,-0.5465688109397888,-0.345907062292099,-0.06568979471921921
1790107845554873300,4.121873291015625,-0.49847131967544556,-0.3865610361099243,-0.07408807426691055
1790107845564818200,4.131818115234375,-0.4958435595035553,-0.4168981611728668,-0.1052934005856514
1790107845574762000,4.141761962890625,-0.5053358674049377,-0.4123825132846832,-0.1419305056333542
1790107845584706000,4.1517060546875,-0.5016396641731262,-0.3465331792831421,-0.15068964660167694
1790107845594651100,4.161651123046875,-0.5060349702835083,-0.26960352063179016,-0.11189936846494675
1790107845604595200,4.17159521484375,-0.5151767730712891,-0.1511077582836151,-0.0694270133972168
1790107845614539300,4.181539306640625,-0.49956241250038147,-0.074774369597435,-0.06506794691085815
1790107845624483800,4.19148388671875,-0.47709599137306213,-0.07980268448591232,-0.1011870726943016
1790107845634428000,4.201427978515625,-0.45858755707740784,-0.12333685159683228,-0.15702104568481445
1790107845644371700,4.211371826171875,-0.46681591868400574,-0.11177979409694672,-0.23411476612091064
1790107845654315800,4.221315673828125,-0.49763160943984985,-0.04560743272304535,-0.31358668208122253
1790107845664260900,4.2312607421875,-0.5347824692726135,0.015262842178344727,-0.38390693068504333
1790107845674205000,4.241204833984375,-0.5857521295547485,-0.030244188383221626,-0.44017526507377625
1790107845684148700,4.251148681640625,-0.6273353099822998,-0.12251818925142288,-0.4717395603656769
1790107845694093800,4.26109375,-0.6795675754547119,-0.22749947011470795,-0.49284911155700684
1790107845704037600,4.27103759765625,-0.7204779982566833,-0.3601760268211365,-0.5110132098197937
1790107845713982000,4.28098193359375,-0.7748648524284363,-0.479125052690506,-0.5162718892097473
1790107845723925800,4.29092578125,-0.8355939388275146,-0.5390677452087402,-0.5173102617263794
1790107845733870800,4.300870849609375,-0.8576233386993408,-0.5558496713638306,-0.532893180847168
1790107845743814700,4.310814697265625,-0.8905254006385803,-0.49689340591430664,-0.5611299276351929
1790107845753758700,4.3207587890625,-0.8769765496253967,-0.4617740213871002,-0.5937493443489075
1790107845763703800,4.330703857421875,-0.8639443516731262,-0.3589608371257782,-0.5865162014961243
1790107845773648000,4.34064794921875,-0.8750510811805725,-0.13853923976421356,-0.5558342337608337
1790107845783591700,4.350591796875,-0.8650373220443726,0.0837007537484169,-0.4459202289581299
1790107845793536800,4.360536865234375,-0.8900313377380371,0.33058086037635803,-0.34771934151649475
1790107845803480800,4.370480712890625,-0.8732121586799622,0.5050671696662903,-0.3181532025337219
1790107845813425000,4.3804248046875,-0.8652597069740295,0.579879641532898,-0.3062251806259155
1790107845823368700,4.39036865234375,-0.9284234642982483,0.561278760433197,-0.3892444372177124
1790107845833313800,4.400313720703125,-0.899600088596344,0.30526962876319885,-0.35986337065696716
1790107845843257600,4.410257568359375,-0.969609260559082,0.11094489693641663,-0.3984033167362213
1790107845853202000,4.420201904296875,-1.0826060771942139,-0.024863537400960922,-0.4124078154563904
1790107845863146800,4.430146728515625,-1.148315668106079,-0.06462879478931427,-0.3738012909889221
1790107845873090800,4.4400908203125,-1.1189707517623901,-0.08619321137666702,-0.2973563075065613
1790107845883034600,4.45003466796875,-1.0694432258605957,-0.026565831154584885,-0.2419537752866745
1790107845892980000,4.45997998046875,-1.1099493503570557,0.09785731881856918,-0.23753532767295837
1790107845902923800,4.469923828125,-1.139662742614746,0.2361946851015091,-0.17066654562950134
1790107845912867800,4.479867919921875,-1.099683403968811,0.2625221610069275,-0.15249685943126678
1790107845922811600,4.489811767578125,-1.1046991348266602,0.26654568314552307,-0.10824284702539444
1790107845932756700,4.4997568359375,-1.219908356666565,0.21956723928451538,-0.20994152128696442
1790107845942700800,4.50970068359375,-1.2494449615478516,0.04812358692288399,-0.18470247089862823
1790107845952644900,4.519644775390625,-1.1887961626052856,-0.2652148902416229,-0.238051176071167
1790107845962589700,4.529589599609375,-1.184123158454895,-0.32104194164276123,-0.22300511598587036
1790107845972533800,4.53953369140625,-1.1224888563156128,-0.1727249026298523,-0.20244604349136353
1790107845982477600,4.5494775390625,-1.063079833984375,-0.09143990278244019,-0.21032634377479553
1790107845992422000,4.559421875,-0.9718066453933716,-0.20533877611160278,-0.20755824446678162
1790107846002366700,4.56936669921875,-0.8564336895942688,-0.3334924876689911,-0.11180216819047928
1790107846012310800,4.579310791015625,-0.7967384457588196,-0.2786089777946472,-0.042985282838344574
1790107846022254600,4.589254638671875,-0.7322733998298645,-0.19731466472148895,-0.02803083509206772
1790107846032200000,4.599199951171875,-0.5802159905433655,-0.09376218169927597,0.06712604314088821
1790107846042143700,4.609143798828125,-0.4827970266342163,0.020168118178844452,0.1457822322845459
1790107846052087800,4.619087890625,-0.3688720464706421,0.07109947502613068,0.24847851693630219
1790107846062032600,4.62903271484375,-0.3223429024219513,0.19974879920482635,0.3601650893688202
1790107846071976700,4.638976806640625,-0.29403480887413025,0.26949644088745117,0.4329841732978821
1790107846081920800,4.648920654296875,-0.21417993307113647,0.2704589068889618,0.5304441452026367
1790107846091864800,4.65886474609375,-0.12690389156341553,0.329091876745224,0.5436779260635376
1790107846101809700,4.6688095703125,-0.0686805248260498,0.42143645882606506,0.5082514882087708
1790107846111753700,4.678753662109375,0.012147210538387299,0.5069082379341125,0.5616228580474854
1790107846121697800,4.68869775390625,0.11949257552623749,0.600877046585083,0.6356552839279175
1790107846131643000,4.698642822265625,0.21554507315158844,0.5985622406005859,0.6682526469230652
1790107846141586700,4.708586669921875,0.3089008629322052,0.48789748549461365,0.6653902530670166
1790107846151530800,4.71853076171875,0.42181727290153503,0.4008669853210449,0.6276775002479553
1790107846161475600,4.7284755859375,0.5369340181350708,0.3692283630371094,0.5734643340110779
1790107846171420000,4.738419921875,0.6397469639778137,0.3665391206741333,0.5395287275314331
1790107846181363700,4.74836376953125,0.7502473592758179,0.32746440172195435,0.5753865838050842
1790107846191307800,4.758307861328125,0.8401221036911011,0.2877095341682434,0.6392553448677063
1790107846201252600,4.768252685546875,0.9273645877838135,0.23434299230575562,0.6990206837654114
1790107846211196700,4.77819677734375,1.0171842575073242,0.1959492713212967,0.7359850406646729
1790107846221140700,4.788140625,1.0931642055511475,0.20165163278579712,0.7615489959716797
1790107846231085800,4.7980859375,1.1595160961151123,0.1573459506034851,0.7219270467758179
1790107846241029600,4.808029541015625,1.2201629877090454,0.13508005440235138,0.7128856182098389
1790107846250973700,4.8179736328125,1.2937157154083252,0.1167236864566803,0.729912519454956
1790107846260917800,4.827917724609375,1.3590896129608154,0.10590273141860962,0.7479570508003235
1790107846270862800,4.83786279296875,1.4303933382034302,0.1296650469303131,0.7351664304733276
1790107846280806700,4.847806640625,1.5220260620117188,0.19746194779872894,0.7175077795982361
1790107846290750700,4.857750732421875,1.6164036989212036,0.26644766330718994,0.6857786178588867
1790107846300695600,4.867695556640625,1.705499291419983,0.30341261625289917,0.6488954424858093
1790107846310639900,4.877639892578125,1.7974811792373657,0.3181188404560089,0.6258846521377563
1790107846320584000,4.887583984375,1.9049934148788452,0.3409937918186188,0.612003743648529
1790107846330528800,4.89752880859375,1.9957643747329712,0.37473711371421814,0.6112162470817566
1790107846340472600,4.90747265625,2.0641984939575195,0.3927938938140869,0.5873649716377258
1790107846350416600,4.917416748046875,2.130803346633911,0.3405629098415375,0.5658743381500244
1790107846360361000,4.92736083984375,2.1659576892852783,0.42617979645729065,0.5689316391944885
1790107846370305800,4.937305908203125,2.1949758529663086,0.49497750401496887,0.4758608043193817
1790107846380249900,4.947249755859375,2.204270124435425,0.5258437991142273,0.3002338707447052
1790107846390193700,4.957193603515625,2.1403400897979736,0.5417263507843018,0.17924565076828003
1790107846400138800,4.967138671875,2.080732822418213,0.3518166244029999,0.07749905437231064
1790107846410082800,4.977082763671875,2.011475086212158,0.17111502587795258,0.033487651497125626
1790107846420027000,4.98702685546875,1.917168378829956,0.03934687376022339,0.07087310403585434
1790107846429971700,4.9969716796875,1.839620590209961,-0.10617570579051971,0.14521658420562744
1790107846439915800,5.006915771484375,1.7979069948196411,-0.21112263202667236,0.17362745106220245
1790107846449859800,5.01685986328125,1.7573754787445068,-0.28641337156295776,0.14186260104179382
1790107846459804000,5.026803955078125,1.718347191810608,-0.3637273609638214,0.10323876887559891
1790107846469748700,5.036748779296875,1.7256317138671875,-0.31825360655784607,0.07366250455379486
1790107846479692800,5.04669287109375,1.681443214416504,-0.197457417845726,0.06183726713061333
1790107846489636600,5.05663671875,1.5635735988616943,-0.07852223515510559,0.09322528541088104
1790107846499581700,5.066581787109375,1.4300516843795776,0.0811702162027359,0.13912007212638855
1790107846509525800,5.07652587890625,1.3053268194198608,0.3058680295944214,0.15881095826625824
1790107846519469800,5.0864697265625,1.1723695993423462,0.43576693534851074,0.1481577754020691
1790107846529413600,5.09641357421875,1.00994074344635,0.28461283445358276,0.14977698028087616
1790107846539359000,5.10635888671875,0.8193249702453613,0.11308474093675613,0.13493464887142181
1790107846549302800,5.116302734375,0.6416540145874023,0.03870505094528198,0.11103224754333496
1790107846559246800,5.126246826171875,0.5121631622314453,-0.08261791616678238,0.08310793340206146
1790107846569191700,5.136191650390625,0.4105401337146759,-0.25601711869239807,0.07712914049625397
1790107846579135700,5.1461357421875,0.3288463354110718,-0.4255257248878479,0.11223812401294708
1790107846589079800,5.156079833984375,0.2882397770881653,-0.6875251531600952,0.1870386004447937
1790107846599025000,5.16602490234375,0.22435081005096436,-0.62157142162323,0.13665451109409332
1790107846608968700,5.17596875,0.13412344455718994,-0.30163973569869995,0.17592282593250275
1790107846618913000,5.1859130859375,0.06781846284866333,0.1455255001783371,0.28679075837135315
1790107846628857000,5.195857177734375,0.054795872420072556,0.38560229539871216,0.33037206530570984
1790107846638802200,5.20580224609375,-0.009576727636158466,0.014974954538047314,0.22976341843605042
1790107846648746000,5.21574609375,-0.05122803524136543,-0.5186530351638794,0.14543016254901886
1790107846658690000,5.22568994140625,-0.030724355950951576,-0.6391139030456543,0.14169082045555115
1790107846668635100,5.23563525390625,-0.062434613704681396,-0.5338404774665833,0.15299540758132935
1790107846678579200,5.2455791015625,-0.1403999924659729,-0.7006904482841492,0.13423743844032288
1790107846688523000,5.25552294921875,-0.21355915069580078,-0.9961639046669006,0.14093048870563507
1790107846698468000,5.265468017578125,-0.3019968867301941,-1.117853045463562,0.18924662470817566
1790107846708412000,5.275411865234375,-0.43433812260627747,-1.0380765199661255,0.2379867285490036
1790107846718356200,5.285356201171875,-0.6285531520843506,-0.9140863418579102,0.25560835003852844
1790107846728300000,5.295300048828125,-0.8155291676521301,-0.766221821308136,0.24192900955677032
1790107846738245000,5.3052451171875,-0.9849461317062378,-0.5424312949180603,0.19219979643821716
1790107846748189000,5.31518896484375,-1.1334866285324097,-0.33401578664779663,0.10015696287155151
1790107846758133000,5.325133056640625,-1.2282078266143799,-0.23555660247802734,0.00953944306820631
1790107846768078000,5.335078125,-1.284472942352295,-0.26373469829559326,-0.08953893929719925
1790107846778022100,5.345022216796875,-1.2992603778839111,-0.2542687654495239,-0.1417107880115509
1790107846787966000,5.354966064453125,-1.3003523349761963,-0.27574875950813293,-0.18138283491134644
1790107846797911000,5.3649111328125,-1.289024829864502,-0.32489100098609924,-0.23249289393424988
1790107846807855000,5.374855224609375,-1.2440972328186035,-0.3825697600841522,-0.2736659049987793
1790107846817799200,5.384799072265625,-1.1617989540100098,-0.36336222290992737,-0.28058719635009766
1790107846827743000,5.394742919921875,-1.0563430786132812,-0.2878762483596802,-0.2643810510635376
1790107846837688000,5.40468798828125,-0.928439736366272,-0.2054825872182846,-0.23678778111934662
1790107846847632000,5.4146318359375,-0.8064600229263306,-0.24536928534507751,-0.2137216031551361
1790107846857576200,5.424576171875,-0.6962307095527649,-0.3218565881252289,-0.17781154811382294
1790107846867521000,5.43452099609375,-0.5865889191627502,-0.40798747539520264,-0.10680927336215973
1790107846877465000,5.444465087890625,-0.49435994029045105,-0.4691440463066101,-0.01840164326131344
1790107846887409000,5.454408935546875,-0.4138011634349823,-0.4395528733730316,0.08973920345306396
1790107846897353000,5.46435302734375,-0.3618255853652954,-0.3666086196899414,0.18841411173343658
1790107846907298000,5.474298095703125,-0.3409583866596222,-0.35071009397506714,0.1959894746541977
1790107846917242000,5.4842421875,-0.31990957260131836,-0.32449764013290405,0.12618429958820343
1790107846927186000,5.49418603515625,-0.3067657947540283,-0.24961408972740173,0.055215850472450256
1790107846937131000,5.504131103515625,-0.3341127336025238,-0.1934964954853058,0.02478444203734398
1790107846947075000,5.514074951171875,-0.35896241664886475,-0.109303317964077,0.01853666640818119
1790107846957019100,5.52401904296875,-0.3534243702888489,-0.03206206113100052,0.01763092540204525
1790107846966964000,5.5339638671875,-0.34495657682418823,-0.017075123265385628,0.029564283788204193
1790107846976908000,5.543907958984375,-0.34371528029441833,-0.03462136164307594,0.06307856738567352
1790107846986851800,5.553851806640625,-0.37178686261177063,-0.03392680734395981,0.04463830962777138
1790107846996796200,5.563796142578125,-0.43354344367980957,-0.004995291121304035,-0.0007850998663343489
1790107847006741000,5.573740966796875,-0.51667320728302,0.052873335778713226,-0.04922853410243988
1790107847016685000,5.58368505859375,-0.6003699898719788,0.10401535034179688,-0.11539264023303986
1790107847026628900,5.59362890625,-0.6603363752365112,0.11446026712656021,-0.18872703611850739
1790107847036574200,5.60357421875,-0.6931366920471191,0.09658832103013992,-0.2340116947889328
1790107847046518000,5.61351806640625,-0.7239646315574646,0.10376367717981339,-0.25458967685699463
1790107847056462000,5.623462158203125,-0.7507333755493164,0.1820925772190094,-0.27604836225509644
1790107847066407000,5.633406982421875,-0.7704740762710571,0.2917780578136444,-0.3130023777484894
1790107847076351000,5.64335107421875,-0.7967594861984253,0.3654477596282959,-0.3459094762802124
1790107847086295000,5.653294921875,-0.8265546560287476,0.3364744186401367,-0.3708297312259674
1790107847096239000,5.663239013671875,-0.8465414047241211,0.24777917563915253,-0.3882406949996948
1790107847106184000,5.673183837890625,-0.8525788187980652,0.05066530779004097,-0.4269116520881653
1790107847116128000,5.6831279296875,-0.8725402355194092,-0.1683349460363388,-0.48530304431915283
1790107847126071800,5.69307177734375,-0.8929752111434937,-0.27087730169296265,-0.5168769359588623
1790107847136017200,5.70301708984375,-0.9154024720191956,-0.2652817368507385,-0.5030170679092407
1790107847145961000,5.7129609375,-0.9372255206108093,-0.16210980713367462,-0.4386380612850189
1790107847155905000,5.722905029296875,-0.958988606929779,-0.03271879628300667,-0.36926060914993286
1790107847165850000,5.73285009765625,-0.9592980742454529,0.10121423751115799,-0.3454554080963135
1790107847175794200,5.742794189453125,-0.9472177028656006,0.11121973395347595,-0.3873178958892822
1790107847185738000,5.752738037109375,-0.9485213160514832,0.03645468130707741,-0.4508710503578186
1790107847195682000,5.76268212890625,-0.9631505608558655,-0.12850338220596313,-0.5382214188575745
1790107847205627000,5.772626953125,-0.9868412613868713,-0.2808460593223572,-0.5999271273612976
1790107847215571000,5.782571044921875,-0.9686196446418762,-0.32235434651374817,-0.589078426361084
1790107847225515000,5.792514892578125,-0.9189208149909973,-0.20877611637115479,-0.4934470057487488
1790107847235460000,5.802460205078125,-0.9323801398277283,0.050827495753765106,-0.3529127836227417
1790107847245404000,5.81240380859375,-1.0362154245376587,0.38863882422447205,-0.24134577810764313
1790107847255348000,5.822347900390625,-1.114188551902771,0.6282815337181091,-0.16635754704475403
1790107847265293000,5.83229296875,-1.1321907043457031,0.7130925059318542,-0.10036442428827286
1790107847275237000,5.842237060546875,-1.1496080160140991,0.6608463525772095,-0.060022857040166855
1790107847285181000,5.852180908203125,-1.1449185609817505,0.4626970589160919,-0.11395213752985
1790107847295125000,5.862125,-1.1396023035049438,0.23548921942710876,-0.23589961230754852
1790107847305070000,5.872070068359375,-1.1722856760025024,-0.026148779317736626,-0.2676095962524414
1790107847315014100,5.88201416015625,-1.1729443073272705,-0.07365504652261734,-0.2527097463607788
1790107847324958200,5.891958251953125,-1.1392065286636353,0.07672380656003952,-0.16804386675357819
1790107847334903000,5.901903076171875,-1.040000557899475,0.11530022323131561,-0.10945884883403778
1790107847344846800,5.911846923828125,-0.9220691919326782,-0.1278328001499176,-0.1677519828081131
1790107847354791200,5.921791259765625,-0.8203542828559875,-0.48927515745162964,-0.23612651228904724
1790107847364735200,5.9317353515625,-0.7267473340034485,-0.7518143653869629,-0.22036778926849365
1790107847374680000,5.94168017578125,-0.6372952461242676,-0.6475950479507446,-0.15247182548046112
1790107847384624000,5.9516240234375,-0.5058898329734802,-0.29420074820518494,-0.12916597723960876
1790107847394568000,5.96156787109375,-0.43041449785232544,0.01212883461266756,-0.06828398257493973
1790107847404513000,5.971512939453125,-0.33413615822792053,0.12954974174499512,-0.0225007813423872
1790107847414457000,5.98145703125,-0.23726874589920044,0.1611422896385193,0.033177927136421204
1790107847424401200,5.991401123046875,-0.1751803308725357,0.17790955305099487,0.17442665994167328
1790107847434346000,6.001345947265625,-0.14853593707084656,0.30281978845596313,0.292813241481781
1790107847444290000,6.0112900390625,-0.09580721706151962,0.4774259626865387,0.36187857389450073
1790107847454234000,6.021234130859375,-0.04290299117565155,0.5793136954307556,0.40475761890411377
1790107847464178200,6.03117822265625,0.002855441300198436,0.5571780204772949,0.4297407269477844
1790107847474123000,6.041123046875,0.08873945474624634,0.5300686359405518,0.451774924993515
1790107847484067000,6.051067138671875,0.19737352430820465,0.532290518283844,0.42778488993644714
1790107847494011100,6.06101123046875,0.3061276972293854,0.4633775055408478,0.4007048010826111
1790107847503956000,6.0709560546875,0.4249321222305298,0.3543783128261566,0.4016001522541046
1790107847513900000,6.080900146484375,0.5411165356636047,0.31750258803367615,0.3980770707130432
1790107847523844000,6.090843994140625,0.658927321434021,0.35519057512283325,0.36930614709854126
1790107847533789200,6.1007890625,0.761817216873169,0.38055720925331116,0.3569866120815277
1790107847543733000,6.11073291015625,0.8356485366821289,0.3835503160953522,0.39962783455848694
1790107847553677000,6.120677001953125,0.9135132431983948,0.43082621693611145,0.45936307311058044
1790107847563621000,6.13062109375,0.9952366352081299,0.397499680519104,0.49863216280937195
1790107847573566000,6.14056591796875,1.059177279472351,0.3579203188419342,0.5032730102539062
1790107847583510300,6.15051025390625,1.1199053525924683,0.3887709081172943,0.5007597804069519
1790107847593454000,6.1604541015625,1.199493646621704,0.4156635105609894,0.4959924519062042
1790107847603399000,6.17039892578125,1.2932499647140503,0.4005415439605713,0.466196209192276
1790107847613343000,6.180343017578125,1.3862539529800415,0.32136818766593933,0.4311729669570923
1790107847623287000,6.190287109375,1.477447509765625,0.2587575316429138,0.3820805251598358
1790107847633230800,6.20023095703125,1.5517712831497192,0.19977383315563202,0.2961179316043854
1790107847643176000,6.210176025390625,1.610998272895813,0.1086103692650795,0.2260805368423462
1790107847653119700,6.22011962890625,1.6476266384124756,-0.004947620443999767,0.18722128868103027
1790107847663064000,6.23006396484375,1.7003809213638306,-0.07332853972911835,0.17976151406764984
1790107847673009000,6.2400087890625,1.771183967590332,-0.06646957248449326,0.20226016640663147
1790107847682953000,6.249952880859375,1.8435149192810059,-0.0647403821349144,0.20174510776996613
1790107847692896800,6.259896728515625,1.890723705291748,-0.08716579526662827,0.19072787463665009
1790107847702842000,6.269842041015625,1.876006007194519,-0.07395464926958084,0.18238365650177002
1790107847712786000,6.279785888671875,1.866071105003357,-0.03766988217830658,0.16204296052455902
1790107847722730000,6.28972998046875,1.8952080011367798,0.009467537514865398,0.16725504398345947
1790107847732673800,6.299673828125,1.9316961765289307,0.10354609787464142,0.20327907800674438
1790107847742619100,6.309619140625,1.9434095621109009,0.05253884196281433,0.18282628059387207
1790107847752563000,6.31956298828125,1.907556176185608,-0.14758625626564026,0.13572320342063904
1790107847762507000,6.329507080078125,1.8049973249435425,-0.39941343665122986,0.06638967245817184
1790107847772451800,6.339451904296875,1.6487233638763428,-0.7103529572486877,-0.026196716353297234
1790107847782396000,6.34939599609375,1.4209200143814087,-0.9961181282997131,-0.10402333736419678
1790107847792339700,6.359339599609375,1.14810049533844,-1.2204138040542603,-0.17000128328800201
1790107847802285000,6.36928515625,0.9650065302848816,-1.4174644947052002,-0.23699763417243958
1790107847812228900,6.379228759765625,0.8876789808273315,-1.5620228052139282,-0.1894756555557251
1790107847822173000,6.3891728515625,0.8638631105422974,-1.3600881099700928,-0.13542307913303375
1790107847832116700,6.39911669921875,0.8068589568138123,-0.930006206035614,-0.10073566436767578
1790107847842062000,6.40906201171875,0.7287769317626953,-0.40156686305999756,-0.07423587888479233
1790107847852006000,6.419005859375,0.6304287910461426,0.06900303810834885,0.01673423871397972
1790107847861950000,6.428949951171875,0.5376927256584167,0.5398525595664978,0.2911767065525055
1790107847871894800,6.438894775390625,0.5379167199134827,0.7954190969467163,0.5408259630203247
1790107847881839000,6.448839111328125,0.5527127385139465,0.7133753895759583,0.4808014929294586
1790107847891783000,6.458782958984375,0.5152623057365417,0.046959519386291504,0.30149751901626587
1790107847901727000,6.46872705078125,0.552989661693573,-0.7588089108467102,0.2644343078136444
1790107847911671800,6.478671875,0.745677649974823,-1.0898650884628296,0.29098230600357056
1790107847921616000,6.488615966796875,0.8823979496955872,-1.020856499671936,0.3639262914657593
1790107847931560000,6.498559814453125,0.8708289265632629,-0.8739655613899231,0.3437238037586212
1790107847941505000,6.508505126953125,0.7081867456436157,-0.9559592604637146,0.2612086832523346
1790107847951448800,6.51844873046875,0.493248850107193,-1.1779544353485107,0.1598282754421234
1790107847961393000,6.528392822265625,0.3093421459197998,-1.1964421272277832,0.12626659870147705
1790107847971338000,6.538337890625,0.1688566654920578,-1.035438060760498,0.15947487950325012
1790107847981282000,6.548281982421875,0.011504323221743107,-0.8893935084342957,0.2069569081068039
1790107847991225900,6.558225830078125,-0.1573326289653778,-0.7536082863807678,0.2536868751049042
1790107848001170000,6.568169921875,-0.28448978066444397,-0.5547292828559875,0.2903362214565277
1790107848011114800,6.57811474609375,-0.39422160387039185,-0.436420202255249,0.28697478771209717
1790107848021059000,6.58805908203125,-0.5192522406578064,-0.46392345428466797,0.25097230076789856
1790107848031003000,6.5980029296875,-0.6296956539154053,-0.5609235167503357,0.20338667929172516
1790107848040948000,6.607947998046875,-0.6766713857650757,-0.4706982672214508,0.20033682882785797
1790107848050891800,6.617891845703125,-0.7045493721961975,-0.3239668905735016,0.201363205909729
1790107848060835800,6.6278359375,-0.7640185952186584,-0.35703882575035095,0.14990933239459991
1790107848070781000,6.637781005859375,-0.8153621554374695,-0.4632161259651184,0.08165198564529419
1790107848080725000,6.64772509765625,-0.8384650945663452,-0.39982783794403076,0.07580741494894028
1790107848090668800,6.657668701171875,-0.8413373231887817,-0.22907499969005585,0.08587149530649185
1790107848100612900,6.66761279296875,-0.8529873490333557,-0.1299571990966797,0.06771832704544067
1790107848110558000,6.677557861328125,-0.8862200975418091,-0.20830845832824707,0.00845553632825613
1790107848120502000,6.687501953125,-0.884514331817627,-0.22800147533416748,-0.027467310428619385
1790107848130446000,6.697446044921875,-0.8396443724632263,-0.021412348374724388,-0.009489375166594982
1790107848140391000,6.707390869140625,-0.8010730147361755,0.2552035450935364,-0.011957593262195587
1790107848150334700,6.717334716796875,-0.8106052279472351,0.3044437766075134,-0.09830979257822037
1790107848160279000,6.727279052734375,-0.8373436331748962,0.23481330275535583,-0.197048619389534
1790107848170223000,6.73722314453125,-0.8469659090042114,0.2134784609079361,-0.23568841814994812
1790107848180168000,6.74716796875,-0.8565983176231384,0.14897723495960236,-0.2677110731601715
1790107848190112000,6.757112060546875,-0.8349718451499939,0.09004627168178558,-0.2873271107673645
1790107848200055800,6.767055908203125,-0.8100864887237549,0.08147222548723221,-0.32781460881233215
1790107848210001000,6.7770009765625,-0.8042306900024414,0.03796682134270668,-0.3593520522117615
1790107848219945000,6.786945068359375,-0.8262007236480713,0.054848868399858475,-0.4002363681793213
1790107848229889000,6.796888916015625,-0.8168375492095947,0.13015080988407135,-0.437470018863678
1790107848239833900,6.806833740234375,-0.823610782623291,0.1519802063703537,-0.4554647207260132
1790107848249778000,6.81677783203125,-0.8293203115463257,0.13910914957523346,-0.45550599694252014
1790107848259722000,6.826721923828125,-0.8075774908065796,0.1480158269405365,-0.4301058351993561
1790107848269666000,6.836666015625,-0.7979938387870789,0.17361679673194885,-0.41232338547706604
1790107848279611000,6.84661083984375,-0.8077061176300049,0.18598425388336182,-0.41306987404823303
1790107848289555000,6.856554931640625,-0.788345456123352,0.2486657351255417,-0.435789555311203
1790107848299499000,6.8664990234375,-0.773775577545166,0.33063358068466187,-0.4182603657245636
1790107848309443800,6.87644384765625,-0.7863734364509583,0.3439858555793762,-0.3700057566165924
1790107848319388000,6.886387939453125,-0.8244464993476868,0.2745990753173828,-0.33778202533721924
1790107848329332000,6.89633203125,-0.8883194923400879,0.20492278039455414,-0.3284420669078827
1790107848339277000,6.906277099609375,-0.9585659503936768,0.10688330978155136,-0.3234859108924866
1790107848349220900,6.916220947265625,-1.0738496780395508,-0.05115293338894844,-0.3410593271255493
1790107848359165000,6.9261650390625,-1.2278010845184326,-0.1788424551486969,-0.3752431273460388
1790107848369109000,6.93610888671875,-1.3424214124679565,-0.2215864509344101,-0.3946740925312042
1790107848379053800,6.9460537109375,-1.4046571254730225,-0.2305581122636795,-0.41078832745552063
1790107848388998100,6.955998046875,-1.4502438306808472,-0.24430029094219208,-0.4223496615886688
1790107848398942000,6.96594189453125,-1.4775968790054321,-0.259533554315567,-0.439636766910553
1790107848408886800,6.97588671875,-1.4804328680038452,-0.22643500566482544,-0.4308033287525177
1790107848418830800,6.985830810546875,-1.42582106590271,-0.15649160742759705,-0.3999519348144531
1790107848428775000,6.99577490234375,-1.3577580451965332,-0.09112618118524551,-0.3570561408996582
1790107848438720000,7.005719970703125,-1.263098955154419,-0.017067933455109596,-0.28332996368408203
1790107848448664000,7.0156640625,-1.2472683191299438,-0.05251380801200867,-0.22607308626174927
1790107848458607900,7.02560791015625,-1.2930139303207397,-0.15651477873325348,-0.24927587807178497
1790107848468552000,7.035552001953125,-1.3431665897369385,-0.24651017785072327,-0.29401031136512756
1790107848478497000,7.0454970703125,-1.3678972721099854,-0.2816290259361267,-0.3053806722164154
1790107848488441000,7.055441162109375,-1.379288673400879,-0.23649854958057404,-0.2815432548522949
1790107848498385000,7.065385009765625,-1.3769956827163696,-0.07831531018018723,-0.2270059883594513
1790107848508330000,7.075330078125,-1.3753687143325806,0.11086925864219666,-0.13166242837905884
1790107848518273800,7.085273681640625,-1.3754417896270752,0.21146297454833984,-0.01846715807914734
1790107848528218000,7.095218017578125,-1.2730448246002197,0.14792181551456451,0.07028321921825409
1790107848538162000,7.105161865234375,-1.1467806100845337,-0.1279824674129486,0.16886545717716217
1790107848548107000,7.11510693359375,-1.0401087999343872,-0.3143693804740906,0.27465713024139404
1790107848558050800,7.12505078125,-0.9653332829475403,-0.16198517382144928,0.2846849858760834
1790107848567995000,7.134994873046875,-0.8752108812332153,0.04007577896118164,0.25087082386016846
1790107848577940000,7.14493994140625,-0.7541486024856567,0.08162961155176163,0.3268851637840271
1790107848587884000,7.154884033203125,-0.6771531701087952,-0.06481015682220459,0.40662848949432373
1790107848597827800,7.164827880859375,-0.5825566053390503,-0.21299563348293304,0.47420671582221985
1790107848607773000,7.17477294921875,-0.4857712388038635,-0.2720027565956116,0.5813875198364258
1790107848617717000,7.184717041015625,-0.4212271273136139,-0.19491036236286163,0.6869102120399475
1790107848627661300,7.194661376953125,-0.37434643507003784,-0.19937223196029663,0.746128499507904
1790107848637605000,7.204605224609375,-0.3119725286960602,-0.1860407143831253,0.7567889094352722
1790107848647550500,7.214550537109375,-0.20548099279403687,-0.1340922862291336,0.7203294038772583
1790107848657494300,7.224494384765625,-0.07383187860250473,-0.11278833448886871,0.7078919410705566
1790107848667438300,7.234438232421875,0.04019935056567192,-0.15378956496715546,0.7455686926841736
1790107848677383200,7.244383056640625,0.1537133902311325,-0.18075832724571228,0.7738666534423828
1790107848687327200,7.2543271484375,0.27033960819244385,-0.14219841361045837,0.7696151733398438
1790107848697271300,7.264271240234375,0.3800796866416931,-0.02659912034869194,0.7671445608139038
1790107848707216400,7.27421630859375,0.49375271797180176,0.09258373081684113,0.806130051612854
1790107848717160200,7.28416015625,0.6065924763679504,0.20359653234481812,0.9127249717712402
1790107848727104300,7.294104248046875,0.7324161529541016,0.2854788899421692,1.0179085731506348
1790107848737048000,7.304048095703125,0.846551239490509,0.32635360956192017,1.0590829849243164
1790107848746993400,7.313993408203125,0.9347519874572754,0.31584450602531433,1.050156593322754
1790107848756937200,7.323937255859375,1.0117708444595337,0.2722128927707672,1.0461623668670654
1790107848766881300,7.33388134765625,1.0933141708374023,0.21657304465770721,1.0749706029891968
1790107848776826000,7.343826171875,1.176945447921753,0.15397918224334717,1.0717028379440308
1790107848786770400,7.3537705078125,1.252259612083435,0.09087318181991577,1.0383204221725464
1790107848796714200,7.36371435546875,1.329245686531067,0.007324757985770702,0.9903033971786499
1790107848806659300,7.373659423828125,1.423515796661377,0.01152802538126707,0.9478216767311096
1790107848816603100,7.38360302734375,1.52947199344635,0.04087020084261894,0.8810405135154724
1790107848826547200,7.393547119140625,1.6300119161605835,0.055687762796878815,0.8158040046691895
1790107848836491300,7.4034912109375,1.7069562673568726,0.03864672780036926,0.7600363492965698
1790107848846436400,7.413436279296875,1.7563995122909546,0.05488748475909233,0.7144851088523865
1790107848856380200,7.423380126953125,1.792854905128479,0.10140091925859451,0.6497620344161987
1790107848866324200,7.43332421875,1.818242073059082,0.07477730512619019,0.5463110208511353
1790107848876269300,7.443269287109375,1.8248701095581055,0.013689979910850525,0.4572993814945221
1790107848886213400,7.45321337890625,1.8648439645767212,-0.04398157075047493,0.3769510090351105
1790107848896157200,7.4631572265625,1.9200605154037476,-0.15071095526218414,0.3075122833251953
1790107848906101200,7.473101318359375,1.9798860549926758,-0.2878168821334839,0.25728240609169006
1790107848916046000,7.483046142578125,2.044710874557495,-0.46336764097213745,0.20476406812667847
1790107848925990400,7.492990478515625,2.0473835468292236,-0.7053456902503967,0.139049232006073
1790107848935934200,7.502934326171875,2.00093412399292,-0.8883367776870728,0.06309933960437775
1790107848945879300,7.51287939453125,1.9733935594558716,-1.1392854452133179,0.036426715552806854
1790107848955823000,7.522822998046875,1.8660486936569214,-1.4990129470825195,0.06055362522602081
1790107848965767200,7.53276708984375,1.641917109489441,-1.7066023349761963,0.045514222234487534
1790107848975712300,7.542712158203125,1.4771041870117188,-1.7464320659637451,-0.010683802887797356
1790107848985656300,7.55265625,1.3435375690460205,-1.5829355716705322,-0.12758885324001312
1790107848995600100,7.56260009765625,1.1970043182373047,-1.2833133935928345,-0.0867181196808815
1790107849005544200,7.572544189453125,1.0607324838638306,-0.9634973406791687,0.11083437502384186
1790107849015489300,7.5824892578125,0.9281816482543945,-0.4485439658164978,0.29662713408470154
1790107849025433300,7.592433349609375,0.6888132691383362,0.1772053986787796,0.5429553985595703
1790107849035377200,7.602377197265625,0.5111327767372131,0.7293828129768372,0.8997511267662048
1790107849045322200,7.612322265625,0.5197883248329163,0.9648603200912476,1.1271544694900513
1790107849055266000,7.62226611328125,0.5689470767974854,0.8184738159179688,0.9387440085411072
1790107849065210400,7.63221044921875,0.5655717849731445,0.13177719712257385,0.640845775604248
1790107849075154400,7.642154541015625,0.5346633791923523,-0.6363421082496643,0.5992514491081238
1790107849085099300,7.652099365234375,0.5987891554832458,-1.1016520261764526,0.6708484292030334
1790107849095043000,7.66204296875,0.741640567779541,-1.1878741979599,0.6825359463691711
1790107849104987100,7.671987060546875,0.7418195009231567,-1.0703330039978027,0.632402241230011
1790107849114932200,7.68193212890625,0.6329388618469238,-0.8896137475967407,0.5814956426620483
1790107849124876300,7.691876220703125,0.48860830068588257,-0.9062929153442383,0.5046746134757996
1790107849134820000,7.701820068359375,0.30569785833358765,-1.023345947265625,0.5008372664451599
1790107849144765200,7.71176513671875,0.13972167670726776,-1.0020450353622437,0.5227111577987671
1790107849154709200,7.721709228515625,-0.039619848132133484,-0.9029615521430969,0.48722586035728455
1790107849164653300,7.7316533203125,-0.2411862462759018,-0.7652215361595154,0.4251936376094818
1790107849174597400,7.741597412109375,-0.4509293735027313,-0.6342616081237793,0.34377121925354004
1790107849184542200,7.751542236328125,-0.6222744584083557,-0.4146651029586792,0.2741609811782837
1790107849194486000,7.761486083984375,-0.7637189626693726,-0.2117687165737152,0.19083067774772644
1790107849204430300,7.771430419921875,-0.9217493534088135,-0.32482922077178955,0.06312970072031021
1790107849214375200,7.781375244140625,-1.0214991569519043,-0.42534545063972473,0.0054216631688177586
1790107849224319200,7.7913193359375,-1.0383025407791138,-0.24406273663043976,0.054542869329452515
1790107849234263300,7.80126318359375,-1.0476140975952148,-0.01913907378911972,0.08392419666051865
1790107849244208400,7.81120849609375,-1.0675278902053833,0.1029287800192833,0.06966749578714371
1790107849254152200,7.821152099609375,-1.0947389602661133,0.07542072236537933,0.025912823155522346
1790107849264096300,7.83109619140625,-1.0923967361450195,0.15096208453178406,0.023786289617419243
1790107849274040300,7.841040283203125,-1.0380884408950806,0.39530524611473083,0.07507637143135071
1790107849283985200,7.850985107421875,-1.007785439491272,0.4119132459163666,0.06448019295930862
1790107849293929200,7.86092919921875,-0.994720995426178,0.14039279520511627,-0.011314972303807735
1790107849303873300,7.870873291015625,-0.9096159934997559,0.17979080975055695,-0.00472577940672636
1790107849313818000,7.880818115234375,-0.74463951587677,0.6406553387641907,0.13546621799468994
1790107849323762200,7.89076220703125,-0.7322733998298645,0.5320505499839783,0.12569774687290192
1790107849333706200,7.900706298828125,-0.8022897839546204,0.15890230238437653,0.03985686972737312
1790107849343650300,7.910650390625,-0.8533836007118225,-0.0995636060833931,-0.015306252054870129
1790107849353595100,7.92059521484375,-0.8762063384056091,-0.1508595496416092,-0.03575879707932472
1790107849363539200,7.930539306640625,-0.8613107800483704,0.04488598182797432,0.022043516859412193
1790107849373483300,7.940483154296875,-0.8602388501167297,0.1382279098033905,0.09825120121240616
1790107849383428400,7.950428466796875,-0.8945299983024597,-0.03187564015388489,0.10178468376398087
1790107849393372400,7.960372314453125,-0.9647889733314514,-0.19520384073257446,0.06456620991230011
1790107849403316200,7.970316162109375,-1.0545744895935059,-0.09928610920906067,0.037040043622255325
1790107849413261000,7.980260986328125,-1.0789655447006226,0.08259234577417374,-0.08302325010299683
1790107849423205000,7.990205078125,-1.0828295946121216,0.024928253144025803,-0.29844236373901367
1790107849433149400,8.0001494140625,-1.1716140508651733,-0.09836358577013016,-0.5210959315299988
1790107849443093200,8.01009326171875,-1.2773679494857788,-0.022661102935671806,-0.6503849625587463
1790107849453038300,8.020038330078124,-1.3379113674163818,0.09820779412984848,-0.604085385799408
1790107849462982100,8.029982177734375,-1.3337560892105103,0.20516939461231232,-0.40938085317611694
1790107849472926200,8.03992626953125,-1.2835725545883179,0.15045075118541718,-0.19347013533115387
1790107849482871300,8.049871337890625,-1.2136847972869873,-0.02014761231839657,-0.08473805338144302
1790107849492815400,8.0598154296875,-1.1158394813537598,-0.17967627942562103,-0.08757618814706802
1790107849502759200,8.06975927734375,-1.0162761211395264,-0.2221108227968216,-0.2439788430929184
1790107849512704300,8.079704345703124,-0.8989761471748352,-0.13717542588710785,-0.528706431388855
1790107849522648300,8.0896484375,-0.7626595497131348,-0.021950839087367058,-0.7488508224487305
1790107849532592400,8.09959228515625,-0.6808909177780151,0.056603092700242996,-0.6899605989456177
1790107849542536200,8.1095361328125,-0.6723008751869202,0.24633601307868958,-0.3387695252895355
1790107849552481300,8.119481201171874,-0.7049261927604675,0.5215505361557007,0.10517408698797226
1790107849562425000,8.129425048828125,-0.8347532153129578,0.5890025496482849,0.41130444407463074
1790107849572369400,8.139369384765626,-1.081972360610962,0.37355732917785645,0.3424566686153412
1790107849582314200,8.149314208984375,-1.2827833890914917,-0.035291410982608795,0.04247741773724556
1790107849592258300,8.15925830078125,-1.1482315063476562,-0.5221665501594543,-0.26907992362976074
1790107849602202000,8.1692021484375,-0.9949801564216614,-1.010395884513855,-0.4513362944126129
1790107849612147500,8.1791474609375,-0.9761462807655334,-1.3660626411437988,-0.5999966263771057
1790107849622091000,8.189091064453125,-1.0241345167160034,-1.2813853025436401,-0.7110142111778259
1790107849632035000,8.19903515625,-1.1035326719284058,-0.7357150316238403,-0.7331677079200745
1790107849641979100,8.208979248046875,-1.2177317142486572,-0.021335115656256676,-0.6833918690681458
1790107849651924200,8.21892431640625,-1.3491309881210327,0.5120837688446045,-0.5358163118362427
1790107849661868000,8.228867919921875,-1.3680589199066162,0.6344448328018188,-0.21809610724449158
1790107849671812000,8.23881201171875,-1.3383694887161255,0.3688046634197235,0.1704005002975464
1790107849681757200,8.248757080078125,-1.1134902238845825,0.327334463596344,0.45659658312797546
1790107849691701200,8.258701171875,-0.9489045143127441,0.7927767038345337,0.552383303642273
1790107849701645000,8.26864501953125,-0.8857133388519287,1.261389970779419,0.5447738170623779
1790107849711589000,8.278589111328126,-0.8605338931083679,1.4115139245986938,0.525412380695343
1790107849721534000,8.288533935546875,-0.8703287839889526,1.1982896327972412,0.549403727054596
1790107849731478300,8.298478271484376,-0.9199780821800232,0.8313754796981812,0.5910071134567261
1790107849741422000,8.308422119140625,-0.9189817905426025,0.5500847101211548,0.5508274435997009
1790107849751367200,8.3183671875,-0.8334745764732361,0.3154942989349365,0.4799543619155884
1790107849761311000,8.32831103515625,-0.7692535519599915,0.07826471328735352,0.40010133385658264
1790107849771255000,8.338255126953126,-0.7304654121398926,-0.11157099902629852,0.2822692394256592
1790107849781200100,8.3482001953125,-0.6538827419281006,-0.16285470128059387,0.16784413158893585
1790107849791144200,8.358144287109376,-0.5438119173049927,-0.2310185730457306,0.10191331803798676
1790107849801088000,8.368087890625,-0.4450506865978241,-0.32691100239753723,0.05765131115913391
1790107849811032000,8.378031982421875,-0.34744319319725037,-0.25848427414894104,-0.005119927227497101
1790107849820977200,8.38797705078125,-0.2596134543418884,-0.022774821147322655,-0.059607669711112976
1790107849830921200,8.397921142578125,-0.14133502542972565,0.30442196130752563,-0.08532794564962387
1790107849840865000,8.407864990234375,-0.054900798946619034,0.4065810739994049,-0.057439323514699936
1790107849850810000,8.41781005859375,-0.03199628368020058,0.2599828541278839,-0.06543946266174316
1790107849860754000,8.42775390625,0.05516871437430382,0.11807497590780258,-0.15369874238967896
1790107849870698200,8.4376982421875,0.1659546196460724,-0.02502865344285965,-0.2742914855480194
1790107849880642000,8.44764208984375,0.22231030464172363,-0.0010330402292311192,-0.3021305501461029
1790107849890587100,8.457587158203125,0.22620490193367004,0.22477611899375916,-0.2236621230840683
1790107849900531000,8.467531005859374,0.2105196863412857,0.4208122193813324,-0.12730468809604645
1790107849910475000,8.47747509765625,0.19938448071479797,0.3992413878440857,-0.12657232582569122
1790107849920420000,8.487420166015625,0.21340228617191315,0.17488312721252441,-0.19552955031394958
1790107849930364200,8.4973642578125,0.22221975028514862,-0.07512031495571136,-0.2726195454597473
1790107849940308000,8.507307861328124,0.19917941093444824,-0.14523868262767792,-0.2946625351905823
1790107849950253000,8.517253173828125,0.11523125320672989,-0.0659201592206955,-0.289010226726532
1790107849960197000,8.527197021484374,0.005691708065569401,0.0789928212761879,-0.2733937203884125
1790107849970141200,8.53714111328125,-0.0953424945473671,0.14078082144260406,-0.2598020136356354
1790107849980085200,8.547085205078124,-0.15352457761764526,0.025590848177671432,-0.2530146837234497
1790107849990030000,8.557030029296875,-0.17710527777671814,-0.06564559042453766,-0.279777854681015
1790107849999974000,8.566973876953124,-0.2006220519542694,-0.09002469480037689,-0.32399776577949524
1790107850009918200,8.576918212890625,-0.21217350661754608,-0.13499882817268372,-0.3635246753692627
1790107850019863000,8.586863037109374,-0.1825554370880127,-0.16304165124893188,-0.4021298587322235
1790107850029807000,8.59680712890625,-0.1278224140405655,-0.19163919985294342,-0.4195525348186493
1790107850039751200,8.606751220703124,-0.04423963278532028,-0.21902981400489807,-0.3975827693939209
1790107850049696300,8.6166962890625,0.034881819039583206,-0.2328774631023407,-0.34511372447013855
1790107850059640000,8.62664013671875,0.07350697368383408,-0.19399717450141907,-0.3091764748096466
1790107850069584100,8.636584228515625,0.08153294026851654,-0.1817825734615326,-0.30074572563171387
1790107850079528200,8.646528076171874,0.06377524882555008,-0.17969226837158203,-0.28987255692481995
1790107850089473300,8.656473388671875,0.0394696444272995,-0.18706975877285004,-0.25461605191230774
1790107850099417000,8.6664169921875,0.02864176407456398,-0.19675514101982117,-0.2102845311164856
1790107850109361200,8.676361083984375,0.031062578782439232,-0.1997820883989334,-0.17811860144138336
1790107850119306000,8.686305908203124,0.011027883738279343,-0.19114865362644196,-0.17459072172641754
1790107850129250000,8.69625,-0.006711698602885008,-0.2610662281513214,-0.18209896981716156
1790107850139194000,8.706194091796876,-0.02707076631486416,-0.3447592556476593,-0.1452658474445343
1790107850149139200,8.71613916015625,0.007451790850609541,-0.41260939836502075,-0.05700736120343208
1790107850159083000,8.7260830078125,0.06135283783078194,-0.42916548252105713,0.03737080842256546
1790107850169027000,8.736027099609375,0.0833369642496109,-0.4227946698665619,0.1103275716304779
1790107850178971100,8.74597119140625,0.06671937555074692,-0.3671092987060547,0.12501730024814606
1790107850188916200,8.755916259765625,0.04324867203831673,-0.21730142831802368,0.1079256683588028
1790107850198860300,8.7658603515625,0.03249509260058403,-0.06090942397713661,0.08925877511501312
1790107850208804000,8.77580419921875,0.03556837886571884,0.014740063808858395,0.1052049845457077
1790107850218749000,8.7857490234375,0.026327744126319885,0.0018940401496365666,0.14426583051681519
1790107850228693200,8.795693359375,0.009333580732345581,-0.016944628208875656,0.1953631043434143
1790107850238637300,8.80563720703125,0.0038211036007851362,0.010004697367548943,0.243202805519104
1790107850248581000,8.8155810546875,0.010779144242405891,0.0437469482421875,0.28775960206985474
1790107850258526200,8.825526123046876,0.037692517042160034,0.046361107379198074,0.3450777530670166
1790107850268470000,8.835469970703125,0.08997835963964462,0.04170643538236618,0.4192177653312683
1790107850278414000,8.8454140625,0.15315572917461395,0.057255033403635025,0.5205854177474976
1790107850288359200,8.855359130859375,0.1898423731327057,0.060628991574048996,0.6563845276832581
1790107850298303200,8.86530322265625,0.2175253927707672,0.18508170545101166,0.8124484419822693
1790107850308247000,8.8752470703125,0.28740087151527405,0.4632536768913269,0.9231975674629211
1790107850318192000,8.885192138671876,0.3541346490383148,0.6679146885871887,0.9235072731971741
1790107850328136200,8.89513623046875,0.3989061117172241,0.6256473660469055,0.8870848417282104
1790107850338080300,8.905080322265626,0.422523558139801,0.39293211698532104,0.882864773273468
1790107850348024000,8.915024169921875,0.450509637594223,0.19964680075645447,0.8685380220413208
1790107850357969200,8.92496923828125,0.49119049310684204,0.08237956464290619,0.8281149864196777
1790107850367913200,8.934913330078125,0.5468263030052185,0.06401386857032776,0.7715893983840942
1790107850377857300,8.944857177734375,0.6096590757369995,0.10240280628204346,0.745678186416626
1790107850387802000,8.954802001953125,0.6741440892219543,0.1463630646467209,0.7532639503479004
1790107850397746200,8.96474609375,0.757716715335846,0.19787846505641937,0.8025398850440979
1790107850407690000,8.97468994140625,0.8652871251106262,0.2560693323612213,0.8748324513435364
1790107850417635300,8.98463525390625,0.9929742813110352,0.27322354912757874,0.9357578158378601
1790107850427579100,8.9945791015625,1.1328024864196777,0.2590712308883667,0.9638988971710205
1790107850437523200,9.004523193359375,1.2741981744766235,0.26349368691444397,0.9485151767730713
1790107850447467000,9.014467041015624,1.4091354608535767,0.27460119128227234,0.8792527318000793
1790107850457412400,9.024412353515626,1.5345749855041504,0.21016521751880646,0.785493791103363
1790107850467356200,9.034356201171875,1.6496000289916992,0.10795789211988449,0.7201815843582153
1790107850477300200,9.04430029296875,1.747348666191101,0.0010327738709747791,0.6888692378997803
1790107850487245000,9.0542451171875,1.843798041343689,-0.08849924057722092,0.6755006909370422
1790107850497189000,9.064189208984375,1.9251176118850708,-0.186832994222641,0.6724564433097839
1790107850507133200,9.07413330078125,1.9985545873641968,-0.30651411414146423,0.6696749925613403
1790107850517077200,9.0840771484375,2.0677783489227295,-0.4765854477882385,0.6680307984352112
1790107850527022000,9.09402197265625,2.1222221851348877,-0.6711245775222778,0.6160067319869995
1790107850536966100,9.103966064453125,2.1501550674438477,-0.7990742921829224,0.5734542012214661
1790107850546910000,9.113909912109374,2.1438424587249756,-0.9669343829154968,0.5761842131614685
1790107850556855300,9.123855224609375,2.006967067718506,-1.0871726274490356,0.6315774321556091
1790107850566799000,9.133799072265624,1.7387733459472656,-1.05194091796875,0.7780550122261047
1790107850576743200,9.1437431640625,1.4705696105957031,-0.7693869471549988,0.9510321021080017
1790107850586688000,9.15368798828125,1.3707300424575806,-0.29763782024383545,0.9797244668006897
1790107850596632300,9.16363232421875,1.386243462562561,0.13336125016212463,0.8845961093902588
1790107850606576000,9.173576171875,1.3549593687057495,0.4608626961708069,0.7883880734443665
1790107850616520200,9.183520263671875,1.3649379014968872,0.4897465407848358,0.7186175584793091
1790107850626464500,9.193464599609374,1.3852407932281494,0.25599849224090576,0.741273820400238
1790107850636408600,9.20340869140625,1.3969910144805908,-0.3422950208187103,0.76869136095047
1790107850646352600,9.2133525390625,1.335120677947998,-0.9081019759178162,0.687623143196106
1790107850656297700,9.223297607421875,1.1545392274856567,-0.997702956199646,0.5464521646499634
1790107850666241500,9.233241455078126,0.93515545129776,-0.9222822189331055,0.49150076508522034
1790107850676185600,9.243185546875,0.7052735090255737,-0.7869665026664734,0.5095585584640503
1790107850686130400,9.25313037109375,0.5215888619422913,-0.7254530787467957,0.542229950428009
1790107850696074800,9.26307470703125,0.3437725603580475,-0.687770426273346,0.5815430283546448
1790107850706018600,9.2730185546875,0.22586987912654877,-0.5319243669509888,0.615981936454773
1790107850715962600,9.282962646484375,0.2570895850658417,-0.3925219774246216,0.6216393113136292
1790107850725907500,9.292907470703126,0.3824975788593292,-0.5501044392585754,0.5970208048820496
1790107850735851500,9.3028515625,0.4159996211528778,-0.6808485984802246,0.5641217231750488
1790107850745795800,9.3127958984375,0.3804352283477783,-0.6121688485145569,0.5494423508644104
1790107850755740700,9.32274072265625,0.2869854271411896,-0.46708887815475464,0.552903413772583
1790107850765684500,9.3326845703125,0.14464133977890015,-0.32009226083755493,0.5731487274169922
1790107850775628500,9.342628662109375,0.006047772243618965,-0.31412944197654724,0.5693827867507935
1790107850785573600,9.35257373046875,-0.09863203763961792,-0.17990052700042725,0.562774658203125
1790107850795517700,9.362517578125,-0.19488027691841125,-0.02791392244398594,0.5347736477851868
1790107850805461800,9.372461669921876,-0.3017161786556244,-0.024100275710225105,0.46614372730255127
1790107850815405600,9.382405517578125,-0.39037519693374634,-0.053415555506944656,0.3888944983482361
1790107850825350400,9.392350341796876,-0.4497402608394623,-0.03765816241502762,0.33115261793136597
1790107850835294700,9.402294677734375,-0.48044678568840027,-0.014977085404098034,0.2911684513092041
1790107850845238800,9.41223876953125,-0.5053452253341675,-0.09212140738964081,0.260761559009552
1790107850855183600,9.42218359375,-0.5319315195083618,-0.1774490922689438,0.2585764229297638
1790107850865127700,9.432127685546876,-0.5615783929824829,-0.19650720059871674,0.2831616699695587
1790107850875071500,9.442071533203125,-0.5843443870544434,-0.117970310151577,0.30220088362693787
1790107850885016600,9.4520166015625,-0.606259286403656,0.013109143823385239,0.30569255352020264
1790107850894960600,9.461960693359375,-0.6412782669067383,0.08713357150554657,0.28504398465156555
1790107850904904700,9.47190478515625,-0.6875906586647034,0.05952138453722,0.22312922775745392
1790107850914848500,9.4818486328125,-0.7242791652679443,-0.0021784657146781683,0.14692632853984833
1790107850924793600,9.491793701171876,-0.7324249744415283,0.031256191432476044,0.09769806265830994
1790107850934737700,9.501737548828125,-0.7190670967102051,0.13979464769363403,0.06311212480068207
1790107850944681700,9.511681640625,-0.729385495185852,0.12377840280532837,0.016687633469700813
1790107850954626600,9.52162646484375,-0.7426938414573669,0.04607082158327103,-0.017401626333594322
1790107850964570600,9.531570556640625,-0.7641240358352661,0.09382316470146179,-0.03598782792687416
1790107850974514700,9.5415146484375,-0.8245615363121033,0.16843003034591675,-0.105836421251297
1790107850984458800,9.551458740234375,-0.9154570698738098,0.31407830119132996,-0.1787436455488205
1790107850994403600,9.561403564453125,-1.008230209350586,0.4344121813774109,-0.25578996539115906
1790107851004347600,9.57134765625,-1.094919204711914,0.445649653673172,-0.3462524712085724
1790107851014291500,9.58129150390625,-1.1727176904678345,0.520107626914978,-0.4222681522369385
1790107851024236800,9.59123681640625,-1.2176947593688965,0.6581464409828186,-0.5018958449363708
1790107851034180600,9.6011806640625,-1.2595844268798828,0.7218202352523804,-0.615369975566864
1790107851044124700,9.611124755859375,-1.2760307788848877,0.7013735771179199,-0.7352007627487183
1790107851054069500,9.621069580078125,-1.2354973554611206,0.706379771232605,-0.7785966992378235
1790107851064013800,9.631013916015625,-1.118952989578247,0.7835366129875183,-0.7236341238021851
1790107851073957600,9.64095751953125,-1.0254895687103271,0.6881563067436218,-0.6945372223854065
1790107851083901700,9.650901611328125,-0.9729797840118408,0.5855963826179504,-0.7279186248779297
1790107851093846500,9.660846435546874,-0.9355484843254089,0.6041924357414246,-0.7416128516197205
1790107851103790600,9.67079052734375,-0.9155215620994568,0.6122633814811707,-0.7439172863960266
1790107851113734700,9.680734619140624,-0.9121294617652893,0.4745420217514038,-0.7779461145401001
1790107851123679700,9.6906796875,-0.9238942265510559,0.29948070645332336,-0.8471121191978455
1790107851133623600,9.70062353515625,-0.9244154095649719,0.1914655715227127,-0.8992919921875
1790107851143567600,9.710567626953125,-0.9400684237480164,0.13906574249267578,-0.9126266837120056
1790107851153512700,9.7205126953125,-0.9732359647750854,0.1112959012389183,-0.9206260442733765
1790107851163456800,9.730456787109375,-1.0479775667190552,0.11147512495517731,-0.9251081347465515
1790107851173400600,9.740400634765624,-1.1064307689666748,0.1853642612695694,-0.9001577496528625
1790107851183344600,9.7503447265625,-1.1608649492263794,0.2027917206287384,-0.8586039543151855
1790107851193289500,9.76028955078125,-1.2120951414108276,0.1358529031276703,-0.8468695282936096
1790107851203233800,9.77023388671875,-1.2735183238983154,-0.013895309530198574,-0.8130782842636108
1790107851213177600,9.780177490234376,-1.3213616609573364,-0.23059938848018646,-0.7913415431976318
1790107851223122700,9.790122802734375,-1.2861837148666382,-0.3058675229549408,-0.828015148639679
1790107851233066500,9.80006640625,-1.216248631477356,-0.14949068427085876,-0.8202469348907471
1790107851243010600,9.810010498046875,-1.1675337553024292,0.07171893119812012,-0.7147711515426636
1790107851252954600,9.81995458984375,-1.1613808870315552,0.16969715058803558,-0.6803620457649231
1790107851262899700,9.829899658203125,-1.1550593376159668,0.28606876730918884,-0.6813913583755493
1790107851272843500,9.839843505859376,-1.1618295907974243,0.399323433637619,-0.5622737407684326
1790107851282787600,9.84978759765625,-1.1648645401000977,0.4618845283985138,-0.36345037817955017
1790107851292732700,9.859732666015624,-1.1003038883209229,0.3896596133708954,-0.2453192174434662
1790107851302676700,9.8696767578125,-1.09012770652771,0.3808229863643646,-0.28464797139167786
1790107851312620500,9.87962060546875,-1.0963040590286255,0.4216228723526001,-0.3552883267402649
1790107851322565600,9.889565673828125,-1.0222599506378174,0.2793826460838318,-0.3858523666858673
1790107851332509400,9.899509521484376,-0.892570972442627,-0.026701118797063828,-0.2851526439189911
1790107851342453800,9.909453857421875,-0.7253425717353821,-0.004038683604449034,-0.11061359941959381
1790107851352397600,9.9193974609375,-0.6223956346511841,0.486377090215683,0.0037878139410167933
1790107851362342700,9.9293427734375,-0.589443564414978,1.1524083614349365,0.03504160791635513
1790107851372286500,9.939286376953126,-0.5565194487571716,1.3763586282730103,0.055452607572078705
1790107851382230500,9.94923046875,-0.4293556213378906,1.095886468887329,0.09099728614091873
1790107851392175600,9.959175537109376,-0.28399255871772766,0.7526947855949402,0.132024884223938
1790107851402119700,9.96911962890625,-0.20548711717128754,0.6526720523834229,0.20829381048679352
1790107851412063500,9.9790634765625,-0.17643389105796814,0.7658383250236511,0.25560247898101807
1790107851422007600,9.989007568359375,-0.13434796035289764,0.7547121644020081,0.29081904888153076
1790107851431952600,9.99895263671875,-0.054967645555734634,0.6379738450050354,0.3124881386756897
1790107851441896700,10.008896728515625,0.05867130309343338,0.6733214259147644,0.2955365777015686
1790107851451840500,10.018840576171876,0.1521570384502411,0.8159299492835999,0.2546461224555969
1790107851461785600,10.02878564453125,0.2381577044725418,0.8697532415390015,0.24711018800735474
1790107851471729400,10.0387294921875,0.3134891986846924,0.7784350514411926,0.27630457282066345
1790107851481673700,10.048673828125,0.39931970834732056,0.6395229697227478,0.3274220824241638
1790107851491618600,10.05861865234375,0.5056266784667969,0.6866635680198669,0.3424026072025299
1790107851501562600,10.068562744140625,0.616794228553772,0.7923628687858582,0.3247477114200592
1790107851511506400,10.07850634765625,0.7270136475563049,0.8904726505279541,0.2888405919075012
1790107851521450500,10.088450439453124,0.8291781544685364,0.9733906984329224,0.22656549513339996
1790107851531395600,10.0983955078125,0.9266951084136963,1.0508897304534912,0.1896120011806488
1790107851541339600,10.108339599609375,1.0405648946762085,1.043933629989624,0.22112758457660675
1790107851551283700,10.11828369140625,1.1445778608322144,1.0285098552703857,0.24751845002174377
1790107851561228500,10.128228515625,1.2464277744293213,1.1444308757781982,0.2222871333360672
1790107851571172600,10.138172607421875,1.3261847496032715,1.197290062904358,0.2270675003528595
1790107851581116700,10.14811669921875,1.3789196014404297,1.0709813833236694,0.2648867964744568
1790107851591061500,10.1580615234375,1.4370691776275635,0.8269280195236206,0.2604757845401764
1790107851601005600,10.168005615234375,1.4883594512939453,0.7398014068603516,0.1520550400018692
1790107851610949600,10.17794970703125,1.5625392198562622,0.8583400249481201,-0.0031214910559356213
1790107851620893700,10.187893798828124,1.6410152912139893,0.9607795476913452,-0.11171534657478333
1790107851630839300,10.19783935546875,1.7183663845062256,0.8504400253295898,-0.18042996525764465
1790107851640783400,10.207783447265625,1.7942885160446167,0.6759600639343262,-0.24226216971874237
1790107851650727200,10.21772705078125,1.889447569847107,0.6366220116615295,-0.2781165838241577
1790107851660672300,10.22767236328125,1.9613946676254272,0.6094651818275452,-0.2985680401325226
1790107851670616000,10.237615966796875,1.989729404449463,0.4671892821788788,-0.29640236496925354
1790107851680560400,10.247560302734374,1.9899789094924927,0.2928995192050934,-0.3248838186264038
1790107851690505200,10.257505126953125,2.004141330718994,0.14556598663330078,-0.40317675471305847
1790107851700449300,10.26744921875,2.0023043155670166,-0.0014053500490263104,-0.4636824429035187
1790107851710393000,10.27739306640625,1.9804341793060303,-0.21465611457824707,-0.42356669902801514
1790107851720337200,10.287337158203124,1.9336389303207397,-0.4584333598613739,-0.35209837555885315
1790107851730282200,10.2972822265625,1.8453516960144043,-0.4948994815349579,-0.29000920057296753
1790107851740226300,10.307226318359374,1.6977553367614746,-0.4052359163761139,-0.31117865443229675
1790107851750170000,10.317170166015625,1.5042492151260376,-0.34895798563957214,-0.37457865476608276
1790107851760115200,10.327115234375,1.3184266090393066,-0.3669159412384033,-0.45284125208854675
1790107851770059300,10.337059326171875,1.2120320796966553,-0.24174870550632477,-0.48245638608932495
1790107851780003300,10.34700341796875,1.110015630722046,0.005019792355597019,-0.44945237040519714
1790107851789947400,10.356947509765625,0.9833924770355225,0.2912387549877167,-0.34523969888687134
1790107851799892200,10.366892333984374,0.9185471534729004,0.6892037391662598,-0.1993253529071808
1790107851809836000,10.3768359375,0.8773823976516724,1.182918667793274,-0.05711042508482933
1790107851819780400,10.3867802734375,0.8482538461685181,1.2277284860610962,0.05375777184963226
1790107851829725200,10.39672509765625,0.8718219995498657,0.7140472531318665,-0.015149657614529133
1790107851839669200,10.406669189453124,0.8187345266342163,0.14503495395183563,-0.1427536904811859
1790107851849613300,10.41661328125,0.8001246452331543,-0.16048873960971832,-0.16069966554641724
1790107851859558400,10.426558349609374,0.8938159942626953,-0.270920991897583,-0.16524861752986908
1790107851869502200,10.436502197265625,0.8974021673202515,-0.2148396074771881,-0.15010668337345123
1790107851879446300,10.4464462890625,0.9233821034431458,-0.08831095695495605,-0.07569422572851181
1790107851889390300,10.456390380859375,0.8941009640693665,-0.051358796656131744,-0.06548606604337692
1790107851899335200,10.466335205078124,0.7704828381538391,-0.1274932473897934,-0.12983283400535583
1790107851909279200,10.476279296875,0.6172000765800476,-0.21373119950294495,-0.19928327202796936
1790107851919223300,10.486223388671876,0.5094110369682312,-0.1492193043231964,-0.2671765685081482
1790107851929168100,10.496168212890625,0.34769299626350403,-0.32782527804374695,-0.3781092166900635
1790107851939112200,10.5061123046875,0.14625787734985352,-0.5526857972145081,-0.49504515528678894
1790107851949056300,10.51605615234375,0.01787726767361164,-0.36485812067985535,-0.5382384061813354
1790107851959001300,10.52600146484375,-0.11431165784597397,0.03953036665916443,-0.5448915362358093
1790107851968945200,10.535945068359375,-0.3001827299594879,0.08597935736179352,-0.5664868354797363
1790107851978889200,10.54588916015625,-0.4766656160354614,-0.07185661047697067,-0.5745192170143127
1790107851988833300,10.555833251953125,-0.5802212953567505,0.10695281624794006,-0.5152385830879211
1790107851998778400,10.5657783203125,-0.6883421540260315,0.29462072253227234,-0.49698951840400696
1790107852008722400,10.575722412109375,-0.7868005633354187,0.3075421154499054,-0.5429223775863647
1790107852018666200,10.585666259765626,-0.857609212398529,0.14436542987823486,-0.6212939023971558
1790107852028611000,10.595611083984375,-0.8704839944839478,0.13790194690227509,-0.6282892227172852
1790107852038555100,10.60555517578125,-0.824662446975708,0.49038994312286377,-0.5474393963813782
1790107852048499500,10.61549951171875,-0.840493381023407,0.47070813179016113,-0.5891431570053101
1790107852058444300,10.6254443359375,-0.8670224547386169,0.1577177196741104,-0.713325023651123
1790107852068388000,10.63538818359375,-0.8147677779197693,0.29163503646850586,-0.7112650871276855
1790107852078332200,10.645332275390626,-0.721771776676178,0.9838398694992065,-0.5675010085105896
1790107852088276200,10.655276123046875,-0.7558754086494446,0.9822142720222473,-0.5880882740020752
1790107852098221300,10.66522119140625,-0.8087727427482605,0.4864490032196045,-0.6755036115646362
1790107852108165400,10.675165283203125,-0.8084132075309753,0.18625536561012268,-0.6742977499961853
1790107852118109200,10.685109130859376,-0.8037849068641663,0.31085214018821716,-0.6206803321838379
1790107852128054000,10.695053955078125,-0.8333787322044373,0.5597525238990784,-0.603718638420105
1790107852137998300,10.704998291015626,-0.8791036009788513,0.5470595955848694,-0.6697487831115723
1790107852147942400,10.7149423828125,-0.9198619723320007,0.3474021852016449,-0.7345959544181824
1790107852157886200,10.72488623046875,-0.9894897937774658,0.23619762063026428,-0.7645959258079529
1790107852167831300,10.734831298828125,-1.0891921520233154,0.24548566341400146,-0.7958816885948181
1790107852177775000,10.744775146484375,-1.1884151697158813,0.2482268512248993,-0.8362711668014526
1790107852187719400,10.754719482421875,-1.2428772449493408,0.17911408841609955,-0.8671231269836426
1790107852197664300,10.764664306640626,-1.2457013130187988,0.12309662997722626,-0.8582177758216858
1790107852207608300,10.7746083984375,-1.201985478401184,0.08612609654664993,-0.8353052735328674
1790107852217552100,10.78455224609375,-1.179412603378296,-0.0901583880186081,-0.9001521468162537
1790107852227496200,10.79449609375,-1.1630074977874756,-0.281386137008667,-1.0110912322998047
1790107852237441300,10.804441162109375,-1.1523481607437134,-0.3311920464038849,-1.0867066383361816
1790107852247385300,10.81438525390625,-1.1531494855880737,-0.25184395909309387,-1.0947905778884888
1790107852257329200,10.8243291015625,-1.1404359340667725,-0.14961452782154083,-1.0919077396392822
1790107852267274200,10.834274169921875,-1.112685203552246,-0.020480507984757423,-1.0994540452957153
1790107852277218300,10.84421826171875,-1.124502182006836,0.07278898358345032,-1.1263597011566162
1790107852287162400,10.854162353515624,-1.1812940835952759,0.041068073362112045,-1.1865642070770264
1790107852297107200,10.864107177734375,-1.2330323457717896,-0.07161373645067215,-1.2439841032028198
1790107852307051300,10.87405126953125,-1.245678186416626,-0.17782938480377197,-1.2696501016616821
1790107852316995000,10.8839951171875,-1.231422781944275,-0.23202630877494812,-1.2717853784561157
1790107852326939400,10.893939453125,-1.2102069854736328,-0.18579569458961487,-1.2997291088104248
1790107852336884200,10.90388427734375,-1.216187596321106,-0.2216048240661621,-1.3446813821792603
1790107852346828300,10.913828369140624,-1.2248802185058594,-0.2771591544151306,-1.3506053686141968
1790107852356772000,10.923772216796875,-1.220062494277954,-0.27145200967788696,-1.2504438161849976
1790107852366717400,10.933717529296874,-1.1748346090316772,-0.19578973948955536,-1.1578118801116943
1790107852376661200,10.9436611328125,-1.1062190532684326,-0.07609103620052338,-1.0992037057876587
1790107852386605300,10.953605224609374,-1.0283203125,0.03629515692591667,-1.0980207920074463
1790107852396550100,10.963550048828125,-1.0277622938156128,0.3125895857810974,-1.0393785238265991
1790107852406494200,10.973494140625,-1.0607298612594604,0.4833911657333374,-0.9569981694221497
1790107852416438300,10.983438232421875,-1.060559630393982,0.5639139413833618,-0.8589743971824646
1790107852426382300,10.99338232421875,-1.0820345878601074,0.4548279643058777,-0.8040748834609985
1790107852436327200,11.0033271484375,-1.0956138372421265,0.2518034875392914,-0.7715390920639038
1790107852446271200,11.013271240234374,-1.1151201725006104,-0.05591413006186485,-0.747694730758667
1790107852456215000,11.023215087890625,-1.1658400297164917,-0.23411662876605988,-0.6663215756416321
1790107852466160400,11.033160400390624,-1.150424599647522,-0.2518881559371948,-0.602972149848938
1790107852476104200,11.043104248046875,-1.075015902519226,-0.272796630859375,-0.570313572883606
1790107852486048300,11.05304833984375,-1.0161861181259155,-0.1506638079881668,-0.5104270577430725
1790107852495993000,11.0629931640625,-0.9448552131652832,0.03942570462822914,-0.4163428843021393
1790107852505937400,11.0729375,-0.8413026928901672,0.049800045788288116,-0.30919885635375977
1790107852515881200,11.082881103515625,-0.7151170969009399,-0.1385541558265686,-0.1536840945482254
1790107852525825300,11.0928251953125,-0.6532731652259827,-0.3261362910270691,0.027529096230864525
1790107852535770000,11.10277001953125,-0.5623541474342346,-0.20504502952098846,0.12434832006692886
1790107852545714200,11.112714111328126,-0.41657406091690063,0.0018314558546990156,0.13024163246154785
1790107852555658200,11.122658203125,-0.27759885787963867,-0.044135767966508865,0.11375053226947784
1790107852565603300,11.132603271484374,-0.18636135756969452,-0.15609079599380493,0.10263503342866898
1790107852575547100,11.142547119140625,-0.13957200944423676,-0.16929368674755096,0.1372840851545334
1790107852585491200,11.1524912109375,-0.07488169521093369,-0.03458407521247864,0.19521716237068176
1790107852595436300,11.162436279296875,-0.010145312175154686,0.08488213270902634,0.2758379876613617
1790107852605380400,11.17238037109375,0.03500938415527344,0.13973340392112732,0.36838576197624207
1790107852615324200,11.18232421875,0.10852248221635818,0.11791172623634338,0.4634973406791687
1790107852625268000,11.19226806640625,0.2210966944694519,0.1075163409113884,0.5048215985298157
1790107852635212800,11.202212890625,0.35236072540283203,0.06914551556110382,0.5203779339790344
1790107852645156900,11.212156982421876,0.49454447627067566,0.0068022459745407104,0.5426675081253052
1790107852655101000,11.222100830078125,0.630174994468689,-0.06936469674110413,0.5799118280410767
1790107852665046000,11.2320458984375,0.7565957903862,-0.12765516340732574,0.6517876386642456
1790107852674989800,11.24198974609375,0.8482807278633118,-0.05452129989862442,0.6907001733779907
1790107852684934000,11.251933837890626,0.9304805397987366,-0.0031846079509705305,0.6883105039596558
1790107852694878000,11.2618779296875,0.9932677149772644,-0.016349146142601967,0.7105864882469177
1790107852704822800,11.27182275390625,1.0700732469558716,-0.059487294405698776,0.73724365234375
1790107852714767000,11.28176708984375,1.14757239818573,-0.09951727092266083,0.7618518471717834
1790107852724711000,11.2917109375,1.2568756341934204,0.03381974995136261,0.7897721529006958
1790107852734655700,11.30165576171875,1.3811006546020508,0.20370039343833923,0.8117413520812988
1790107852744599800,11.311599853515625,1.4787760972976685,0.2865601181983948,0.8577319979667664
1790107852754543900,11.3215439453125,1.5345035791397095,0.22332443296909332,0.8977446556091309
1790107852764489000,11.331489013671876,1.5478918552398682,0.17022313177585602,0.9027173519134521
1790107852774433000,11.34143310546875,1.569596290588379,0.2396211177110672,0.8736196160316467
1790107852784376800,11.351376953125,1.6272486448287964,0.36992746591567993,0.8394526243209839
1790107852794321000,11.36132080078125,1.7274508476257324,0.49529576301574707,0.7895015478134155
1790107852804266000,11.371265869140625,1.8493655920028687,0.5432747602462769,0.6771092414855957
1790107852814210000,11.3812099609375,1.9500640630722046,0.442810982465744,0.5510346293449402
1790107852824153900,11.39115380859375,1.9937875270843506,0.3186866343021393,0.4465484619140625
1790107852834098700,11.4010986328125,2.0164244174957275,0.2652122378349304,0.4070354104042053
1790107852844042800,11.411042724609375,2.0472030639648438,0.08765555173158646,0.36873090267181396
1790107852853987000,11.420987060546874,2.0782480239868164,-0.15814462304115295,0.31724879145622253
1790107852863932000,11.430931884765625,2.0933587551116943,-0.35342010855674744,0.28279629349708557
1790107852873876000,11.4408759765625,2.093873977661133,-0.5060914158821106,0.25116166472435
1790107852883819800,11.45081982421875,2.0814402103424072,-0.6367013454437256,0.20812231302261353
1790107852893763800,11.460763916015624,2.028217315673828,-0.7253928780555725,0.2014891803264618
1790107852903709000,11.470708984375,1.9195129871368408,-0.7964997887611389,0.1618538796901703
1790107852913653000,11.480653076171874,1.7585102319717407,-0.9106759428977966,0.06743762642145157
1790107852923596800,11.4905966796875,1.5790361166000366,-0.9713925123214722,-0.04092026874423027
1790107852933542000,11.5005419921875,1.3344615697860718,-0.8656181693077087,-0.13561269640922546
1790107852943486000,11.51048583984375,1.0775171518325806,-0.5404533743858337,-0.1423097401857376
1790107852953430000,11.520429931640624,0.9022248983383179,-0.15842239558696747,-0.031673774123191833
1790107852963373800,11.530373779296875,0.8331944346427917,0.21392907202243805,0.16756422817707062
1790107852973319000,11.54031884765625,0.8150351643562317,0.5024769902229309,0.41403260827064514
1790107852983262700,11.5502626953125,0.8679753541946411,0.5535417795181274,0.49576154351234436
1790107852993207000,11.56020703125,0.880330502986908,0.26763758063316345,0.4232844114303589
1790107853003152000,11.57015185546875,0.8582214713096619,-0.363912969827652,0.33341658115386963
1790107853013096000,11.580095947265624,0.8864773511886597,-0.8689196705818176,0.3438332676887512
1790107853023039700,11.590039794921875,0.9451438784599304,-0.7809336185455322,0.4086546003818512
1790107853032985000,11.599985107421874,0.9960994720458984,-0.5118571519851685,0.46994566917419434
1790107853042929000,11.609928955078125,1.0223268270492554,-0.7481604814529419,0.477294385433197
1790107853052873000,11.619873046875,0.9441452026367188,-0.9573366045951843,0.5115746259689331
1790107853062816800,11.629816650390625,0.8475393056869507,-0.9203692674636841,0.5373201966285706
1790107853072761900,11.639761962890624,0.7631067037582397,-0.8929821252822876,0.49218493700027466
1790107853082706000,11.649705810546875,0.6334328651428223,-0.9325447082519531,0.3675420582294464
1790107853092650000,11.65964990234375,0.45113202929496765,-0.953020453453064,0.2178039699792862
1790107853102594800,11.6695947265625,0.2517677843570709,-0.7277860045433044,0.1252407431602478
1790107853112539000,11.679538818359376,0.016952352598309517,-0.44563207030296326,0.10388857871294022
1790107853122482700,11.689482666015625,-0.1992121785879135,-0.32063260674476624,0.12535712122917175
1790107853132428000,11.699427978515626,-0.3948136270046234,-0.4693693518638611,0.13433782756328583
1790107853142371800,11.709371826171875,-0.5375827550888062,-0.5182934999465942,0.1395150125026703
1790107853152316000,11.71931591796875,-0.6449875235557556,-0.2877958416938782,0.1313694715499878
1790107853162259700,11.729259765625,-0.7764773368835449,-0.14144420623779297,0.031186148524284363
1790107853172205000,11.739205078125,-0.935609757900238,-0.1968930959701538,-0.11120375245809555
1790107853182148900,11.74914892578125,-1.0899004936218262,-0.29850253462791443,-0.2281189262866974
1790107853192093000,11.759093017578126,-1.2008742094039917,-0.2302076369524002,-0.2859574556350708
1790107853202037800,11.769037841796875,-1.2661149501800537,0.08264774084091187,-0.3044877350330353
1790107853211981800,11.77898193359375,-1.3221361637115479,0.33308422565460205,-0.3439134359359741
1790107853221926000,11.78892578125,-1.389136552810669,0.260090172290802,-0.42192167043685913
1790107853231871000,11.79887109375,-1.4059314727783203,0.12186891585588455,-0.454800546169281
1790107853241814800,11.808814697265625,-1.3364440202713013,0.14471377432346344,-0.3955790102481842
1790107853251758800,11.8187587890625,-1.2095249891281128,0.2864394783973694,-0.2843068242073059
1790107853261702700,11.82870263671875,-1.0924246311187744,0.3158266544342041,-0.20659072697162628
1790107853271648000,11.83864794921875,-0.9961317181587219,0.15694621205329895,-0.1762104481458664
1790107853281591800,11.848591796875,-0.9089869260787964,-0.04357703775167465,-0.16820712387561798
1790107853291536000,11.858535888671875,-0.8091727495193481,-0.18477889895439148,-0.14147137105464935
1790107853301480700,11.868480712890625,-0.7218015789985657,-0.30885958671569824,-0.1167958602309227
1790107853311425000,11.878425048828126,-0.6682853698730469,-0.4199804961681366,-0.15238900482654572
1790107853321368800,11.888368896484375,-0.6053301095962524,-0.45981818437576294,-0.2220381200313568
1790107853331314000,11.89831396484375,-0.5828163027763367,-0.3239671587944031,-0.2559521496295929
1790107853341257700,11.9082578125,-0.6287342309951782,-0.06041460856795311,-0.26483938097953796
1790107853351201800,11.918201904296875,-0.7131223678588867,0.14207272231578827,-0.32149332761764526
1790107853361145900,11.928145751953124,-0.7759412527084351,0.2191813588142395,-0.42846986651420593
1790107853371091000,11.938091064453126,-0.8366381525993347,0.2881939709186554,-0.5064312219619751
1790107853381034800,11.94803466796875,-0.9039705991744995,0.3024304211139679,-0.5231846570968628
1790107853390978800,11.957978759765625,-0.9518694281578064,0.26269927620887756,-0.5419135689735413
1790107853400924000,11.967923828125,-0.9817213416099548,0.2676474153995514,-0.5903080105781555
1790107853410868000,11.977867919921875,-1.0272603034973145,0.34775370359420776,-0.6396103501319885
1790107853420811800,11.987811767578124,-1.0985283851623535,0.3851785659790039,-0.686953067779541
1790107853430755800,11.997755859375,-1.1871986389160156,0.34348759055137634,-0.7192990183830261
1790107853440700700,12.00770068359375,-1.2962411642074585,0.23865678906440735,-0.7309271693229675
1790107853450645000,12.01764501953125,-1.382655143737793,0.13660764694213867,-0.7282214164733887
1790107853460589000,12.027589111328124,-1.4357354640960693,0.11658653616905212,-0.7543891072273254
1790107853470534000,12.037533935546875,-1.4263017177581787,0.0940260961651802,-0.8041744828224182
1790107853480477700,12.047477783203124,-1.3777538537979126,0.10594294220209122,-0.8812903165817261
1790107853490421800,12.057421875,-1.3431758880615234,0.20581015944480896,-0.9313992857933044
1790107853500366800,12.067366943359374,-1.3556885719299316,0.38035160303115845,-0.8944969177246094
1790107853510311000,12.077310791015625,-1.4060337543487549,0.5713657736778259,-0.7348231077194214
1790107853520255000,12.0872548828125,-1.443308711051941,0.6280378103256226,-0.5975443720817566
1790107853530198800,12.09719873046875,-1.4226832389831543,0.48814889788627625,-0.6127941608428955
1790107853540143900,12.107143798828124,-1.3949648141860962,0.24979598820209503,-0.6871626973152161
1790107853550088000,12.117087890625,-1.358870506286621,0.03721155226230621,-0.6976115703582764
1790107853560032000,12.127031982421874,-1.3355363607406616,-0.016020245850086212,-0.6099621653556824
1790107853569976800,12.136976806640625,-1.3126391172409058,0.019119631499052048,-0.5278121829032898
1790107853579921000,12.1469208984375,-1.2968316078186035,0.08106795698404312,-0.5084059834480286
1790107853589865000,12.156864990234375,-1.263393759727478,0.11974211037158966,-0.4557483494281769
1790107853599809800,12.166809814453124,-1.187847375869751,0.12487109750509262,-0.372504860162735
1790107853609753900,12.17675390625,-1.1723003387451172,0.08066528290510178,-0.3283166289329529
1790107853619698000,12.186697998046874,-1.169409990310669,0.02237827703356743,-0.33945369720458984
1790107853629641700,12.196641845703125,-1.1596583127975464,-0.1061975434422493,-0.35469868779182434
1790107853639586800,12.2065869140625,-1.0539829730987549,-0.22352071106433868,-0.29632753133773804
1790107853649531000,12.21653076171875,-0.9044752717018127,-0.16350983083248138,-0.13005253672599792
1790107853659475000,12.226474853515626,-0.7256029844284058,0.011874768882989883,0.06714174896478653
1790107853669419800,12.236419677734375,-0.5731431841850281,0.2151796817779541,0.2058626115322113
1790107853679363800,12.24636376953125,-0.4822353422641754,0.422712117433548,0.22764727473258972
1790107853689308000,12.256307861328125,-0.33308687806129456,0.433322936296463,0.15935850143432617
1790107853699252700,12.266252685546876,-0.1736452877521515,0.2104128897190094,0.12968608736991882
1790107853709196800,12.27619677734375,-0.09559443593025208,0.034269824624061584,0.19698922336101532
1790107853719140900,12.286140869140626,-0.05609256401658058,0.10600073635578156,0.25624802708625793
1790107853729085000,12.2960849609375,0.018190188333392143,0.2250400334596634,0.2876136600971222
1790107853739029800,12.30602978515625,0.14762434363365173,0.2541257441043854,0.30242112278938293
1790107853748973800,12.315973876953125,0.292032390832901,0.34201911091804504,0.2874442934989929
1790107853758918000,12.32591796875,0.42682507634162903,0.43821942806243896,0.2889396548271179
1790107853768863000,12.335863037109375,0.5477520227432251,0.4541613757610321,0.29298287630081177
1790107853778807000,12.34580712890625,0.6511948108673096,0.43838533759117126,0.30683237314224243
1790107853788750800,12.355750732421875,0.7577952742576599,0.41637858748435974,0.3198738694190979
1790107853798695700,12.36569580078125,0.8616803884506226,0.4151764214038849,0.3230459690093994
1790107853808639700,12.3756396484375,0.956829845905304,0.4910256564617157,0.32071810960769653
1790107853818584000,12.385583984375,1.0325658321380615,0.6175793409347534,0.30897489190101624
