time,seconds_elapsed,z,y,x
1790266831195566600,0.079566650390625,0,0,0
1790266831205566500,0.08956640625,0.009769439697265625,0.029021024703979492,0.0476832389831543
1790266831215566600,0.099566650390625,-0.12284278869628906,-0.04177141189575195,0.08806896209716797
1790266831225566500,0.10956640625,-0.3159980773925781,-0.1803452968597412,0.21576929092407227
1790266831235566600,0.119566650390625,-0.6350827217102051,-0.41494297981262207,0.29381537437438965
1790266831245566500,0.12956640625,-1.0458755493164062,-0.5411415100097656,0.37092089653015137
1790266831255566600,0.139566650390625,-1.2347512245178223,-0.4072589874267578,0.34595632553100586
1790266831265566500,0.14956640625,-1.043581485748291,-0.17528176307678223,0.21564102172851562
1790266831275566600,0.159566650390625,-0.9826555252075195,0.0851736068725586,0.4543001651763916
1790266831285566500,0.16956640625,-0.8662285804748535,0.1493995189666748,0.8313419818878174
1790266831295566600,0.179566650390625,-0.3519411087036133,-0.01153707504272461,1.4095935821533203
1790266831305566500,0.18956640625,0.1165003776550293,-0.28786516189575195,1.8535610437393188
1790266831315566600,0.199566650390625,0.5331449508666992,-0.4704933166503906,2.0291028022766113
1790266831325566500,0.20956640625,0.4210777282714844,-0.9484157562255859,2.121535539627075
1790266831335566600,0.219566650390625,-0.4085712432861328,-1.0548105239868164,0.9216687679290771
1790266831345566500,0.22956640625,-0.6161003112792969,-0.5129892826080322,-0.19756698608398438
1790266831355566600,0.239566650390625,-0.8988895416259766,-0.5080794095993042,-0.14668965339660645
1790266831365566500,0.24956640625,-0.6680235862731934,-0.45889317989349365,-0.4214184284210205
1790266831375566600,0.259566650390625,0.32627439498901367,-0.0014336109161376953,-1.235609769821167
1790266831385566500,0.26956640625,1.7816896438598633,0.5654789209365845,-1.279113531112671
1790266831395566600,0.279566650390625,2.565293312072754,0.7486766576766968,-0.4094107151031494
1790266831405566500,0.28956640625,2.928752899169922,0.8163274526596069,0.12138247489929199
1790266831415566600,0.299566650390625,2.978717803955078,0.8387335538864136,0.5033664703369141
1790266831425566500,0.30956640625,3.0768260955810547,0.8264898061752319,1.000842571258545
1790266831435566600,0.319566650390625,3.078624725341797,0.6121020317077637,1.0221123695373535
1790266831445566500,0.32956640625,2.8014469146728516,0.3495420217514038,0.5299620628356934
1790266831455566600,0.339566650390625,2.147007942199707,0.3827688694000244,-0.4018867015838623
1790266831465566500,0.34956640625,-0.09826374053955078,0.1755666732788086,-0.5544760227203369
1790266831475566600,0.359566650390625,-3.0292444229125977,0.17854046821594238,0.29622936248779297
1790266831485566500,0.36956640625,-3.483041763305664,0.9345290660858154,0.16458845138549805
1790266831495566600,0.379566650390625,-1.2115802764892578,1.2994418144226074,-1.1010289192199707
1790266831505566500,0.38956640625,1.0298652648925781,1.4820001125335693,-1.7367851734161377
1790266831515566600,0.399566650390625,3.3152236938476562,1.0901565551757812,-1.6296327114105225
1790266831525566500,0.40956640625,3.0818729400634766,-0.05343151092529297,0.5627806186676025
1790266831535566600,0.419566650390625,2.216151237487793,-0.7603830099105835,2.004640579223633
1790266831545566500,0.42956640625,0.654078483581543,-0.7762347459793091,3.0854849815368652
1790266831555566600,0.439566650390625,-0.6009120941162109,-0.4458489418029785,2.210204601287842
1790266831565566500,0.44956640625,-1.6723604202270508,-0.6768808364868164,-0.31284379959106445
1790266831575566600,0.459566650390625,-1.758347511291504,-0.44155430793762207,-2.59991455078125
1790266831585566500,0.46956640625,-1.4912137985229492,0.2895932197570801,-4.303891181945801
1790266831595566600,0.479566650390625,-4.482205867767334,1.0182077884674072,-4.549332141876221
1790266831605566500,0.48956640625,-2.8370537757873535,1.039924144744873,-4.1064958572387695
1790266831615566600,0.499566650390625,-1.3956890106201172,0.8057572841644287,-2.861076831817627
1790266831625566500,0.50956640625,-1.5632038116455078,-0.10181879997253418,-1.5487539768218994
1790266831635566600,0.519566650390625,-1.2004127502441406,-1.2671220302581787,0.027049779891967773
1790266831645566500,0.52956640625,1.061880111694336,-1.4767439365386963,1.9346485137939453
1790266831655566600,0.539566650390625,3.7774085998535156,-0.7080559730529785,2.038801431655884
1790266831665566500,0.54956640625,4.2168779373168945,-1.3990678787231445,0.20229369401931763
1790266831675566600,0.559566650390625,4.917863845825195,-3.978123188018799,-1.7931135892868042
1790266831685566500,0.56956640625,7.317266464233398,-4.232614517211914,0.3546108603477478
1790266831695566600,0.579566650390625,6.941952705383301,-2.9611306190490723,2.7359180450439453
1790266831705566500,0.58956640625,5.961539268493652,-1.640460729598999,4.4471611976623535
1790266831715566600,0.599566650390625,3.6941137313842773,-1.8900009393692017,3.989992618560791
1790266831725566500,0.60956640625,-0.1769237518310547,-3.252410888671875,1.7775723934173584
1790266831735566600,0.619566650390625,-3.835524559020996,-2.6571688652038574,0.8784492015838623
1790266831745566500,0.62956640625,-6.368220329284668,-1.1047333478927612,-0.24155688285827637
1790266831755566600,0.639566650390625,-7.118212699890137,-1.0195419788360596,0.03945469856262207
1790266831765566500,0.64956640625,-6.946935176849365,-1.118974208831787,-0.46141695976257324
1790266831775566600,0.659566650390625,-6.314933776855469,-1.2948932647705078,-1.2058477401733398
1790266831785566500,0.66956640625,-5.447150230407715,-1.73524808883667,-1.5954413414001465
1790266831795566600,0.679566650390625,-3.784388542175293,-2.3891992568969727,-1.2680432796478271
1790266831805566500,0.68956640625,-1.8365373611450195,-2.9554266929626465,-1.5842115879058838
1790266831815566600,0.699566650390625,-0.9504237174987793,-3.81223201751709,-2.7710766792297363
1790266831825566500,0.70956640625,-1.258751392364502,-4.228677749633789,-4.088472366333008
1790266831835566600,0.719566650390625,-1.729255199432373,-4.613377571105957,-5.265802383422852
1790266831845566500,0.72956640625,-1.2674620151519775,-4.986621856689453,-6.291457653045654
1790266831855566600,0.739566650390625,-0.25859594345092773,-5.404589653015137,-7.056215763092041
1790266831865566500,0.74956640625,0.9738638401031494,-5.916302680969238,-7.215075492858887
1790266831875566600,0.759566650390625,2.3368685245513916,-6.6992034912109375,-6.571536064147949
1790266831885566500,0.76956640625,3.673046350479126,-6.906419277191162,-6.015636920928955
1790266831895566600,0.779566650390625,3.7387638092041016,-6.973448753356934,-6.455521583557129
1790266831905566500,0.78956640625,1.918418288230896,-7.977490425109863,-5.057083606719971
1790266831915566600,0.799566650390625,0.2684609889984131,-9.744810104370117,-2.2498607635498047
1790266831925566500,0.80956640625,0.024378657341003418,-9.064501762390137,-2.119375705718994
1790266831935566600,0.819566650390625,0.6276289224624634,-7.117841720581055,-2.64180326461792
1790266831945566500,0.82956640625,1.1850944757461548,-4.750399112701416,-1.4175138473510742
1790266831955566600,0.839566650390625,1.1925309896469116,-4.048162937164307,4.188799858093262
1790266831965566500,0.84956640625,1.3141505718231201,-3.7777280807495117,9.247770309448242
1790266831975566600,0.859566650390625,1.2155065536499023,-2.261075019836426,11.058903694152832
1790266831985566500,0.86956640625,0.3069005012512207,-0.3721933364868164,10.65865707397461
1790266831995566600,0.879566650390625,-1.7759606838226318,0.5753030776977539,9.88007926940918
1790266832005566500,0.88956640625,-4.149268627166748,0.8765308856964111,10.654380798339844
1790266832015566600,0.899566650390625,-5.536795616149902,1.4830646514892578,12.917309761047363
1790266832025566500,0.90956640625,-5.417434215545654,2.690758228302002,14.54723834991455
1790266832035566600,0.919566650390625,-4.348118782043457,4.142285346984863,15.074949264526367
1790266832045566500,0.92956640625,-3.6108438968658447,5.537839889526367,15.428707122802734
1790266832055566600,0.939566650390625,-3.8546102046966553,6.707414627075195,15.353048324584961
1790266832065566500,0.94956640625,-5.195245742797852,7.408665657043457,14.628092765808105
1790266832075566600,0.959566650390625,-7.39231538772583,7.6457977294921875,13.896581649780273
1790266832085566500,0.96956640625,-9.477933883666992,7.712267875671387,13.159222602844238
1790266832095566600,0.979566650390625,-10.78404426574707,7.943036079406738,12.323741912841797
1790266832105566500,0.98956640625,-11.254440307617188,8.063655853271484,10.819808006286621
1790266832115566600,0.999566650390625,-11.404114723205566,7.6332244873046875,8.477348327636719
1790266832125566500,1.00956640625,-11.275593757629395,6.761237144470215,6.208578109741211
1790266832135566600,1.019566650390625,-10.524189949035645,6.2250776290893555,3.8089723587036133
1790266832145566500,1.02956640625,-9.403512001037598,6.389824390411377,2.5762557983398438
1790266832155566600,1.039566650390625,-9.188589096069336,6.023959159851074,1.9483957290649414
1790266832165566500,1.04956640625,-8.865939140319824,5.094184875488281,0.9464426040649414
1790266832175566600,1.059566650390625,-7.47951602935791,3.993342161178589,-0.4914846420288086
1790266832185566500,1.06956640625,-3.772289752960205,2.9023571014404297,-2.027721405029297
1790266832195566600,1.079566650390625,1.9673118591308594,2.666386604309082,-3.5458312034606934
1790266832205566500,1.08956640625,3.943067789077759,2.625042200088501,-3.4018311500549316
1790266832215566600,1.099566650390625,3.4616522789001465,1.8454705476760864,-3.3036890029907227
1790266832225566500,1.10956640625,1.1541574001312256,0.9703657627105713,-5.247929573059082
1790266832235566600,1.119566650390625,-1.2706899642944336,0.11568295955657959,-7.764232158660889
1790266832245566500,1.12956640625,-0.8069229125976562,-0.3356257677078247,-8.913229942321777
1790266832255566600,1.139566650390625,-0.2736825942993164,-0.40576601028442383,-8.746129989624023
1790266832265566500,1.14956640625,1.0499730110168457,-0.009819865226745605,-6.990777969360352
1790266832275566600,1.159566650390625,1.7764358520507812,0.26471126079559326,-5.369612693786621
1790266832285566500,1.16956640625,-0.21695613861083984,2.076215982437134,-4.6943817138671875
1790266832295566600,1.179566650390625,-1.9992756843566895,2.589146614074707,-4.943150997161865
1790266832305566500,1.18956640625,0.2754521369934082,1.3262566328048706,-4.502250671386719
1790266832315566600,1.199566650390625,0.31048011779785156,-1.4358655214309692,-3.8665647506713867
1790266832325566500,1.20956640625,-2.8524837493896484,-0.13681161403656006,-3.6877331733703613
1790266832335566600,1.219566650390625,-5.367446422576904,1.8893566131591797,-2.379129409790039
1790266832345566500,1.22956640625,-6.381500720977783,1.8755230903625488,0.05238962173461914
1790266832355566600,1.239566650390625,-6.570300102233887,2.8348469734191895,-1.261744499206543
1790266832365566500,1.24956640625,-6.072218418121338,3.393685817718506,-1.3409953117370605
1790266832375566600,1.259566650390625,-6.466163158416748,1.1401383876800537,-0.7383222579956055
1790266832385566500,1.26956640625,-4.901112079620361,-0.38388335704803467,2.628455638885498
1790266832395566600,1.279566650390625,-3.583343505859375,-2.2944376468658447,6.628767013549805
1790266832405566500,1.28956640625,-0.08821487426757812,-4.627702713012695,9.060758590698242
1790266832415566600,1.299566650390625,5.764137268066406,-5.778226852416992,9.434642791748047
1790266832425566500,1.30956640625,7.894134044647217,-8.048396110534668,9.879301071166992
1790266832435566600,1.319566650390625,7.881839275360107,-7.318769454956055,8.52647590637207
1790266832445566500,1.32956640625,7.03974723815918,-5.120943069458008,4.149656772613525
1790266832455566600,1.339566650390625,5.30880069732666,-4.248973846435547,1.2710762023925781
1790266832465566500,1.34956640625,1.416149616241455,-6.720633506774902,-0.18012714385986328
1790266832475566600,1.359566650390625,-5.102991104125977,-10.744799613952637,1.0898547172546387
1790266832485566500,1.36956640625,-8.713406562805176,-10.801553726196289,2.59763765335083
1790266832495566600,1.379566650390625,-8.144021034240723,-7.471835136413574,-2.2929773330688477
1790266832505566500,1.38956640625,-7.314146995544434,-5.2524309158325195,-6.060582160949707
1790266832515566600,1.399566650390625,-5.890789031982422,-4.590649604797363,-7.091832160949707
1790266832525566500,1.40956640625,-3.369133949279785,-3.8685946464538574,-6.039576530456543
1790266832535566600,1.419566650390625,-0.08502769470214844,-3.0171704292297363,-3.947754144668579
1790266832545566500,1.42956640625,2.4657583236694336,-2.2199387550354004,-2.691467046737671
1790266832555566600,1.439566650390625,3.815309524536133,-1.328515648841858,-0.2317204475402832
1790266832565566500,1.44956640625,3.6060237884521484,-0.6000555157661438,1.3690733909606934
1790266832575566600,1.459566650390625,2.0663938522338867,0.632584810256958,1.7939057350158691
1790266832585566500,1.46956640625,0.046896934509277344,1.127224326133728,2.3139171600341797
1790266832595566600,1.479566650390625,-0.3622274398803711,0.7176360487937927,4.206792831420898
1790266832605566500,1.48956640625,-0.19509124755859375,0.2913113534450531,4.699624538421631
1790266832615566600,1.499566650390625,0.8774843215942383,-0.23922008275985718,3.8432674407958984
1790266832625566500,1.50956640625,2.9051618576049805,-0.6171703934669495,2.7263097763061523
1790266832635566600,1.519566650390625,5.190770149230957,-0.20366382598876953,1.293104648590088
1790266832645566500,1.52956640625,6.273836612701416,0.9763404130935669,0.027092456817626953
1790266832655566600,1.539566650390625,4.217991828918457,2.2385823726654053,-0.20058369636535645
1790266832665566500,1.54956640625,0.6017932891845703,2.9908499717712402,0.35600852966308594
1790266832675566600,1.559566650390625,-1.4645013809204102,2.2364933490753174,1.110124111175537
1790266832685566500,1.56956640625,-1.4918794631958008,1.4637999534606934,1.456467628479004
1790266832695566600,1.579566650390625,0.1707763671875,0.25631582736968994,0.9693655967712402
1790266832705566500,1.58956640625,2.285916328430176,-1.0526714324951172,0.22152996063232422
1790266832715566600,1.599566650390625,3.475430488586426,-1.4596550464630127,-1.2335584163665771
1790266832725566500,1.60956640625,3.065443515777588,-1.0557341575622559,-3.266948699951172
1790266832735566600,1.619566650390625,2.275247573852539,-1.1004952192306519,-4.2195539474487305
1790266832745566500,1.62956640625,2.9156956672668457,-1.6220840215682983,-4.395318984985352
1790266832755566600,1.639566650390625,4.171501159667969,-1.9432966709136963,-3.741366386413574
1790266832765566500,1.64956640625,4.367871284484863,-1.3450424671173096,-2.7744925022125244
1790266832775566600,1.659566650390625,4.069863319396973,-0.21942973136901855,-2.204969882965088
1790266832785566500,1.66956640625,4.255003929138184,1.238574743270874,-2.917797088623047
1790266832795566600,1.679566650390625,4.590918064117432,2.479762554168701,-4.482654094696045
1790266832805566500,1.68956640625,5.870967864990234,1.7367832660675049,-6.025749206542969
1790266832815566600,1.699566650390625,6.973015308380127,0.47214245796203613,-6.916062355041504
1790266832825566500,1.70956640625,6.200417518615723,0.33668315410614014,-6.553915023803711
1790266832835566600,1.719566650390625,4.96818733215332,0.6331362724304199,-5.845952987670898
1790266832845566500,1.72956640625,3.5727338790893555,0.9843709468841553,-5.635624885559082
1790266832855566600,1.739566650390625,2.2011756896972656,1.573564052581787,-5.624965667724609
1790266832865566500,1.74956640625,1.9133033752441406,2.7637784481048584,-5.90512752532959
1790266832875566600,1.759566650390625,2.0218420028686523,3.461681604385376,-5.822087287902832
1790266832885566500,1.76956640625,1.6861891746520996,2.9567103385925293,-5.432341575622559
1790266832895566600,1.779566650390625,1.7291622161865234,2.76169490814209,-5.423534870147705
1790266832905566500,1.78956640625,3.5669026374816895,3.33693265914917,-5.316783905029297
1790266832915566600,1.799566650390625,5.9007039070129395,3.6042938232421875,-5.396782875061035
1790266832925566500,1.80956640625,6.877195358276367,1.3209394216537476,-1.1535110473632812
1790266832935566600,1.819566650390625,7.055438041687012,1.0313687324523926,1.6198484897613525
1790266832945566500,1.82956640625,7.547242164611816,0.07349085807800293,1.9735877513885498
1790266832955566600,1.839566650390625,7.506754398345947,0.9604358673095703,1.868520975112915
1790266832965566500,1.84956640625,7.723684787750244,-0.17947053909301758,3.9292736053466797
1790266832975566600,1.859566650390625,8.452901840209961,-0.7971858978271484,2.9854698181152344
1790266832985566500,1.86956640625,8.224048614501953,-1.0832114219665527,0.7382864952087402
1790266832995566600,1.879566650390625,7.5434041023254395,0.6134600639343262,-3.3788259029388428
1790266833005566500,1.88956640625,4.890019416809082,-4.862926006317139,-3.5966272354125977
1790266833015566600,1.899566650390625,6.28993034362793,-11.061212539672852,-0.9124221801757812
1790266833025566500,1.90956640625,4.279123306274414,-12.005653381347656,-1.6609197854995728
1790266833035566600,1.919566650390625,-0.6641812324523926,-18.144906997680664,0.9174933433532715
1790266833045566500,1.92956640625,-9.799440383911133,-20.48748779296875,2.6246821880340576
1790266833055566600,1.939566650390625,-12.962995529174805,-15.108844757080078,5.726019382476807
1790266833065566500,1.94956640625,-6.490799427032471,-7.604071617126465,6.272595405578613
1790266833075566600,1.959566650390625,-2.9254398345947266,-7.990422248840332,5.709565162658691
1790266833085566500,1.96956640625,-4.195271015167236,-7.954056739807129,3.8558318614959717
1790266833095566600,1.979566650390625,-6.4752936363220215,-4.091103553771973,-0.2044464349746704
1790266833105566500,1.98956640625,-7.490355491638184,-2.033376693725586,-2.351099729537964
1790266833115566600,1.999566650390625,-7.273837089538574,-2.440300941467285,-2.24688720703125
1790266833125566500,2.00956640625,-8.060613632202148,-3.593174934387207,-1.026064157485962
1790266833135566600,2.019566650390625,-7.3124775886535645,-4.279273986816406,0.02108865976333618
1790266833145566500,2.02956640625,-5.773415565490723,-4.111772537231445,1.0280735492706299
1790266833155566600,2.039566650390625,-4.083359718322754,-3.507312774658203,2.140347957611084
1790266833165566500,2.04956640625,-1.9215312004089355,-2.621077537536621,2.969031810760498
1790266833175566600,2.059566650390625,-0.36109113693237305,-1.7889890670776367,3.025883913040161
1790266833185566500,2.06956640625,0.4739260673522949,-1.2599239349365234,2.4896891117095947
1790266833195566600,2.079566650390625,1.032231092453003,-0.980891227722168,1.1487575769424438
1790266833205566500,2.08956640625,1.58658766746521,-0.26328468322753906,0.018169403076171875
1790266833215566600,2.099566650390625,0.9104828834533691,1.544759750366211,-0.1561506986618042
1790266833225566500,2.10956640625,-0.06578969955444336,3.570119857788086,0.18371820449829102
1790266833235566600,2.119566650390625,-0.5244178771972656,4.414370059967041,-0.29511046409606934
1790266833245566500,2.12956640625,-1.9970908164978027,2.577152729034424,-2.283961296081543
1790266833255566600,2.139566650390625,-4.35608434677124,-1.7896308898925781,-4.889181137084961
1790266833265566500,2.14956640625,-7.7282609939575195,-4.631631851196289,-6.139430522918701
1790266833275566600,2.159566650390625,-5.558436870574951,-4.788668155670166,-3.654524326324463
1790266833285566500,2.16956640625,-1.4403409957885742,-3.2852702140808105,-1.0411040782928467
1790266833295566600,2.179566650390625,-5.762202739715576,-3.46458101272583,-0.9951847791671753
1790266833305566500,2.18956640625,-6.303970813751221,-4.1714606285095215,-2.5994644165039062
1790266833315566600,2.199566650390625,-2.1487154960632324,-5.412050247192383,1.1542448997497559
1790266833325566500,2.20956640625,-2.9777069091796875,-4.24437952041626,2.5252416133880615
1790266833335566600,2.219566650390625,-3.4297595024108887,-4.695842266082764,3.2803850173950195
1790266833345566500,2.22956640625,-2.6420578956604004,-4.479757308959961,3.719552993774414
1790266833355566600,2.239566650390625,-1.3592743873596191,-4.212864875793457,3.0645461082458496
1790266833365566500,2.24956640625,-1.205775260925293,-4.4391608238220215,1.2593097686767578
1790266833375566600,2.259566650390625,-2.3181424140930176,-5.35236930847168,0.25115203857421875
1790266833385566500,2.26956640625,-3.144622802734375,-5.356130123138428,0.9519219398498535
1790266833395566600,2.279566650390625,-2.7181496620178223,-4.047546863555908,2.484151601791382
1790266833405566500,2.28956640625,-1.3088340759277344,-3.3278446197509766,3.35774827003479
1790266833415566600,2.299566650390625,-0.0397796630859375,-3.045868396759033,2.928196668624878
1790266833425566500,2.30956640625,0.36104249954223633,-3.2057108879089355,2.0058534145355225
1790266833435566600,2.319566650390625,-0.0638895034790039,-3.3444061279296875,0.9544034004211426
1790266833445566500,2.32956640625,0.12182140350341797,-3.111021041870117,-0.2838289737701416
1790266833455566600,2.339566650390625,1.1314172744750977,-3.157928466796875,-1.100536584854126
1790266833465566500,2.34956640625,2.5022196769714355,-2.7463784217834473,-0.9130268096923828
1790266833475566600,2.359566650390625,2.2956151962280273,-3.2871689796447754,-0.18364238739013672
1790266833485566500,2.36956640625,1.984386920928955,-4.3159942626953125,1.0827059745788574
1790266833495566600,2.379566650390625,2.5623178482055664,-5.143246650695801,1.5560131072998047
1790266833505566500,2.38956640625,3.97509765625,-5.417904853820801,1.824716567993164
1790266833515566600,2.399566650390625,5.8418803215026855,-4.710515975952148,1.4634478092193604
1790266833525566500,2.40956640625,7.790125846862793,-1.8422737121582031,-0.15276265144348145
1790266833535566600,2.419566650390625,8.624564170837402,-0.6516680717468262,0.7030189037322998
1790266833545566500,2.42956640625,7.025700092315674,-1.2347772121429443,-0.7149465084075928
1790266833555566600,2.439566650390625,4.479968070983887,-1.2181864976882935,-1.426382303237915
1790266833565566500,2.44956640625,5.726195335388184,1.6364225149154663,-3.512721061706543
1790266833575566600,2.459566650390625,6.827394008636475,5.547821998596191,-4.133967399597168
1790266833585566500,2.46956640625,7.621758937835693,6.997589111328125,-5.108234405517578
1790266833595566600,2.479566650390625,6.194459438323975,5.307234287261963,-5.117626190185547
1790266833605566500,2.48956640625,6.104794502258301,2.102036476135254,-3.614363431930542
1790266833615566600,2.499566650390625,6.430408000946045,0.3801500201225281,-2.667295455932617
1790266833625566500,2.50956640625,6.6603546142578125,0.021768689155578613,-2.3426616191864014
1790266833635566600,2.519566650390625,6.958712577819824,0.32674166560173035,-2.093454360961914
1790266833645566500,2.52956640625,7.0602126121521,1.1544626951217651,-2.7689638137817383
1790266833655566600,2.539566650390625,7.575157642364502,2.0583462715148926,-3.844468832015991
1790266833665566500,2.54956640625,7.631054878234863,2.8517727851867676,-4.6676154136657715
1790266833675566600,2.559566650390625,7.044625282287598,3.38645601272583,-5.074861526489258
1790266833685566500,2.56956640625,7.961326599121094,3.721116781234741,-5.239724159240723
1790266833695566600,2.579566650390625,8.491496086120605,3.857640266418457,-5.171111106872559
1790266833705566500,2.58956640625,7.375731468200684,3.6213057041168213,-5.049738883972168
1790266833715566600,2.599566650390625,5.27103853225708,2.7571334838867188,-5.060580253601074
1790266833725566500,2.60956640625,3.919445037841797,2.365015983581543,-4.639352798461914
1790266833735566600,2.619566650390625,2.7145190238952637,1.9661115407943726,-4.175030708312988
1790266833745566500,2.62956640625,2.8115177154541016,1.6062636375427246,-3.2283856868743896
1790266833755566600,2.639566650390625,2.910538673400879,0.9124646186828613,-2.304910898208618
1790266833765566500,2.64956640625,2.901456832885742,0.14429378509521484,-1.3789587020874023
1790266833775566600,2.659566650390625,2.861708164215088,-0.6448256969451904,-0.2513315677642822
1790266833785566500,2.66956640625,2.8732666969299316,-1.4876608848571777,0.958106517791748
1790266833795566600,2.679566650390625,2.3446412086486816,-2.302239179611206,1.7204818725585938
1790266833805566500,2.68956640625,1.327927589416504,-3.169069766998291,2.0332350730895996
1790266833815566600,2.699566650390625,0.40021562576293945,-3.9990220069885254,1.8899593353271484
1790266833825566500,2.70956640625,-0.3882331848144531,-4.6544084548950195,1.1771764755249023
1790266833835566600,2.719566650390625,-1.124281406402588,-4.692176818847656,0.4915194511413574
1790266833845566500,2.72956640625,-2.1465296745300293,-4.130289077758789,-0.03848743438720703
1790266833855566600,2.739566650390625,-3.95914888381958,-2.9433236122131348,-0.22243547439575195
1790266833865566500,2.74956640625,-3.573460578918457,-2.364633083343506,-0.10370349884033203
1790266833875566600,2.759566650390625,-2.418092727661133,-2.024871826171875,-0.2152252197265625
1790266833885566500,2.76956640625,-2.3678765296936035,-1.7949728965759277,-0.4054582118988037
1790266833895566600,2.779566650390625,-1.6944780349731445,-2.58504056930542,-0.6813321113586426
1790266833905566500,2.78956640625,-1.1312880516052246,-3.563889980316162,-0.11195516586303711
1790266833915566600,2.799566650390625,-1.0756535530090332,-4.526045799255371,0.39908456802368164
1790266833925566500,2.80956640625,-1.9164648056030273,-5.126875400543213,0.4781656265258789
1790266833935566600,2.819566650390625,-3.194347381591797,-5.173672199249268,0.293651819229126
1790266833945566500,2.82956640625,-3.8822484016418457,-4.414605617523193,0.21233177185058594
1790266833955566600,2.839566650390625,-4.205729961395264,-3.3096389770507812,0.3672032356262207
1790266833965566500,2.84956640625,-4.687510013580322,-2.392484188079834,0.7257580757141113
1790266833975566600,2.859566650390625,-4.710386753082275,-1.72507905960083,1.119640827178955
1790266833985566500,2.86956640625,-4.655421733856201,-1.3205456733703613,1.7418475151062012
1790266833995566600,2.879566650390625,-4.850344181060791,-1.2648463249206543,2.454258918762207
1790266834005566500,2.88956640625,-5.555122375488281,-1.3093633651733398,3.029378652572632
1790266834015566600,2.899566650390625,-6.063042163848877,-1.896716594696045,3.8565967082977295
1790266834025566500,2.90956640625,-5.766889572143555,-3.21122407913208,4.868483543395996
1790266834035566600,2.919566650390625,-5.418210983276367,-3.656628131866455,5.73640251159668
1790266834045566500,2.92956640625,-4.215566158294678,-2.968079090118408,5.481680393218994
1790266834055566600,2.939566650390625,-3.4539308547973633,-1.8089828491210938,4.150726318359375
1790266834065566500,2.94956640625,-3.5719261169433594,-0.7682628631591797,2.809537649154663
1790266834075566600,2.959566650390625,-3.6980185508728027,-0.038725852966308594,2.4750616550445557
1790266834085566500,2.96956640625,-2.729039192199707,0.45290088653564453,2.4966907501220703
1790266834095566600,2.979566650390625,-2.305774688720703,0.6260628700256348,2.627697706222534
1790266834105566500,2.98956640625,-2.417551040649414,0.34476375579833984,2.410587787628174
1790266834115566600,2.999566650390625,-1.0674753189086914,0.4789457321166992,1.20235013961792
1790266834125566500,3.00956640625,-1.8018484115600586,-0.044300079345703125,0.5265064239501953
1790266834135566600,3.019566650390625,-2.3848018646240234,-1.427100658416748,-0.09145569801330566
1790266834145566500,3.02956640625,-2.6877951622009277,-2.5862908363342285,-0.41905975341796875
1790266834155566600,3.039566650390625,-2.5228004455566406,-3.19317626953125,-0.07999014854431152
1790266834165566500,3.04956640625,-2.289796829223633,-3.0026822090148926,0.3928718566894531
1790266834175566600,3.059566650390625,-1.723973274230957,-2.7772984504699707,0.9649832248687744
1790266834185566500,3.06956640625,-1.138258457183838,-2.480691909790039,1.7026958465576172
1790266834195566600,3.079566650390625,-0.8513345718383789,-2.244170665740967,2.182495355606079
1790266834205566500,3.08956640625,-0.9549708366394043,-2.077589511871338,2.6674108505249023
1790266834215566600,3.099566650390625,-1.5370287895202637,-2.031832695007324,2.8819806575775146
1790266834225566500,3.10956640625,-2.0797791481018066,-2.1956071853637695,2.929126262664795
1790266834235566600,3.119566650390625,-2.6867685317993164,-2.557852268218994,3.027832269668579
1790266834245566500,3.12956640625,-3.2230782508850098,-2.949679374694824,3.2264130115509033
1790266834255566600,3.139566650390625,-2.4740185737609863,-3.5530381202697754,3.014831781387329
1790266834265566500,3.14956640625,-0.828406810760498,-4.120665073394775,2.3404619693756104
1790266834275566600,3.159566650390625,-0.24810504913330078,-4.25600528717041,2.1205761432647705
1790266834285566500,3.16956640625,-0.9124040603637695,-3.987626075744629,2.1308159828186035
1790266834295566600,3.179566650390625,-1.0873842239379883,-3.5827393531799316,2.32047438621521
1790266834305566500,3.18956640625,0.21956634521484375,-3.350371837615967,2.202347755432129
1790266834315566600,3.199566650390625,1.7052431106567383,-3.1187081336975098,1.5046913623809814
1790266834325566500,3.20956640625,2.8193206787109375,-2.785301923751831,0.4924764633178711
1790266834335566600,3.219566650390625,3.697892665863037,-2.2621617317199707,-0.43059325218200684
1790266834345566500,3.22956640625,4.286481857299805,-1.443345546722412,-1.0963048934936523
1790266834355566600,3.239566650390625,4.5090789794921875,-0.6676270961761475,-1.4875696897506714
1790266834365566500,3.24956640625,5.0784807205200195,-0.04550909996032715,-1.4159152507781982
1790266834375566600,3.259566650390625,5.236571311950684,0.4140230417251587,-0.9845101833343506
1790266834385566500,3.26956640625,4.46529483795166,0.767353892326355,-0.8694031238555908
1790266834395566600,3.279566650390625,4.967895030975342,0.883419394493103,-0.9515129327774048
1790266834405566500,3.28956640625,5.861343860626221,0.741073489189148,-0.8631391525268555
1790266834415566600,3.299566650390625,5.889850616455078,0.28581178188323975,-1.0602281093597412
1790266834425566500,3.30956640625,6.248142242431641,-0.10912299156188965,-1.4161686897277832
1790266834435566600,3.319566650390625,6.45552396774292,-0.2750401496887207,-1.7869666814804077
1790266834445566500,3.32956640625,6.529827117919922,-0.16575491428375244,-2.5017242431640625
1790266834455566600,3.339566650390625,7.16562557220459,0.26394879817962646,-3.4794373512268066
1790266834465566500,3.34956640625,7.111475944519043,0.9595819711685181,-4.390572547912598
1790266834475566600,3.359566650390625,6.570188045501709,1.6877295970916748,-4.567531585693359
1790266834485566500,3.36956640625,6.009476661682129,2.163198471069336,-3.9557125568389893
1790266834495566600,3.379566650390625,5.678737163543701,2.348719596862793,-3.1012890338897705
1790266834505566500,3.38956640625,6.124615669250488,2.251453399658203,-2.433734655380249
1790266834515566600,3.399566650390625,6.900014877319336,2.146721124649048,-2.287338972091675
1790266834525566500,3.40956640625,7.293906211853027,2.1412692070007324,-2.7328779697418213
1790266834535566600,3.419566650390625,7.572722434997559,2.195523738861084,-3.1807589530944824
1790266834545566500,3.42956640625,7.934683799743652,2.302067756652832,-3.4573984146118164
1790266834555566600,3.439566650390625,7.268119812011719,2.5370750427246094,-3.910942554473877
1790266834565566500,3.44956640625,5.808694839477539,2.781616449356079,-4.176196575164795
1790266834575566600,3.459566650390625,4.643885612487793,2.9264235496520996,-3.5846352577209473
1790266834585566500,3.46956640625,4.389697074890137,2.767282009124756,-2.8281965255737305
1790266834595566600,3.479566650390625,4.324146270751953,2.308523416519165,-2.3616714477539062
1790266834605566500,3.48956640625,4.167319297790527,1.668485403060913,-1.9508473873138428
1790266834615566600,3.499566650390625,3.86012601852417,0.9340071678161621,-1.5481605529785156
1790266834625566500,3.50956640625,3.694014549255371,0.39919495582580566,-0.9195597171783447
1790266834635566600,3.519566650390625,3.4045958518981934,-0.34841370582580566,-0.08207535743713379
1790266834645566500,3.52956640625,2.9600329399108887,-1.1663236618041992,0.6789960861206055
1790266834655566600,3.539566650390625,2.351945400238037,-1.8804419040679932,1.247267484664917
1790266834665566500,3.54956640625,1.895237922668457,-2.5411691665649414,1.6442182064056396
1790266834675566600,3.559566650390625,1.502528190612793,-3.0602335929870605,1.8156867027282715
1790266834685566500,3.56956640625,1.300933837890625,-3.5506086349487305,1.6308550834655762
1790266834695566600,3.579566650390625,0.7477526664733887,-4.086514472961426,1.4482407569885254
1790266834705566500,3.58956640625,0.2362375259399414,-4.91934871673584,1.7893486022949219
1790266834715566600,3.599566650390625,-0.29425573348999023,-5.723340034484863,2.090703010559082
1790266834725566500,3.60956640625,-1.5138602256774902,-5.941596031188965,2.18588924407959
1790266834735566600,3.619566650390625,-2.706851005554199,-5.829430103302002,2.2371068000793457
1790266834745566500,3.62956640625,-3.4472975730895996,-5.4193644523620605,2.395806312561035
1790266834755566600,3.639566650390625,-3.435957431793213,-4.688827991485596,2.4275293350219727
1790266834765566500,3.64956640625,-3.1080727577209473,-3.8746514320373535,2.3473892211914062
1790266834775566600,3.659566650390625,-3.065742015838623,-2.8941140174865723,2.2584357261657715
1790266834785566500,3.66956640625,-3.225863456726074,-2.170106887817383,2.197192430496216
1790266834795566600,3.679566650390625,-3.593306541442871,-1.6896729469299316,2.091597557067871
1790266834805566500,3.68956640625,-3.654447555541992,-1.5276122093200684,1.794313907623291
1790266834815566600,3.699566650390625,-3.7986464500427246,-1.5616121292114258,1.3978734016418457
1790266834825566500,3.70956640625,-4.015013217926025,-1.4816575050354004,0.7402334213256836
1790266834835566600,3.719566650390625,-4.192874908447266,-1.4597020149230957,0.06826186180114746
1790266834845566500,3.72956640625,-4.234391212463379,-1.403815746307373,-0.3353731632232666
1790266834855566600,3.739566650390625,-4.392230033874512,-1.328834056854248,-0.2827720642089844
1790266834865566500,3.74956640625,-4.793664932250977,-1.330500602722168,-0.017470121383666992
1790266834875566600,3.759566650390625,-5.016758918762207,-1.5361380577087402,0.30302000045776367
1790266834885566500,3.76956640625,-4.887034893035889,-1.9257020950317383,0.5861008167266846
1790266834895566600,3.779566650390625,-4.563093185424805,-2.4080257415771484,0.9280881881713867
1790266834905566500,3.78956640625,-4.2223639488220215,-2.727235794067383,1.3380680084228516
1790266834915566600,3.799566650390625,-4.252487659454346,-2.8097639083862305,1.764507532119751
1790266834925566500,3.80956640625,-4.67727518081665,-2.560722827911377,1.8397634029388428
1790266834935566600,3.819566650390625,-4.548765182495117,-2.0996041297912598,1.655165433883667
1790266834945566500,3.82956640625,-3.2797069549560547,-1.6253008842468262,1.4054672718048096
1790266834955566600,3.839566650390625,-1.5889134407043457,-1.1714715957641602,0.9305636882781982
1790266834965566500,3.84956640625,-0.5187015533447266,-0.7992000579833984,0.4834177494049072
1790266834975566600,3.859566650390625,-0.9115724563598633,-0.49285078048706055,-0.03670954704284668
1790266834985566500,3.86956640625,-2.083523750305176,-0.24972105026245117,-0.3144645690917969
1790266834995566600,3.879566650390625,-2.6702489852905273,-0.16234064102172852,-0.09809684753417969
1790266835005566500,3.88956640625,-2.5137314796447754,-0.21015119552612305,0.6670548915863037
1790266835015566600,3.899566650390625,-2.3530116081237793,-0.39910030364990234,1.4354474544525146
1790266835025566500,3.90956640625,-2.6198668479919434,-0.7427754402160645,1.9389586448669434
1790266835035566600,3.919566650390625,-2.8709683418273926,-1.1750950813293457,2.1762869358062744
1790266835045566500,3.92956640625,-2.691201686859131,-1.6062345504760742,2.085923910140991
1790266835055566600,3.939566650390625,-1.9314231872558594,-1.908790111541748,1.6660373210906982
1790266835065566500,3.94956640625,-1.130664348602295,-2.0202436447143555,1.0770418643951416
1790266835075566600,3.959566650390625,-1.309837818145752,-2.0873332023620605,0.755469799041748
1790266835085566500,3.96956640625,-2.0376787185668945,-2.340020179748535,0.9336826801300049
1790266835095566600,3.979566650390625,-2.570466995239258,-2.8747239112854004,1.6777379512786865
1790266835105566500,3.98956640625,-2.277498245239258,-3.7265539169311523,2.757894277572632
1790266835115566600,3.999566650390625,-1.6811928749084473,-4.557892322540283,3.300410032272339
1790266835125566500,4.00956640625,-1.1053333282470703,-4.945830345153809,2.9073104858398438
1790266835135566600,4.019566650390625,-0.8029208183288574,-4.78912878036499,2.2524685859680176
1790266835145566500,4.02956640625,-0.6161012649536133,-4.392449855804443,1.9713389873504639
1790266835155566600,4.039566650390625,-0.025710105895996094,-4.025282382965088,1.8884737491607666
1790266835165566500,4.04956640625,0.3680591583251953,-3.537458896636963,1.663740873336792
1790266835175566600,4.059566650390625,0.7105259895324707,-2.887956142425537,1.2877438068389893
1790266835185566500,4.06956640625,1.1892046928405762,-2.165027379989624,1.0192484855651855
1790266835195566600,4.079566650390625,1.4246444702148438,-1.5930607318878174,1.130012035369873
1790266835205566500,4.08956640625,1.1546497344970703,-1.3423562049865723,1.3255183696746826
1790266835215566600,4.099566650390625,1.2364025115966797,-1.4419362545013428,1.022672176361084
1790266835225566500,4.10956640625,2.77032470703125,-1.6297638416290283,0.5805773735046387
1790266835235566600,4.119566650390625,4.266669273376465,-1.539867877960205,0.16518831253051758
1790266835245566500,4.12956640625,4.899896621704102,-1.1978759765625,-0.36312341690063477
1790266835255566600,4.139566650390625,5.118865966796875,-0.9062290191650391,-0.9006049633026123
1790266835265566500,4.14956640625,5.869265556335449,-0.606842041015625,-1.5337560176849365
1790266835275566600,4.159566650390625,6.699915885925293,-0.20631909370422363,-2.000424385070801
1790266835285566500,4.16956640625,6.961441516876221,0.31845831871032715,-2.337958812713623
1790266835295566600,4.179566650390625,7.179358959197998,1.1221379041671753,-2.9956212043762207
1790266835305566500,4.18956640625,7.296420097351074,2.010582447052002,-3.643841028213501
1790266835315566600,4.199566650390625,7.059216499328613,2.61906099319458,-3.921767234802246
1790266835325566500,4.20956640625,6.848419189453125,2.6400561332702637,-3.6033709049224854
1790266835335566600,4.219566650390625,6.78953218460083,2.0488433837890625,-3.1784420013427734
1790266835345566500,4.22956640625,6.866014003753662,1.5894107818603516,-2.7789831161499023
1790266835355566600,4.239566650390625,6.71058464050293,1.6099069118499756,-2.320862054824829
1790266835365566500,4.24956640625,6.423614025115967,1.7130284309387207,-2.0546910762786865
1790266835375566600,4.259566650390625,6.12885856628418,1.782972812652588,-1.9689284563064575
1790266835385566500,4.26956640625,6.040005683898926,1.7517361640930176,-2.0395352840423584
1790266835395566600,4.279566650390625,6.251016139984131,1.7526594400405884,-2.1746039390563965
1790266835405566500,4.28956640625,6.585848331451416,1.821582317352295,-2.3159375190734863
1790266835415566600,4.299566650390625,6.667214393615723,1.9981783628463745,-2.5207369327545166
1790266835425566500,4.30956640625,6.529290676116943,2.1669864654541016,-2.6993298530578613
1790266835435566600,4.319566650390625,6.2366414070129395,2.261523962020874,-2.918100357055664
1790266835445566500,4.32956640625,5.5093278884887695,2.3230371475219727,-3.114701747894287
1790266835455566600,4.339566650390625,4.437150001525879,2.341367483139038,-3.2242813110351562
1790266835465566500,4.34956640625,3.5238723754882812,2.334177255630493,-3.039783000946045
1790266835475566600,4.359566650390625,2.732865333557129,2.2971251010894775,-2.6575727462768555
1790266835485566500,4.36956640625,2.4412078857421875,2.108898878097534,-2.1736199855804443
1790266835495566600,4.379566650390625,2.4890198707580566,1.6237413883209229,-1.642075538635254
1790266835505566500,4.38956640625,2.808084011077881,0.8042874336242676,-0.9859092235565186
1790266835515566600,4.399566650390625,2.750875473022461,-0.23299050331115723,-0.22206950187683105
1790266835525566500,4.40956640625,2.6472506523132324,-1.4385154247283936,0.2740159034729004
1790266835535566600,4.419566650390625,2.3119750022888184,-2.7999706268310547,0.38929033279418945
1790266835545566500,4.42956640625,1.5583291053771973,-4.1477766036987305,0.28301286697387695
1790266835555566600,4.439566650390625,0.9642333984375,-5.222917556762695,0.30706787109375
1790266835565566500,4.44956640625,0.49953269958496094,-6.150250434875488,0.5279951095581055
1790266835575566600,4.459566650390625,-0.0015320777893066406,-6.707533836364746,1.0750174522399902
1790266835585566500,4.46956640625,-0.8327999114990234,-6.7166056632995605,1.9242420196533203
1790266835595566600,4.479566650390625,-1.9710259437561035,-6.002247333526611,2.5403590202331543
1790266835605566500,4.48956640625,-3.177560806274414,-4.952528953552246,2.683216094970703
1790266835615566600,4.499566650390625,-3.9791345596313477,-3.937194347381592,2.71089506149292
1790266835625566500,4.50956640625,-4.131535053253174,-3.1439075469970703,2.827291488647461
1790266835635566600,4.519566650390625,-3.8995985984802246,-2.578420639038086,2.975419759750366
1790266835645566500,4.52956640625,-3.9221391677856445,-2.2782769203186035,2.9894587993621826
1790266835655566600,4.539566650390625,-4.139978408813477,-2.1936893463134766,2.7182772159576416
1790266835665566500,4.54956640625,-3.943215847015381,-2.3371424674987793,2.1493539810180664
1790266835675566600,4.559566650390625,-3.6208882331848145,-2.5333781242370605,1.4258785247802734
1790266835685566500,4.56956640625,-3.7227931022644043,-2.5514941215515137,0.7121880054473877
1790266835695566600,4.579566650390625,-4.123650550842285,-2.366326332092285,0.11429929733276367
1790266835705566500,4.58956640625,-4.308474063873291,-2.076643943786621,-0.08454751968383789
1790266835715566600,4.599566650390625,-4.1800408363342285,-1.7490615844726562,0.06737518310546875
1790266835725566500,4.60956640625,-4.259720325469971,-1.429908275604248,0.44668126106262207
1790266835735566600,4.619566650390625,-4.354470252990723,-1.1656808853149414,0.9674348831176758
1790266835745566500,4.62956640625,-4.3462371826171875,-0.9433555603027344,1.4388537406921387
1790266835755566600,4.639566650390625,-4.009285926818848,-0.7165470123291016,1.8282530307769775
1790266835765566500,4.64956640625,-3.7318367958068848,-0.44589948654174805,2.1119723320007324
1790266835775566600,4.659566650390625,-3.722959518432617,-0.22007322311401367,2.262510061264038
1790266835785566500,4.66956640625,-3.9125375747680664,-0.2703857421875,2.4181149005889893
1790266835795566600,4.679566650390625,-3.949577808380127,-0.6696968078613281,2.5185375213623047
1790266835805566500,4.68956640625,-3.485851764678955,-0.9922780990600586,2.2587966918945312
1790266835815566600,4.699566650390625,-2.808711051940918,-1.127049446105957,2.0195865631103516
1790266835825566500,4.70956640625,-2.2680764198303223,-1.094071388244629,1.9047112464904785
1790266835835566600,4.719566650390625,-1.8335347175598145,-0.9010658264160156,1.7099707126617432
1790266835845566500,4.72956640625,-1.5959506034851074,-0.6251626014709473,1.6576778888702393
1790266835855566600,4.739566650390625,-1.5736498832702637,-0.49413204193115234,1.7182040214538574
1790266835865566500,4.74956640625,-1.5297279357910156,-0.5573668479919434,1.7832212448120117
1790266835875566600,4.759566650390625,-1.549903392791748,-0.7577738761901855,1.6946420669555664
1790266835885566500,4.76956640625,-1.9275856018066406,-1.0323853492736816,1.5073871612548828
1790266835895566600,4.779566650390625,-2.8368988037109375,-1.4806437492370605,1.4383156299591064
1790266835905566500,4.78956640625,-3.567094326019287,-2.21659517288208,1.8056581020355225
1790266835915566600,4.799566650390625,-3.989588737487793,-3.262772560119629,2.533141613006592
1790266835925566500,4.80956640625,-3.552600383758545,-4.418292999267578,3.2013232707977295
1790266835935566600,4.819566650390625,-2.485661029815674,-5.366518497467041,3.6815714836120605
1790266835945566500,4.82956640625,-2.035181999206543,-5.743223667144775,3.8553879261016846
1790266835955566600,4.839566650390625,-2.030186653137207,-5.29597282409668,3.8921194076538086
1790266835965566500,4.84956640625,-1.7283391952514648,-4.284402370452881,3.7293548583984375
1790266835975566600,4.859566650390625,-0.900120735168457,-3.307666778564453,3.4881856441497803
1790266835985566500,4.86956640625,-0.10975074768066406,-2.6127943992614746,3.005573272705078
1790266835995566600,4.879566650390625,0.3147554397583008,-2.190873146057129,2.327627420425415
1790266836005566500,4.88956640625,0.7777070999145508,-1.9414019584655762,1.532780647277832
1790266836015566600,4.899566650390625,1.5102062225341797,-1.7565813064575195,0.8001172542572021
1790266836025566500,4.90956640625,2.127397060394287,-1.507185935974121,0.23393845558166504
1790266836035566600,4.919566650390625,2.132500171661377,-1.2226643562316895,-0.08260583877563477
1790266836045566500,4.92956640625,2.303030014038086,-0.9106318950653076,-0.25875067710876465
1790266836055566600,4.939566650390625,2.8524370193481445,-0.5546424388885498,-0.3389275074005127
1790266836065566500,4.94956640625,3.4059929847717285,-0.25342464447021484,-0.3851473331451416
1790266836075566600,4.959566650390625,3.9096555709838867,-0.1454789638519287,-0.553870677947998
1790266836085566500,4.96956640625,5.09340763092041,-0.34615135192871094,-0.6769499778747559
1790266836095566600,4.979566650390625,5.937146186828613,-0.728973388671875,-0.8551745414733887
1790266836105566500,4.98956640625,5.255345344543457,-0.9634978771209717,-1.631121277809143
1790266836115566600,4.999566650390625,4.369168758392334,-0.8227252960205078,-2.727172613143921
1790266836125566500,5.00956640625,4.720489978790283,-0.3490712642669678,-3.426576852798462
1790266836135566600,5.019566650390625,5.368876934051514,0.49283385276794434,-3.5287880897521973
1790266836145566500,5.02956640625,5.23762321472168,1.4243805408477783,-3.2355098724365234
1790266836155566600,5.039566650390625,4.670524597167969,2.225344657897949,-2.9144139289855957
1790266836165566500,5.04956640625,4.669549942016602,2.543100595474243,-2.9949851036071777
1790266836175566600,5.059566650390625,4.6906418800354,2.135622978210449,-3.377438545227051
1790266836185566500,5.06956640625,4.814367294311523,1.148388147354126,-3.0418922901153564
1790266836195566600,5.079566650390625,5.0700788497924805,0.20586693286895752,-2.1227774620056152
1790266836205566500,5.08956640625,5.131086349487305,-0.17575490474700928,-1.6800801753997803
1790266836215566600,5.099566650390625,5.519318580627441,0.14668142795562744,-1.87921142578125
1790266836225566500,5.10956640625,6.094838619232178,0.9975269436836243,-2.7289087772369385
1790266836235566600,5.119566650390625,6.686989784240723,1.9610072374343872,-3.497184991836548
1790266836245566500,5.12956640625,6.969285011291504,2.7219691276550293,-3.8473758697509766
1790266836255566600,5.139566650390625,7.090332984924316,3.177194356918335,-3.814082145690918
1790266836265566500,5.14956640625,7.184864044189453,3.3173766136169434,-3.8669233322143555
1790266836275566600,5.159566650390625,7.12485408782959,3.2301738262176514,-3.9896819591522217
1790266836285566500,5.16956640625,6.755632400512695,2.934436798095703,-4.0101118087768555
1790266836295566600,5.179566650390625,5.824430465698242,2.603691816329956,-3.962273120880127
1790266836305566500,5.18956640625,4.755001068115234,2.2585089206695557,-3.7616453170776367
1790266836315566600,5.199566650390625,3.7833542823791504,1.8800289630889893,-3.3514206409454346
1790266836325566500,5.20956640625,3.578665256500244,1.4670631885528564,-2.884793281555176
1790266836335566600,5.219566650390625,2.9260106086730957,1.1235246658325195,-2.2790024280548096
1790266836345566500,5.22956640625,2.4304962158203125,0.7481822967529297,-1.4811694622039795
1790266836355566600,5.239566650390625,2.042912006378174,0.2678236961364746,-0.7868874073028564
1790266836365566500,5.24956640625,2.174227714538574,-0.3013651371002197,-0.09284591674804688
1790266836375566600,5.259566650390625,2.5447897911071777,-0.8425278663635254,0.08307075500488281
1790266836385566500,5.26956640625,2.269176483154297,-1.4125161170959473,-0.14747285842895508
1790266836395566600,5.279566650390625,1.4273505210876465,-2.0358152389526367,-0.521827220916748
1790266836405566500,5.28956640625,0.10695123672485352,-2.7282204627990723,-0.5775613784790039
1790266836415566600,5.299566650390625,-0.6538887023925781,-3.409457206726074,-0.2239079475402832
1790266836425566500,5.30956640625,-1.5808930397033691,-4.070017337799072,0.15230607986450195
1790266836435566600,5.319566650390625,-1.877164363861084,-4.742978572845459,0.38429927825927734
1790266836445566500,5.32956640625,-2.120417594909668,-5.3802642822265625,0.4441518783569336
1790266836455566600,5.339566650390625,-2.001392364501953,-5.868097305297852,0.566068172454834
1790266836465566500,5.34956640625,-1.9905457496643066,-6.069090366363525,0.8044228553771973
1790266836475566600,5.359566650390625,-2.436781406402588,-5.945560455322266,1.1400527954101562
1790266836485566500,5.36956640625,-2.889554977416992,-5.391702175140381,1.4928197860717773
1790266836495566600,5.379566650390625,-3.494351863861084,-4.5584564208984375,1.5886907577514648
1790266836505566500,5.38956640625,-4.118875026702881,-3.476471424102783,1.3809027671813965
1790266836515566600,5.399566650390625,-4.734272003173828,-2.549705982208252,1.207651138305664
1790266836525566500,5.40956640625,-5.287476062774658,-1.8761277198791504,1.3305788040161133
1790266836535566600,5.419566650390625,-5.186149597167969,-1.5146074295043945,1.5334529876708984
1790266836545566500,5.42956640625,-4.8266282081604,-1.458524227142334,1.6793899536132812
1790266836555566600,5.439566650390625,-4.481426239013672,-1.3376455307006836,1.697230339050293
1790266836565566500,5.44956640625,-4.505095958709717,-1.1576881408691406,1.7787089347839355
1790266836575566600,5.459566650390625,-4.532164096832275,-1.0209860801696777,1.7848975658416748
1790266836585566500,5.46956640625,-4.226873397827148,-0.9479947090148926,1.820911169052124
1790266836595566600,5.479566650390625,-3.6643972396850586,-0.928220272064209,2.0283701419830322
1790266836605566500,5.48956640625,-2.9373788833618164,-0.8082304000854492,2.2040348052978516
1790266836615566600,5.499566650390625,-2.405238151550293,-0.4425168037414551,2.200589656829834
1790266836625566500,5.50956640625,-2.0280213356018066,0.0728459358215332,1.9834215641021729
1790266836635566600,5.519566650390625,-1.8243861198425293,0.6160764694213867,1.695345401763916
1790266836645566500,5.52956640625,-1.9056119918823242,0.8561997413635254,1.5217022895812988
1790266836655566600,5.539566650390625,-2.040243625640869,0.5329790115356445,1.5482656955718994
1790266836665566500,5.54956640625,-2.2732443809509277,-0.22754573822021484,1.607994556427002
1790266836675566600,5.559566650390625,-2.5456066131591797,-0.9800863265991211,1.6933729648590088
1790266836685566500,5.56956640625,-2.560666561126709,-1.4440903663635254,1.5883684158325195
1790266836695566600,5.579566650390625,-2.642533302307129,-1.618509292602539,1.225480079650879
1790266836705566500,5.58956640625,-2.658083438873291,-1.7493653297424316,0.7836120128631592
1790266836715566600,5.599566650390625,-2.298830509185791,-1.9047398567199707,0.6701385974884033
1790266836725566500,5.60956640625,-1.9068098068237305,-2.0552010536193848,0.9843721389770508
1790266836735566600,5.619566650390625,-3.17966890335083,-2.0492777824401855,1.4366393089294434
1790266836745566500,5.62956640625,-6.097529411315918,-2.1298608779907227,2.045175552368164
1790266836755566600,5.639566650390625,-7.736606121063232,-2.593564987182617,3.2414839267730713
1790266836765566500,5.64956640625,-7.580982208251953,-3.339250087738037,4.666581153869629
1790266836775566600,5.659566650390625,-4.48374080657959,-4.034034252166748,5.134568214416504
1790266836785566500,5.66956640625,1.5822272300720215,-4.09298849105835,3.0148420333862305
1790266836795566600,5.679566650390625,5.3795318603515625,-2.935894012451172,0.7360587120056152
1790266836805566500,5.68956640625,5.285346031188965,-0.9794306755065918,-0.38755226135253906
1790266836815566600,5.699566650390625,2.9325108528137207,0.8314552307128906,-1.272479772567749
1790266836825566500,5.70956640625,-0.15123462677001953,1.8989086151123047,-1.9985952377319336
1790266836835566600,5.719566650390625,-2.7124743461608887,1.3767566680908203,-0.26381373405456543
1790266836845566500,5.72956640625,-2.8285369873046875,-0.36342334747314453,3.08516263961792
1790266836855566600,5.739566650390625,-0.25402021408081055,-2.0691137313842773,4.463906288146973
1790266836865566500,5.74956640625,2.8019490242004395,-2.826247215270996,2.2906434535980225
1790266836875566600,5.759566650390625,4.143639087677002,-2.484492778778076,-0.29949355125427246
1790266836885566500,5.76956640625,3.0515952110290527,-1.3179020881652832,-1.2931857109069824
1790266836895566600,5.779566650390625,1.4299697875976562,-0.0783987045288086,-0.5332379341125488
1790266836905566500,5.78956640625,0.27343320846557617,0.5057625770568848,0.3956413269042969
1790266836915566600,5.799566650390625,-0.229461669921875,0.5893750190734863,1.0420629978179932
1790266836925566500,5.80956640625,0.6184864044189453,0.4473152160644531,1.110363483428955
1790266836935566600,5.819566650390625,2.201620101928711,0.4022650718688965,0.4823644161224365
1790266836945566500,5.82956640625,3.204512596130371,0.5471386909484863,-0.19546127319335938
1790266836955566600,5.839566650390625,2.977996349334717,0.863163948059082,-0.5176386833190918
1790266836965566500,5.84956640625,1.6642909049987793,1.0528373718261719,-0.32688450813293457
1790266836975566600,5.859566650390625,0.5133724212646484,0.7399141788482666,0.22292685508728027
1790266836985566500,5.86956640625,0.3923215866088867,0.00012421607971191406,0.7480649948120117
1790266836995566600,5.879566650390625,0.7129936218261719,-0.7065484523773193,0.8323609828948975
1790266837005566500,5.88956640625,1.2308988571166992,-0.9091310501098633,1.009948492050171
1790266837015566600,5.899566650390625,1.5054693222045898,-0.6899113655090332,1.10744047164917
1790266837025566500,5.90956640625,1.117934226989746,-0.2921173572540283,1.0302190780639648
1790266837035566600,5.919566650390625,0.5302619934082031,-0.04508566856384277,0.5909180641174316
1790266837045566500,5.92956640625,0.7191667556762695,0.036134958267211914,-0.0038161277770996094
1790266837055566600,5.939566650390625,1.205561637878418,0.037520647048950195,-0.465850830078125
1790266837065566500,5.94956640625,1.3106260299682617,-0.2517893314361572,-0.847832202911377
1790266837075566600,5.959566650390625,1.1541070938110352,-0.9214065074920654,-1.1084660291671753
1790266837085566500,5.96956640625,1.3905525207519531,-1.4845576286315918,-1.4613616466522217
1790266837095566600,5.979566650390625,1.9107418060302734,-1.4655497074127197,-1.8254361152648926
1790266837105566500,5.98956640625,2.1832895278930664,-1.2262635231018066,-1.6925981044769287
1790266837115566600,5.999566650390625,1.935926914215088,-1.0026271343231201,-0.9874699115753174
1790266837125566500,6.00956640625,1.8221511840820312,-0.7731561660766602,-0.5249135494232178
1790266837135566600,6.019566650390625,2.3707170486450195,-0.3230013847351074,-0.9089334011077881
1790266837145566500,6.02956640625,2.6480331420898438,0.21301090717315674,-1.3838489055633545
1790266837155566600,6.039566650390625,2.3593740463256836,0.4448211193084717,-1.1543734073638916
1790266837165566500,6.04956640625,2.0360231399536133,0.598846435546875,-0.8407843112945557
1790266837175566600,6.059566650390625,2.060915470123291,0.9482256174087524,-0.7087864875793457
1790266837185566500,6.06956640625,1.9677753448486328,0.9680064916610718,-0.6253509521484375
1790266837195566600,6.079566650390625,2.3206615447998047,0.6202401518821716,-0.608551025390625
1790266837205566500,6.08956640625,2.317647933959961,0.31572282314300537,-0.5868926048278809
1790266837215566600,6.099566650390625,2.012369155883789,0.24882113933563232,-0.5054481029510498
1790266837225566500,6.10956640625,1.6229147911071777,0.28197646141052246,-0.4985034465789795
1790266837235566600,6.119566650390625,1.5061025619506836,0.1887291669845581,-0.8196544647216797
1790266837245566500,6.12956640625,1.7237625122070312,0.19657933712005615,-0.888174295425415
1790266837255566600,6.139566650390625,1.9903221130371094,0.2525597810745239,-0.9645700454711914
1790266837265566500,6.14956640625,1.8889284133911133,0.34087836742401123,-1.1568405628204346
1790266837275566600,6.159566650390625,2.14321231842041,0.41872185468673706,-1.621711015701294
1790266837285566500,6.16956640625,2.3202061653137207,0.578220009803772,-2.042664051055908
1790266837295566600,6.179566650390625,2.150157928466797,0.779616117477417,-2.431983470916748
1790266837305566500,6.18956640625,2.169610023498535,0.9832513332366943,-2.542178153991699
1790266837315566600,6.199566650390625,2.246967315673828,1.156977653503418,-2.482733964920044
1790266837325566500,6.20956640625,2.249138832092285,1.3416309356689453,-2.4089839458465576
1790266837335566600,6.219566650390625,2.076247215270996,1.3298933506011963,-2.313770055770874
1790266837345566500,6.22956640625,1.8542962074279785,1.1235078573226929,-2.166043758392334
1790266837355566600,6.239566650390625,1.7166175842285156,0.8350949287414551,-1.859410285949707
1790266837365566500,6.24956640625,1.2930126190185547,0.5328248739242554,-1.5040929317474365
1790266837375566600,6.259566650390625,1.1411352157592773,0.16183996200561523,-1.121678113937378
1790266837385566500,6.26956640625,1.383260726928711,-0.13114070892333984,-0.9616134166717529
1790266837395566600,6.279566650390625,1.0094218254089355,-0.20461773872375488,-0.8676788806915283
1790266837405566500,6.28956640625,1.0823631286621094,-0.14644432067871094,-0.6651675701141357
1790266837415566600,6.299566650390625,1.1951985359191895,0.056878089904785156,-0.7081668376922607
1790266837425566500,6.30956640625,0.9676933288574219,0.3489501476287842,-0.9658010005950928
1790266837435566600,6.319566650390625,0.7039961814880371,0.7168776988983154,-0.9345779418945312
1790266837445566500,6.32956640625,0.6720271110534668,1.0122802257537842,-0.930762529373169
1790266837455566600,6.339566650390625,0.8400182723999023,1.1972947120666504,-0.961644172668457
1790266837465566500,6.34956640625,1.0517873764038086,1.1875905990600586,-0.9624032974243164
1790266837475566600,6.359566650390625,1.0071592330932617,1.1044731140136719,-0.965665340423584
1790266837485566500,6.36956640625,1.0273056030273438,0.902346134185791,-0.8086977005004883
1790266837495566600,6.379566650390625,1.2573580741882324,0.6683745384216309,-0.6568703651428223
1790266837505566500,6.38956640625,1.1005949974060059,0.4371960163116455,-0.6004765033721924
1790266837515566600,6.399566650390625,1.115778923034668,0.23599767684936523,-0.4810831546783447
1790266837525566500,6.40956640625,1.1871938705444336,0.0709829330444336,-0.3618290424346924
1790266837535566600,6.419566650390625,1.1566200256347656,-0.04904747009277344,-0.3483567237854004
1790266837545566500,6.42956640625,0.8377413749694824,-0.0798635482788086,-0.34516334533691406
1790266837555566600,6.439566650390625,0.43935585021972656,-0.04634428024291992,-0.24602556228637695
1790266837565566500,6.44956640625,0.11055612564086914,0.04096221923828125,-0.17794418334960938
1790266837575566600,6.459566650390625,-0.30619382858276367,0.08656978607177734,-0.1126565933227539
1790266837585566500,6.46956640625,-0.6208534240722656,0.027326583862304688,0.15555858612060547
1790266837595566600,6.479566650390625,-0.7042794227600098,-0.1219482421875,0.5632119178771973
1790266837605566500,6.48956640625,-0.9123616218566895,-0.4001598358154297,0.9037256240844727
1790266837615566600,6.499566650390625,-1.2258358001708984,-0.8060355186462402,1.147165298461914
1790266837625566500,6.50956640625,-1.6204924583435059,-1.299781322479248,1.276799201965332
1790266837635566600,6.519566650390625,-1.625014305114746,-1.9433579444885254,1.1829147338867188
1790266837645566500,6.52956640625,-1.4994897842407227,-2.595033645629883,0.918025016784668
1790266837655566600,6.539566650390625,-1.4270434379577637,-3.0847854614257812,0.8311290740966797
1790266837665566500,6.54956640625,-1.512342929840088,-3.287933349609375,0.8623600006103516
1790266837675566600,6.559566650390625,-1.6700544357299805,-3.135702610015869,0.7588882446289062
1790266837685566500,6.56956640625,-1.7978339195251465,-2.6899495124816895,0.42069053649902344
1790266837695566600,6.579566650390625,-1.9853525161743164,-2.072078227996826,0.04819059371948242
1790266837705566500,6.58956640625,-2.128981590270996,-1.472693920135498,-0.1734638214111328
1790266837715566600,6.599566650390625,-2.2127504348754883,-0.9915742874145508,-0.16576814651489258
1790266837725566500,6.60956640625,-2.225864887237549,-0.6130161285400391,-0.054956912994384766
1790266837735566600,6.619566650390625,-1.9769163131713867,-0.34490299224853516,0.03556513786315918
1790266837745566500,6.62956640625,-1.6234569549560547,-0.32851696014404297,0.12530922889709473
1790266837755566600,6.639566650390625,-1.293215274810791,-0.4974632263183594,0.28125834465026855
1790266837765566500,6.64956640625,-0.9474058151245117,-0.6622862815856934,0.40882372856140137
1790266837775566600,6.659566650390625,-0.5231332778930664,-0.8349804878234863,0.6025071144104004
1790266837785566500,6.66956640625,-0.4974546432495117,-0.9162359237670898,0.7671220302581787
1790266837795566600,6.679566650390625,-0.8809247016906738,-0.8798532485961914,0.7704951763153076
1790266837805566500,6.68956640625,-1.270416259765625,-0.8581223487854004,0.7204113006591797
1790266837815566600,6.699566650390625,-1.784560203552246,-0.8433184623718262,0.6907596588134766
1790266837825566500,6.70956640625,-2.079434394836426,-0.8859395980834961,0.7951812744140625
1790266837835566600,6.719566650390625,-2.054199695587158,-0.9222736358642578,0.9185206890106201
1790266837845566500,6.72956640625,-1.7922906875610352,-1.0361671447753906,1.0177648067474365
1790266837855566600,6.739566650390625,-1.512192726135254,-1.1470794677734375,0.9431724548339844
1790266837865566500,6.74956640625,-1.4133286476135254,-1.1757874488830566,0.7902915477752686
1790266837875566600,6.759566650390625,-1.1984500885009766,-1.1290526390075684,0.6041414737701416
1790266837885566500,6.76956640625,-1.2290115356445312,-0.8734550476074219,0.17630386352539062
1790266837895566600,6.779566650390625,-1.4270296096801758,-0.4870028495788574,-0.27515673637390137
1790266837905566500,6.78956640625,-1.3972787857055664,-0.0673985481262207,-0.40331602096557617
1790266837915566600,6.799566650390625,-1.1590704917907715,0.17842578887939453,-0.33098769187927246
1790266837925566500,6.80956640625,-1.0577569007873535,0.20984649658203125,-0.1432642936706543
1790266837935566600,6.819566650390625,-1.2328715324401855,-0.06696462631225586,0.12566781044006348
1790266837945566500,6.82956640625,-1.2984471321105957,-0.4785141944885254,0.34537649154663086
1790266837955566600,6.839566650390625,-1.2695860862731934,-0.8345522880554199,0.5176982879638672
1790266837965566500,6.84956640625,-1.2554512023925781,-1.1502704620361328,0.4920225143432617
1790266837975566600,6.859566650390625,-1.2914166450500488,-1.406750202178955,0.30180859565734863
1790266837985566500,6.86956640625,-1.2494292259216309,-1.5124783515930176,0.10261392593383789
1790266837995566600,6.879566650390625,-1.1856203079223633,-1.4601898193359375,0.058640480041503906
1790266838005566500,6.88956640625,-1.0343213081359863,-1.3065886497497559,0.13680124282836914
1790266838015566600,6.899566650390625,-0.8089303970336914,-1.0877695083618164,0.20200490951538086
1790266838025566500,6.90956640625,-0.7553215026855469,-0.8125677108764648,0.14931416511535645
1790266838035566600,6.919566650390625,-0.8000621795654297,-0.6121931076049805,0.00805211067199707
1790266838045566500,6.92956640625,-0.7204580307006836,-0.6124334335327148,-0.02602386474609375
1790266838055566600,6.939566650390625,-0.42939329147338867,-0.7059726715087891,0.15895915031433105
1790266838065566500,6.94956640625,-0.045014381408691406,-0.706171989440918,0.401155948638916
1790266838075566600,6.959566650390625,0.21402502059936523,-0.5546450614929199,0.5170049667358398
1790266838085566500,6.96956640625,0.18523597717285156,-0.3181118965148926,0.6027662754058838
1790266838095566600,6.979566650390625,-0.15636873245239258,-0.14296388626098633,0.8046472072601318
1790266838105566500,6.98956640625,-0.6495580673217773,-0.15875720977783203,1.1605639457702637
1790266838115566600,6.999566650390625,-0.9026107788085938,-0.4414663314819336,1.4846084117889404
1790266838125566500,7.00956640625,-0.7721076011657715,-0.8047332763671875,1.665179967880249
1790266838135566600,7.019566650390625,-0.6425747871398926,-1.0623788833618164,1.7145051956176758
1790266838145566500,7.02956640625,-0.824793815612793,-1.2072434425354004,1.7228777408599854
1790266838155566600,7.039566650390625,-1.1238503456115723,-1.2895488739013672,1.7586772441864014
1790266838165566500,7.04956640625,-1.107740879058838,-1.3484578132629395,1.8923907279968262
1790266838175566600,7.059566650390625,-0.6496062278747559,-1.3347105979919434,1.9815740585327148
1790266838185566500,7.06956640625,-0.32437944412231445,-1.1281495094299316,2.050971508026123
1790266838195566600,7.079566650390625,-0.37186574935913086,-0.7591586112976074,1.9651241302490234
1790266838205566500,7.08956640625,-0.6497383117675781,-0.38826894760131836,1.7801389694213867
1790266838215566600,7.099566650390625,-0.8743038177490234,-0.2996535301208496,1.589487075805664
1790266838225566500,7.10956640625,-0.78680419921875,-0.4753098487854004,1.4749906063079834
1790266838235566600,7.119566650390625,-0.20909357070922852,-0.7708945274353027,1.456725835800171
1790266838245566500,7.12956640625,0.45310068130493164,-0.8783345222473145,1.3799357414245605
1790266838255566600,7.139566650390625,0.7635602951049805,-0.8398585319519043,1.2010438442230225
1790266838265566500,7.14956640625,0.89788818359375,-0.7645182609558105,0.9461047649383545
1790266838275566600,7.159566650390625,0.9825916290283203,-0.719174861907959,0.8268632888793945
1790266838285566500,7.16956640625,1.0002198219299316,-0.7255353927612305,0.7286186218261719
1790266838295566600,7.179566650390625,1.0611209869384766,-0.7584152221679688,0.598200798034668
1790266838305566500,7.18956640625,1.0862836837768555,-0.6880455017089844,0.5514709949493408
1790266838315566600,7.199566650390625,0.7408790588378906,-0.6202011108398438,0.41844940185546875
1790266838325566500,7.20956640625,0.36812305450439453,-0.6655535697937012,0.12946367263793945
1790266838335566600,7.219566650390625,0.3126344680786133,-0.7110152244567871,-0.05258941650390625
1790266838345566500,7.22956640625,0.5273962020874023,-0.6265907287597656,-0.03317141532897949
1790266838355566600,7.239566650390625,0.9608521461486816,-0.4198312759399414,0.16041302680969238
1790266838365566500,7.24956640625,1.3129801750183105,-0.11009359359741211,0.1462562084197998
1790266838375566600,7.259566650390625,1.3161921501159668,0.12767434120178223,0.012846231460571289
1790266838385566500,7.26956640625,1.2546072006225586,0.09092831611633301,0.012438774108886719
1790266838395566600,7.279566650390625,1.182936191558838,-0.1481611728668213,-0.04826474189758301
1790266838405566500,7.28956640625,1.2673797607421875,-0.5064535140991211,-0.1898958683013916
1790266838415566600,7.299566650390625,1.3175396919250488,-0.7836546897888184,-0.12803983688354492
1790266838425566500,7.30956640625,1.220926284790039,-0.8648126125335693,0.04699277877807617
1790266838435566600,7.319566650390625,1.0743379592895508,-0.825493335723877,0.25832319259643555
1790266838445566500,7.32956640625,0.9880466461181641,-0.8900136947631836,0.3132514953613281
1790266838455566600,7.339566650390625,1.1605358123779297,-1.0366535186767578,0.27551770210266113
1790266838465566500,7.34956640625,1.7666311264038086,-1.2595717906951904,0.20638442039489746
1790266838475566600,7.359566650390625,2.2856502532958984,-1.3403027057647705,-0.06423020362854004
1790266838485566500,7.36956640625,1.6625556945800781,-1.356175184249878,-0.7218718528747559
1790266838495566600,7.379566650390625,1.3701448440551758,-1.8791959285736084,-1.49735689163208
1790266838505566500,7.38956640625,4.447908878326416,-2.764401912689209,-1.2657530307769775
1790266838515566600,7.399566650390625,7.378767013549805,-2.003237247467041,-0.655735969543457
1790266838525566500,7.40956640625,6.688992977142334,0.49431467056274414,-2.3587231636047363
1790266838535566600,7.419566650390625,4.78208065032959,2.6978983879089355,-3.7063560485839844
1790266838545566500,7.42956640625,3.842289924621582,2.7347512245178223,-3.1728806495666504
1790266838555566600,7.439566650390625,3.6170239448547363,1.814838171005249,-2.329127311706543
1790266838565566500,7.44956640625,2.412332534790039,1.4620320796966553,-3.452052593231201
1790266838575566600,7.459566650390625,1.7432193756103516,1.8845551013946533,-3.965087413787842
1790266838585566500,7.46956640625,1.0869855880737305,2.236057758331299,-2.818492889404297
1790266838595566600,7.479566650390625,0.28739261627197266,1.888641595840454,-1.4749488830566406
1790266838605566500,7.48956640625,-0.16698837280273438,0.892622709274292,-0.22467398643493652
1790266838615566600,7.499566650390625,-1.6382217407226562,-0.4344310760498047,1.1452014446258545
1790266838625566500,7.50956640625,-1.927870750427246,-1.4482905864715576,1.955798864364624
1790266838635566600,7.519566650390625,-2.230740547180176,-1.6791664361953735,2.1643009185791016
1790266838645566500,7.52956640625,-1.8855857849121094,-1.455007791519165,1.69281005859375
1790266838655566600,7.539566650390625,-0.9393720626831055,-1.1253143548965454,0.890465259552002
1790266838665566500,7.54956640625,-0.21653079986572266,-0.7704323530197144,-0.21361351013183594
1790266838675566600,7.559566650390625,0.5711164474487305,-0.1430683135986328,-1.1399478912353516
1790266838685566500,7.56956640625,0.9230537414550781,0.46854591369628906,-1.893182396888733
1790266838695566600,7.579566650390625,1.2490720748901367,0.9879589080810547,-2.029956340789795
1790266838705566500,7.58956640625,1.7338638305664062,1.3864938020706177,-1.7991056442260742
1790266838715566600,7.599566650390625,2.4390039443969727,1.7300479412078857,-1.7080808877944946
1790266838725566500,7.60956640625,2.67751407623291,2.059115409851074,-1.759280800819397
1790266838735566600,7.619566650390625,2.577821731567383,2.201660633087158,-1.7283860445022583
1790266838745566500,7.62956640625,2.1381750106811523,2.1298701763153076,-1.5612986087799072
1790266838755566600,7.639566650390625,2.656979560852051,1.8277101516723633,-1.2646971940994263
1790266838765566500,7.64956640625,3.27309513092041,1.38759446144104,-1.273021936416626
1790266838775566600,7.659566650390625,2.3719406127929688,0.9330657720565796,-1.362650752067566
1790266838785566500,7.66956640625,1.5614757537841797,0.44391822814941406,-1.1651599407196045
1790266838795566600,7.679566650390625,0.9394817352294922,0.08446097373962402,-0.8124635219573975
1790266838805566500,7.68956640625,0.51190185546875,-0.09950804710388184,-0.38677287101745605
1790266838815566600,7.699566650390625,0.4160594940185547,-0.21780800819396973,-0.16508030891418457
1790266838825566500,7.70956640625,0.6786041259765625,-0.2745795249938965,-0.12920165061950684
1790266838835566600,7.719566650390625,1.013479232788086,-0.2580599784851074,0.1274576187133789
1790266838845566500,7.72956640625,0.6463994979858398,-0.167999267578125,0.45720791816711426
1790266838855566600,7.739566650390625,0.2834339141845703,-0.07079672813415527,0.9135236740112305
1790266838865566500,7.74956640625,0.9517307281494141,-0.059683799743652344,1.1328237056732178
1790266838875566600,7.759566650390625,1.2777867317199707,-0.02984905242919922,0.9173591136932373
1790266838885566500,7.76956640625,1.061039924621582,0.02419114112854004,0.481428861618042
1790266838895566600,7.779566650390625,0.7718038558959961,0.12034082412719727,0.07065558433532715
1790266838905566500,7.78956640625,0.8220558166503906,0.3530280590057373,-0.21052932739257812
1790266838915566600,7.799566650390625,0.69647216796875,0.6998636722564697,-0.40579676628112793
1790266838925566500,7.80956640625,0.7196865081787109,1.0871801376342773,-0.26321840286254883
1790266838935566600,7.819566650390625,0.5395736694335938,1.3586392402648926,0.06868124008178711
1790266838945566500,7.82956640625,0.4586186408996582,1.3877887725830078,0.1776590347290039
1790266838955566600,7.839566650390625,0.6131620407104492,1.1558489799499512,0.14240789413452148
1790266838965566500,7.84956640625,0.9287905693054199,0.7222623825073242,0.08808755874633789
1790266838975566600,7.859566650390625,0.957298755645752,0.2565619945526123,-0.04150581359863281
1790266838985566500,7.86956640625,0.7028603553771973,-0.1853351593017578,-0.14809417724609375
1790266838995566600,7.879566650390625,0.5492086410522461,-0.5618038177490234,-0.25078535079956055
1790266839005566500,7.88956640625,0.4073314666748047,-0.7994213104248047,-0.39871668815612793
1790266839015566600,7.899566650390625,0.21054506301879883,-0.9172320365905762,-0.49113011360168457
1790266839025566500,7.90956640625,0.058660030364990234,-0.9357948303222656,-0.5936245918273926
1790266839035566600,7.919566650390625,0.1659073829650879,-0.8025140762329102,-0.723696231842041
1790266839045566500,7.92956640625,0.33593082427978516,-0.6423001289367676,-0.7983946800231934
1790266839055566600,7.939566650390625,0.2583613395690918,-0.45726442337036133,-0.7198700904846191
1790266839065566500,7.94956640625,-0.1647944450378418,-0.26007795333862305,-0.37728333473205566
1790266839075566600,7.959566650390625,-0.5833649635314941,-0.0797739028930664,0.028064727783203125
1790266839085566500,7.96956640625,-0.9009819030761719,0.02775096893310547,0.13796329498291016
1790266839095566600,7.979566650390625,-0.9890027046203613,0.006641387939453125,0.13082122802734375
1790266839105566500,7.98956640625,-0.7397637367248535,-0.12245702743530273,0.0674901008605957
1790266839115566600,7.999566650390625,-0.5215110778808594,-0.2847585678100586,-0.07674169540405273
1790266839125566500,8.00956640625,-0.40204572677612305,-0.45544862747192383,-0.07104635238647461
1790266839135566600,8.019566650390624,-0.6414890289306641,-0.6086740493774414,0.09970426559448242
1790266839145566500,8.02956640625,-0.8878364562988281,-0.7902007102966309,0.4121546745300293
1790266839155566600,8.039566650390626,-0.9237098693847656,-1.0991978645324707,0.683713436126709
1790266839165566500,8.04956640625,-1.0857434272766113,-1.4382514953613281,0.748960018157959
1790266839175566600,8.059566650390625,-1.1328353881835938,-1.7209296226501465,0.5765113830566406
1790266839185566500,8.06956640625,-1.0121979713439941,-1.8099770545959473,0.4651947021484375
1790266839195566600,8.079566650390625,-1.0423569679260254,-1.7107343673706055,0.4453420639038086
1790266839205566500,8.08956640625,-0.9469270706176758,-1.4321599006652832,0.5707311630249023
1790266839215566600,8.099566650390624,-1.0301666259765625,-1.0778799057006836,0.4797396659851074
1790266839225566500,8.10956640625,-1.0480403900146484,-0.6763248443603516,0.26009607315063477
1790266839235566600,8.119566650390626,-0.9516921043395996,-0.3352375030517578,0.1902143955230713
1790266839245566500,8.12956640625,-0.9406681060791016,-0.046090126037597656,0.29585957527160645
1790266839255566600,8.139566650390625,-0.9903779029846191,0.12060308456420898,0.4021439552307129
1790266839265566500,8.14956640625,-1.0994091033935547,0.06966781616210938,0.6098103523254395
1790266839275566600,8.159566650390625,-0.9129810333251953,-0.15082550048828125,0.8117945194244385
1790266839285566500,8.16956640625,-0.8890719413757324,-0.41242408752441406,0.8271918296813965
1790266839295566600,8.179566650390624,-0.8959856033325195,-0.675288200378418,0.7809967994689941
1790266839305566500,8.18956640625,-0.8388309478759766,-0.9123945236206055,0.6291930675506592
1790266839315566600,8.199566650390626,-0.9799036979675293,-1.059967041015625,0.5738904476165771
1790266839325566500,8.20956640625,-1.1913447380065918,-1.1187973022460938,0.6564629077911377
1790266839335566600,8.219566650390625,-1.2060766220092773,-1.1046476364135742,0.8570523262023926
1790266839345566500,8.22956640625,-0.611760139465332,-0.9591784477233887,1.087045669555664
1790266839355566600,8.239566650390625,-0.06000566482543945,-0.6781501770019531,1.073763132095337
1790266839365566500,8.24956640625,0.10536766052246094,-0.3334975242614746,0.9097175598144531
1790266839375566600,8.259566650390624,0.013104438781738281,0.0005955696105957031,0.650043249130249
1790266839385566500,8.26956640625,-0.22341489791870117,0.30951786041259766,0.3175215721130371
1790266839395566600,8.279566650390626,-0.41418981552124023,0.5435776710510254,-0.07193851470947266
1790266839405566500,8.28956640625,-0.49910974502563477,0.614997386932373,-0.4425373077392578
1790266839415566600,8.299566650390625,-0.7425384521484375,0.432037353515625,-0.6968421936035156
1790266839425566500,8.30956640625,-1.2959504127502441,-0.1380290985107422,-0.9563560485839844
1790266839435566600,8.319566650390625,-1.3133506774902344,-1.0483922958374023,-0.7919156551361084
1790266839445566500,8.32956640625,-1.0233535766601562,-1.8912324905395508,-0.3314504623413086
1790266839455566600,8.339566650390625,-0.8566374778747559,-2.341866970062256,-0.06325149536132812
1790266839465566500,8.34956640625,-0.7725100517272949,-2.2140703201293945,0.01659226417541504
1790266839475566600,8.359566650390626,-0.6491522789001465,-1.5631604194641113,-0.16477632522583008
1790266839485566500,8.36956640625,-0.5680427551269531,-0.6577482223510742,-0.3231089115142822
1790266839495566600,8.379566650390625,-0.5275344848632812,0.1821765899658203,-0.27538132667541504
1790266839505566500,8.38956640625,-0.5652327537536621,0.6944818496704102,-0.24773812294006348
1790266839515566600,8.399566650390625,-0.6270575523376465,0.8074564933776855,-0.26984405517578125
1790266839525566500,8.40956640625,-0.8428845405578613,0.4127683639526367,-0.1252596378326416
1790266839535566600,8.419566650390625,-1.0973410606384277,-0.2246990203857422,0.016883373260498047
1790266839545566500,8.42956640625,-1.1501178741455078,-0.9009509086608887,0.0359339714050293
1790266839555566600,8.439566650390624,-0.8701677322387695,-1.436589241027832,-0.07596778869628906
1790266839565566500,8.44956640625,-0.7753582000732422,-1.8304638862609863,-0.20676279067993164
1790266839575566600,8.459566650390625,-0.7254619598388672,-2.0882411003112793,-0.15888237953186035
1790266839585566500,8.46956640625,-0.7599477767944336,-2.0855674743652344,-0.01174783706665039
1790266839595566600,8.479566650390625,-0.5447201728820801,-1.8728647232055664,0.13975310325622559
1790266839605566500,8.48956640625,0.0014801025390625,-1.4168062210083008,0.21319079399108887
1790266839615566600,8.499566650390625,0.3779292106628418,-0.7705860137939453,0.11921548843383789
1790266839625566500,8.50956640625,0.33219051361083984,-0.10328388214111328,-0.07793879508972168
1790266839635566600,8.519566650390624,0.11671590805053711,0.40809154510498047,-0.26183652877807617
1790266839645566500,8.52956640625,-0.19354772567749023,0.718050479888916,-0.40137314796447754
1790266839655566600,8.539566650390626,-0.7539577484130859,0.7485966682434082,-0.4858582019805908
1790266839665566500,8.54956640625,-1.4640541076660156,0.38394641876220703,-0.3431253433227539
1790266839675566600,8.559566650390625,-2.056614875793457,-0.11297893524169922,-0.07262849807739258
1790266839685566500,8.56956640625,-2.249143123626709,-0.5437073707580566,0.38599324226379395
1790266839695566600,8.579566650390625,-2.1501121520996094,-0.7985577583312988,0.9188017845153809
1790266839705566500,8.58956640625,-1.7633757591247559,-0.9872879981994629,1.366469383239746
1790266839715566600,8.599566650390624,-0.8961653709411621,-1.0869970321655273,1.7650699615478516
1790266839725566500,8.60956640625,0.0397953987121582,-1.084643840789795,1.7834148406982422
1790266839735566600,8.619566650390626,0.49784183502197266,-0.9934506416320801,1.5978446006774902
1790266839745566500,8.62956640625,0.4778141975402832,-0.8141574859619141,1.2687935829162598
1790266839755566600,8.639566650390625,0.20561933517456055,-0.5365681648254395,0.9163289070129395
1790266839765566500,8.64956640625,0.10732555389404297,-0.29897069931030273,0.789088249206543
1790266839775566600,8.659566650390625,0.18766355514526367,-0.110626220703125,0.8195056915283203
1790266839785566500,8.66956640625,0.07402420043945312,-0.029972076416015625,0.9225559234619141
1790266839795566600,8.679566650390624,0.01617288589477539,-0.11696529388427734,1.0668048858642578
1790266839805566500,8.68956640625,0.13098478317260742,-0.22546052932739258,1.1887006759643555
1790266839815566600,8.699566650390626,0.42027950286865234,-0.2708263397216797,1.1945223808288574
1790266839825566500,8.70956640625,0.4888272285461426,-0.24361896514892578,1.0426740646362305
1790266839835566600,8.719566650390625,0.28994226455688477,-0.1657867431640625,0.9107623100280762
1790266839845566500,8.72956640625,0.30519723892211914,-0.006046772003173828,0.7333331108093262
1790266839855566600,8.739566650390625,0.5494308471679688,0.25278425216674805,0.5213017463684082
1790266839865566500,8.74956640625,0.6161398887634277,0.5261673927307129,0.20683908462524414
1790266839875566600,8.759566650390624,0.5208292007446289,0.6721467971801758,-0.1068120002746582
1790266839885566500,8.76956640625,0.44576501846313477,0.5735712051391602,-0.2708415985107422
1790266839895566600,8.779566650390626,0.549903392791748,0.3118138313293457,-0.37725210189819336
1790266839905566500,8.78956640625,0.42011404037475586,-0.008629322052001953,-0.5073587894439697
1790266839915566600,8.799566650390625,0.1305255889892578,-0.35574960708618164,-0.5052075386047363
1790266839925566500,8.80956640625,-0.07317352294921875,-0.6820178031921387,-0.39148616790771484
1790266839935566600,8.819566650390625,-0.17112445831298828,-0.9397854804992676,-0.13405084609985352
1790266839945566500,8.82956640625,-0.2671041488647461,-1.095090389251709,-0.004396200180053711
1790266839955566600,8.839566650390625,-0.4563126564025879,-1.1001172065734863,0.03606915473937988
1790266839965566500,8.84956640625,-0.7488312721252441,-0.8509650230407715,0.12322211265563965
1790266839975566600,8.859566650390626,-1.0964937210083008,-0.5028228759765625,0.15841436386108398
1790266839985566500,8.86956640625,-1.4231805801391602,-0.18782711029052734,0.2264692783355713
1790266839995566600,8.879566650390625,-1.4710273742675781,-0.0779275894165039,0.3376955986022949
1790266840005566500,8.88956640625,-1.0681171417236328,-0.05669736862182617,0.44904327392578125
1790266840015566600,8.899566650390625,-0.39885997772216797,-0.020282268524169922,0.503164529800415
1790266840025566500,8.90956640625,0.267117977142334,0.014241218566894531,0.5840442180633545
1790266840035566600,8.919566650390625,0.2885141372680664,0.11992931365966797,0.6505537033081055
1790266840045566500,8.92956640625,-0.1440110206604004,0.1004328727722168,0.6956324577331543
1790266840055566600,8.939566650390624,-0.549562931060791,-0.13501548767089844,0.6926281452178955
1790266840065566500,8.94956640625,-0.7037076950073242,-0.47980690002441406,0.6747639179229736
1790266840075566600,8.959566650390625,-0.3114948272705078,-0.8182520866394043,0.5767784118652344
1790266840085566500,8.96956640625,0.43825817108154297,-0.9586830139160156,0.27954530715942383
1790266840095566600,8.979566650390625,0.9177179336547852,-0.8459053039550781,0.012660026550292969
1790266840105566500,8.98956640625,1.0556740760803223,-0.582557201385498,-0.09976935386657715
1790266840115566600,8.999566650390625,0.9157085418701172,-0.37331342697143555,-0.1833937168121338
1790266840125566500,9.00956640625,0.6255416870117188,-0.3437013626098633,-0.29875802993774414
1790266840135566600,9.019566650390624,0.46681880950927734,-0.48497438430786133,-0.44385409355163574
1790266840145566500,9.02956640625,0.735621452331543,-0.6009607315063477,-0.4740293025970459
1790266840155566600,9.039566650390626,1.0651483535766602,-0.5375561714172363,-0.4101550579071045
1790266840165566500,9.04956640625,1.0179882049560547,-0.4516897201538086,-0.31954240798950195
1790266840175566600,9.059566650390625,0.7184553146362305,-0.36444926261901855,-0.3005537986755371
1790266840185566500,9.06956640625,0.21002197265625,-0.47374725341796875,-0.11001467704772949
1790266840195566600,9.079566650390625,-0.3520841598510742,-0.6157126426696777,0.0539250373840332
1790266840205566500,9.08956640625,-0.4000720977783203,-0.7004885673522949,0.09626340866088867
1790266840215566600,9.099566650390624,0.08795547485351562,-0.7211184501647949,-0.14652228355407715
1790266840225566500,9.10956640625,0.9584760665893555,-0.7578811645507812,-0.3460428714752197
1790266840235566600,9.119566650390626,1.6836977005004883,-0.7038564682006836,-0.4388711452484131
1790266840245566500,9.12956640625,1.8153419494628906,-0.485378623008728,-0.42983222007751465
1790266840255566600,9.139566650390625,1.4726462364196777,-0.21679270267486572,-0.594926118850708
1790266840265566500,9.14956640625,1.2838850021362305,-0.03523671627044678,-0.7688930034637451
1790266840275566600,9.159566650390625,1.2559890747070312,0.06631088256835938,-0.9407734870910645
1790266840285566500,9.16956640625,1.2290973663330078,0.26007819175720215,-1.2203309535980225
1790266840295566600,9.179566650390624,1.2431640625,0.6042461395263672,-1.2452034950256348
1790266840305566500,9.18956640625,0.9394330978393555,0.911922812461853,-1.1053436994552612
1790266840315566600,9.199566650390626,1.2400922775268555,0.9759076833724976,-1.014913558959961
1790266840325566500,9.20956640625,1.7147188186645508,0.7795646786689758,-0.8788678646087646
1790266840335566600,9.219566650390625,2.0302181243896484,0.30539679527282715,-0.8238844871520996
1790266840345566500,9.22956640625,2.031918525695801,-0.15524709224700928,-0.8472962379455566
1790266840355566600,9.239566650390625,1.9699583053588867,-0.2890549898147583,-1.0562047958374023
1790266840365566500,9.24956640625,1.9090638160705566,0.019734978675842285,-1.4752106666564941
1790266840375566600,9.259566650390624,1.731703758239746,0.5592536926269531,-1.9142911434173584
1790266840385566500,9.26956640625,1.665802001953125,0.9622260928153992,-2.0639724731445312
1790266840395566600,9.279566650390626,1.3455572128295898,1.1559770107269287,-2.008288621902466
1790266840405566500,9.28956640625,1.2044429779052734,1.2415810823440552,-1.5014781951904297
1790266840415566600,9.299566650390625,1.2019052505493164,1.014561653137207,-0.8551850318908691
1790266840425566500,9.30956640625,1.0802001953125,0.5689661502838135,0.04457902908325195
1790266840435566600,9.319566650390625,1.4336843490600586,0.13213789463043213,0.5426533222198486
1790266840445566500,9.32956640625,1.5356521606445312,-0.08712053298950195,0.4401214122772217
1790266840455566600,9.339566650390625,1.3446550369262695,-0.058190107345581055,0.18477797508239746
1790266840465566500,9.34956640625,1.5838775634765625,0.26032692193984985,-0.18503165245056152
1790266840475566600,9.359566650390626,1.7985777854919434,0.7604178190231323,-0.48975396156311035
1790266840485566500,9.36956640625,1.8679695129394531,1.0815420150756836,-0.6821568012237549
1790266840495566600,9.379566650390625,2.1130104064941406,1.259063482284546,-0.8035268783569336
1790266840505566500,9.38956640625,2.279635429382324,1.3549491167068481,-0.8510193824768066
1790266840515566600,9.399566650390625,2.456967830657959,1.3093959093093872,-0.7938084602355957
1790266840525566500,9.40956640625,2.4788293838500977,1.226351261138916,-0.744879961013794
1790266840535566600,9.419566650390625,2.4515933990478516,1.2514092922210693,-0.8682546615600586
1790266840545566500,9.42956640625,1.8431482315063477,1.2958744764328003,-1.140779733657837
1790266840555566600,9.439566650390624,1.4556198120117188,1.2970961332321167,-1.0941965579986572
1790266840565566500,9.44956640625,1.687150478363037,1.2425365447998047,-1.0185482501983643
1790266840575566600,9.459566650390625,2.308856964111328,1.1730574369430542,-0.861940860748291
1790266840585566500,9.46956640625,2.4663429260253906,1.1433922052383423,-0.8024551868438721
1790266840595566600,9.479566650390625,1.7694902420043945,1.0012478828430176,-0.6742985248565674
1790266840605566500,9.48956640625,0.9966201782226562,0.7438209056854248,-0.4483757019042969
1790266840615566600,9.499566650390625,1.009613037109375,0.374586820602417,-0.4505152702331543
1790266840625566500,9.50956640625,1.0661368370056152,-0.029554128646850586,-0.5663456916809082
1790266840635566600,9.519566650390624,0.714777946472168,-0.35160255432128906,-0.7038259506225586
1790266840645566500,9.52956640625,0.3246173858642578,-0.5489401817321777,-0.6973507404327393
1790266840655566600,9.539566650390626,-0.12692928314208984,-0.5712566375732422,-0.6249969005584717
1790266840665566500,9.54956640625,-0.3861265182495117,-0.4741401672363281,-0.5021078586578369
1790266840675566600,9.559566650390625,-0.2223072052001953,-0.3032255172729492,-0.3492577075958252
1790266840685566500,9.56956640625,0.4469609260559082,-0.13562989234924316,-0.3466043472290039
1790266840695566600,9.579566650390625,1.0173835754394531,-0.023977994918823242,-0.4049510955810547
1790266840705566500,9.58956640625,0.6089839935302734,-0.047310590744018555,-0.46559786796569824
1790266840715566600,9.599566650390624,0.5142574310302734,-0.16643095016479492,-0.3099026679992676
1790266840725566500,9.60956640625,0.7247257232666016,-0.33796191215515137,-0.312084436416626
1790266840735566600,9.619566650390626,0.8842563629150391,-0.49126100540161133,-0.3727531433105469
1790266840745566500,9.62956640625,0.47860097885131836,-0.5790953636169434,-0.4654526710510254
1790266840755566600,9.639566650390625,0.2584953308105469,-0.6320042610168457,-0.7456402778625488
1790266840765566500,9.64956640625,0.5681667327880859,-0.567997932434082,-0.9340686798095703
1790266840775566600,9.659566650390625,0.4383831024169922,-0.3626594543457031,-1.1703500747680664
1790266840785566500,9.66956640625,0.07221126556396484,-0.06305932998657227,-1.2820966243743896
1790266840795566600,9.679566650390624,-0.3740391731262207,0.27533674240112305,-1.2816047668457031
1790266840805566500,9.68956640625,-0.44028520584106445,0.5705361366271973,-1.1232123374938965
1790266840815566600,9.699566650390626,-0.41141223907470703,0.7953481674194336,-0.9476718902587891
1790266840825566500,9.70956640625,-0.5299906730651855,0.8062725067138672,-0.7491328716278076
1790266840835566600,9.719566650390625,-0.8997764587402344,0.6660099029541016,-0.598665714263916
1790266840845566500,9.72956640625,-1.2570915222167969,0.38454627990722656,-0.45983052253723145
1790266840855566600,9.739566650390625,-1.303421974182129,0.10434436798095703,-0.3785848617553711
1790266840865566500,9.74956640625,-1.450758457183838,-0.18276071548461914,-0.40179443359375
1790266840875566600,9.759566650390624,-1.3468399047851562,-0.4384880065917969,-0.33304262161254883
1790266840885566500,9.76956640625,-1.4628663063049316,-0.7161979675292969,-0.0693216323852539
1790266840895566600,9.779566650390626,-1.5542182922363281,-1.0985121726989746,0.2355785369873047
1790266840905566500,9.78956640625,-1.3637638092041016,-1.4536004066467285,0.47004175186157227
1790266840915566600,9.799566650390625,-1.3344306945800781,-1.7887630462646484,0.42638349533081055
1790266840925566500,9.80956640625,-1.4267253875732422,-2.1055335998535156,0.5061097145080566
1790266840935566600,9.819566650390625,-1.6236934661865234,-2.3692421913146973,0.6834731101989746
1790266840945566500,9.82956640625,-1.551950454711914,-2.5426902770996094,0.7765512466430664
1790266840955566600,9.839566650390625,-1.51206636428833,-2.607053756713867,0.7535223960876465
1790266840965566500,9.84956640625,-1.5080180168151855,-2.4404187202453613,0.7122268676757812
1790266840975566600,9.859566650390626,-1.3224115371704102,-2.076895236968994,0.7396745681762695
1790266840985566500,9.86956640625,-1.0920610427856445,-1.6768412590026855,0.8158464431762695
1790266840995566600,9.879566650390625,-0.9412240982055664,-1.3195347785949707,0.8329734802246094
1790266841005566500,9.88956640625,-1.1861214637756348,-1.0534181594848633,0.8168449401855469
1790266841015566600,9.899566650390625,-1.6596617698669434,-0.9486308097839355,0.7958159446716309
1790266841025566500,9.90956640625,-1.8527207374572754,-0.9104819297790527,0.833160400390625
1790266841035566600,9.919566650390625,-1.7154231071472168,-0.9066224098205566,0.8660523891448975
1790266841045566500,9.92956640625,-1.3712825775146484,-0.9362587928771973,0.9930179119110107
1790266841055566600,9.939566650390624,-1.0899152755737305,-0.9394855499267578,1.078352928161621
1790266841065566500,9.94956640625,-0.5476455688476562,-0.9176726341247559,1.080298900604248
1790266841075566600,9.959566650390625,0.07982206344604492,-0.7666893005371094,1.0270423889160156
1790266841085566500,9.96956640625,0.29284191131591797,-0.4089646339416504,0.8920462131500244
1790266841095566600,9.979566650390625,-0.11261415481567383,-0.0006260871887207031,0.7088229656219482
1790266841105566500,9.98956640625,-0.8022313117980957,0.27510595321655273,0.51664137840271
1790266841115566600,9.999566650390625,-1.1016440391540527,0.3672633171081543,0.3737945556640625
1790266841125566500,10.00956640625,-1.1164665222167969,0.2405071258544922,0.3551025390625
1790266841135566600,10.019566650390624,-0.9202098846435547,-0.03812456130981445,0.32518529891967773
1790266841145566500,10.02956640625,-0.5996637344360352,-0.3391761779785156,0.38395118713378906
1790266841155566600,10.039566650390626,-0.31830549240112305,-0.6049990653991699,0.4689595699310303
1790266841165566500,10.04956640625,-0.28053998947143555,-0.7991018295288086,0.3990180492401123
1790266841175566600,10.059566650390625,-0.5762691497802734,-0.9174232482910156,0.25377559661865234
1790266841185566500,10.06956640625,-0.905393123626709,-0.9517030715942383,0.13864612579345703
1790266841195566600,10.079566650390625,-0.9171862602233887,-1.0424699783325195,0.15921807289123535
1790266841205566500,10.08956640625,-0.6579771041870117,-1.0558104515075684,0.270355224609375
1790266841215566600,10.099566650390624,-0.5039410591125488,-0.9228849411010742,0.25685906410217285
1790266841225566500,10.10956640625,-0.4972071647644043,-0.6865391731262207,0.20139455795288086
1790266841235566600,10.119566650390626,-0.5020651817321777,-0.47360754013061523,0.11168456077575684
1790266841245566500,10.12956640625,-0.5151786804199219,-0.333132266998291,0.08771300315856934
1790266841255566600,10.139566650390625,-0.509089469909668,-0.3225679397583008,0.19517230987548828
1790266841265566500,10.14956640625,-0.5625863075256348,-0.4464902877807617,0.38857245445251465
1790266841275566600,10.159566650390625,-0.7579226493835449,-0.7207565307617188,0.5394284725189209
1790266841285566500,10.16956640625,-0.8729062080383301,-1.019505500793457,0.575063943862915
1790266841295566600,10.179566650390624,-0.8734831809997559,-1.2510919570922852,0.4887270927429199
1790266841305566500,10.18956640625,-0.7446498870849609,-1.3142900466918945,0.19125032424926758
1790266841315566600,10.199566650390626,-0.5924263000488281,-1.2236967086791992,-0.033942461013793945
1790266841325566500,10.20956640625,-0.44537830352783203,-0.9862833023071289,-0.11094379425048828
1790266841335566600,10.219566650390625,-0.13100528717041016,-0.5959739685058594,-0.0748131275177002
1790266841345566500,10.22956640625,0.19359683990478516,-0.20148754119873047,-0.020117521286010742
1790266841355566600,10.239566650390625,0.40682125091552734,0.10428237915039062,0.15554356575012207
1790266841365566500,10.24956640625,0.3976874351501465,0.28797197341918945,0.43662333488464355
1790266841375566600,10.259566650390624,0.29100704193115234,0.3634486198425293,0.6287775039672852
1790266841385566500,10.26956640625,0.26227426528930664,0.3555746078491211,0.6788992881774902
1790266841395566600,10.279566650390626,0.2751774787902832,0.29262495040893555,0.43834948539733887
1790266841405566500,10.28956640625,0.21316146850585938,0.24853086471557617,0.0244748592376709
1790266841415566600,10.299566650390625,0.013321876525878906,0.17905569076538086,-0.25887131690979004
1790266841425566500,10.30956640625,-0.2585153579711914,0.05184364318847656,-0.16991853713989258
1790266841435566600,10.319566650390625,-0.4507737159729004,-0.1822800636291504,0.2743091583251953
1790266841445566500,10.32956640625,-0.6514253616333008,-0.5060954093933105,1.0435447692871094
1790266841455566600,10.339566650390625,-0.8952541351318359,-0.847318172454834,1.8329145908355713
1790266841465566500,10.34956640625,-0.9640493392944336,-1.0208244323730469,2.3666999340057373
1790266841475566600,10.359566650390626,-0.792351245880127,-0.9981794357299805,2.460779905319214
1790266841485566500,10.36956640625,-0.45996856689453125,-0.7579731941223145,2.2241220474243164
1790266841495566600,10.379566650390625,-0.4053683280944824,-0.4327545166015625,1.8618528842926025
1790266841505566500,10.38956640625,-0.6466050148010254,-0.1453418731689453,1.5684971809387207
1790266841515566600,10.399566650390625,-0.8634042739868164,-0.03669929504394531,1.4168262481689453
1790266841525566500,10.40956640625,-0.7947139739990234,-0.09992122650146484,1.2200703620910645
1790266841535566600,10.419566650390625,-0.40197324752807617,-0.32110023498535156,0.9551358222961426
1790266841545566500,10.42956640625,0.08687305450439453,-0.5349879264831543,0.5934710502624512
1790266841555566600,10.439566650390624,0.4644918441772461,-0.6463260650634766,0.33443784713745117
1790266841565566500,10.44956640625,0.6706299781799316,-0.6273350715637207,0.26308584213256836
1790266841575566600,10.459566650390625,0.6388282775878906,-0.5762815475463867,0.27181243896484375
1790266841585566500,10.46956640625,0.4456629753112793,-0.598236083984375,0.2797427177429199
1790266841595566600,10.479566650390625,0.1654367446899414,-0.751070499420166,0.2330327033996582
1790266841605566500,10.48956640625,-0.025655269622802734,-0.9555511474609375,0.06714916229248047
1790266841615566600,10.499566650390625,-0.0998835563659668,-1.058661937713623,-0.19194555282592773
1790266841625566500,10.50956640625,-0.6128711700439453,-1.0266518592834473,-0.3716280460357666
1790266841635566600,10.519566650390624,-1.1827688217163086,-0.9185853004455566,-0.4173393249511719
1790266841645566500,10.52956640625,-1.3024630546569824,-0.7643775939941406,-0.2665672302246094
1790266841655566600,10.539566650390626,-0.9503383636474609,-0.6271176338195801,-0.042459964752197266
1790266841665566500,10.54956640625,-0.4167323112487793,-0.4034237861633301,0.1523141860961914
1790266841675566600,10.559566650390625,-0.210296630859375,-0.08735370635986328,0.2423567771911621
1790266841685566500,10.56956640625,-0.04657602310180664,0.1749277114868164,0.2741703987121582
1790266841695566600,10.579566650390625,0.24993228912353516,0.3005962371826172,0.30225658416748047
1790266841705566500,10.58956640625,0.4610886573791504,0.21610593795776367,0.2563896179199219
1790266841715566600,10.599566650390624,0.21555757522583008,0.007256507873535156,0.25793886184692383
1790266841725566500,10.60956640625,-0.24666547775268555,-0.3437347412109375,0.33698081970214844
1790266841735566600,10.619566650390626,-0.4484739303588867,-0.7245392799377441,0.4216461181640625
1790266841745566500,10.62956640625,-0.42572593688964844,-1.0099201202392578,0.5877480506896973
1790266841755566600,10.639566650390625,-0.23493289947509766,-1.0934934616088867,0.7803225517272949
1790266841765566500,10.64956640625,0.15008258819580078,-0.9658465385437012,0.7703008651733398
1790266841775566600,10.659566650390625,0.5987286567687988,-0.7335162162780762,0.5278887748718262
1790266841785566500,10.66956640625,0.7798552513122559,-0.4901304244995117,0.18154048919677734
1790266841795566600,10.679566650390624,0.7184610366821289,-0.2574005126953125,-0.10030794143676758
1790266841805566500,10.68956640625,0.25177860260009766,-0.13155603408813477,-0.40804553031921387
1790266841815566600,10.699566650390626,-0.3955259323120117,-0.1579737663269043,-0.719083309173584
1790266841825566500,10.70956640625,-0.6450424194335938,-0.32881975173950195,-0.8364963531494141
1790266841835566600,10.719566650390625,-0.35829639434814453,-0.5595471858978271,-0.7545754909515381
1790266841845566500,10.72956640625,-0.046329498291015625,-0.7275867462158203,-0.5066239833831787
1790266841855566600,10.739566650390625,0.30714988708496094,-0.8238606452941895,-0.16229534149169922
1790266841865566500,10.74956640625,0.8349208831787109,-0.8768341541290283,0.2262248992919922
1790266841875566600,10.759566650390624,1.1375627517700195,-0.9147970676422119,0.3493952751159668
1790266841885566500,10.76956640625,1.1378355026245117,-0.9873197078704834,0.12129020690917969
1790266841895566600,10.779566650390626,1.1554160118103027,-1.0647101402282715,-0.1231834888458252
1790266841905566500,10.78956640625,1.1147732734680176,-1.0236082077026367,-0.29378724098205566
1790266841915566600,10.799566650390625,1.1121129989624023,-0.7725780010223389,-0.38205432891845703
1790266841925566500,10.80956640625,1.4178948402404785,-0.37654685974121094,-0.4588134288787842
1790266841935566600,10.819566650390625,1.839123249053955,0.0001780986785888672,-0.4142286777496338
1790266841945566500,10.82956640625,1.6147165298461914,0.2573249340057373,-0.26842808723449707
1790266841955566600,10.839566650390625,1.5613117218017578,0.3254210948944092,-0.12405562400817871
1790266841965566500,10.84956640625,1.5404329299926758,0.2731996774673462,0.011378765106201172
1790266841975566600,10.859566650390626,0.7413005828857422,0.24332904815673828,0.29224467277526855
1790266841985566500,10.86956640625,0.5934715270996094,0.3075977563858032,0.4759204387664795
1790266841995566600,10.879566650390625,1.2574081420898438,0.4383237361907959,0.5394368171691895
1790266842005566500,10.88956640625,1.5063390731811523,0.43540191650390625,0.5054523944854736
1790266842015566600,10.899566650390625,1.5854692459106445,0.1766653060913086,0.20096230506896973
1790266842025566500,10.90956640625,1.610863208770752,-0.14861750602722168,-0.374009370803833
1790266842035566600,10.919566650390625,1.4219589233398438,-0.42406296730041504,-0.8956046104431152
1790266842045566500,10.92956640625,1.5479803085327148,-0.5198869705200195,-1.3472144603729248
1790266842055566600,10.939566650390624,1.6525726318359375,-0.2017993927001953,-1.6178046464920044
1790266842065566500,10.94956640625,1.4986743927001953,0.45644611120224,-1.895979881286621
1790266842075566600,10.959566650390625,1.5994043350219727,0.8917576670646667,-2.0227746963500977
1790266842085566500,10.96956640625,1.3827924728393555,0.8437513113021851,-1.8249332904815674
1790266842095566600,10.979566650390625,1.6873903274536133,0.5948744416236877,-1.4134714603424072
1790266842105566500,10.98956640625,2.1840085983276367,0.24715054035186768,-1.172964096069336
1790266842115566600,10.999566650390625,2.300009250640869,0.10303854942321777,-1.27195405960083
1790266842125566500,11.00956640625,1.8516268730163574,0.16616284847259521,-1.5667871236801147
1790266842135566600,11.019566650390624,2.1195855140686035,0.3955390751361847,-1.6624138355255127
1790266842145566500,11.02956640625,2.0495309829711914,0.641155481338501,-1.4110990762710571
1790266842155566600,11.039566650390626,1.6063799858093262,0.657055139541626,-1.0630669593811035
1790266842165566500,11.04956640625,1.3170528411865234,0.6317261457443237,-0.8949942588806152
1790266842175566600,11.059566650390625,1.3253002166748047,0.7922607660293579,-0.8785889148712158
1790266842185566500,11.06956640625,1.456627368927002,1.0485502481460571,-0.7199411392211914
1790266842195566600,11.079566650390625,1.4208621978759766,1.1729258298873901,-0.5335931777954102
1790266842205566500,11.08956640625,1.5737109184265137,1.2710109949111938,-0.7074356079101562
1790266842215566600,11.099566650390624,2.0035505294799805,1.168660283088684,-0.7093398571014404
1790266842225566500,11.10956640625,2.1404848098754883,0.8978362679481506,-0.7164864540100098
1790266842235566600,11.119566650390626,2.2047085762023926,0.5497532486915588,-0.5608234405517578
1790266842245566500,11.12956640625,1.9657225608825684,0.2598228454589844,-0.72603440284729
1790266842255566600,11.139566650390625,2.2793149948120117,0.11160993576049805,-0.8984277248382568
1790266842265566500,11.14956640625,2.5720415115356445,0.3012961149215698,-1.198106288909912
1790266842275566600,11.159566650390625,1.9105052947998047,0.7489156723022461,-1.3547918796539307
1790266842285566500,11.16956640625,1.5244598388671875,1.2906851768493652,-1.1931424140930176
1790266842295566600,11.179566650390624,1.3104429244995117,1.7317748069763184,-1.043710708618164
1790266842305566500,11.18956640625,0.9427089691162109,1.9014108180999756,-0.854374885559082
1790266842315566600,11.199566650390626,1.0467910766601562,1.7351151704788208,-0.6103811264038086
1790266842325566500,11.20956640625,1.3752622604370117,1.3398971557617188,-0.5098669528961182
1790266842335566600,11.219566650390625,1.4722957611083984,0.8226132392883301,-0.5150458812713623
1790266842345566500,11.22956640625,1.4266338348388672,0.3243074417114258,-0.5446102619171143
1790266842355566600,11.239566650390625,0.8224358558654785,-0.12680578231811523,-0.7028834819793701
1790266842365566500,11.24956640625,0.3117351531982422,-0.41381335258483887,-0.5787758827209473
1790266842375566600,11.259566650390624,0.29716014862060547,-0.5604476928710938,-0.6298296451568604
1790266842385566500,11.26956640625,0.040465354919433594,-0.6159696578979492,-0.9068632125854492
1790266842395566600,11.279566650390626,0.09062480926513672,-0.5867321491241455,-1.100006341934204
1790266842405566500,11.28956640625,0.48589277267456055,-0.46264219284057617,-1.120129108428955
1790266842415566600,11.299566650390625,0.421236515045166,-0.3443019390106201,-1.1781907081604004
1790266842425566500,11.30956640625,0.09623527526855469,-0.2941257953643799,-0.9643130302429199
1790266842435566600,11.319566650390625,-0.1689438819885254,-0.34564685821533203,-0.5203046798706055
1790266842445566500,11.32956640625,-0.38507747650146484,-0.5038080215454102,-0.04754829406738281
1790266842455566600,11.339566650390625,-0.2794027328491211,-0.7758927345275879,0.261777400970459
1790266842465566500,11.34956640625,0.26789331436157227,-1.0214767456054688,0.37981462478637695
1790266842475566600,11.359566650390626,0.5994601249694824,-1.1432747840881348,0.21396493911743164
1790266842485566500,11.36956640625,0.8499770164489746,-1.0868377685546875,-0.15839004516601562
1790266842495566600,11.379566650390625,0.5824942588806152,-0.8847751617431641,-0.37058591842651367
1790266842505566500,11.38956640625,0.47263622283935547,-0.5408940315246582,-0.5066657066345215
1790266842515566600,11.399566650390625,0.4690713882446289,-0.14646196365356445,-0.6358027458190918
1790266842525566500,11.40956640625,0.1819148063659668,0.1417088508605957,-0.7545490264892578
1790266842535566600,11.419566650390625,-0.039414405822753906,0.29515552520751953,-0.8332223892211914
1790266842545566500,11.42956640625,-0.25545215606689453,0.39600706100463867,-0.7867081165313721
1790266842555566600,11.439566650390624,-0.35542964935302734,0.37927770614624023,-0.6102495193481445
1790266842565566500,11.44956640625,-0.6818737983703613,0.3202085494995117,-0.4168062210083008
1790266842575566600,11.459566650390625,-1.3939027786254883,0.17900705337524414,-0.39841318130493164
1790266842585566500,11.46956640625,-1.7853713035583496,-0.0610198974609375,-0.45784521102905273
1790266842595566600,11.479566650390625,-2.035064697265625,-0.4414496421813965,-0.3401470184326172
1790266842605566500,11.48956640625,-1.9767861366271973,-0.9831252098083496,-0.007428169250488281
1790266842615566600,11.499566650390625,-1.7143645286560059,-1.5863957405090332,0.41395139694213867
1790266842625566500,11.50956640625,-1.7447280883789062,-2.172098159790039,0.752960205078125
1790266842635566600,11.519566650390624,-1.6546874046325684,-2.4824843406677246,0.8441348075866699
1790266842645566500,11.52956640625,-1.0962438583374023,-2.3938608169555664,0.7775897979736328
1790266842655566600,11.539566650390626,-0.840721607208252,-1.8811421394348145,0.5012545585632324
1790266842665566500,11.54956640625,-1.2073049545288086,-1.1540555953979492,0.11989307403564453
1790266842675566600,11.559566650390625,-1.7746286392211914,-0.5018243789672852,-0.025911331176757812
1790266842685566500,11.56956640625,-2.0696263313293457,-0.05996417999267578,0.12129449844360352
1790266842695566600,11.579566650390625,-2.038503646850586,0.07596969604492188,0.3053765296936035
1790266842705566500,11.58956640625,-1.5047087669372559,-0.1307821273803711,0.5796680450439453
1790266842715566600,11.599566650390624,-0.9765810966491699,-0.5255255699157715,0.9613180160522461
1790266842725566500,11.60956640625,-0.8191432952880859,-0.9058094024658203,1.3605399131774902
1790266842735566600,11.619566650390626,-0.7797446250915527,-1.2081189155578613,1.7014186382293701
1790266842745566500,11.62956640625,-0.5952610969543457,-1.3816032409667969,1.9591271877288818
1790266842755566600,11.639566650390625,-0.4485764503479004,-1.3295989036560059,2.086858034133911
1790266842765566500,11.64956640625,-0.5469179153442383,-0.9671287536621094,1.9331920146942139
1790266842775566600,11.659566650390625,-0.7123565673828125,-0.5055727958679199,1.697159767150879
1790266842785566500,11.66956640625,-0.8503308296203613,-0.16112756729125977,1.4681987762451172
1790266842795566600,11.679566650390624,-0.6889796257019043,-0.008074760437011719,1.2215440273284912
1790266842805566500,11.68956640625,-0.3229551315307617,-0.08646821975708008,1.0067265033721924
1790266842815566600,11.699566650390626,-0.28955650329589844,-0.23370647430419922,0.7287919521331787
1790266842825566500,11.70956640625,-0.490293025970459,-0.35001468658447266,0.36391639709472656
1790266842835566600,11.719566650390625,-0.5709071159362793,-0.40590906143188477,0.07792282104492188
1790266842845566500,11.72956640625,-0.4592885971069336,-0.4233055114746094,-0.09950542449951172
1790266842855566600,11.739566650390625,-0.5031733512878418,-0.4799680709838867,-0.24026775360107422
1790266842865566500,11.74956640625,-0.6844363212585449,-0.6334614753723145,-0.379300594329834
1790266842875566600,11.759566650390624,-0.894615650177002,-1.0052189826965332,-0.47351789474487305
1790266842885566500,11.76956640625,-1.203209400177002,-1.497382640838623,-0.49266767501831055
1790266842895566600,11.779566650390626,-1.6046838760375977,-1.9685778617858887,-0.35913896560668945
1790266842905566500,11.78956640625,-1.7548813819885254,-2.3896727561950684,0.02665543556213379
1790266842915566600,11.799566650390625,-1.5035324096679688,-2.6671323776245117,0.3175346851348877
1790266842925566500,11.80956640625,-1.0900487899780273,-2.5914149284362793,0.40813708305358887
1790266842935566600,11.819566650390625,-0.8170251846313477,-2.108307361602783,0.2519059181213379
1790266842945566500,11.82956640625,-0.6529150009155273,-1.3129844665527344,-0.011976957321166992
1790266842955566600,11.839566650390625,-0.40001344680786133,-0.4977431297302246,-0.2472391128540039
1790266842965566500,11.84956640625,-0.13574647903442383,0.1297287940979004,-0.30895161628723145
1790266842975566600,11.859566650390626,0.15515947341918945,0.48395490646362305,-0.14461326599121094
1790266842985566500,11.86956640625,0.40806055068969727,0.5104098320007324,0.14451384544372559
1790266842995566600,11.879566650390625,0.7002601623535156,0.3813967704772949,0.3338134288787842
1790266843005566500,11.88956640625,0.8062376976013184,0.1671452522277832,0.49280571937561035
1790266843015566600,11.899566650390625,0.7702603340148926,-0.17827939987182617,0.7385976314544678
1790266843025566500,11.90956640625,0.671208381652832,-0.5008349418640137,0.9797103404998779
1790266843035566600,11.919566650390625,0.5317506790161133,-0.7064070701599121,1.2883408069610596
1790266843045566500,11.92956640625,0.45099449157714844,-0.7560262680053711,1.7398035526275635
1790266843055566600,11.939566650390624,0.4490194320678711,-0.643531322479248,2.2891159057617188
1790266843065566500,11.94956640625,0.5228347778320312,-0.5322074890136719,2.6180386543273926
1790266843075566600,11.959566650390625,0.5730495452880859,-0.29743289947509766,2.6623878479003906
1790266843085566500,11.96956640625,0.4877810478210449,-0.07279348373413086,2.1645889282226562
1790266843095566600,11.979566650390625,0.29824256896972656,0.18382835388183594,1.269519329071045
1790266843105566500,11.98956640625,0.16910982131958008,0.40230321884155273,0.32212066650390625
1790266843115566600,11.999566650390625,-0.1321721076965332,0.6067371368408203,-0.36883974075317383
1790266843125566500,12.00956640625,-0.7255468368530273,0.7589836120605469,-0.8345887660980225
1790266843135566600,12.019566650390624,-1.086928367614746,0.697901725769043,-0.8599929809570312
1790266843145566500,12.02956640625,-1.4467921257019043,0.35335731506347656,-0.4267578125
1790266843155566600,12.039566650390626,-1.6835832595825195,-0.21923160552978516,-0.045751094818115234
1790266843165566500,12.04956640625,-1.7041778564453125,-0.9082040786743164,-0.08553409576416016
1790266843175566600,12.059566650390625,-1.3506226539611816,-1.4798526763916016,-0.5991830825805664
1790266843185566500,12.06956640625,-0.9366827011108398,-1.6714262962341309,-1.0535430908203125
1790266843195566600,12.079566650390625,-0.9293146133422852,-1.477308750152588,-1.210123062133789
1790266843205566500,12.08956640625,-1.092175006866455,-1.0233087539672852,-1.019211769104004
1790266843215566600,12.099566650390624,-1.175361156463623,-0.6871070861816406,-0.4547233581542969
1790266843225566500,12.10956640625,-1.374915599822998,-0.7294454574584961,0.43332672119140625
1790266843235566600,12.119566650390626,-1.539924144744873,-1.1329154968261719,1.1927809715270996
1790266843245566500,12.12956640625,-0.969815731048584,-1.6983108520507812,1.5270781517028809
1790266843255566600,12.139566650390625,0.47472381591796875,-2.098824977874756,1.1776976585388184
1790266843265566500,12.14956640625,1.4682703018188477,-1.981626033782959,0.5594525337219238
1790266843275566600,12.159566650390625,1.120837688446045,-1.412111759185791,-0.01853466033935547
1790266843285566500,12.16956640625,-0.24767112731933594,-0.7681536674499512,0.06107664108276367
1790266843295566600,12.179566650390624,-1.5821261405944824,-0.4542226791381836,0.7886123657226562
1790266843305566500,12.18956640625,-1.6817727088928223,-0.5042171478271484,1.5828776359558105
1790266843315566600,12.199566650390626,-0.662935733795166,-0.5874371528625488,1.8215370178222656
1790266843325566500,12.20956640625,0.18517541885375977,-0.43742847442626953,1.6072425842285156
1790266843335566600,12.219566650390625,0.19833993911743164,-0.18717193603515625,1.206282138824463
1790266843345566500,12.22956640625,-0.30567455291748047,0.03336620330810547,0.8999638557434082
1790266843355566600,12.239566650390625,-0.787966251373291,0.09439229965209961,0.934361457824707
1790266843365566500,12.24956640625,-0.6910715103149414,-0.009943962097167969,0.8985805511474609
1790266843375566600,12.259566650390624,0.12472915649414062,-0.49198102951049805,0.5818772315979004
1790266843385566500,12.26956640625,0.30837583541870117,0.5163335800170898,0.014444828033447266
1790266843395566600,12.279566650390626,0.6911683082580566,0.5651226043701172,-0.1886739730834961
1790266843405566500,12.28956640625,0.9011974334716797,0.7780680656433105,-0.031290531158447266
1790266843415566600,12.299566650390625,0.5094928741455078,0.9575142860412598,0.15834712982177734
1790266843425566500,12.30956640625,0.5974559783935547,0.8605914115905762,0.24246692657470703
1790266843435566600,12.319566650390625,0.08793401718139648,0.6124367713928223,0.37592411041259766
1790266843445566500,12.32956640625,-1.3295822143554688,0.33515405654907227,0.7061762809753418
1790266843455566600,12.339566650390625,-2.5579118728637695,-0.24636125564575195,1.2510757446289062
1790266843465566500,12.34956640625,-1.8057518005371094,-1.1946206092834473,1.5725412368774414
1790266843475566600,12.359566650390626,0.7399539947509766,-1.9638056755065918,1.3448333740234375
1790266843485566500,12.36956640625,2.3622918128967285,-2.03200626373291,0.9679956436157227
1790266843495566600,12.379566650390625,1.883676528930664,-1.3222081661224365,0.9909517765045166
1790266843505566500,12.38956640625,0.7678117752075195,-0.555619478225708,0.651012659072876
1790266843515566600,12.399566650390625,-0.0958404541015625,-0.3082594871520996,0.33591604232788086
1790266843525566500,12.40956640625,-0.40448856353759766,-0.352858304977417,0.28280019760131836
1790266843535566600,12.419566650390625,0.06130790710449219,-0.45036840438842773,0.4180915355682373
1790266843545566500,12.42956640625,1.0727767944335938,-0.5024237632751465,0.6132943630218506
1790266843555566600,12.439566650390624,1.8014955520629883,-0.41239070892333984,0.4505915641784668
1790266843565566500,12.44956640625,1.8061814308166504,-0.2782914638519287,0.0358891487121582
1790266843575566600,12.459566650390625,1.0713930130004883,-0.2939615249633789,-0.27009105682373047
1790266843585566500,12.46956640625,0.5498981475830078,-0.614910364151001,-0.5025451183319092
1790266843595566600,12.479566650390625,0.8664789199829102,-0.9903132915496826,-0.7082991600036621
1790266843605566500,12.48956640625,1.944392204284668,-1.0942590236663818,-0.7320334911346436
1790266843615566600,12.499566650390625,2.7232789993286133,-0.7628309726715088,-0.5439748764038086
1790266843625566500,12.50956640625,2.6726746559143066,-0.27157092094421387,-0.3148014545440674
1790266843635566600,12.519566650390624,2.333486557006836,-0.16170728206634521,-0.0501861572265625
1790266843645566500,12.52956640625,1.662461280822754,-0.6077022552490234,0.07947707176208496
1790266843655566600,12.539566650390626,1.2101202011108398,-1.2362812757492065,-0.2454831600189209
1790266843665566500,12.54956640625,1.009195327758789,-1.441394567489624,-0.9447624683380127
1790266843675566600,12.559566650390625,1.539088249206543,-0.699325442314148,-1.3594975471496582
1790266843685566500,12.56956640625,1.6077709197998047,0.42613208293914795,-1.1433470249176025
1790266843695566600,12.579566650390625,0.853973388671875,1.2954299449920654,-1.0143046379089355
1790266843705566500,12.58956640625,0.37882328033447266,1.391616940498352,-0.7211639881134033
1790266843715566600,12.599566650390624,0.701512336730957,0.5413291454315186,-0.09198737144470215
1790266843725566500,12.60956640625,1.4226799011230469,-0.7435427904129028,0.3889176845550537
1790266843735566600,12.619566650390626,1.919173240661621,-1.6511950492858887,0.3607189655303955
1790266843745566500,12.62956640625,1.4942398071289062,-1.7633419036865234,0.22465300559997559
1790266843755566600,12.639566650390625,1.0921649932861328,-1.4810978174209595,-0.06222128868103027
1790266843765566500,12.64956640625,1.5193467140197754,-1.3821368217468262,-0.9973709583282471
1790266843775566600,12.659566650390625,1.270583152770996,-1.2087421417236328,-1.361892819404602
1790266843785566500,12.66956640625,2.0759992599487305,-0.8208907246589661,-1.017573595046997
1790266843795566600,12.679566650390624,3.2608728408813477,0.1497071385383606,-0.8185455799102783
1790266843805566500,12.68956640625,3.909553050994873,1.749990463256836,-1.3194169998168945
1790266843815566600,12.699566650390626,4.66258430480957,3.2162113189697266,-1.5720500946044922
1790266843825566500,12.70956640625,4.505509376525879,3.913564682006836,-1.636026382446289
1790266843835566600,12.719566650390625,2.9696903228759766,3.585573673248291,-1.2213146686553955
1790266843845566500,12.72956640625,1.6240625381469727,2.42657470703125,-0.6639049053192139
1790266843855566600,12.739566650390625,1.5942611694335938,0.9733121991157532,-1.0545358657836914
1790266843865566500,12.74956640625,2.0079212188720703,0.0437091588973999,-1.3587641716003418
1790266843875566600,12.759566650390624,2.116471767425537,-0.34238243103027344,-1.4137572050094604
1790266843885566500,12.76956640625,1.7877135276794434,-0.3379582166671753,-1.2607147693634033
