time,seconds_elapsed,z,y,x
1790266831195566600,0.079566650390625,8.532519340515137,3.424135684967041,-3.412008285522461
1790266831205566500,0.08956640625,8.527520179748535,3.4752330780029297,-3.3726141452789307
1790266831215566600,0.099566650390625,8.512914657592773,3.5105342864990234,-3.372955322265625
1790266831225566500,0.10956640625,8.499836921691895,3.5322186946868896,-3.3832805156707764
1790266831235566600,0.119566650390625,8.478022575378418,3.532621145248413,-3.437166213989258
1790266831245566500,0.12956640625,8.437642097473145,3.5364463329315186,-3.5313053131103516
1790266831255566600,0.139566650390625,8.37852668762207,3.5575737953186035,-3.6488828659057617
1790266831265566500,0.14956640625,8.317924499511719,3.5767226219177246,-3.7669074535369873
1790266831275566600,0.159566650390625,8.269418716430664,3.602226972579956,-3.8485138416290283
1790266831285566500,0.16956640625,8.242591857910156,3.607283353805542,-3.900970458984375
1790266831295566600,0.179566650390625,8.260481834411621,3.563222646713257,-3.903620719909668
1790266831305566500,0.18956640625,8.316827774047852,3.4677438735961914,-3.869821786880493
1790266831315566600,0.199566650390625,8.399520874023438,3.3347506523132324,-3.807607412338257
1790266831325566500,0.20956640625,8.513248443603516,3.151301622390747,-3.7100260257720947
1790266831335566600,0.219566650390625,8.612537384033203,2.9455347061157227,-3.6494393348693848
1790266831345566500,0.22956640625,8.706570625305176,2.750109910964966,-3.5781149864196777
1790266831355566600,0.239566650390625,8.828937530517578,2.536702871322632,-3.432985305786133
1790266831365566500,0.24956640625,8.957429885864258,2.305265188217163,-3.258923053741455
1790266831375566600,0.259566650390625,9.050570487976074,2.088188886642456,-3.145956516265869
1790266831385566500,0.26956640625,9.10851001739502,1.914355754852295,-3.0888001918792725
1790266831395566600,0.279566650390625,9.143121719360352,1.7880157232284546,-3.0621414184570312
1790266831405566500,0.28956640625,9.151410102844238,1.7150667905807495,-3.079063892364502
1790266831415566600,0.299566650390625,9.134716987609863,1.7009453773498535,-3.1359400749206543
1790266831425566500,0.30956640625,9.098932266235352,1.745474100112915,-3.214520215988159
1790266831435566600,0.319566650390625,9.037027359008789,1.8406285047531128,-3.3338582515716553
1790266831445566500,0.32956640625,8.933195114135742,1.9869489669799805,-3.524264335632324
1790266831455566600,0.339566650390625,8.78272533416748,2.1781787872314453,-3.780165433883667
1790266831465566500,0.34956640625,8.655186653137207,2.3388917446136475,-3.973374843597412
1790266831475566600,0.359566650390625,8.593666076660156,2.420858860015869,-4.056937217712402
1790266831485566500,0.36956640625,8.553714752197266,2.466770648956299,-4.113321304321289
1790266831495566600,0.379566650390625,8.525697708129883,2.4888713359832764,-4.157929420471191
1790266831505566500,0.38956640625,8.526147842407227,2.5074217319488525,-4.145843982696533
1790266831515566600,0.399566650390625,8.576431274414062,2.5205912590026855,-4.032596111297607
1790266831525566500,0.40956640625,8.676477432250977,2.5294535160064697,-3.806705951690674
1790266831535566600,0.419566650390625,8.799490928649902,2.545077085494995,-3.5017027854919434
1790266831545566500,0.42956640625,8.930452346801758,2.57905650138855,-3.125037908554077
1790266831555566600,0.439566650390625,9.05138874053955,2.6266775131225586,-2.7098560333251953
1790266831565566500,0.44956640625,9.158491134643555,2.6684794425964355,-2.2741289138793945
1790266831575566600,0.459566650390625,9.252063751220703,2.7137598991394043,-1.790308952331543
1790266831585566500,0.46956640625,9.320411682128906,2.7725517749786377,-1.2701472043991089
1790266831595566600,0.479566650390625,9.349837303161621,2.8096508979797363,-0.9256274104118347
1790266831605566500,0.48956640625,9.370211601257324,2.7882583141326904,-0.7714452147483826
1790266831615566600,0.499566650390625,9.386611938476562,2.7366573810577393,-0.7567070126533508
1790266831625566500,0.50956640625,9.408714294433594,2.64310622215271,-0.8126907348632812
1790266831635566600,0.519566650390625,9.447145462036133,2.4920969009399414,-0.8433773517608643
1790266831645566500,0.52956640625,9.496453285217285,2.319873094558716,-0.7784371376037598
1790266831655566600,0.539566650390625,9.539724349975586,2.1807286739349365,-0.6391074061393738
1790266831665566500,0.54956640625,9.574053764343262,2.0710854530334473,-0.4674360752105713
1790266831675566600,0.559566650390625,9.605463027954102,1.9611462354660034,-0.24363860487937927
1790266831685566500,0.56956640625,9.6178560256958,1.9143034219741821,0.05184370279312134
1790266831695566600,0.579566650390625,9.595410346984863,1.9767873287200928,0.43681544065475464
1790266831705566500,0.58956640625,9.527256965637207,2.142991542816162,0.8996428847312927
1790266831715566600,0.599566650390625,9.411832809448242,2.369539499282837,1.4046592712402344
1790266831725566500,0.60956640625,9.259259223937988,2.6044912338256836,1.9113188982009888
1790266831735566600,0.619566650390625,9.065093994140625,2.8340353965759277,2.441868305206299
1790266831745566500,0.62956640625,8.836282730102539,3.045973300933838,2.9685943126678467
1790266831755566600,0.639566650390625,8.587179183959961,3.205720901489258,3.4862725734710693
1790266831765566500,0.64956640625,8.329404830932617,3.31362247467041,3.976344347000122
1790266831775566600,0.659566650390625,8.067110061645508,3.374192714691162,4.439250946044922
1790266831785566500,0.66956640625,7.793122291564941,3.390718936920166,4.892919540405273
1790266831795566600,0.679566650390625,7.491713047027588,3.372040033340454,5.354808807373047
1790266831805566500,0.68956640625,7.155562400817871,3.339383125305176,5.8152241706848145
1790266831815566600,0.699566650390625,6.779966831207275,3.297769784927368,6.271137237548828
1790266831825566500,0.70956640625,6.351329803466797,3.2455739974975586,6.73032283782959
1790266831835566600,0.719566650390625,5.859512805938721,3.1705081462860107,7.196135520935059
1790266831845566500,0.72956640625,5.299290657043457,3.062627077102661,7.662128925323486
1790266831855566600,0.739566650390625,4.662322044372559,2.9153096675872803,8.119982719421387
1790266831865566500,0.74956640625,3.9418985843658447,2.723118543624878,8.556659698486328
1790266831875566600,0.759566650390625,3.136686086654663,2.4801950454711914,8.954341888427734
1790266831885566500,0.76956640625,2.2603673934936523,2.19040846824646,9.287800788879395
1790266831895566600,0.779566650390625,1.347488284111023,1.8364466428756714,9.538454055786133
1790266831905566500,0.78956640625,0.4460615813732147,1.3880906105041504,9.697660446166992
1790266831915566600,0.799566650390625,-0.3763016164302826,0.843170166015625,9.76308536529541
1790266831925566500,0.80956640625,-1.0802037715911865,0.2462816685438156,9.743864059448242
1790266831935566600,0.819566650390625,-1.666015386581421,-0.38777488470077515,9.6563138961792
1790266831945566500,0.82956640625,-2.1467936038970947,-1.0496078729629517,9.511045455932617
1790266831955566600,0.839566650390625,-2.506946086883545,-1.708513617515564,9.32558822631836
1790266831965566500,0.84956640625,-2.733643054962158,-2.315688371658325,9.128809928894043
1790266831975566600,0.859566650390625,-2.8405933380126953,-2.8474650382995605,8.943901062011719
1790266831985566500,0.86956640625,-2.856898069381714,-3.3161678314208984,8.775622367858887
1790266831995566600,0.879566650390625,-2.817807197570801,-3.739955186843872,8.616443634033203
1790266832005566500,0.88956640625,-2.755254030227661,-4.110795497894287,8.466423988342285
1790266832015566600,0.899566650390625,-2.6913485527038574,-4.404448509216309,8.338336944580078
1790266832025566500,0.90956640625,-2.6276988983154297,-4.615443229675293,8.24398422241211
1790266832035566600,0.919566650390625,-2.5615792274475098,-4.757493019104004,8.183823585510254
1790266832045566500,0.92956640625,-2.496875524520874,-4.842772960662842,8.1537446975708
1790266832055566600,0.939566650390625,-2.4363250732421875,-4.881434440612793,8.149005889892578
1790266832065566500,0.94956640625,-2.3802783489227295,-4.885313987731934,8.16323184967041
1790266832075566600,0.959566650390625,-2.3303253650665283,-4.858458995819092,8.193615913391113
1790266832085566500,0.96956640625,-2.296178102493286,-4.7970170974731445,8.239331245422363
1790266832095566600,0.979566650390625,-2.2935800552368164,-4.69365119934082,8.299367904663086
1790266832105566500,0.98956640625,-2.33583402633667,-4.550605297088623,8.366974830627441
1790266832115566600,0.999566650390625,-2.419334650039673,-4.382504463195801,8.43272590637207
1790266832125566500,1.00956640625,-2.531981945037842,-4.204633712768555,8.490023612976074
1790266832135566600,1.019566650390625,-2.6588337421417236,-4.025516033172607,8.537928581237793
1790266832145566500,1.02956640625,-2.781672954559326,-3.8321549892425537,8.58762264251709
1790266832155566600,1.039566650390625,-2.9043681621551514,-3.618440628051758,8.639555931091309
1790266832165566500,1.04956640625,-3.0393571853637695,-3.388273000717163,8.686328887939453
1790266832175566600,1.059566650390625,-3.1862049102783203,-3.1492645740509033,8.723566055297852
1790266832185566500,1.06956640625,-3.3325250148773193,-2.913257360458374,8.750863075256348
1790266832195566600,1.079566650390625,-3.469653367996216,-2.693331480026245,8.7680025100708
1790266832205566500,1.08956640625,-3.6115639209747314,-2.4881808757781982,8.77131462097168
1790266832215566600,1.099566650390625,-3.776956796646118,-2.2990925312042236,8.753235816955566
1790266832225566500,1.10956640625,-3.979339838027954,-2.1336350440979004,8.705333709716797
1790266832235566600,1.119566650390625,-4.199775218963623,-2.0052411556243896,8.63199234008789
1790266832245566500,1.12956640625,-4.394680023193359,-1.9182225465774536,8.554390907287598
1790266832255566600,1.139566650390625,-4.560816287994385,-1.8662946224212646,8.478577613830566
1790266832265566500,1.14956640625,-4.705568313598633,-1.8299822807312012,8.40709114074707
1790266832275566600,1.159566650390625,-4.848680019378662,-1.7981524467468262,8.332306861877441
1790266832285566500,1.16956640625,-5.028418064117432,-1.7423354387283325,8.237091064453125
1790266832295566600,1.179566650390625,-5.245475769042969,-1.6715260744094849,8.11550235748291
1790266832305566500,1.18956640625,-5.445952415466309,-1.6202740669250488,7.992915630340576
1790266832315566600,1.199566650390625,-5.614637851715088,-1.6079071760177612,7.877871990203857
1790266832325566500,1.20956640625,-5.781323432922363,-1.5940848588943481,7.759225845336914
1790266832335566600,1.219566650390625,-5.963160037994385,-1.5625803470611572,7.626890182495117
1790266832345566500,1.22956640625,-6.198733806610107,-1.5028024911880493,7.449005126953125
1790266832355566600,1.239566650390625,-6.470386028289795,-1.4136149883270264,7.232302188873291
1790266832365566500,1.24956640625,-6.72685432434082,-1.3083186149597168,7.0148491859436035
1790266832375566600,1.259566650390625,-6.921621799468994,-1.2284519672393799,6.837575435638428
1790266832385566500,1.26956640625,-7.026844024658203,-1.1845840215682983,6.737256050109863
1790266832395566600,1.279566650390625,-7.056939125061035,-1.179422378540039,6.706636428833008
1790266832405566500,1.28956640625,-7.007590293884277,-1.2124621868133545,6.752334117889404
1790266832415566600,1.299566650390625,-6.9247870445251465,-1.2776622772216797,6.825341701507568
1790266832425566500,1.30956640625,-6.925414562225342,-1.3869881629943848,6.803329944610596
1790266832435566600,1.319566650390625,-7.079799175262451,-1.527091383934021,6.611718654632568
1790266832445566500,1.32956640625,-7.35284948348999,-1.7054214477539062,6.260793209075928
1790266832455566600,1.339566650390625,-7.645625114440918,-1.9201023578643799,5.833353519439697
1790266832465566500,1.34956640625,-7.890268802642822,-2.1544876098632812,5.410382270812988
1790266832475566600,1.359566650390625,-8.036075592041016,-2.3320562839508057,5.114039421081543
1790266832485566500,1.36956640625,-8.11301326751709,-2.3506834506988525,4.982337951660156
1790266832495566600,1.379566650390625,-8.165002822875977,-2.231189250946045,4.952262878417969
1790266832505566500,1.38956640625,-8.212974548339844,-2.035737991333008,4.957137584686279
1790266832515566600,1.399566650390625,-8.272663116455078,-1.8018158674240112,4.948421478271484
1790266832525566500,1.40956640625,-8.349006652832031,-1.5462839603424072,4.906472682952881
1790266832535566600,1.419566650390625,-8.438773155212402,-1.281101942062378,4.82869291305542
1790266832545566500,1.42956640625,-8.531449317932129,-1.02530038356781,4.72583532333374
1790266832555566600,1.439566650390625,-8.607665061950684,-0.7776208519935608,4.6339826583862305
1790266832565566500,1.44956640625,-8.66012191772461,-0.5370713472366333,4.56992769241333
1790266832575566600,1.459566650390625,-8.683752059936523,-0.30725958943367004,4.546254634857178
1790266832585566500,1.46956640625,-8.67544174194336,-0.0807531327009201,4.571714878082275
1790266832595566600,1.479566650390625,-8.658523559570312,0.16453289985656738,4.601444721221924
1790266832605566500,1.48956640625,-8.657340049743652,0.4403155446052551,4.585517406463623
1790266832615566600,1.499566650390625,-8.673973083496094,0.7341318130493164,4.515931129455566
1790266832625566500,1.50956640625,-8.706165313720703,1.0195823907852173,4.396988868713379
1790266832635566600,1.519566650390625,-8.761435508728027,1.2587915658950806,4.221739292144775
1790266832645566500,1.52956640625,-8.84412670135498,1.4127269983291626,3.994497537612915
1790266832655566600,1.539566650390625,-8.934514999389648,1.4906078577041626,3.7580456733703613
1790266832665566500,1.54956640625,-9.007027626037598,1.5365861654281616,3.5612831115722656
1790266832675566600,1.559566650390625,-9.05146312713623,1.5908915996551514,3.422055959701538
1790266832685566500,1.56956640625,-9.072396278381348,1.6770515441894531,3.324082374572754
1790266832695566600,1.579566650390625,-9.083748817443848,1.7906584739685059,3.232560396194458
1790266832705566500,1.58956640625,-9.092708587646484,1.9145835638046265,3.13486909866333
1790266832715566600,1.599566650390625,-9.098034858703613,2.033813714981079,3.042985439300537
1790266832725566500,1.60956640625,-9.094786643981934,2.139887571334839,2.9792816638946533
1790266832735566600,1.619566650390625,-9.079071044921875,2.2289443016052246,2.961867094039917
1790266832745566500,1.62956640625,-9.057126998901367,2.2911360263824463,2.981529712677002
1790266832755566600,1.639566650390625,-9.04153823852539,2.317333698272705,3.0084798336029053
1790266832765566500,1.64956640625,-9.034038543701172,2.318549633026123,3.0299932956695557
1790266832775566600,1.659566650390625,-9.031241416931152,2.311901807785034,3.043381452560425
1790266832785566500,1.66956640625,-9.033710479736328,2.304309844970703,3.04180908203125
1790266832795566600,1.679566650390625,-9.043313980102539,2.2888681888580322,3.0248849391937256
1790266832805566500,1.68956640625,-9.069315910339355,2.227261543273926,2.9928581714630127
1790266832815566600,1.699566650390625,-9.121461868286133,2.0926287174224854,2.9309091567993164
1790266832825566500,1.70956640625,-9.192008972167969,1.9052718877792358,2.8367772102355957
1790266832835566600,1.719566650390625,-9.267911911010742,1.6849998235702515,2.727080821990967
1790266832845566500,1.72956640625,-9.345125198364258,1.43877112865448,2.6017229557037354
1790266832855566600,1.739566650390625,-9.418567657470703,1.1750826835632324,2.465794801712036
1790266832865566500,1.74956640625,-9.480631828308105,0.8997517228126526,2.3406124114990234
1790266832875566600,1.759566650390625,-9.519024848937988,0.6148483157157898,2.2760770320892334
1790266832885566500,1.76956640625,-9.527359008789062,0.32699164748191833,2.3006293773651123
1790266832895566600,1.779566650390625,-9.510369300842285,0.037869203835725784,2.3920319080352783
1790266832905566500,1.78956640625,-9.478672981262207,-0.2800683379173279,2.4993388652801514
1790266832915566600,1.799566650390625,-9.42915153503418,-0.669003427028656,2.610349416732788
1790266832925566500,1.80956640625,-9.35027027130127,-1.1260234117507935,2.734027147293091
1790266832935566600,1.819566650390625,-9.248028755187988,-1.609824776649475,2.8377485275268555
1790266832945566500,1.82956640625,-9.12269115447998,-2.1328377723693848,2.8979105949401855
1790266832955566600,1.839566650390625,-8.961615562438965,-2.6829135417938232,2.9430975914001465
1790266832965566500,1.84956640625,-8.742103576660156,-3.263350486755371,3.016047477722168
1790266832975566600,1.859566650390625,-8.467909812927246,-3.872692108154297,3.076873302459717
1790266832985566500,1.86956640625,-8.154703140258789,-4.498373031616211,3.0717811584472656
1790266832995566600,1.879566650390625,-7.813104152679443,-5.1306586265563965,2.966838836669922
1790266833005566500,1.88956640625,-7.427013397216797,-5.769472122192383,2.7790367603302
1790266833015566600,1.899566650390625,-6.973570823669434,-6.406075477600098,2.549882650375366
1790266833025566500,1.90956640625,-6.4998955726623535,-6.989897727966309,2.250126600265503
1790266833035566600,1.919566650390625,-6.0285420417785645,-7.4872541427612305,1.9411613941192627
1790266833045566500,1.92956640625,-5.639681816101074,-7.859270095825195,1.61128568649292
1790266833055566600,1.939566650390625,-5.348610877990723,-8.118232727050781,1.2872638702392578
1790266833065566500,1.94956640625,-5.057482719421387,-8.33472728729248,1.0604631900787354
1790266833075566600,1.959566650390625,-4.739847660064697,-8.534686088562012,0.9291763305664062
1790266833085566500,1.96956640625,-4.462144374847412,-8.690178871154785,0.860498309135437
1790266833095566600,1.979566650390625,-4.276467800140381,-8.788969039916992,0.7976402640342712
1790266833105566500,1.98956640625,-4.180409908294678,-8.840597152709961,0.7337551116943359
1790266833115566600,1.999566650390625,-4.136703968048096,-8.86338996887207,0.7059685587882996
1790266833125566500,2.00956640625,-4.132155895233154,-8.862957954406738,0.7373252511024475
1790266833135566600,2.019566650390625,-4.158316135406494,-8.843795776367188,0.8161425590515137
1790266833145566500,2.02956640625,-4.2131171226501465,-8.807747840881348,0.9184820652008057
1790266833155566600,2.039566650390625,-4.29444694519043,-8.75549030303955,1.0341719388961792
1790266833165566500,2.04956640625,-4.390368461608887,-8.691672325134277,1.161846399307251
1790266833175566600,2.059566650390625,-4.489048004150391,-8.620718002319336,1.3046292066574097
1790266833185566500,2.06956640625,-4.583459854125977,-8.546512603759766,1.4558225870132446
1790266833195566600,2.079566650390625,-4.673266410827637,-8.47359561920166,1.5903286933898926
1790266833205566500,2.08956640625,-4.755034446716309,-8.407435417175293,1.6956043243408203
1790266833215566600,2.099566650390625,-4.840614318847656,-8.340251922607422,1.7829865217208862
1790266833225566500,2.10956640625,-4.939984321594238,-8.262731552124023,1.8692772388458252
1790266833235566600,2.119566650390625,-5.046130180358887,-8.177834510803223,1.957037329673767
1790266833245566500,2.12956640625,-5.160869598388672,-8.090853691101074,2.0183897018432617
1790266833255566600,2.139566650390625,-5.288595199584961,-8.004375457763672,2.0325136184692383
1790266833265566500,2.14956640625,-5.432160377502441,-7.900850772857666,2.0587806701660156
1790266833275566600,2.159566650390625,-5.554527282714844,-7.797112941741943,2.126652240753174
1790266833285566500,2.16956640625,-5.656337738037109,-7.710935592651367,2.172029495239258
1790266833295566600,2.179566650390625,-5.789594650268555,-7.616292476654053,2.1547787189483643
1790266833305566500,2.18956640625,-5.933955192565918,-7.514580726623535,2.1188790798187256
1790266833315566600,2.199566650390625,-6.04565954208374,-7.427022457122803,2.111802816390991
1790266833325566500,2.20956640625,-6.148465633392334,-7.341860294342041,2.1127817630767822
1790266833335566600,2.219566650390625,-6.254534721374512,-7.250088214874268,2.118350028991699
1790266833345566500,2.22956640625,-6.36567497253418,-7.145707130432129,2.1418297290802
1790266833355566600,2.239566650390625,-6.477330207824707,-7.03125524520874,2.1854145526885986
1790266833365566500,2.24956640625,-6.599637031555176,-6.907099723815918,2.215210199356079
1790266833375566600,2.259566650390625,-6.743378162384033,-6.765991687774658,2.2177934646606445
1790266833385566500,2.26956640625,-6.906099796295166,-6.598541736602783,2.221579074859619
1790266833395566600,2.279566650390625,-7.076825141906738,-6.401438236236572,2.2606453895568848
1790266833405566500,2.28956640625,-7.246491432189941,-6.180324554443359,2.3371658325195312
1790266833415566600,2.299566650390625,-7.413296222686768,-5.9401960372924805,2.4346446990966797
1790266833425566500,2.30956640625,-7.577837944030762,-5.684653282165527,2.536036729812622
1790266833435566600,2.319566650390625,-7.734836101531982,-5.41486120223999,2.6499016284942627
1790266833445566500,2.32956640625,-7.881001949310303,-5.135763168334961,2.772027015686035
1790266833455566600,2.339566650390625,-8.020552635192871,-4.850371360778809,2.883575916290283
1790266833465566500,2.34956640625,-8.155661582946777,-4.55502462387085,2.9845128059387207
1790266833475566600,2.359566650390625,-8.290144920349121,-4.23837947845459,3.0789647102355957
1790266833485566500,2.36956640625,-8.424141883850098,-3.888888359069824,3.1750237941741943
1790266833495566600,2.379566650390625,-8.551637649536133,-3.509676456451416,3.2744531631469727
1790266833505566500,2.38956640625,-8.659664154052734,-3.11275315284729,3.3898916244506836
1790266833515566600,2.399566650390625,-8.74857234954834,-2.714895486831665,3.5017433166503906
1790266833525566500,2.40956640625,-8.837065696716309,-2.334825277328491,3.55320143699646
1790266833535566600,2.419566650390625,-8.927997589111328,-1.9900166988372803,3.53568696975708
1790266833545566500,2.42956640625,-9.023161888122559,-1.6864069700241089,3.450936794281006
1790266833555566600,2.439566650390625,-9.098512649536133,-1.4070638418197632,3.377516746520996
1790266833565566500,2.44956640625,-9.13946533203125,-1.172158122062683,3.3565778732299805
1790266833575566600,2.459566650390625,-9.161450386047363,-0.9815727472305298,3.357785940170288
1790266833585566500,2.46956640625,-9.181081771850586,-0.8270909786224365,3.345747232437134
1790266833595566600,2.479566650390625,-9.193168640136719,-0.7027014493942261,3.340996503829956
1790266833605566500,2.48956640625,-9.192384719848633,-0.6136155128479004,3.360644817352295
1790266833615566600,2.499566650390625,-9.18025016784668,-0.5607509613037109,3.40278697013855
1790266833625566500,2.50956640625,-9.162151336669922,-0.5370835065841675,3.4549827575683594
1790266833635566600,2.519566650390625,-9.140161514282227,-0.5379682779312134,3.512608766555786
1790266833645566500,2.52956640625,-9.11380386352539,-0.5587913393974304,3.577249765396118
1790266833655566600,2.539566650390625,-9.08879280090332,-0.5999956130981445,3.633762836456299
1790266833665566500,2.54956640625,-9.066167831420898,-0.671232283115387,3.6775569915771484
1790266833675566600,2.559566650390625,-9.040618896484375,-0.7744978666305542,3.7199149131774902
1790266833685566500,2.56956640625,-9.010421752929688,-0.9140817523002625,3.761270046234131
1790266833695566600,2.579566650390625,-8.97750473022461,-1.0953243970870972,3.791445732116699
1790266833705566500,2.58956640625,-8.942808151245117,-1.3087940216064453,3.8057358264923096
1790266833715566600,2.599566650390625,-8.895439147949219,-1.5427457094192505,3.8290326595306396
1790266833725566500,2.60956640625,-8.824236869812012,-1.7921364307403564,3.884774684906006
1790266833735566600,2.619566650390625,-8.724312782287598,-2.0540289878845215,3.979661464691162
1790266833745566500,2.62956640625,-8.598663330078125,-2.3344035148620605,4.096820831298828
1790266833755566600,2.639566650390625,-8.45447063446045,-2.636202096939087,4.212213516235352
1790266833765566500,2.64956640625,-8.297510147094727,-2.9536595344543457,4.312494277954102
1790266833775566600,2.659566650390625,-8.131932258605957,-3.276388168334961,4.3940110206604
1790266833785566500,2.66956640625,-7.960146903991699,-3.596259355545044,4.457954406738281
1790266833795566600,2.679566650390625,-7.786885738372803,-3.9063782691955566,4.502778053283691
1790266833805566500,2.68956640625,-7.61341667175293,-4.202915191650391,4.532302379608154
1790266833815566600,2.699566650390625,-7.4409871101379395,-4.484676361083984,4.548602104187012
1790266833825566500,2.70956640625,-7.271984100341797,-4.751850605010986,4.550664901733398
1790266833835566600,2.719566650390625,-7.1062541007995605,-5.004439830780029,4.541710376739502
1790266833845566500,2.72956640625,-6.947792053222656,-5.241232872009277,4.519740104675293
1790266833855566600,2.739566650390625,-6.791859149932861,-5.453149795532227,4.506016731262207
1790266833865566500,2.74956640625,-6.629697322845459,-5.647830963134766,4.507715702056885
1790266833875566600,2.759566650390625,-6.469183921813965,-5.838482856750488,4.498017311096191
1790266833885566500,2.76956640625,-6.3153581619262695,-6.02324104309082,4.4729413986206055
1790266833895566600,2.779566650390625,-6.172006130218506,-6.210981369018555,4.415928840637207
1790266833905566500,2.78956640625,-6.041041851043701,-6.400791168212891,4.3250508308410645
1790266833915566600,2.799566650390625,-5.917086601257324,-6.587326526641846,4.214925289154053
1790266833925566500,2.80956640625,-5.800368309020996,-6.762879848480225,4.097507476806641
1790266833935566600,2.819566650390625,-5.6919074058532715,-6.922062397003174,3.9821643829345703
1790266833945566500,2.82956640625,-5.587434768676758,-7.065812110900879,3.876243829727173
1790266833955566600,2.839566650390625,-5.485777378082275,-7.195145606994629,3.782395601272583
1790266833965566500,2.84956640625,-5.389825344085693,-7.305728912353516,3.707628011703491
1790266833975566600,2.859566650390625,-5.303697109222412,-7.395850658416748,3.652747392654419
1790266833985566500,2.86956640625,-5.232325077056885,-7.4657511711120605,3.6132707595825195
1790266833995566600,2.879566650390625,-5.178147315979004,-7.516611576080322,3.5857677459716797
1790266834005566500,2.88956640625,-5.14485502243042,-7.548429012298584,3.566800117492676
1790266834015566600,2.899566650390625,-5.131817817687988,-7.562411785125732,3.555945634841919
1790266834025566500,2.90956640625,-5.132737159729004,-7.563398361206055,3.5525200366973877
1790266834035566600,2.919566650390625,-5.14802885055542,-7.549086570739746,3.560826301574707
1790266834045566500,2.92956640625,-5.1748552322387695,-7.523523330688477,3.57601261138916
1790266834055566600,2.939566650390625,-5.211813926696777,-7.492425441741943,3.5876083374023438
1790266834065566500,2.94956640625,-5.2595672607421875,-7.4548468589782715,3.5961928367614746
1790266834075566600,2.959566650390625,-5.325586795806885,-7.404079437255859,3.6039040088653564
1790266834085566500,2.96956640625,-5.413079738616943,-7.338436126708984,3.607811450958252
1790266834095566600,2.979566650390625,-5.501070499420166,-7.265395641326904,3.6225175857543945
1790266834105566500,2.98956640625,-5.590512275695801,-7.185512065887451,3.6448569297790527
1790266834115566600,2.999566650390625,-5.690640449523926,-7.098182201385498,3.660984754562378
1790266834125566500,3.00956640625,-5.810543060302734,-7.004790782928467,3.652517318725586
1790266834135566600,3.019566650390625,-5.9387288093566895,-6.908721923828125,3.6292479038238525
1790266834145566500,3.02956640625,-6.06358528137207,-6.810832977294922,3.6077537536621094
1790266834155566600,3.039566650390625,-6.1798930168151855,-6.712295055389404,3.5950510501861572
1790266834165566500,3.04956640625,-6.2882914543151855,-6.610686302185059,3.5953586101531982
1790266834175566600,3.059566650390625,-6.394067287445068,-6.5044121742248535,3.602626323699951
1790266834185566500,3.06956640625,-6.503301620483398,-6.391084671020508,3.6099157333374023
1790266834195566600,3.079566650390625,-6.621508598327637,-6.268626689910889,3.6097540855407715
1790266834205566500,3.08956640625,-6.748693466186523,-6.1342453956604,3.605073928833008
1790266834215566600,3.099566650390625,-6.884171485900879,-5.982602119445801,3.603752374649048
1790266834225566500,3.10956640625,-7.027882099151611,-5.810258388519287,3.6083452701568604
1790266834235566600,3.119566650390625,-7.179009914398193,-5.615920066833496,3.618514060974121
1790266834245566500,3.12956640625,-7.331948757171631,-5.396503925323486,3.6456358432769775
1790266834255566600,3.139566650390625,-7.4840850830078125,-5.156989574432373,3.6829771995544434
1790266834265566500,3.14956640625,-7.642729759216309,-4.914042949676514,3.689342737197876
1790266834275566600,3.159566650390625,-7.808082580566406,-4.67060661315918,3.659188747406006
1790266834285566500,3.16956640625,-7.979344844818115,-4.4190592765808105,3.601714849472046
1790266834295566600,3.179566650390625,-8.150042533874512,-4.1566314697265625,3.5312321186065674
1790266834305566500,3.18956640625,-8.312285423278809,-3.8924460411071777,3.4532828330993652
1790266834315566600,3.199566650390625,-8.463342666625977,-3.63423490524292,3.366682529449463
1790266834325566500,3.20956640625,-8.603653907775879,-3.3832828998565674,3.2712249755859375
1790266834335566600,3.219566650390625,-8.733746528625488,-3.137371301651001,3.170011281967163
1790266834345566500,3.22956640625,-8.854188919067383,-2.8916914463043213,3.0678720474243164
1790266834355566600,3.239566650390625,-8.965886116027832,-2.6426732540130615,2.966402769088745
1790266834365566500,3.24956640625,-9.065401077270508,-2.3961288928985596,2.871838331222534
1790266834375566600,3.259566650390625,-9.147502899169922,-2.1615188121795654,2.796679735183716
1790266834385566500,3.26956640625,-9.213701248168945,-1.9414280652999878,2.7402455806732178
1790266834395566600,3.279566650390625,-9.267829895019531,-1.7431797981262207,2.690549612045288
1790266834405566500,3.28956640625,-9.313201904296875,-1.5734609365463257,2.637970209121704
1790266834415566600,3.299566650390625,-9.353363037109375,-1.4280765056610107,2.57790207862854
1790266834425566500,3.30956640625,-9.388025283813477,-1.3056976795196533,2.516052007675171
1790266834435566600,3.319566650390625,-9.414782524108887,-1.2039874792099,2.466310501098633
1790266834445566500,3.32956640625,-9.43312931060791,-1.1153907775878906,2.4376981258392334
1790266834455566600,3.339566650390625,-9.445865631103516,-1.0372529029846191,2.4228320121765137
1790266834465566500,3.34956640625,-9.455610275268555,-0.9696325063705444,2.4128050804138184
1790266834475566600,3.359566650390625,-9.461555480957031,-0.9138739109039307,2.4112613201141357
1790266834485566500,3.36956640625,-9.460545539855957,-0.8731337785720825,2.4302475452423096
1790266834495566600,3.379566650390625,-9.451642990112305,-0.8520892858505249,2.472001075744629
1790266834505566500,3.38956640625,-9.436651229858398,-0.857567310333252,2.5267698764801025
1790266834515566600,3.399566650390625,-9.41795539855957,-0.8945854306221008,2.583064079284668
1790266834525566500,3.40956640625,-9.39631175994873,-0.9627678990364075,2.6368134021759033
1790266834535566600,3.419566650390625,-9.370088577270508,-1.0601496696472168,2.6921911239624023
1790266834545566500,3.42956640625,-9.337706565856934,-1.1852800846099854,2.7518579959869385
1790266834555566600,3.439566650390625,-9.298561096191406,-1.3323122262954712,2.8163957595825195
1790266834565566500,3.44956640625,-9.250606536865234,-1.4934464693069458,2.892451524734497
1790266834575566600,3.459566650390625,-9.190058708190918,-1.665725588798523,2.9897444248199463
1790266834585566500,3.46956640625,-9.114388465881348,-1.8537423610687256,3.108367443084717
1790266834595566600,3.479566650390625,-9.023036003112793,-2.0645344257354736,3.239274740219116
1790266834605566500,3.48956640625,-8.915513038635254,-2.30200457572937,3.374135732650757
1790266834615566600,3.499566650390625,-8.792036056518555,-2.5618479251861572,3.5081934928894043
1790266834625566500,3.50956640625,-8.655903816223145,-2.8336079120635986,3.6354355812072754
1790266834635566600,3.519566650390625,-8.507566452026367,-3.1104936599731445,3.757197856903076
1790266834645566500,3.52956640625,-8.346540451049805,-3.389115810394287,3.8755056858062744
1790266834655566600,3.539566650390625,-8.174453735351562,-3.668302297592163,3.986511468887329
1790266834665566500,3.54956640625,-7.992039203643799,-3.949329376220703,4.08662223815918
1790266834675566600,3.559566650390625,-7.799679279327393,-4.23272180557251,4.173661708831787
1790266834685566500,3.56956640625,-7.597970008850098,-4.5192084312438965,4.244762420654297
1790266834695566600,3.579566650390625,-7.390858173370361,-4.804499626159668,4.296789169311523
1790266834705566500,3.58956640625,-7.184417247772217,-5.081024646759033,4.328710079193115
1790266834715566600,3.599566650390625,-6.986579418182373,-5.342855930328369,4.337277412414551
1790266834725566500,3.60956640625,-6.801270484924316,-5.58619499206543,4.325221061706543
1790266834735566600,3.619566650390625,-6.625555515289307,-5.811925888061523,4.300457000732422
1790266834745566500,3.62956640625,-6.4582343101501465,-6.0208611488342285,4.267415523529053
1790266834755566600,3.639566650390625,-6.299201965332031,-6.215784072875977,4.225456237792969
1790266834765566500,3.64956640625,-6.149472236633301,-6.399878025054932,4.170844078063965
1790266834775566600,3.659566650390625,-6.011326313018799,-6.573490619659424,4.101653099060059
1790266834785566500,3.66956640625,-5.8861212730407715,-6.73480224609375,4.020745754241943
1790266834795566600,3.679566650390625,-5.7729878425598145,-6.8816094398498535,3.93528151512146
1790266834805566500,3.68956640625,-5.667938709259033,-7.013628005981445,3.854074716567993
1790266834815566600,3.699566650390625,-5.567474842071533,-7.129982948303223,3.786416530609131
1790266834825566500,3.70956640625,-5.472484588623047,-7.229827404022217,3.7352232933044434
1790266834835566600,3.719566650390625,-5.386980056762695,-7.313608169555664,3.696209192276001
1790266834845566500,3.72956640625,-5.315060138702393,-7.383321285247803,3.6615681648254395
1790266834855566600,3.739566650390625,-5.256963729858398,-7.441260814666748,3.627998113632202
1790266834865566500,3.74956640625,-5.209582805633545,-7.488720893859863,3.598567247390747
1790266834875566600,3.759566650390625,-5.1676740646362305,-7.5267109870910645,3.579686403274536
1790266834885566500,3.76956640625,-5.131103992462158,-7.555647373199463,3.5713229179382324
1790266834895566600,3.779566650390625,-5.105676174163818,-7.574888706207275,3.567004919052124
1790266834905566500,3.78956640625,-5.0968194007873535,-7.583000183105469,3.5624325275421143
1790266834915566600,3.799566650390625,-5.105432987213135,-7.577404499053955,3.562005043029785
1790266834925566500,3.80956640625,-5.129288196563721,-7.55599308013916,3.5732007026672363
1790266834935566600,3.819566650390625,-5.163414001464844,-7.52119255065918,3.5973873138427734
1790266834945566500,3.82956640625,-5.203051567077637,-7.4784626960754395,3.6292190551757812
1790266834955566600,3.839566650390625,-5.249568462371826,-7.432126522064209,3.6573076248168945
1790266834965566500,3.84956640625,-5.307717323303223,-7.381570339202881,3.6757233142852783
1790266834975566600,3.859566650390625,-5.384706497192383,-7.321235656738281,3.68440580368042
1790266834985566500,3.86956640625,-5.486797332763672,-7.244156360626221,3.6861414909362793
1790266834995566600,3.879566650390625,-5.611449241638184,-7.1476664543151855,3.686851739883423
1790266835005566500,3.88956640625,-5.750020503997803,-7.033022880554199,3.693810224533081
1790266835015566600,3.899566650390625,-5.8955230712890625,-6.9038615226745605,3.708085536956787
1790266835025566500,3.90956640625,-6.044970989227295,-6.764235496520996,3.7247586250305176
1790266835035566600,3.919566650390625,-6.195620536804199,-6.618757247924805,3.7385458946228027
1790266835045566500,3.92956640625,-6.344720363616943,-6.472270488739014,3.7449469566345215
1790266835055566600,3.939566650390625,-6.49073600769043,-6.3297295570373535,3.738349676132202
1790266835065566500,3.94956640625,-6.634137153625488,-6.193945407867432,3.713981866836548
1790266835075566600,3.959566650390625,-6.780815124511719,-6.059191703796387,3.6711204051971436
1790266835085566500,3.96956640625,-6.934961795806885,-5.915579319000244,3.6169893741607666
1790266835095566600,3.979566650390625,-7.095226764678955,-5.754464626312256,3.565708875656128
1790266835105566500,3.98956640625,-7.25587797164917,-5.5733418464660645,3.5299394130706787
1790266835115566600,3.999566650390625,-7.413182258605957,-5.37406587600708,3.5120537281036377
1790266835125566500,4.00956640625,-7.568370342254639,-5.160261154174805,3.501694440841675
1790266835135566600,4.019566650390625,-7.724764823913574,-4.934263706207275,3.4858908653259277
1790266835145566500,4.02956640625,-7.88184928894043,-4.697656154632568,3.461050271987915
1790266835155566600,4.039566650390625,-8.03398609161377,-4.456043720245361,3.430615186691284
1790266835165566500,4.04956640625,-8.178812980651855,-4.213151454925537,3.395109176635742
1790266835175566600,4.059566650390625,-8.318754196166992,-3.9701621532440186,3.3476150035858154
1790266835185566500,4.06956640625,-8.454973220825195,-3.7290761470794678,3.282957077026367
1790266835195566600,4.079566650390625,-8.584405899047852,-3.4913947582244873,3.2075746059417725
1790266835205566500,4.08956640625,-8.705394744873047,-3.2551279067993164,3.1289987564086914
1790266835215566600,4.099566650390625,-8.817194938659668,-3.020871639251709,3.049882173538208
1790266835225566500,4.10956640625,-8.917730331420898,-2.7973382472991943,2.969745397567749
1790266835235566600,4.119566650390625,-9.00865650177002,-2.5886900424957275,2.8832576274871826
1790266835245566500,4.12956640625,-9.093523025512695,-2.3901171684265137,2.7866764068603516
1790266835255566600,4.139566650390625,-9.170178413391113,-2.1974546909332275,2.692469596862793
1790266835265566500,4.14956640625,-9.236603736877441,-2.0124104022979736,2.608780860900879
1790266835275566600,4.159566650390625,-9.293070793151855,-1.8389711380004883,2.5352330207824707
1790266835285566500,4.16956640625,-9.339391708374023,-1.6785234212875366,2.47562313079834
1790266835295566600,4.179566650390625,-9.375038146972656,-1.5334134101867676,2.434688091278076
1790266835305566500,4.18956640625,-9.400157928466797,-1.406847596168518,2.414163589477539
1790266835315566600,4.199566650390625,-9.41623592376709,-1.2986737489700317,2.412123680114746
1790266835325566500,4.20956640625,-9.42474365234375,-1.2084826231002808,2.425729513168335
1790266835335566600,4.219566650390625,-9.427188873291016,-1.1375315189361572,2.4504148960113525
1790266835345566500,4.22956640625,-9.42427921295166,-1.0889562368392944,2.4834511280059814
1790266835355566600,4.239566650390625,-9.416712760925293,-1.0626963376998901,2.5232110023498535
1790266835365566500,4.24956640625,-9.405397415161133,-1.057124376296997,2.567366123199463
1790266835375566600,4.259566650390625,-9.391260147094727,-1.0707203149795532,2.6130764484405518
1790266835385566500,4.26956640625,-9.374382019042969,-1.1045401096343994,2.6591997146606445
1790266835395566600,4.279566650390625,-9.353652000427246,-1.1619718074798584,2.7072880268096924
1790266835405566500,4.28956640625,-9.327333450317383,-1.2472785711288452,2.7596240043640137
1790266835415566600,4.299566650390625,-9.294136047363281,-1.3614170551300049,2.817082405090332
1790266835425566500,4.30956640625,-9.252174377441406,-1.5026189088821411,2.882669687271118
1790266835435566600,4.319566650390625,-9.199220657348633,-1.6678727865219116,2.9602243900299072
1790266835445566500,4.32956640625,-9.133247375488281,-1.8523224592208862,3.053373336791992
1790266835455566600,4.339566650390625,-9.053557395935059,-2.0517728328704834,3.1612823009490967
1790266835465566500,4.34956640625,-8.960134506225586,-2.26655650138855,3.2785799503326416
1790266835475566600,4.359566650390625,-8.85226821899414,-2.4986510276794434,3.400658130645752
1790266835485566500,4.36956640625,-8.72740650177002,-2.7520675659179688,3.5254616737365723
1790266835495566600,4.379566650390625,-8.582053184509277,-3.0287210941314697,3.6531622409820557
1790266835505566500,4.38956640625,-8.414690017700195,-3.325320243835449,3.7822763919830322
1790266835515566600,4.399566650390625,-8.230030059814453,-3.630565643310547,3.9058921337127686
1790266835525566500,4.40956640625,-8.033513069152832,-3.934291362762451,4.019254207611084
1790266835535566600,4.419566650390625,-7.8311309814453125,-4.230020999908447,4.117121696472168
1790266835545566500,4.42956640625,-7.627886772155762,-4.51223611831665,4.198269367218018
1790266835555566600,4.439566650390625,-7.426567554473877,-4.779273509979248,4.263218402862549
1790266835565566500,4.44956640625,-7.231487274169922,-5.03377628326416,4.3054704666137695
1790266835575566600,4.459566650390625,-7.045353889465332,-5.278483867645264,4.320995330810547
1790266835585566500,4.46956640625,-6.868856906890869,-5.513067722320557,4.312224864959717
1790266835595566600,4.479566650390625,-6.702184200286865,-5.735741138458252,4.283967971801758
1790266835605566500,4.48956640625,-6.545020580291748,-5.9450364112854,4.241418838500977
1790266835615566600,4.499566650390625,-6.39771842956543,-6.140438079833984,4.187435150146484
1790266835625566500,4.50956640625,-6.259665489196777,-6.322580814361572,4.124553680419922
1790266835635566600,4.519566650390625,-6.130344390869141,-6.491570472717285,4.055710315704346
1790266835645566500,4.52956640625,-6.012382507324219,-6.645747184753418,3.9819188117980957
1790266835655566600,4.539566650390625,-5.9085588455200195,-6.784454345703125,3.9026267528533936
1790266835665566500,4.54956640625,-5.8152079582214355,-6.911746025085449,3.8185737133026123
1790266835675566600,4.559566650390625,-5.7268524169921875,-7.031272888183594,3.732926607131958
1790266835685566500,4.56956640625,-5.644136905670166,-7.141380310058594,3.6489439010620117
1790266835695566600,4.579566650390625,-5.5728936195373535,-7.2378830909729,3.5673930644989014
1790266835705566500,4.58956640625,-5.516829013824463,-7.3176093101501465,3.4910709857940674
1790266835715566600,4.599566650390625,-5.477180004119873,-7.379673004150391,3.422179698944092
1790266835725566500,4.60956640625,-5.454586029052734,-7.423508644104004,3.3629462718963623
1790266835735566600,4.619566650390625,-5.445186614990234,-7.450058937072754,3.3191792964935303
1790266835745566500,4.62956640625,-5.44655179977417,-7.461328983306885,3.2915098667144775
1790266835755566600,4.639566650390625,-5.457874298095703,-7.4602508544921875,3.2751548290252686
1790266835765566500,4.64956640625,-5.479332447052002,-7.4484543800354,3.266165018081665
1790266835775566600,4.659566650390625,-5.512918472290039,-7.4259161949157715,3.2609639167785645
1790266835785566500,4.66956640625,-5.561070919036865,-7.391515731811523,3.257357120513916
1790266835795566600,4.679566650390625,-5.624038219451904,-7.344476222991943,3.2556490898132324
1790266835805566500,4.68956640625,-5.69692850112915,-7.287112236022949,3.257819414138794
1790266835815566600,4.699566650390625,-5.772809982299805,-7.222987651824951,3.2670304775238037
1790266835825566500,4.70956640625,-5.848382949829102,-7.154963493347168,3.2822721004486084
1790266835835566600,4.719566650390625,-5.922733783721924,-7.085739612579346,3.29907488822937
1790266835845566500,4.72956640625,-5.996347427368164,-7.0155792236328125,3.31600022315979
1790266835855566600,4.739566650390625,-6.071745872497559,-6.941826343536377,3.333966016769409
1790266835865566500,4.74956640625,-6.15073823928833,-6.861456394195557,3.355475664138794
1790266835875566600,4.759566650390625,-6.234912395477295,-6.7721638679504395,3.3814263343811035
1790266835885566500,4.76956640625,-6.327003002166748,-6.671881675720215,3.409607172012329
1790266835895566600,4.779566650390625,-6.430631160736084,-6.557190895080566,3.438112258911133
1790266835905566500,4.78956640625,-6.544301509857178,-6.426698684692383,3.469879150390625
1790266835915566600,4.799566650390625,-6.6631083488464355,-6.281337261199951,3.5097250938415527
1790266835925566500,4.80956640625,-6.782564163208008,-6.124979496002197,3.5569405555725098
1790266835935566600,4.819566650390625,-6.903109073638916,-5.962105751037598,3.601494550704956
1790266835945566500,4.82956640625,-7.030274391174316,-5.791688919067383,3.6334519386291504
1790266835955566600,4.839566650390625,-7.168114185333252,-5.610203742980957,3.6488547325134277
1790266835965566500,4.84956640625,-7.315999984741211,-5.416705131530762,3.647716999053955
1790266835975566600,4.859566650390625,-7.470500469207764,-5.2134480476379395,3.630699396133423
1790266835985566500,4.86956640625,-7.6284098625183105,-5.003252983093262,3.597944498062134
1790266835995566600,4.879566650390625,-7.7904791831970215,-4.7858991622924805,3.545984983444214
1790266836005566500,4.88956640625,-7.957298755645752,-4.559163570404053,3.473590135574341
1790266836015566600,4.899566650390625,-8.126604080200195,-4.321522235870361,3.384249448776245
1790266836025566500,4.90956640625,-8.293259620666504,-4.073411464691162,3.286266803741455
1790266836035566600,4.919566650390625,-8.451282501220703,-3.815812349319458,3.191516876220703
1790266836045566500,4.92956640625,-8.595661163330078,-3.554873466491699,3.1061010360717773
1790266836055566600,4.939566650390625,-8.72493839263916,-3.2990827560424805,3.026862621307373
1790266836065566500,4.94956640625,-8.841561317443848,-3.051955223083496,2.946650743484497
1790266836075566600,4.959566650390625,-8.948296546936035,-2.812429666519165,2.861577272415161
1790266836085566500,4.96956640625,-9.044364929199219,-2.5827465057373047,2.7747578620910645
1790266836095566600,4.979566650390625,-9.127948760986328,-2.3622069358825684,2.6964664459228516
1790266836105566500,4.98956640625,-9.198994636535645,-2.1431331634521484,2.637396812438965
1790266836115566600,4.999566650390625,-9.257048606872559,-1.9240566492080688,2.602968454360962
1790266836125566500,5.00956640625,-9.300982475280762,-1.7173677682876587,2.5909006595611572
1790266836135566600,5.019566650390625,-9.331530570983887,-1.537381649017334,2.594106435775757
1790266836145566500,5.02956640625,-9.351492881774902,-1.3851301670074463,2.60794734954834
1790266836155566600,5.039566650390625,-9.362593650817871,-1.2548253536224365,2.6339409351348877
1790266836165566500,5.04956640625,-9.36290168762207,-1.1450477838516235,2.6824114322662354
1790266836175566600,5.059566650390625,-9.354497909545898,-1.0580097436904907,2.746702194213867
1790266836185566500,5.06956640625,-9.341705322265625,-0.9957810640335083,2.8127124309539795
1790266836195566600,5.079566650390625,-9.327178955078125,-0.9582358598709106,2.8733057975769043
1790266836205566500,5.08956640625,-9.311869621276855,-0.9431447386741638,2.9274466037750244
1790266836215566600,5.099566650390625,-9.295970916748047,-0.9500994682312012,2.9753363132476807
1790266836225566500,5.10956640625,-9.278298377990723,-0.9819399118423462,3.019826889038086
1790266836235566600,5.119566650390625,-9.257403373718262,-1.0401721000671387,3.0641305446624756
1790266836245566500,5.12956640625,-9.232922554016113,-1.1240538358688354,3.108059883117676
1790266836255566600,5.139566650390625,-9.203719139099121,-1.2311718463897705,3.1537506580352783
1790266836265566500,5.14956640625,-9.166723251342773,-1.361635446548462,3.207418918609619
1790266836275566600,5.159566650390625,-9.118617057800293,-1.5156214237213135,3.2747676372528076
1790266836285566500,5.16956640625,-9.057372093200684,-1.6916275024414062,3.357497215270996
1790266836295566600,5.179566650390625,-8.982661247253418,-1.8848670721054077,3.453903913497925
1790266836305566500,5.18956640625,-8.893743515014648,-2.0910565853118896,3.5635933876037598
1790266836315566600,5.199566650390625,-8.789546966552734,-2.3067831993103027,3.6868698596954346
1790266836325566500,5.20956640625,-8.669207572937012,-2.5328681468963623,3.820969820022583
1790266836335566600,5.219566650390625,-8.53386402130127,-2.767159938812256,3.960604429244995
1790266836345566500,5.22956640625,-8.385589599609375,-3.0074989795684814,4.0996599197387695
1790266836355566600,5.239566650390625,-8.2255859375,-3.2536427974700928,4.233665943145752
1790266836365566500,5.24956640625,-8.052582740783691,-3.506774663925171,4.362203598022461
1790266836375566600,5.259566650390625,-7.867882251739502,-3.766757011413574,4.480888366699219
1790266836385566500,5.26956640625,-7.677767276763916,-4.027987957000732,4.582312107086182
1790266836395566600,5.279566650390625,-7.488518714904785,-4.284248352050781,4.6623687744140625
1790266836405566500,5.28956640625,-7.302180290222168,-4.5317182540893555,4.723566055297852
1790266836415566600,5.299566650390625,-7.115261077880859,-4.772227764129639,4.7717180252075195
1790266836425566500,5.30956640625,-6.927770614624023,-5.007483959197998,4.806398868560791
1790266836435566600,5.319566650390625,-6.741357326507568,-5.24069881439209,4.822817325592041
1790266836445566500,5.32956640625,-6.560702323913574,-5.471522808074951,4.815600395202637
1790266836455566600,5.339566650390625,-6.386641025543213,-5.698448657989502,4.786323070526123
1790266836465566500,5.34956640625,-6.221333026885986,-5.916905403137207,4.738737106323242
1790266836475566600,5.359566650390625,-6.071817874908447,-6.120880603790283,4.6731390953063965
1790266836485566500,5.36956640625,-5.940035820007324,-6.307671546936035,4.593433856964111
1790266836495566600,5.379566650390625,-5.823311805725098,-6.4778900146484375,4.505149841308594
1790266836505566500,5.38956640625,-5.717618465423584,-6.632880210876465,4.4140825271606445
1790266836515566600,5.399566650390625,-5.6180830001831055,-6.774385929107666,4.326108455657959
1790266836525566500,5.40956640625,-5.522846698760986,-6.902284145355225,4.24582576751709
1790266836535566600,5.419566650390625,-5.432709693908691,-7.016846656799316,4.173716068267822
1790266836545566500,5.42956640625,-5.351252555847168,-7.117548942565918,4.107917785644531
1790266836555566600,5.439566650390625,-5.284267902374268,-7.202948570251465,4.045297145843506
1790266836565566500,5.44956640625,-5.237206935882568,-7.271053791046143,3.984196424484253
1790266836575566600,5.459566650390625,-5.210157871246338,-7.322383880615234,3.925217866897583
1790266836585566500,5.46956640625,-5.198469161987305,-7.360092639923096,3.869797706604004
1790266836595566600,5.479566650390625,-5.1983137130737305,-7.387648105621338,3.817140579223633
1790266836605566500,5.48956640625,-5.207170486450195,-7.408231258392334,3.764820098876953
1790266836615566600,5.499566650390625,-5.224296569824219,-7.423578262329102,3.710472822189331
1790266836625566500,5.50956640625,-5.247610569000244,-7.434494972229004,3.6553056240081787
1790266836635566600,5.519566650390625,-5.274349689483643,-7.440736293792725,3.6037585735321045
1790266836645566500,5.52956640625,-5.304869174957275,-7.44000244140625,3.5602128505706787
1790266836655566600,5.539566650390625,-5.3392839431762695,-7.4297099113464355,3.5301342010498047
1790266836665566500,5.54956640625,-5.3795294761657715,-7.408440113067627,3.51369571685791
1790266836675566600,5.559566650390625,-5.427425384521484,-7.375792026519775,3.508723258972168
1790266836685566500,5.56956640625,-5.479669570922852,-7.3341240882873535,3.514857530593872
1790266836695566600,5.579566650390625,-5.533220291137695,-7.286358833312988,3.5302746295928955
1790266836705566500,5.58956640625,-5.586821556091309,-7.235023021697998,3.5513741970062256
1790266836715566600,5.599566650390625,-5.63874626159668,-7.182844161987305,3.575148582458496
1790266836725566500,5.60956640625,-5.688943862915039,-7.130736351013184,3.5998494625091553
1790266836735566600,5.619566650390625,-5.747262001037598,-7.071691989898682,3.6236085891723633
1790266836745566500,5.62956640625,-5.827205657958984,-6.992380142211914,3.6497507095336914
1790266836755566600,5.639566650390625,-5.9284844398498535,-6.885603427886963,3.6894333362579346
1790266836765566500,5.64956640625,-6.042446613311768,-6.752211093902588,3.750582456588745
1790266836775566600,5.659566650390625,-6.148784160614014,-6.608246326446533,3.8332650661468506
1790266836785566500,5.66956640625,-6.22681999206543,-6.4876322746276855,3.912508010864258
1790266836795566600,5.679566650390625,-6.282582759857178,-6.4045562744140625,3.959949016571045
1790266836805566500,5.68956640625,-6.337865352630615,-6.346421241760254,3.9654479026794434
1790266836815566600,5.699566650390625,-6.416660308837891,-6.28961706161499,3.929067611694336
1790266836825566500,5.70956640625,-6.534270763397217,-6.209264755249023,3.8624775409698486
1790266836835566600,5.719566650390625,-6.6896586418151855,-6.082220554351807,3.7980833053588867
1790266836845566500,5.72956640625,-6.862024307250977,-5.900893211364746,3.7765674591064453
1790266836855566600,5.739566650390625,-7.028766632080078,-5.687446117401123,3.7973392009735107
1790266836865566500,5.74956640625,-7.180646896362305,-5.483891010284424,3.81256365776062
1790266836875566600,5.759566650390625,-7.31219482421875,-5.3221893310546875,3.791635274887085
1790266836885566500,5.76956640625,-7.4236979484558105,-5.201993942260742,3.741438627243042
1790266836895566600,5.779566650390625,-7.521828651428223,-5.0996198654174805,3.6859688758850098
1790266836905566500,5.78956640625,-7.617524147033691,-4.9899749755859375,3.6392109394073486
1790266836915566600,5.799566650390625,-7.7158355712890625,-4.859780788421631,3.6081554889678955
1790266836925566500,5.80956640625,-7.811791896820068,-4.7152886390686035,3.5933756828308105
1790266836935566600,5.819566650390625,-7.901697635650635,-4.571432590484619,3.582674503326416
1790266836945566500,5.82956640625,-7.987790584564209,-4.436427593231201,3.5614194869995117
1790266836955566600,5.839566650390625,-8.073719024658203,-4.308079719543457,3.525038719177246
1790266836965566500,5.84956640625,-8.161767959594727,-4.177862644195557,3.478703498840332
1790266836975566600,5.859566650390625,-8.247591018676758,-4.040497779846191,3.4383139610290527
1790266836985566500,5.86956640625,-8.325833320617676,-3.898726463317871,3.413330078125
1790266836995566600,5.879566650390625,-8.398956298828125,-3.7569310665130615,3.3931376934051514
1790266837005566500,5.88956640625,-8.470702171325684,-3.618637800216675,3.3649742603302
1790266837015566600,5.899566650390625,-8.541324615478516,-3.485102891921997,3.327195167541504
1790266837025566500,5.90956640625,-8.610031127929688,-3.3524882793426514,3.2861177921295166
1790266837035566600,5.919566650390625,-8.676408767700195,-3.2152364253997803,3.248469829559326
1790266837045566500,5.92956640625,-8.740163803100586,-3.07383394241333,3.2142598628997803
1790266837055566600,5.939566650390625,-8.803156852722168,-2.9315404891967773,3.1750407218933105
1790266837065566500,5.94956640625,-8.868457794189453,-2.7880303859710693,3.12213397026062
1790266837075566600,5.959566650390625,-8.936470985412598,-2.641221284866333,3.0551321506500244
1790266837085566500,5.96956640625,-9.005473136901855,-2.490837574005127,2.977846622467041
1790266837095566600,5.979566650390625,-9.07296085357666,-2.3395330905914307,2.8945393562316895
1790266837105566500,5.98956640625,-9.132772445678711,-2.191981077194214,2.8210062980651855
1790266837115566600,5.999566650390625,-9.177923202514648,-2.050610303878784,2.7804877758026123
1790266837125566500,6.00956640625,-9.207762718200684,-1.9160958528518677,2.7777814865112305
1790266837135566600,6.019566650390625,-9.229100227355957,-1.7888686656951904,2.7917816638946533
1790266837145566500,6.02956640625,-9.24686050415039,-1.6684423685073853,2.807535409927368
1790266837155566600,6.039566650390625,-9.25896167755127,-1.557225227355957,2.8314430713653564
1790266837165566500,6.04956640625,-9.262020111083984,-1.4645600318908691,2.8706154823303223
1790266837175566600,6.059566650390625,-9.255824089050293,-1.3983278274536133,2.923149585723877
1790266837185566500,6.06956640625,-9.243199348449707,-1.3529837131500244,2.9838035106658936
1790266837195566600,6.079566650390625,-9.228229522705078,-1.3185244798660278,3.044938564300537
1790266837205566500,6.08956640625,-9.213476181030273,-1.2885305881500244,3.101923704147339
1790266837215566600,6.099566650390625,-9.200304985046387,-1.2617955207824707,3.1516106128692627
1790266837225566500,6.10956640625,-9.188400268554688,-1.2420036792755127,3.1939175128936768
1790266837235566600,6.119566650390625,-9.175861358642578,-1.234210729598999,3.2327492237091064
1790266837245566500,6.12956640625,-9.161556243896484,-1.2403137683868408,3.2707643508911133
1790266837255566600,6.139566650390625,-9.145342826843262,-1.2588685750961304,3.3088302612304688
1790266837265566500,6.14956640625,-9.128941535949707,-1.2848482131958008,3.3439459800720215
1790266837275566600,6.159566650390625,-9.111926078796387,-1.3186296224594116,3.377042055130005
1790266837285566500,6.16956640625,-9.092707633972168,-1.3621492385864258,3.4113924503326416
1790266837295566600,6.179566650390625,-9.071441650390625,-1.4149035215377808,3.4463565349578857
1790266837305566500,6.18956640625,-9.047469139099121,-1.4771140813827515,3.4830784797668457
1790266837315566600,6.199566650390625,-9.019646644592285,-1.5504381656646729,3.5231382846832275
1790266837325566500,6.20956640625,-8.986209869384766,-1.6370965242385864,3.569080114364624
1790266837335566600,6.219566650390625,-8.947978973388672,-1.735047459602356,3.6185176372528076
1790266837345566500,6.22956640625,-8.906933784484863,-1.8392823934555054,3.6679632663726807
1790266837355566600,6.239566650390625,-8.862504005432129,-1.947696566581726,3.7192585468292236
1790266837365566500,6.24956640625,-8.815400123596191,-2.0578157901763916,3.7715365886688232
1790266837375566600,6.259566650390625,-8.765970230102539,-2.1700048446655273,3.823511838912964
1790266837385566500,6.26956640625,-8.713347434997559,-2.2871861457824707,3.8751437664031982
1790266837395566600,6.279566650390625,-8.660061836242676,-2.4068315029144287,3.9218475818634033
1790266837405566500,6.28956640625,-8.605600357055664,-2.529860496520996,3.964069366455078
1790266837415566600,6.299566650390625,-8.548612594604492,-2.6571848392486572,4.003872394561768
1790266837425566500,6.30956640625,-8.49041748046875,-2.7875430583953857,4.038911819458008
1790266837435566600,6.319566650390625,-8.42790412902832,-2.9213454723358154,4.07511568069458
1790266837445566500,6.32956640625,-8.359841346740723,-3.0591073036193848,4.114038944244385
1790266837455566600,6.339566650390625,-8.287790298461914,-3.2002415657043457,4.152271270751953
1790266837465566500,6.34956640625,-8.211807250976562,-3.3447964191436768,4.189146995544434
1790266837475566600,6.359566650390625,-8.13218879699707,-3.491307497024536,4.224769115447998
1790266837485566500,6.36956640625,-8.048513412475586,-3.638688325881958,4.260488986968994
1790266837495566600,6.379566650390625,-7.959433078765869,-3.7879791259765625,4.2975616455078125
1790266837505566500,6.38956640625,-7.8647565841674805,-3.938829183578491,4.33608341217041
1790266837515566600,6.399566650390625,-7.765793323516846,-4.089656829833984,4.374647617340088
1790266837525566500,6.40956640625,-7.664020538330078,-4.239856243133545,4.410985469818115
1790266837535566600,6.419566650390625,-7.558854103088379,-4.390380382537842,4.445073127746582
1790266837545566500,6.42956640625,-7.449923515319824,-4.54130744934082,4.477225303649902
1790266837555566600,6.439566650390625,-7.336666584014893,-4.693416595458984,4.507279396057129
1790266837565566500,6.44956640625,-7.21856164932251,-4.847932815551758,4.534347057342529
1790266837575566600,6.459566650390625,-7.097214698791504,-5.004127502441406,4.5561652183532715
1790266837585566500,6.46956640625,-6.974160671234131,-5.160693168640137,4.571513652801514
1790266837595566600,6.479566650390625,-6.84942626953125,-5.31637716293335,4.581687927246094
1790266837605566500,6.48956640625,-6.72575044631958,-5.468451023101807,4.585925579071045
1790266837615566600,6.499566650390625,-6.605442047119141,-5.614500045776367,4.584310531616211
1790266837625566500,6.50956640625,-6.4913763999938965,-5.752959251403809,4.575573444366455
1790266837635566600,6.519566650390625,-6.3848371505737305,-5.886158466339111,4.556025505065918
1790266837645566500,6.52956640625,-6.2856245040893555,-6.016636848449707,4.523426532745361
1790266837655566600,6.539566650390625,-6.1937665939331055,-6.143772125244141,4.479028701782227
1790266837665566500,6.54956640625,-6.108876705169678,-6.265758991241455,4.426315784454346
1790266837675566600,6.559566650390625,-6.031343460083008,-6.3811116218566895,4.367458343505859
1790266837685566500,6.56956640625,-5.960496425628662,-6.489118576049805,4.305136203765869
1790266837695566600,6.579566650390625,-5.895357608795166,-6.589924335479736,4.241230487823486
1790266837705566500,6.58956640625,-5.833425521850586,-6.684162616729736,4.178935527801514
1790266837715566600,6.599566650390625,-5.770817756652832,-6.772573947906494,4.123142242431641
1790266837725566500,6.60956640625,-5.7082672119140625,-6.854605674743652,4.074366092681885
1790266837735566600,6.619566650390625,-5.649257659912109,-6.930318832397461,4.028269290924072
1790266837745566500,6.62956640625,-5.591912746429443,-7.002211093902588,3.9837095737457275
1790266837755566600,6.639566650390625,-5.5347514152526855,-7.07192325592041,3.9401538372039795
1790266837765566500,6.64956640625,-5.47861909866333,-7.139566898345947,3.896369695663452
1790266837775566600,6.659566650390625,-5.423898696899414,-7.204536437988281,3.853097438812256
1790266837785566500,6.66956640625,-5.372035980224609,-7.265215873718262,3.8115930557250977
1790266837795566600,6.679566650390625,-5.324763298034668,-7.319871425628662,3.7731621265411377
1790266837805566500,6.68956640625,-5.283058166503906,-7.367387294769287,3.7391562461853027
1790266837815566600,6.699566650390625,-5.247566223144531,-7.4065961837768555,3.7115724086761475
1790266837825566500,6.70956640625,-5.2181220054626465,-7.436808109283447,3.6926231384277344
1790266837835566600,6.719566650390625,-5.194430351257324,-7.45878267288208,3.681689500808716
1790266837845566500,6.72956640625,-5.175715923309326,-7.47464656829834,3.6758689880371094
1790266837855566600,6.739566650390625,-5.161606788635254,-7.486911773681641,3.670743703842163
1790266837865566500,6.74956640625,-5.152464389801025,-7.496577262878418,3.6638526916503906
1790266837875566600,6.759566650390625,-5.147196292877197,-7.503959655761719,3.656137466430664
1790266837885566500,6.76956640625,-5.148358345031738,-7.507132530212402,3.6479780673980713
1790266837895566600,6.779566650390625,-5.159559726715088,-7.5031304359436035,3.64037823677063
1790266837905566500,6.78956640625,-5.1805901527404785,-7.490413665771484,3.636697292327881
1790266837915566600,6.799566650390625,-5.2094011306762695,-7.469723701477051,3.638097047805786
1790266837925566500,6.80956640625,-5.245027542114258,-7.442101001739502,3.6435158252716064
1790266837935566600,6.819566650390625,-5.287988662719727,-7.407960414886475,3.650984287261963
1790266837945566500,6.82956640625,-5.337038993835449,-7.369199752807617,3.658045768737793
1790266837955566600,6.839566650390625,-5.389933109283447,-7.3280534744262695,3.663147211074829
1790266837965566500,6.84956640625,-5.446181297302246,-7.286109924316406,3.6636176109313965
1790266837975566600,6.859566650390625,-5.505128383636475,-7.2441911697387695,3.658639669418335
1790266837985566500,6.86956640625,-5.565030574798584,-7.202307224273682,3.650698661804199
1790266837995566600,6.879566650390625,-5.625041484832764,-7.159306049346924,3.643299102783203
1790266838005566500,6.88956640625,-5.685243606567383,-7.11389684677124,3.638800621032715
1790266838015566600,6.899566650390625,-5.74606990814209,-7.065410137176514,3.637726068496704
1790266838025566500,6.90956640625,-5.808549880981445,-7.0134477615356445,3.639052152633667
1790266838035566600,6.919566650390625,-5.873330116271973,-6.958026885986328,3.6414616107940674
1790266838045566500,6.92956640625,-5.939392566680908,-6.899968147277832,3.644782304763794
1790266838055566600,6.939566650390625,-6.0043044090271,-6.840209484100342,3.651059627532959
1790266838065566500,6.94956640625,-6.065871238708496,-6.7802605628967285,3.661100149154663
1790266838075566600,6.959566650390625,-6.123213291168213,-6.721776008605957,3.673468589782715
1790266838085566500,6.96956640625,-6.1767401695251465,-6.664897918701172,3.687466859817505
1790266838095566600,6.979566650390625,-6.227930068969727,-6.607285499572754,3.7050044536590576
1790266838105566500,6.98956640625,-6.279356002807617,-6.545242786407471,3.7282538414001465
1790266838115566600,6.999566650390625,-6.333256721496582,-6.47646427154541,3.7570810317993164
1790266838125566500,7.00956640625,-6.391915321350098,-6.400996208190918,3.7869575023651123
1790266838135566600,7.019566650390625,-6.458367824554443,-6.318850040435791,3.8120875358581543
1790266838145566500,7.02956640625,-6.536118984222412,-6.228542327880859,3.828158140182495
1790266838155566600,7.039566650390625,-6.626060962677002,-6.129258155822754,3.833784580230713
1790266838165566500,7.04956640625,-6.724567890167236,-6.0228352546691895,3.8309311866760254
1790266838175566600,7.059566650390625,-6.824216365814209,-5.915138244628906,3.82251238822937
1790266838185566500,7.06956640625,-6.919379711151123,-5.810859680175781,3.8113627433776855
1790266838195566600,7.079566650390625,-7.008481979370117,-5.710809707641602,3.799764633178711
1790266838205566500,7.08956640625,-7.095163822174072,-5.611886024475098,3.786261796951294
1790266838215566600,7.099566650390625,-7.183069229125977,-5.510604381561279,3.7692360877990723
1790266838225566500,7.10956640625,-7.273073673248291,-5.405982494354248,3.7480852603912354
1790266838235566600,7.119566650390625,-7.362129211425781,-5.301248550415039,3.7237346172332764
1790266838245566500,7.12956640625,-7.448518753051758,-5.198770523071289,3.696314573287964
1790266838255566600,7.139566650390625,-7.535580158233643,-5.096543788909912,3.662057399749756
1790266838265566500,7.14956640625,-7.62834358215332,-4.990400314331055,3.6158924102783203
1790266838275566600,7.159566650390625,-7.728280067443848,-4.877065181732178,3.557851791381836
1790266838285566500,7.16956640625,-7.833946704864502,-4.754878520965576,3.491533041000366
1790266838295566600,7.179566650390625,-7.941526412963867,-4.624814033508301,3.422520875930786
1790266838305566500,7.18956640625,-8.047255516052246,-4.488903045654297,3.355862617492676
1790266838315566600,7.199566650390625,-8.149758338928223,-4.347909927368164,3.293555498123169
1790266838325566500,7.20956640625,-8.247481346130371,-4.2039794921875,3.236664056777954
1790266838335566600,7.219566650390625,-8.33816909790039,-4.061639785766602,3.185656785964966
1790266838345566500,7.22956640625,-8.420825004577637,-3.9250996112823486,3.13905930519104
1790266838355566600,7.239566650390625,-8.494841575622559,-3.797299385070801,3.0965421199798584
1790266838365566500,7.24956640625,-8.561274528503418,-3.6775636672973633,3.0578579902648926
1790266838375566600,7.259566650390625,-8.623799324035645,-3.559849262237549,3.021250009536743
1790266838385566500,7.26956640625,-8.685301780700684,-3.4373536109924316,2.9867255687713623
1790266838395566600,7.279566650390625,-8.746647834777832,-3.3066160678863525,2.9551339149475098
1790266838405566500,7.28956640625,-8.807053565979004,-3.1695456504821777,2.925778865814209
1790266838415566600,7.299566650390625,-8.865789413452148,-3.029921531677246,2.8961591720581055
1790266838425566500,7.30956640625,-8.921982765197754,-2.8905301094055176,2.8659112453460693
1790266838435566600,7.319566650390625,-8.974180221557617,-2.753138542175293,2.838083028793335
1790266838445566500,7.32956640625,-9.021385192871094,-2.6191937923431396,2.815108299255371
1790266838455566600,7.339566650390625,-9.063972473144531,-2.4893178939819336,2.796086311340332
1790266838465566500,7.34956640625,-9.102657318115234,-2.3647072315216064,2.7785210609436035
1790266838475566600,7.359566650390625,-9.139150619506836,-2.2442643642425537,2.758547067642212
1790266838485566500,7.36956640625,-9.176438331604004,-2.118311882019043,2.734247922897339
1790266838495566600,7.379566650390625,-9.2166166305542,-1.980075716972351,2.7025275230407715
1790266838505566500,7.38956640625,-9.256698608398438,-1.8465443849563599,2.659734010696411
1790266838515566600,7.399566650390625,-9.295289039611816,-1.7318986654281616,2.6016368865966797
1790266838525566500,7.40956640625,-9.329051971435547,-1.627703070640564,2.547502279281616
1790266838535566600,7.419566650390625,-9.352067947387695,-1.5277655124664307,2.524906635284424
1790266838545566500,7.42956640625,-9.363081932067871,-1.4401851892471313,2.5355374813079834
1790266838555566600,7.439566650390625,-9.366560935974121,-1.372448444366455,2.5601396560668945
1790266838565566500,7.44956640625,-9.364144325256348,-1.3209500312805176,2.5958170890808105
1790266838575566600,7.459566650390625,-9.354089736938477,-1.2847604751586914,2.6496741771698
1790266838585566500,7.46956640625,-9.337676048278809,-1.2566176652908325,2.720128059387207
1790266838595566600,7.479566650390625,-9.318572044372559,-1.227125883102417,2.7979907989501953
1790266838605566500,7.48956640625,-9.29869556427002,-1.194666862487793,2.8770482540130615
1790266838615566600,7.499566650390625,-9.279158592224121,-1.159206748008728,2.953616142272949
1790266838625566500,7.50956640625,-9.26010799407959,-1.1348282098770142,3.0220754146575928
1790266838635566600,7.519566650390625,-9.242292404174805,-1.1319400072097778,3.07719349861145
1790266838645566500,7.52956640625,-9.227887153625488,-1.1467519998550415,3.1147148609161377
1790266838655566600,7.539566650390625,-9.222430229187012,-1.1680209636688232,3.1229629516601562
1790266838665566500,7.54956640625,-9.225074768066406,-1.184346318244934,3.108973264694214
1790266838675566600,7.559566650390625,-9.231314659118652,-1.1921459436416626,3.087395429611206
1790266838685566500,7.56956640625,-9.23906421661377,-1.1966339349746704,3.062373399734497
1790266838695566600,7.579566650390625,-9.245097160339355,-1.2049939632415771,3.040813684463501
1790266838705566500,7.58956640625,-9.24750804901123,-1.2215173244476318,3.0268611907958984
1790266838715566600,7.599566650390625,-9.244352340698242,-1.2494463920593262,3.025099277496338
1790266838725566500,7.60956640625,-9.233880996704102,-1.289103627204895,3.0404012203216553
1790266838735566600,7.619566650390625,-9.216497421264648,-1.3402369022369385,3.070883274078369
1790266838745566500,7.62956640625,-9.193938255310059,-1.4009666442871094,3.111137866973877
1790266838755566600,7.639566650390625,-9.166419982910156,-1.4736578464508057,3.1583967208862305
1790266838765566500,7.64956640625,-9.133936882019043,-1.5594418048858643,3.2108774185180664
1790266838775566600,7.659566650390625,-9.099350929260254,-1.6474519968032837,3.2646756172180176
1790266838785566500,7.66956640625,-9.063632011413574,-1.7328823804855347,3.319350004196167
1790266838795566600,7.679566650390625,-9.023876190185547,-1.8207067251205444,3.3800976276397705
1790266838805566500,7.68956640625,-8.97885799407959,-1.9166152477264404,3.4463133811950684
1790266838815566600,7.699566650390625,-8.929702758789062,-2.0235915184020996,3.5122437477111816
1790266838825566500,7.70956640625,-8.878007888793945,-2.1408867835998535,3.5732321739196777
1790266838835566600,7.719566650390625,-8.825013160705566,-2.2637758255004883,3.6283419132232666
1790266838845566500,7.72956640625,-8.77048110961914,-2.385530948638916,3.6821584701538086
1790266838855566600,7.739566650390625,-8.71434211730957,-2.5023984909057617,3.737461566925049
1790266838865566500,7.74956640625,-8.657755851745605,-2.618292808532715,3.7892186641693115
1790266838875566600,7.759566650390625,-8.603102684020996,-2.7339015007019043,3.8318140506744385
1790266838885566500,7.76956640625,-8.55158805847168,-2.8461079597473145,3.865278720855713
1790266838895566600,7.779566650390625,-8.500524520874023,-2.9545791149139404,3.8964009284973145
1790266838905566500,7.78956640625,-8.446090698242188,-3.063554048538208,3.930467128753662
1790266838915566600,7.799566650390625,-8.38791275024414,-3.175325870513916,3.966184139251709
1790266838925566500,7.80956640625,-8.326091766357422,-3.29136323928833,4.001689434051514
1790266838935566600,7.819566650390625,-8.261345863342285,-3.41060209274292,4.035882949829102
1790266838945566500,7.82956640625,-8.194992065429688,-3.532106637954712,4.066537380218506
1790266838955566600,7.839566650390625,-8.12716007232666,-3.6563286781311035,4.092787265777588
1790266838965566500,7.84956640625,-8.056678771972656,-3.7845706939697266,4.115500450134277
1790266838975566600,7.859566650390625,-7.983667850494385,-3.9155585765838623,4.135194301605225
1790266838985566500,7.86956640625,-7.909286022186279,-4.046469211578369,4.152068614959717
1790266838995566600,7.879566650390625,-7.831622123718262,-4.177350044250488,4.169630527496338
1790266839005566500,7.88956640625,-7.749539375305176,-4.308633804321289,4.189356803894043
1790266839015566600,7.899566650390625,-7.663361072540283,-4.439725875854492,4.210951805114746
1790266839025566500,7.90956640625,-7.574239253997803,-4.569973945617676,4.232802867889404
1790266839035566600,7.919566650390625,-7.482745170593262,-4.700009822845459,4.253096103668213
1790266839045566500,7.92956640625,-7.388941764831543,-4.8305253982543945,4.270826816558838
1790266839055566600,7.939566650390625,-7.293362140655518,-4.960329532623291,4.286302089691162
1790266839065566500,7.94956640625,-7.195676803588867,-5.087352752685547,4.302495956420898
1790266839075566600,7.959566650390625,-7.0956830978393555,-5.2104105949401855,4.321259498596191
1790266839085566500,7.96956640625,-6.99578857421875,-5.32922887802124,4.339198112487793
1790266839095566600,7.979566650390625,-6.896730422973633,-5.444932460784912,4.354100227355957
1790266839105566500,7.98956640625,-6.799341678619385,-5.5592570304870605,4.362797737121582
1790266839115566600,7.999566650390625,-6.704877853393555,-5.673267364501953,4.362228870391846
1790266839125566500,8.00956640625,-6.612309455871582,-5.78775691986084,4.353116512298584
1790266839135566600,8.019566650390624,-6.52117919921875,-5.90155553817749,4.337769985198975
1790266839145566500,8.02956640625,-6.432136058807373,-6.012623310089111,4.318145275115967
1790266839155566600,8.039566650390626,-6.346672058105469,-6.118992805480957,4.2951226234436035
1790266839165566500,8.04956640625,-6.267207145690918,-6.218591213226318,4.268679141998291
1790266839175566600,8.059566650390625,-6.193178653717041,-6.312592029571533,4.238643646240234
1790266839185566500,8.06956640625,-6.12136173248291,-6.403622627258301,4.206295490264893
1790266839195566600,8.079566650390625,-6.049709796905518,-6.49257755279541,4.1734700202941895
1790266839205566500,8.08956640625,-5.979102611541748,-6.578503131866455,4.140533924102783
1790266839215566600,8.099566650390624,-5.913458824157715,-6.659520626068115,4.10513973236084
1790266839225566500,8.10956640625,-5.855099201202393,-6.7358012199401855,4.064132213592529
1790266839235566600,8.119566650390626,-5.80267333984375,-6.808386325836182,4.01811408996582
1790266839245566500,8.12956640625,-5.752633094787598,-6.877966403961182,3.97129487991333
1790266839255566600,8.139566650390625,-5.70297908782959,-6.944338798522949,3.9271585941314697
1790266839265566500,8.14956640625,-5.6508283615112305,-7.007015228271484,3.891047716140747
1790266839275566600,8.159566650390625,-5.595013618469238,-7.066169738769531,3.864640235900879
1790266839285566500,8.16956640625,-5.5400495529174805,-7.1212158203125,3.8427250385284424
1790266839295566600,8.179566650390624,-5.4893951416015625,-7.171746730804443,3.821385622024536
1790266839305566500,8.18956640625,-5.444543361663818,-7.218378067016602,3.797678232192993
1790266839315566600,8.199566650390626,-5.406277656555176,-7.260632514953613,3.771704912185669
1790266839325566500,8.20956640625,-5.374197006225586,-7.297862529754639,3.7456088066101074
1790266839335566600,8.219566650390625,-5.345781326293945,-7.330562114715576,3.722348690032959
1790266839345566500,8.22956640625,-5.316301345825195,-7.3612165451049805,3.704026460647583
1790266839355566600,8.239566650390625,-5.286221504211426,-7.391049385070801,3.6876347064971924
1790266839365566500,8.24956640625,-5.258496284484863,-7.419137954711914,3.6708285808563232
1790266839375566600,8.259566650390624,-5.232266902923584,-7.444736957550049,3.6564557552337646
1790266839385566500,8.26956640625,-5.20683479309082,-7.466996192932129,3.6473593711853027
1790266839395566600,8.279566650390626,-5.183578968048096,-7.485132217407227,3.6433067321777344
1790266839405566500,8.28956640625,-5.162670135498047,-7.4998779296875,3.642672538757324
1790266839415566600,8.299566650390625,-5.143631458282471,-7.5127668380737305,3.643045425415039
1790266839425566500,8.30956640625,-5.1268744468688965,-7.525145530700684,3.6411166191101074
1790266839435566600,8.319566650390625,-5.1086626052856445,-7.538816928863525,3.6384317874908447
1790266839445566500,8.32956640625,-5.0871453285217285,-7.553060054779053,3.6390421390533447
1790266839455566600,8.339566650390625,-5.067283630371094,-7.56474494934082,3.642479658126831
1790266839465566500,8.34956640625,-5.056152820587158,-7.570875644683838,3.6452105045318604
1790266839475566600,8.359566650390626,-5.055706977844238,-7.570645332336426,3.6463043689727783
1790266839485566500,8.36956640625,-5.064229488372803,-7.56411600112915,3.6480298042297363
1790266839495566600,8.379566650390625,-5.081077575683594,-7.5506792068481445,3.6524345874786377
1790266839505566500,8.38956640625,-5.106046676635742,-7.5307698249816895,3.6587135791778564
1790266839515566600,8.399566650390625,-5.1381683349609375,-7.505996227264404,3.664644479751587
1790266839525566500,8.40956640625,-5.175992012023926,-7.4766011238098145,3.6715030670166016
1790266839535566600,8.419566650390625,-5.216302394866943,-7.443030834197998,3.6826436519622803
1790266839545566500,8.42956640625,-5.2560319900512695,-7.407708644866943,3.697345733642578
1790266839555566600,8.439566650390624,-5.292450904846191,-7.374490261077881,3.7117726802825928
1790266839565566500,8.44956640625,-5.3242716789245605,-7.345383167266846,3.7239575386047363
1790266839575566600,8.459566650390625,-5.34931755065918,-7.320158004760742,3.7377121448516846
1790266839585566500,8.46956640625,-5.3682122230529785,-7.296480655670166,3.7568697929382324
1790266839595566600,8.479566650390625,-5.384025573730469,-7.272417068481445,3.780820369720459
1790266839605566500,8.48956640625,-5.398388385772705,-7.2479634284973145,3.8072056770324707
1790266839615566600,8.499566650390625,-5.413435935974121,-7.222843647003174,3.833488702774048
1790266839625566500,8.50956640625,-5.431711196899414,-7.195711135864258,3.858579397201538
1790266839635566600,8.519566650390624,-5.455353736877441,-7.1653242111206055,3.8817038536071777
1790266839645566500,8.52956640625,-5.486331462860107,-7.13088321685791,3.9014179706573486
1790266839655566600,8.539566650390626,-5.524436950683594,-7.092325210571289,3.917896032333374
1790266839665566500,8.54956640625,-5.566359996795654,-7.050483703613281,3.93404483795166
1790266839675566600,8.559566650390625,-5.607349872589111,-7.0065083503723145,3.954345226287842
1790266839685566500,8.56956640625,-5.64522123336792,-6.960919380187988,3.9808874130249023
1790266839695566600,8.579566650390625,-5.683617115020752,-6.912200927734375,4.011031150817871
1790266839705566500,8.58956640625,-5.726778030395508,-6.859290599822998,4.040363311767578
1790266839715566600,8.599566650390624,-5.773868560791016,-6.803679943084717,4.067281723022461
1790266839725566500,8.60956640625,-5.820652008056641,-6.749131202697754,4.0914082527160645
1790266839735566600,8.619566650390626,-5.8656439781188965,-6.697735786437988,4.111562252044678
1790266839745566500,8.62956640625,-5.908477306365967,-6.649384498596191,4.128676891326904
1790266839755566600,8.639566650390625,-5.950502872467041,-6.6018781661987305,4.144527912139893
1790266839765566500,8.64956640625,-5.9931111335754395,-6.552682399749756,4.161172389984131
1790266839775566600,8.659566650390625,-6.037984371185303,-6.499081611633301,4.180318832397461
1790266839785566500,8.66956640625,-6.089107990264893,-6.4376220703125,4.201210021972656
1790266839795566600,8.679566650390624,-6.1478753089904785,-6.367624282836914,4.2222490310668945
1790266839805566500,8.68956640625,-6.212591648101807,-6.2912116050720215,4.242021083831787
1790266839815566600,8.699566650390626,-6.280426025390625,-6.212942123413086,4.257463455200195
1790266839825566500,8.70956640625,-6.349898815155029,-6.137391567230225,4.263988971710205
1790266839835566600,8.719566650390625,-6.418537139892578,-6.068498134613037,4.259824275970459
1790266839845566500,8.72956640625,-6.483132362365723,-6.009165287017822,4.246096134185791
1790266839855566600,8.739566650390625,-6.542036056518555,-5.9595513343811035,4.225623607635498
1790266839865566500,8.74956640625,-6.597532272338867,-5.915278434753418,4.201478958129883
1790266839875566600,8.759566650390624,-6.654620170593262,-5.870892524719238,4.17361307144165
1790266839885566500,8.76956640625,-6.7156081199646,-5.823174953460693,4.142659664154053
1790266839895566600,8.779566650390626,-6.778730869293213,-5.771967887878418,4.111396789550781
1790266839905566500,8.78956640625,-6.844520568847656,-5.716869831085205,4.079255104064941
1790266839915566600,8.799566650390625,-6.913605690002441,-5.656887054443359,4.046241283416748
1790266839925566500,8.80956640625,-6.983870506286621,-5.592277526855469,4.015268325805664
1790266839935566600,8.819566650390625,-7.052859783172607,-5.523821830749512,3.98935604095459
1790266839945566500,8.82956640625,-7.120460510253906,-5.452369689941406,3.9675042629241943
1790266839955566600,8.839566650390625,-7.188190937042236,-5.378076076507568,3.9467203617095947
1790266839965566500,8.84956640625,-7.257920742034912,-5.299660682678223,3.9251203536987305
1790266839975566600,8.859566650390626,-7.331499099731445,-5.214919090270996,3.901810646057129
1790266839985566500,8.86956640625,-7.411035060882568,-5.120788097381592,3.876141309738159
1790266839995566600,8.879566650390625,-7.495981216430664,-5.015760898590088,3.850039005279541
1790266840005566500,8.88956640625,-7.581698894500732,-4.902459144592285,3.8280696868896484
1790266840015566600,8.899566650390625,-7.6636834144592285,-4.786067008972168,3.8120741844177246
1790266840025566500,8.90956640625,-7.739743232727051,-4.672515869140625,3.7992584705352783
1790266840035566600,8.919566650390625,-7.811888694763184,-4.562471389770508,3.785317897796631
1790266840045566500,8.92956640625,-7.8844733238220215,-4.4522247314453125,3.766054630279541
1790266840055566600,8.939566650390624,-7.960204124450684,-4.338423252105713,3.7394673824310303
1790266840065566500,8.94956640625,-8.037935256958008,-4.220217704772949,3.70833683013916
1790266840075566600,8.959566650390625,-8.114847183227539,-4.1008219718933105,3.6746299266815186
1790266840085566500,8.96956640625,-8.188948631286621,-3.985337972640991,3.6371145248413086
1790266840095566600,8.979566650390625,-8.261571884155273,-3.8749377727508545,3.5918900966644287
1790266840105566500,8.98956640625,-8.335911750793457,-3.766751766204834,3.5347611904144287
1790266840115566600,8.999566650390625,-8.412271499633789,-3.656250476837158,3.4692788124084473
1790266840125566500,9.00956640625,-8.488484382629395,-3.5394790172576904,3.404132127761841
1790266840135566600,9.019566650390624,-8.563311576843262,-3.4146313667297363,3.3437087535858154
1790266840145566500,9.02956640625,-8.636395454406738,-3.2825868129730225,3.287503719329834
1790266840155566600,9.039566650390626,-8.707457542419434,-3.1452462673187256,3.233882188796997
1790266840165566500,9.04956640625,-8.776656150817871,-3.0042312145233154,3.1804544925689697
1790266840175566600,9.059566650390625,-8.842024803161621,-2.8640546798706055,3.1282849311828613
1790266840185566500,9.06956640625,-8.901666641235352,-2.727602005004883,3.080731153488159
1790266840195566600,9.079566650390625,-8.955789566040039,-2.592999219894409,3.0398335456848145
1790266840205566500,9.08956640625,-9.004024505615234,-2.4613842964172363,3.0065793991088867
1790266840215566600,9.099566650390624,-9.048407554626465,-2.3355984687805176,2.9734981060028076
1790266840225566500,9.10956640625,-9.090704917907715,-2.2169699668884277,2.9350485801696777
1790266840235566600,9.119566650390626,-9.131613731384277,-2.1025686264038086,2.891923189163208
1790266840245566500,9.12956640625,-9.169548034667969,-1.9880001544952393,2.8526554107666016
1790266840255566600,9.139566650390625,-9.202641487121582,-1.8722230195999146,2.824279308319092
1790266840265566500,9.14956640625,-9.22974681854248,-1.7586297988891602,2.808802843093872
1790266840275566600,9.159566650390625,-9.251004219055176,-1.6514832973480225,2.8039090633392334
1790266840285566500,9.16956640625,-9.26830005645752,-1.5535637140274048,2.802755355834961
1790266840295566600,9.179566650390624,-9.281192779541016,-1.467447280883789,2.8065030574798584
1790266840305566500,9.18956640625,-9.289916038513184,-1.3904777765274048,2.8168091773986816
1790266840315566600,9.199566650390626,-9.296028137207031,-1.3202744722366333,2.8303921222686768
1790266840325566500,9.20956640625,-9.301671028137207,-1.255743384361267,2.841198682785034
1790266840335566600,9.219566650390625,-9.306929588317871,-1.1967189311981201,2.849439859390259
1790266840345566500,9.22956640625,-9.311860084533691,-1.144505500793457,2.8547780513763428
1790266840355566600,9.239566650390625,-9.317190170288086,-1.0976473093032837,2.855787515640259
1790266840365566500,9.24956640625,-9.321924209594727,-1.056347131729126,2.8559162616729736
1790266840375566600,9.259566650390624,-9.322900772094727,-1.023339033126831,2.864732027053833
1790266840385566500,9.26956640625,-9.318503379821777,-0.9996642470359802,2.8873074054718018
1790266840395566600,9.279566650390626,-9.311431884765625,-0.9836227297782898,2.9154934883117676
1790266840405566500,9.28956640625,-9.30368709564209,-0.9770870804786682,2.9422929286956787
1790266840415566600,9.299566650390625,-9.294193267822266,-0.9810464978218079,2.9708411693573
1790266840425566500,9.30956640625,-9.282402992248535,-0.993430495262146,3.0034122467041016
1790266840435566600,9.319566650390625,-9.268814086914062,-1.0154297351837158,3.0378239154815674
1790266840445566500,9.32956640625,-9.255859375,-1.0436104536056519,3.0676283836364746
1790266840455566600,9.339566650390625,-9.245174407958984,-1.075808048248291,3.088654041290283
1790266840465566500,9.34956640625,-9.23564624786377,-1.11558198928833,3.1030139923095703
1790266840475566600,9.359566650390626,-9.225167274475098,-1.1650352478027344,3.1159842014312744
1790266840485566500,9.36956640625,-9.21323013305664,-1.2214932441711426,3.1296541690826416
1790266840495566600,9.379566650390625,-9.199091911315918,-1.2840396165847778,3.1461613178253174
1790266840505566500,9.38956640625,-9.181550025939941,-1.3535475730895996,3.1681909561157227
1790266840515566600,9.399566650390625,-9.160242080688477,-1.4301776885986328,3.196082830429077
1790266840525566500,9.40956640625,-9.135021209716797,-1.5120835304260254,3.2303833961486816
1790266840535566600,9.419566650390625,-9.105067253112793,-1.5984859466552734,3.2730681896209717
1790266840545566500,9.42956640625,-9.070855140686035,-1.6876137256622314,3.322939395904541
1790266840555566600,9.439566650390624,-9.032415390014648,-1.7808668613433838,3.378516912460327
1790266840565566500,9.44956640625,-8.990849494934082,-1.8813798427581787,3.434448719024658
1790266840575566600,9.459566650390625,-8.94713306427002,-1.9908674955368042,3.4864954948425293
1790266840585566500,9.46956640625,-8.901226043701172,-2.107135057449341,3.5353269577026367
1790266840595566600,9.479566650390625,-8.85236644744873,-2.2246243953704834,3.585670232772827
1790266840605566500,9.48956640625,-8.79750919342041,-2.3429012298583984,3.6448652744293213
1790266840615566600,9.499566650390625,-8.738065719604492,-2.4648630619049072,3.7068912982940674
1790266840625566500,9.50956640625,-8.676838874816895,-2.5907599925994873,3.764413833618164
1790266840635566600,9.519566650390624,-8.612730979919434,-2.7197015285491943,3.8202714920043945
1790266840645566500,9.52956640625,-8.543712615966797,-2.8515326976776123,3.8786780834198
1790266840655566600,9.539566650390626,-8.469788551330566,-2.985189914703369,3.939761161804199
1790266840665566500,9.54956640625,-8.39107608795166,-3.121018171310425,4.002435207366943
1790266840675566600,9.559566650390625,-8.306863784790039,-3.2620015144348145,4.065187454223633
1790266840685566500,9.56956640625,-8.219317436218262,-3.409888982772827,4.1213908195495605
1790266840695566600,9.579566650390625,-8.131889343261719,-3.5624682903289795,4.165523052215576
1790266840705566500,9.58956640625,-8.044281959533691,-3.7163655757904053,4.201015472412109
1790266840715566600,9.599566650390624,-7.9520769119262695,-3.871504068374634,4.2363104820251465
1790266840725566500,9.60956640625,-7.856337070465088,-4.027126789093018,4.269731521606445
1790266840735566600,9.619566650390626,-7.76004695892334,-4.180156707763672,4.298644065856934
1790266840745566500,9.62956640625,-7.664996147155762,-4.327451705932617,4.323352813720703
1790266840755566600,9.639566650390625,-7.568070411682129,-4.471583843231201,4.3473711013793945
1790266840765566500,9.64956640625,-7.464584827423096,-4.617702960968018,4.3734636306762695
1790266840775566600,9.659566650390625,-7.356699466705322,-4.765866279602051,4.397257328033447
1790266840785566500,9.66956640625,-7.247824668884277,-4.913289546966553,4.415770530700684
1790266840795566600,9.679566650390624,-7.138893127441406,-5.058182716369629,4.42960262298584
1790266840805566500,9.68956640625,-7.027400016784668,-5.2020697593688965,4.441227436065674
1790266840815566600,9.699566650390626,-6.913737773895264,-5.345175266265869,4.4496870040893555
1790266840825566500,9.70956640625,-6.799858093261719,-5.485883712768555,4.453918933868408
1790266840835566600,9.719566650390625,-6.686450481414795,-5.622439861297607,4.45532751083374
1790266840845566500,9.72956640625,-6.572078227996826,-5.7551069259643555,4.456110000610352
1790266840855566600,9.739566650390625,-6.453724384307861,-5.885713577270508,4.458497047424316
1790266840865566500,9.74956640625,-6.331414699554443,-6.01366662979126,4.463113307952881
1790266840875566600,9.759566650390624,-6.208184719085693,-6.138011455535889,4.466951370239258
1790266840885566500,9.76956640625,-6.08881950378418,-6.256556510925293,4.466783046722412
1790266840895566600,9.779566650390626,-5.976269245147705,-6.368716716766357,4.460273265838623
1790266840905566500,9.78956640625,-5.8700761795043945,-6.475533485412598,4.447477340698242
1790266840915566600,9.799566650390625,-5.7691216468811035,-6.577392578125,4.430069923400879
1790266840925566500,9.80956640625,-5.673128604888916,-6.674224376678467,4.409162998199463
1790266840935566600,9.819566650390625,-5.5829949378967285,-6.765761852264404,4.3846354484558105
1790266840945566500,9.82956640625,-5.496630668640137,-6.853935718536377,4.35671854019165
1790266840955566600,9.839566650390625,-5.414211273193359,-6.939639091491699,4.324131965637207
1790266840965566500,9.84956640625,-5.339239120483398,-7.021491050720215,4.285041809082031
1790266840975566600,9.859566650390626,-5.270927429199219,-7.099663257598877,4.240577220916748
1790266840985566500,9.86956640625,-5.206782817840576,-7.174811363220215,4.193075180053711
1790266840995566600,9.879566650390625,-5.145852565765381,-7.246372699737549,4.144956588745117
1790266841005566500,9.88956640625,-5.090699195861816,-7.312371253967285,4.096876621246338
1790266841015566600,9.899566650390625,-5.04328727722168,-7.371654033660889,4.048995018005371
1790266841025566500,9.90956640625,-5.000777721405029,-7.425440788269043,4.003177165985107
1790266841035566600,9.919566650390625,-4.959388732910156,-7.476402759552002,3.959578275680542
1790266841045566500,9.92956640625,-4.918320655822754,-7.525891304016113,3.916818618774414
1790266841055566600,9.939566650390624,-4.882393836975098,-7.572625637054443,3.871428966522217
1790266841065566500,9.94956640625,-4.854406356811523,-7.61620569229126,3.8208014965057373
1790266841075566600,9.959566650390625,-4.832150936126709,-7.657447814941406,3.766191244125366
1790266841085566500,9.96956640625,-4.813533306121826,-7.696269989013672,3.7104876041412354
1790266841095566600,9.979566650390625,-4.797305107116699,-7.731247901916504,3.6584208011627197
1790266841105566500,9.98956640625,-4.78366231918335,-7.760444641113281,3.6142044067382812
1790266841115566600,9.999566650390625,-4.771768093109131,-7.7838029861450195,3.5795300006866455
1790266841125566500,10.00956640625,-4.759957790374756,-7.8022074699401855,3.555101156234741
1790266841135566600,10.019566650390624,-4.744666576385498,-7.818358421325684,3.540025472640991
1790266841145566500,10.02956640625,-4.7239885330200195,-7.834659576416016,3.5316309928894043
1790266841155566600,10.039566650390626,-4.700563907623291,-7.851685523986816,3.5250699520111084
1790266841165566500,10.04956640625,-4.679482936859131,-7.868691444396973,3.515184164047241
1790266841175566600,10.059566650390625,-4.663539409637451,-7.884442329406738,3.501049757003784
1790266841185566500,10.06956640625,-4.653820514678955,-7.897143363952637,3.4853241443634033
1790266841195566600,10.079566650390625,-4.648687362670898,-7.906052589416504,3.4719481468200684
1790266841205566500,10.08956640625,-4.647639751434326,-7.910508155822754,3.463188409805298
1790266841215566600,10.099566650390624,-4.652748107910156,-7.9098052978515625,3.4579319953918457
1790266841225566500,10.10956640625,-4.668118000030518,-7.903061389923096,3.4526331424713135
1790266841235566600,10.119566650390626,-4.69435977935791,-7.890611171722412,3.445521116256714
1790266841245566500,10.12956640625,-4.729142665863037,-7.873210430145264,3.437755823135376
1790266841255566600,10.139566650390625,-4.768732070922852,-7.85197639465332,3.4316229820251465
1790266841265566500,10.14956640625,-4.810345649719238,-7.827834129333496,3.4286997318267822
1790266841275566600,10.159566650390625,-4.853355884552002,-7.801437854766846,3.428248882293701
1790266841285566500,10.16956640625,-4.897496223449707,-7.77375602722168,3.4283552169799805
1790266841295566600,10.179566650390624,-4.942716121673584,-7.7455363273620605,3.427333354949951
1790266841305566500,10.18956640625,-4.987593650817871,-7.717761993408203,3.424975872039795
1790266841315566600,10.199566650390626,-5.030636310577393,-7.690671920776367,3.4229583740234375
1790266841325566500,10.20956640625,-5.0716400146484375,-7.66358757019043,3.423199415206909
1790266841335566600,10.219566650390625,-5.1085896492004395,-7.636467933654785,3.4288580417633057
1790266841345566500,10.22956640625,-5.138741493225098,-7.6101155281066895,3.442361831665039
1790266841355566600,10.239566650390625,-5.161046504974365,-7.584813117980957,3.464766502380371
1790266841365566500,10.24956640625,-5.177498817443848,-7.559315204620361,3.495805025100708
1790266841375566600,10.259566650390624,-5.191898345947266,-7.531835079193115,3.5335581302642822
1790266841385566500,10.26956640625,-5.2071638107299805,-7.501204967498779,3.575998306274414
1790266841395566600,10.279566650390626,-5.2247419357299805,-7.467706203460693,3.620196580886841
1790266841405566500,10.28956640625,-5.246327877044678,-7.431995868682861,3.662222385406494
1790266841415566600,10.299566650390625,-5.274284362792969,-7.393873691558838,3.6990463733673096
1790266841425566500,10.30956640625,-5.310739994049072,-7.352113723754883,3.729992151260376
1790266841435566600,10.319566650390625,-5.3545756340026855,-7.306480884552002,3.756892204284668
1790266841445566500,10.32956640625,-5.402931213378906,-7.256900787353516,3.783662796020508
1790266841455566600,10.339566650390625,-5.45267391204834,-7.2031097412109375,3.8149638175964355
1790266841465566500,10.34956640625,-5.500124454498291,-7.1457839012146,3.8544490337371826
1790266841475566600,10.359566650390626,-5.543542385101318,-7.086996555328369,3.9005143642425537
1790266841485566500,10.36956640625,-5.583999156951904,-7.029282093048096,3.946964740753174
1790266841495566600,10.379566650390625,-5.62500524520874,-6.973343372344971,3.9877541065216064
1790266841505566500,10.38956640625,-5.669178485870361,-6.9174418449401855,4.0224127769470215
1790266841515566600,10.399566650390625,-5.717928409576416,-6.859273433685303,4.052906513214111
1790266841525566500,10.40956640625,-5.771528720855713,-6.7979044914245605,4.080237865447998
1790266841535566600,10.419566650390625,-5.828400135040283,-6.735217571258545,4.103290557861328
1790266841545566500,10.42956640625,-5.887189865112305,-6.673553466796875,4.12007999420166
1790266841555566600,10.439566650390624,-5.948240756988525,-6.613571643829346,4.12910270690918
1790266841565566500,10.44956640625,-6.013647079467773,-6.552750587463379,4.131330966949463
1790266841575566600,10.459566650390625,-6.086605072021484,-6.486914157867432,4.1283860206604
1790266841585566500,10.46956640625,-6.17109489440918,-6.411551475524902,4.120676517486572
1790266841595566600,10.479566650390625,-6.26793098449707,-6.324532508850098,4.10897970199585
1790266841605566500,10.48956640625,-6.371542930603027,-6.228839874267578,4.095775604248047
1790266841615566600,10.499566650390625,-6.473205089569092,-6.1311235427856445,4.083786964416504
1790266841625566500,10.50956640625,-6.568315505981445,-6.034606456756592,4.075676441192627
1790266841635566600,10.519566650390624,-6.655664443969727,-5.939238548278809,4.074061393737793
1790266841645566500,10.52956640625,-6.736454010009766,-5.844428062438965,4.078387260437012
1790266841655566600,10.539566650390626,-6.813610553741455,-5.7493109703063965,4.0854034423828125
1790266841665566500,10.54956640625,-6.890189170837402,-5.653163909912109,4.091137409210205
1790266841675566600,10.559566650390625,-6.969215393066406,-5.554145812988281,4.092907428741455
1790266841685566500,10.56956640625,-7.051541328430176,-5.45116662979126,4.090347766876221
1790266841695566600,10.579566650390625,-7.136479377746582,-5.345757007598877,4.082149028778076
1790266841705566500,10.58956640625,-7.221920967102051,-5.239835262298584,4.069199085235596
1790266841715566600,10.599566650390624,-7.308507919311523,-5.131443023681641,4.052701473236084
1790266841725566500,10.60956640625,-7.3974480628967285,-5.017321586608887,4.034182548522949
1790266841735566600,10.619566650390626,-7.488297462463379,-4.89702844619751,4.014336109161377
1790266841745566500,10.62956640625,-7.580049514770508,-4.7728071212768555,3.9916839599609375
1790266841755566600,10.639566650390625,-7.672170162200928,-4.648383617401123,3.962414026260376
1790266841765566500,10.64956640625,-7.763498783111572,-4.527772426605225,3.9239988327026367
1790266841775566600,10.659566650390625,-7.852174282073975,-4.413601875305176,3.877352714538574
1790266841785566500,10.66956640625,-7.935996055603027,-4.305225372314453,3.8282358646392822
1790266841795566600,10.679566650390624,-8.01611042022705,-4.198374271392822,3.7796835899353027
1790266841805566500,10.68956640625,-8.096823692321777,-4.086029529571533,3.730440616607666
1790266841815566600,10.699566650390626,-8.18110179901123,-3.9629366397857666,3.679006814956665
1790266841825566500,10.70956640625,-8.26773452758789,-3.8297908306121826,3.625969409942627
1790266841835566600,10.719566650390625,-8.352453231811523,-3.6922852993011475,3.5740654468536377
1790266841845566500,10.72956640625,-8.431992530822754,-3.554926872253418,3.5262413024902344
1790266841855566600,10.739566650390625,-8.505880355834961,-3.419313669204712,3.482625722885132
1790266841865566500,10.74956640625,-8.575881004333496,-3.285283327102661,3.439706325531006
1790266841875566600,10.759566650390624,-8.6448335647583,-3.1505038738250732,3.392869710922241
1790266841885566500,10.76956640625,-8.7151517868042,-3.011927843093872,3.338383436203003
1790266841895566600,10.779566650390626,-8.785537719726562,-2.86892032623291,3.2793309688568115
1790266841905566500,10.78956640625,-8.852232933044434,-2.7236762046813965,3.2233431339263916
1790266841915566600,10.799566650390625,-8.912989616394043,-2.579096794128418,3.174468517303467
1790266841925566500,10.80956640625,-8.968744277954102,-2.4377012252807617,3.1288375854492188
1790266841935566600,10.819566650390625,-9.020395278930664,-2.301564931869507,3.0831265449523926
1790266841945566500,10.82956640625,-9.066825866699219,-2.167956590652466,3.0435197353363037
1790266841955566600,10.839566650390625,-9.107075691223145,-2.0349619388580322,3.0150458812713623
1790266841965566500,10.84956640625,-9.141508102416992,-1.9044746160507202,2.9960286617279053
1790266841975566600,10.859566650390626,-9.16956615447998,-1.7773696184158325,2.9883790016174316
1790266841985566500,10.86956640625,-9.192474365234375,-1.656671404838562,2.9873461723327637
1790266841995566600,10.879566650390625,-9.211520195007324,-1.5480632781982422,2.9869344234466553
1790266842005566500,10.88956640625,-9.227006912231445,-1.4525518417358398,2.9871103763580322
1790266842015566600,10.899566650390625,-9.240792274475098,-1.366370677947998,2.9851603507995605
1790266842025566500,10.90956640625,-9.253374099731445,-1.2869184017181396,2.981491804122925
1790266842035566600,10.919566650390625,-9.263526916503906,-1.2117838859558105,2.9814493656158447
1790266842045566500,10.92956640625,-9.270201683044434,-1.1403523683547974,2.9888696670532227
1790266842055566600,10.939566650390624,-9.27326774597168,-1.0747357606887817,3.0036346912384033
1790266842065566500,10.94956640625,-9.273037910461426,-1.016316533088684,3.0246076583862305
1790266842075566600,10.959566650390625,-9.270742416381836,-0.9669979214668274,3.0477261543273926
1790266842085566500,10.96956640625,-9.26667308807373,-0.9259176254272461,3.0727555751800537
1790266842095566600,10.979566650390625,-9.260621070861816,-0.895855724811554,3.0997931957244873
1790266842105566500,10.98956640625,-9.252541542053223,-0.8786337375640869,3.128718137741089
1790266842115566600,10.999566650390625,-9.242242813110352,-0.8692915439605713,3.161590576171875
1790266842125566500,11.00956640625,-9.232596397399902,-0.8625292778015137,3.1914868354797363
1790266842135566600,11.019566650390624,-9.224146842956543,-0.865609347820282,3.214998245239258
1790266842145566500,11.02956640625,-9.215202331542969,-0.8806161880493164,3.2365033626556396
1790266842155566600,11.039566650390626,-9.203849792480469,-0.9061890244483948,3.261651039123535
1790266842165566500,11.04956640625,-9.190813064575195,-0.9441884160041809,3.2875306606292725
1790266842175566600,11.059566650390625,-9.178255081176758,-0.9952176809310913,3.3074989318847656
1790266842185566500,11.06956640625,-9.164111137390137,-1.057532787322998,3.3273215293884277
1790266842195566600,11.079566650390625,-9.146126747131348,-1.1267695426940918,3.353973150253296
1790266842205566500,11.08956640625,-9.123716354370117,-1.2020577192306519,3.388695001602173
1790266842215566600,11.099566650390624,-9.10171127319336,-1.2831178903579712,3.418018341064453
1790266842225566500,11.10956640625,-9.08158016204834,-1.368187665939331,3.4385106563568115
1790266842235566600,11.119566650390626,-9.060737609863281,-1.4550776481628418,3.4577698707580566
1790266842245566500,11.12956640625,-9.036826133728027,-1.5455982685089111,3.4809908866882324
1790266842255566600,11.139566650390625,-9.00892162322998,-1.644024133682251,3.5081207752227783
1790266842265566500,11.14956640625,-8.977104187011719,-1.7505182027816772,3.538031578063965
1790266842275566600,11.159566650390625,-8.939922332763672,-1.861922025680542,3.575110912322998
1790266842285566500,11.16956640625,-8.894547462463379,-1.979594111442566,3.6247236728668213
1790266842295566600,11.179566650390624,-8.84256649017334,-2.1032567024230957,3.681809425354004
1790266842305566500,11.18956640625,-8.786025047302246,-2.229546546936035,3.7423624992370605
1790266842315566600,11.199566650390626,-8.726123809814453,-2.3577303886413574,3.803454875946045
1790266842325566500,11.20956640625,-8.663907051086426,-2.488474130630493,3.8619425296783447
1790266842335566600,11.219566650390625,-8.598814964294434,-2.6225430965423584,3.9182965755462646
1790266842345566500,11.22956640625,-8.530755043029785,-2.759357213973999,3.9727261066436768
1790266842355566600,11.239566650390625,-8.460169792175293,-2.8966078758239746,4.025613784790039
1790266842365566500,11.24956640625,-8.385379791259766,-3.0336978435516357,4.080742835998535
1790266842375566600,11.259566650390624,-8.305646896362305,-3.1728720664978027,4.137571811676025
1790266842385566500,11.26956640625,-8.222049713134766,-3.3148794174194336,4.192834377288818
1790266842395566600,11.279566650390626,-8.1340913772583,-3.460797071456909,4.246153354644775
1790266842405566500,11.28956640625,-8.040553092956543,-3.612243175506592,4.297857761383057
1790266842415566600,11.299566650390625,-7.942586421966553,-3.767308473587036,4.346620082855225
1790266842425566500,11.30956640625,-7.840410232543945,-3.922722339630127,4.394383430480957
1790266842435566600,11.319566650390625,-7.734529495239258,-4.07499885559082,4.443178176879883
1790266842445566500,11.32956640625,-7.626244068145752,-4.221608638763428,4.4931960105896
1790266842455566600,11.339566650390625,-7.516787528991699,-4.362029075622559,4.5432353019714355
1790266842465566500,11.34956640625,-7.406055927276611,-4.498568534851074,4.5916900634765625
1790266842475566600,11.359566650390626,-7.296019554138184,-4.633181571960449,4.633800029754639
1790266842485566500,11.36956640625,-7.1890716552734375,-4.76772928237915,4.664376258850098
1790266842495566600,11.379566650390625,-7.086805820465088,-4.9009881019592285,4.682722568511963
1790266842505566500,11.38956640625,-6.987699031829834,-5.033534526824951,4.69105339050293
1790266842515566600,11.399566650390625,-6.886534690856934,-5.168692111968994,4.6936821937561035
1790266842525566500,11.40956640625,-6.783092498779297,-5.306350231170654,4.690702438354492
1790266842535566600,11.419566650390625,-6.679033279418945,-5.445509910583496,4.680527210235596
1790266842545566500,11.42956640625,-6.574489593505859,-5.584997653961182,4.66414737701416
1790266842555566600,11.439566650390624,-6.466423034667969,-5.7246599197387695,4.64586067199707
1790266842565566500,11.44956640625,-6.352393627166748,-5.863731861114502,4.629700660705566
1790266842575566600,11.459566650390625,-6.236457347869873,-5.998835563659668,4.614212989807129
1790266842585566500,11.46956640625,-6.122134685516357,-6.128037929534912,4.597498893737793
1790266842595566600,11.479566650390625,-6.012341022491455,-6.250952243804932,4.576869964599609
1790266842605566500,11.48956640625,-5.9077982902526855,-6.368293285369873,4.551170349121094
1790266842615566600,11.499566650390625,-5.80730676651001,-6.480847358703613,4.52152681350708
1790266842625566500,11.50956640625,-5.714972972869873,-6.58633279800415,4.486611366271973
1790266842635566600,11.519566650390624,-5.633992671966553,-6.683884143829346,4.444570541381836
1790266842645566500,11.52956640625,-5.560763835906982,-6.776760101318359,4.395884990692139
1790266842655566600,11.539566650390626,-5.494075775146484,-6.866624355316162,4.339930534362793
1790266842665566500,11.54956640625,-5.435769557952881,-6.952433109283447,4.276268005371094
1790266842675566600,11.559566650390625,-5.383410930633545,-7.033369541168213,4.209629535675049
1790266842685566500,11.56956640625,-5.331733703613281,-7.10929536819458,4.14739990234375
1790266842695566600,11.579566650390625,-5.277572154998779,-7.180738925933838,4.093238830566406
1790266842705566500,11.58956640625,-5.221286296844482,-7.248510360717773,4.045694351196289
1790266842715566600,11.599566650390624,-5.1659159660339355,-7.313002586364746,4.000461578369141
1790266842725566500,11.60956640625,-5.11395788192749,-7.374045372009277,3.9549052715301514
1790266842735566600,11.619566650390626,-5.06601619720459,-7.431532859802246,3.9087307453155518
1790266842745566500,11.62956640625,-5.022700786590576,-7.485344409942627,3.8616678714752197
1790266842755566600,11.639566650390625,-4.983787536621094,-7.535241603851318,3.81475830078125
1790266842765566500,11.64956640625,-4.947210788726807,-7.581148147583008,3.7711639404296875
1790266842775566600,11.659566650390625,-4.911032199859619,-7.622442722320557,3.735039710998535
1790266842785566500,11.66956640625,-4.875874042510986,-7.657759189605713,3.7087693214416504
1790266842795566600,11.679566650390624,-4.843109607696533,-7.6868896484375,3.6913950443267822
1790266842805566500,11.68956640625,-4.813465595245361,-7.710914134979248,3.680044412612915
1790266842815566600,11.699566650390626,-4.788413047790527,-7.73015022277832,3.672365665435791
1790266842825566500,11.70956640625,-4.767922878265381,-7.745044231414795,3.6676409244537354
1790266842835566600,11.719566650390625,-4.750704765319824,-7.756815433502197,3.6651082038879395
1790266842845566500,11.72956640625,-4.735060691833496,-7.767463207244873,3.6628010272979736
1790266842855566600,11.739566650390625,-4.721977710723877,-7.7778000831604,3.6577510833740234
1790266842865566500,11.74956640625,-4.710203170776367,-7.788986682891846,3.6491177082061768
1790266842875566600,11.759566650390624,-4.696769714355469,-7.802095890045166,3.6384105682373047
1790266842885566500,11.76956640625,-4.681333065032959,-7.816615104675293,3.627126932144165
1790266842895566600,11.779566650390626,-4.668578624725342,-7.829658031463623,3.6154143810272217
1790266842905566500,11.78956640625,-4.663261413574219,-7.837904453277588,3.6043903827667236
1790266842915566600,11.799566650390625,-4.667802333831787,-7.839698314666748,3.594599723815918
1790266842925566500,11.80956640625,-4.683298110961914,-7.834259986877441,3.5862910747528076
1790266842935566600,11.819566650390625,-4.710999488830566,-7.821169376373291,3.57857346534729
1790266842945566500,11.82956640625,-4.750134468078613,-7.8007330894470215,3.571439266204834
1790266842955566600,11.839566650390625,-4.796381950378418,-7.774369239807129,3.567112922668457
1790266842965566500,11.84956640625,-4.845010280609131,-7.743587970733643,3.568347692489624
1790266842975566600,11.859566650390626,-4.893287658691406,-7.710197448730469,3.574770450592041
1790266842985566500,11.86956640625,-4.938683032989502,-7.676204681396484,3.585482358932495
1790266842995566600,11.879566650390625,-4.977058410644531,-7.644207954406738,3.6007442474365234
1790266843005566500,11.88956640625,-5.00525426864624,-7.615528583526611,3.622368812561035
1790266843015566600,11.899566650390625,-5.021653652191162,-7.590141296386719,3.652827739715576
1790266843025566500,11.90956640625,-5.025343418121338,-7.567613124847412,3.69425892829895
1790266843035566600,11.919566650390625,-5.017807483673096,-7.546820640563965,3.7466654777526855
1790266843045566500,11.92956640625,-5.0017876625061035,-7.526129722595215,3.80918288230896
1790266843055566600,11.939566650390624,-4.980220317840576,-7.5034918785095215,3.8814167976379395
1790266843065566500,11.94956640625,-4.954936981201172,-7.477967739105225,3.9621942043304443
1790266843075566600,11.959566650390625,-4.928128719329834,-7.448958396911621,4.049314498901367
1790266843085566500,11.96956640625,-4.9039435386657715,-7.416714668273926,4.13691520690918
1790266843095566600,11.979566650390625,-4.888524532318115,-7.382044315338135,4.2164106369018555
1790266843105566500,11.98956640625,-4.8866376876831055,-7.346437931060791,4.280303001403809
1790266843115566600,11.999566650390625,-4.902248382568359,-7.309742450714111,4.32504415512085
1790266843125566500,12.00956640625,-4.938188552856445,-7.270088195800781,4.3509202003479
1790266843135566600,12.019566650390624,-4.993280410766602,-7.225769519805908,4.361855983734131
1790266843145566500,12.02956640625,-5.063589096069336,-7.174904823303223,4.3647661209106445
1790266843155566600,12.039566650390626,-5.140140056610107,-7.117949485778809,4.368539810180664
1790266843165566500,12.04956640625,-5.2116169929504395,-7.058592319488525,4.380148410797119
1790266843175566600,12.059566650390625,-5.269918441772461,-7.002933025360107,4.399690628051758
1790266843185566500,12.06956640625,-5.313148498535156,-6.954968452453613,4.423715591430664
1790266843195566600,12.079566650390625,-5.3484697341918945,-6.913424491882324,4.4462151527404785
1790266843205566500,12.08956640625,-5.3871660232543945,-6.872649669647217,4.462680816650391
1790266843215566600,12.099566650390624,-5.436849117279053,-6.826720237731934,4.472914218902588
1790266843225566500,12.10956640625,-5.498741626739502,-6.769809246063232,4.483736515045166
1790266843235566600,12.119566650390626,-5.5702290534973145,-6.698614120483398,4.502389430999756
1790266843245566500,12.12956640625,-5.645876884460449,-6.615861892700195,4.530435085296631
1790266843255566600,12.139566650390625,-5.719245910644531,-6.531439304351807,4.5608015060424805
1790266843265566500,12.14956640625,-5.790546417236328,-6.452423095703125,4.583252429962158
1790266843275566600,12.159566650390625,-5.865277290344238,-6.378081321716309,4.592275142669678
1790266843285566500,12.16956640625,-5.95033597946167,-6.299205780029297,4.591719627380371
1790266843295566600,12.179566650390624,-6.049810886383057,-6.205887794494629,4.588804721832275
1790266843305566500,12.18956640625,-6.158417701721191,-6.097229957580566,4.589995861053467
1790266843315566600,12.199566650390626,-6.267272472381592,-5.981969356536865,4.594314098358154
1790266843325566500,12.20956640625,-6.373673439025879,-5.86908483505249,4.59352970123291
1790266843335566600,12.219566650390625,-6.478918552398682,-5.761922836303711,4.5819478034973145
1790266843345566500,12.22956640625,-6.583094596862793,-5.658980369567871,4.561708927154541
1790266843355566600,12.239566650390625,-6.685983180999756,-5.555456161499023,4.53926420211792
1790266843365566500,12.24956640625,-6.788452625274658,-5.44875955581665,4.516449451446533
1790266843375566600,12.259566650390624,-6.898655891418457,-5.332425594329834,4.488226890563965
1790266843385566500,12.26956640625,-7.008081436157227,-5.2137837409973145,4.457984924316406
1790266843395566600,12.279566650390626,-7.115617752075195,-5.100189208984375,4.418874263763428
1790266843405566500,12.28956640625,-7.229208946228027,-4.988478183746338,4.361652374267578
1790266843415566600,12.299566650390625,-7.3399481773376465,-4.877360820770264,4.301964282989502
1790266843425566500,12.30956640625,-7.443962097167969,-4.767930030822754,4.245544910430908
1790266843435566600,12.319566650390625,-7.543802738189697,-4.65590763092041,4.193321228027344
1790266843445566500,12.32956640625,-7.6430439949035645,-4.532289505004883,4.148810863494873
1790266843455566600,12.339566650390625,-7.743606090545654,-4.391133785247803,4.113987922668457
1790266843465566500,12.34956640625,-7.842084884643555,-4.242115497589111,4.083691596984863
1790266843475566600,12.359566650390626,-7.9330854415893555,-4.1061482429504395,4.046738624572754
1790266843485566500,12.36956640625,-8.017410278320312,-3.989572048187256,3.996851921081543
1790266843495566600,12.379566650390625,-8.10216236114502,-3.875215530395508,3.9380266666412354
1790266843505566500,12.38956640625,-8.193317413330078,-3.747115135192871,3.872861862182617
1790266843515566600,12.399566650390625,-8.287435531616211,-3.6008710861206055,3.810844659805298
1790266843525566500,12.40956640625,-8.381097793579102,-3.440568447113037,3.753673791885376
1790266843535566600,12.419566650390625,-8.469344139099121,-3.2792022228240967,3.6996543407440186
1790266843545566500,12.42956640625,-8.547881126403809,-3.1323037147521973,3.6459274291992188
1790266843555566600,12.439566650390624,-8.62119197845459,-3.004171371459961,3.580556869506836
1790266843565566500,12.44956640625,-8.69741439819336,-2.884286642074585,3.4937453269958496
1790266843575566600,12.459566650390625,-8.776519775390625,-2.7572991847991943,3.3971142768859863
1790266843585566500,12.46956640625,-8.850152969360352,-2.617767095565796,3.315490245819092
1790266843595566600,12.479566650390625,-8.911595344543457,-2.4719998836517334,3.262371301651001
1790266843605566500,12.48956640625,-8.961753845214844,-2.3320488929748535,3.2278308868408203
1790266843615566600,12.499566650390625,-9.003851890563965,-2.2061073780059814,3.1990818977355957
1790266843625566500,12.50956640625,-9.042627334594727,-2.0912346839904785,3.166701078414917
1790266843635566600,12.519566650390624,-9.079901695251465,-1.9792803525924683,3.1318068504333496
1790266843645566500,12.52956640625,-9.112557411193848,-1.864614725112915,3.1072335243225098
1790266843655566600,12.539566650390626,-9.138984680175781,-1.7476719617843628,3.09757924079895
1790266843665566500,12.54956640625,-9.159610748291016,-1.634139895439148,3.0986311435699463
1790266843675566600,12.559566650390625,-9.175456047058105,-1.5334638357162476,3.1032052040100098
1790266843685566500,12.56956640625,-9.188579559326172,-1.4463471174240112,3.1061995029449463
1790266843695566600,12.579566650390625,-9.199373245239258,-1.3665236234664917,3.110391616821289
1790266843705566500,12.58956640625,-9.204605102539062,-1.2929733991622925,3.1263163089752197
1790266843715566600,12.599566650390624,-9.204187393188477,-1.230518102645874,3.152642250061035
1790266843725566500,12.60956640625,-9.205278396606445,-1.1811844110488892,3.1682889461517334
1790266843735566600,12.619566650390626,-9.213724136352539,-1.1413164138793945,3.158334732055664
1790266843745566500,12.62956640625,-9.224081993103027,-1.102881908416748,3.1417105197906494
1790266843755566600,12.639566650390625,-9.22847843170166,-1.058774709701538,3.1439733505249023
1790266843765566500,12.64956640625,-9.228408813476562,-1.010143518447876,3.1601343154907227
1790266843775566600,12.659566650390625,-9.2299222946167,-0.9614642858505249,3.170882225036621
1790266843785566500,12.66956640625,-9.231851577758789,-0.9229902029037476,3.1766974925994873
1790266843795566600,12.679566650390624,-9.231616020202637,-0.9001418948173523,3.1839261054992676
1790266843805566500,12.68956640625,-9.228499412536621,-0.8935567140579224,3.1948015689849854
1790266843815566600,12.699566650390626,-9.225686073303223,-0.9025777578353882,3.200385093688965
1790266843825566500,12.70956640625,-9.223492622375488,-0.9217756986618042,3.2012345790863037
1790266843835566600,12.719566650390625,-9.217154502868652,-0.9463561177253723,3.212299108505249
1790266843845566500,12.72956640625,-9.205949783325195,-0.9753600358963013,3.2356677055358887
1790266843855566600,12.739566650390625,-9.190412521362305,-1.0183666944503784,3.26643967628479
1790266843865566500,12.74956640625,-9.170682907104492,-1.0782744884490967,3.302469253540039
1790266843875566600,12.759566650390624,-9.149495124816895,-1.1472468376159668,3.337806463241577
1790266843885566500,12.76956640625,-9.126100540161133,-1.2201883792877197,3.3757681846618652
1790266843895566600,12.779566650390626,-9.098812103271484,-1.2953695058822632,3.4211158752441406
1790266843905566500,12.78956640625,-9.067758560180664,-1.3720300197601318,3.473280191421509
1790266843915566600,12.799566650390625,-9.032404899597168,-1.454595685005188,3.5313189029693604
1790266843925566500,12.80956640625,-8.993734359741211,-1.5457890033721924,3.5907766819000244
1790266843935566600,12.819566650390625,-8.952327728271484,-1.6451778411865234,3.649602174758911
1790266843945566500,12.82956640625,-8.908170700073242,-1.7542694807052612,3.7064032554626465
1790266843955566600,12.839566650390625,-8.860675811767578,-1.871916651725769,3.762279987335205
1790266843965566500,12.84956640625,-8.80885124206543,-1.9962432384490967,3.819624423980713
1790266843975566600,12.859566650390626,-8.750250816345215,-2.126986265182495,3.88322377204895
1790266843985566500,12.86956640625,-8.685325622558594,-2.2640907764434814,3.9508726596832275
1790266843995566600,12.879566650390625,-8.615957260131836,-2.4079904556274414,4.017119407653809
1790266844005566500,12.88956640625,-8.543508529663086,-2.5607166290283203,4.076958179473877
1790266844015566600,12.899566650390625,-8.469061851501465,-2.7209415435791016,4.128179550170898
1790266844025566500,12.90956640625,-8.39106273651123,-2.885603189468384,4.175374984741211
1790266844035566600,12.919566650390625,-8.30850887298584,-3.052781105041504,4.221325874328613
1790266844045566500,12.92956640625,-8.222649574279785,-3.2200021743774414,4.264974594116211
1790266844055566600,12.939566650390624,-8.134221076965332,-3.385518789291382,4.3061699867248535
1790266844065566500,12.94956640625,-8.041462898254395,-3.5495896339416504,4.3480658531188965
1790266844075566600,12.959566650390625,-7.942175388336182,-3.711549758911133,4.395068645477295
1790266844085566500,12.96956640625,-7.833029747009277,-3.873532295227051,4.450818061828613
1790266844095566600,12.979566650390625,-7.712306499481201,-4.03839635848999,4.514650344848633
1790266844105566500,12.98956640625,-7.584349632263184,-4.205814361572266,4.578117370605469
1790266844115566600,12.999566650390625,-7.454101085662842,-4.373524188995361,4.63455057144165
