time,seconds_elapsed,z,y,x
1790266831199525000,0.083525146484375,-0.17715078592300415,-0.0665842592716217,0.2993237376213074
1790266831216778200,0.1007783203125,-0.015271619893610477,0.20891575515270233,0.3488037884235382
1790266831234030600,0.118030517578125,0.12217295914888382,0.6707295179367065,0.3176496922969818
1790266831251283200,0.135283203125,0.14049890637397766,1.110552191734314,0.12034036219120026
1790266831268535600,0.15253564453125,0.10140355676412582,1.1160500049591064,-0.25045454502105713
1790266831285788200,0.1697880859375,-0.024434590712189674,1.2424989938735962,-0.6847794055938721
1790266831303040500,0.18704052734375,-0.2974911332130432,1.3451242446899414,-0.9492838382720947
1790266831320292900,0.20429296875,-0.6798924803733826,0.7861829996109009,-1.0378592014312744
1790266831337545500,0.22154541015625,-0.8460476994514465,-0.6933315396308899,-1.4025455713272095
1790266831354797800,0.2387978515625,-0.5986474752426147,-2.1563527584075928,-1.9608759880065918
1790266831372050400,0.256050537109375,-0.22357651591300964,-2.2919647693634033,-2.2870776653289795
1790266831389302800,0.273302734375,0.23335035145282745,-0.5919279456138611,-1.9401065111160278
1790266831406555400,0.290555419921875,0.5442805290222168,0.9327905178070068,-1.1184934377670288
1790266831423807700,0.307807861328125,0.7128791809082031,1.8741331100463867,-0.07024945318698883
1790266831441060000,0.32506005859375,0.823445737361908,2.6676464080810547,1.0567960739135742
1790266831458312700,0.342312744140625,1.0574069023132324,3.2455246448516846,1.792277216911316
1790266831475565000,0.35956494140625,-0.0720820426940918,0.5772672295570374,0.6133082509040833
1790266831492817700,0.376817626953125,-0.5974257588386536,-0.06414080411195755,-0.023212861269712448
1790266831510070000,0.394070068359375,-0.04581485688686371,-0.8759800791740417,-0.027488915249705315
1790266831527322400,0.411322265625,-0.05742128938436508,-2.20155668258667,0.4105011224746704
1790266831544575000,0.428574951171875,-0.6798924803733826,-3.433670997619629,0.842382550239563
1790266831561827300,0.445827392578125,-1.2143992185592651,-4.932122230529785,0.8906408548355103
1790266831579080000,0.463079833984375,-1.0677915811538696,-6.742725372314453,0.7250964641571045
1790266831596332300,0.480332275390625,-0.5503891706466675,-4.979769706726074,-0.1844811588525772
1790266831613584600,0.497584716796875,-0.05742128938436508,-1.2681553363800049,-0.8032872080802917
1790266831630837200,0.514837158203125,0.4465421438217163,0.4789179861545563,-1.285259485244751
1790266831648089600,0.532089599609375,0.6591231226921082,-0.1954767256975174,-1.4508038759231567
1790266831665342200,0.54934228515625,1.0109812021255493,-1.450192928314209,-0.7177661061286926
1790266831682594600,0.566594482421875,1.120326042175293,-2.774547815322876,0.4098902642726898
1790266831699847200,0.58384716796875,0.6914989352226257,-3.571115493774414,1.9046764373779297
1790266831717099500,0.601099609375,0.30970844626426697,-4.643794059753418,3.051880359649658
1790266831734352000,0.618351806640625,0.2761108875274658,-5.298641204833984,2.9242095947265625
1790266831751604500,0.6356044921875,0.46486809849739075,-5.345677852630615,1.986532211303711
1790266831768856800,0.65285693359375,0.6041452884674072,-5.068345069885254,1.1520910263061523
1790266831786109400,0.670109375,0.8381064534187317,-5.088503837585449,0.6218603253364563
1790266831803361800,0.68736181640625,0.860708475112915,-5.7152509689331055,0.5968148708343506
1790266831820614100,0.7046142578125,1.0067051649093628,-6.4085822105407715,0.915686309337616
1790266831837866800,0.72186669921875,1.4489712715148926,-7.185602188110352,1.0677915811538696
1790266831855119000,0.739119140625,2.0689990520477295,-8.200248718261719,1.4001020193099976
1790266831872371500,0.756371337890625,2.6871941089630127,-9.186795234680176,2.1606287956237793
1790266831889624000,0.7736240234375,3.1948227882385254,-9.834312438964844,3.2870633602142334
1790266831906876400,0.79087646484375,3.8356199264526367,-8.934508323669434,4.090961456298828
1790266831924129000,0.80812890625,4.238790512084961,-7.057320594787598,4.149604320526123
1790266831941381400,0.82538134765625,5.048186302185059,-5.714640140533447,4.169763088226318
1790266831958634000,0.842634033203125,5.345677852630615,-4.59920072555542,4.201528072357178
1790266831975886300,0.85988623046875,4.7012152671813965,-3.0702064037323,4.165486812591553
1790266831993138700,0.877138671875,4.30232048034668,-1.4764602184295654,3.9712319374084473
1790266832010391300,0.894391357421875,3.8789913654327393,-0.5009090900421143,3.2430810928344727
1790266832027643600,0.9116435546875,2.9663593769073486,-0.33108872175216675,2.5326454639434814
1790266832044896300,0.928896240234375,2.0195188522338867,-0.5210676789283752,2.4049746990203857
1790266832062148600,0.946148681640625,1.2327251434326172,-0.5015199780464172,2.494771718978882
1790266832079401000,0.96340087890625,0.6359102129936218,0.05864302068948746,2.230267286300659
1790266832096653600,0.980653564453125,-0.06536252796649933,0.29016077518463135,1.4966187477111816
1790266832113906000,0.997906005859375,-0.767857015132904,-0.037262752652168274,0.646905779838562
1790266832131158500,1.015158447265625,-1.0641264915466309,-0.19669845700263977,-0.11728604137897491
1790266832148411000,1.032410888671875,-1.2547162771224976,-0.10018182545900345,-0.6627882719039917
1790266832165663200,1.049663330078125,-1.5851941108703613,-0.10506874322891235,-1.2418880462646484
1790266832182915800,1.066915771484375,-1.8319834470748901,-0.5406153202056885,-1.5790854692459106
1790266832200168200,1.084168212890625,-1.9553781747817993,-1.4813470840454102,-0.8362739086151123
1790266832217420800,1.1014208984375,-2.1221442222595215,-2.1532983779907227,0.13683371245861053
1790266832234673200,1.118673095703125,-1.7556253671646118,-2.193615436553955,0.2406807243824005
1790266832251925500,1.135925537109375,-1.0018181800842285,-1.6548327207565308,0.1331685185432434
1790266832269178000,1.15317822265625,-0.6591231226921082,-1.5662572383880615,0.268169641494751
1790266832286430500,1.170430419921875,-0.7134900689125061,-1.998138666152954,0.29626941680908203
1790266832303682800,1.187682861328125,-0.6017017960548401,-2.3151774406433105,-0.007941242307424545
1790266832320935400,1.204935302734375,-0.36163195967674255,-1.849698543548584,0.07574722915887833
1790266832338187800,1.222187744140625,0.19303326308727264,-1.8771874904632568,-0.5253437161445618
1790266832355440400,1.2394404296875,0.7409789562225342,-2.7818782329559326,-1.8228205442428589
1790266832372692700,1.256692626953125,1.25715970993042,-2.177122116088867,-2.34999680519104
1790266832389945000,1.273945068359375,1.8729114532470703,-0.6774490475654602,-2.2345433235168457
1790266832407197700,1.29119775390625,2.0390665531158447,0.6078104376792908,-1.8832961320877075
1790266832424450000,1.308449951171875,1.7055344581604004,-0.6939423680305481,-1.0525200366973877
1790266832441702400,1.325702392578125,1.9523237943649292,-4.453204154968262,-0.2107483446598053
1790266832458955000,1.342955078125,2.381150960922241,-5.412872791290283,0.6004800796508789
1790266832476207400,1.360207275390625,0.6291907429695129,-3.1581709384918213,0.8570432662963867
1790266832493460000,1.3774599609375,-2.480721950531006,-0.7507528066635132,-0.2761108875274658
1790266832510712300,1.39471240234375,-2.363435745239258,0.21502439677715302,-1.619402527809143
1790266832527965000,1.41196484375,-0.8075632452964783,-0.27488914132118225,-2.967581033706665
1790266832545217300,1.42921728515625,0.17837251722812653,-1.08978271484375,-3.3493716716766357
1790266832562469600,1.4464697265625,-0.06597339361906052,-1.0671807527542114,-2.88389253616333
1790266832579722000,1.463721923828125,-0.545502245426178,-0.1954767256975174,-2.238208532333374
1790266832596974600,1.480974609375,-1.2455532550811768,0.050090912729501724,-2.1704025268554688
1790266832614227000,1.49822705078125,-1.9443825483322144,-0.8710931539535522,-2.3903138637542725
1790266832631479600,1.5154794921875,-1.9889757633209229,-1.7330234050750732,-2.0665555000305176
1790266832648732000,1.53273193359375,-1.0439679622650146,-2.66275954246521,-0.7977893948554993
1790266832665984500,1.549984619140625,-0.16310089826583862,-2.171624183654785,-0.2205221801996231
1790266832683236900,1.56723681640625,-0.143553227186203,-1.1685843467712402,-0.7189878225326538
1790266832700489200,1.5844892578125,-0.7831286191940308,-0.9651663303375244,-1.0800089836120605
1790266832717741800,1.601741943359375,-1.5051708221435547,-0.6212494969367981,-0.8271108865737915
1790266832734993700,1.61899365234375,-1.3005311489105225,0.30482152104377747,-0.5949822664260864
1790266832752246500,1.63624658203125,-0.6316341757774353,0.6401863098144531,-0.2669478952884674
1790266832769499000,1.653498779296875,-0.3445277214050293,0.36774060130119324,0.16859868168830872
1790266832786751500,1.67075146484375,-0.2767217457294464,0.14538581669330597,0.34636032581329346
1790266832804003800,1.68800390625,0.4929678738117218,-0.17653992772102356,0.6200277805328369
1790266832821256400,1.70525634765625,1.5992439985275269,-0.9669989347457886,1.4575233459472656
1790266832838508800,1.7225087890625,2.0354013442993164,-1.3365721702575684,1.9718714952468872
1790266832855761200,1.73976123046875,2.330449104309082,-1.4605777263641357,2.3041820526123047
1790266832873013800,1.757013671875,2.720791816711426,-0.8026763200759888,2.5411975383758545
1790266832890266000,1.77426611328125,3.0524911880493164,0.8637627959251404,2.4434590339660645
1790266832907518700,1.791518798828125,3.8093528747558594,1.464242935180664,2.6584835052490234
1790266832924771000,1.80877099609375,4.528951644897461,1.6994258165359497,3.5863871574401855
1790266832942023400,1.8260234375,4.135554790496826,1.3096940517425537,4.172206401824951
1790266832959276000,1.843276123046875,3.902815103530884,1.4355322122573853,4.881420612335205
1790266832976528400,1.8605283203125,3.708559989929199,1.8985676765441895,5.568032264709473
1790266832993780700,1.87778076171875,4.326144218444824,1.5094468593597412,5.954099178314209
1790266833011033300,1.895033447265625,4.909520149230957,1.2302817106246948,6.1178107261657715
1790266833028285700,1.91228564453125,4.93395471572876,0.6725621223449707,6.051226615905762
1790266833045538300,1.929538330078125,4.315759658813477,0.13133592903614044,4.81056022644043
1790266833062790700,1.946790771484375,2.858236312866211,-0.9999856352806091,3.6981754302978516
1790266833080043000,1.96404296875,1.5332705974578857,0.1905898153781891,3.5246896743774414
1790266833097295600,1.981295654296875,0.7544180154800415,0.18753549456596375,2.162461280822754
1790266833114548000,1.9985478515625,-0.11423171311616898,-0.7226530313491821,0.9022472500801086
1790266833131800300,2.01580029296875,-0.8985821008682251,-0.26389357447624207,0.1331685185432434
1790266833149053000,2.033052978515625,-1.0543526411056519,0.2412915825843811,-0.6084213256835938
1790266833166305300,2.05030517578125,-1.1985167264938354,0.2406807243824005,-1.1319323778152466
1790266833183558000,2.067557861328125,-1.5974113941192627,0.04276053607463837,-1.1789690256118774
1790266833200810500,2.084810546875,-1.6530001163482666,-0.5027416944503784,-1.0048725605010986
1790266833218062600,2.1020625,-1.524107575416565,-0.9181297421455383,-0.8484911918640137
1790266833235315200,2.119315185546875,-1.8228205442428589,-1.2846486568450928,-0.8594867587089539
1790266833252567600,2.136567626953125,-1.5638138055801392,-1.5344923734664917,-0.9651663303375244
1790266833269820200,2.153820068359375,0.06352993845939636,1.4868448972702026,-1.9089524745941162
1790266833287072500,2.171072509765625,0.401949018239975,1.2583814859390259,-1.6768238544464111
1790266833304324900,2.188324951171875,0.94439697265625,0.8717040419578552,-2.025627613067627
1790266833321577500,2.205577392578125,0.9706641435623169,1.0928370952606201,-1.7751730680465698
1790266833338830000,2.222830078125,0.8118392825126648,0.9266818761825562,-1.8191553354263306
1790266833356082400,2.24008251953125,0.5198459029197693,1.1172716617584229,-2.0341796875
1790266833373334800,2.257334716796875,0.3591884970664978,0.5277871489524841,-2.2815799713134766
1790266833390587100,2.274587158203125,0.22296564280986786,0.4575377106666565,-2.780656576156616
1790266833407839700,2.29183984375,-0.35246896743774414,0.6957749724388123,-3.0915865898132324
1790266833425092400,2.30909228515625,-1.0128138065338135,0.4667007029056549,-3.1862707138061523
1790266833442344700,2.3263447265625,-1.528383731842041,0.5400044918060303,-3.1673338413238525
1790266833459597000,2.34359716796875,-1.8026620149612427,0.27916520833969116,-3.12701678276062
1790266833476849700,2.360849609375,-2.1355831623077393,0.0030543238390237093,-3.283398151397705
1790266833494102000,2.37810205078125,-2.626107692718506,-0.07757982611656189,-3.6920666694641113
1790266833511354600,2.395354736328125,-3.0866997241973877,0.17226386070251465,-3.693899393081665
1790266833528607000,2.41260693359375,-2.6871941089630127,-0.5381718873977661,-3.2601852416992188
1790266833545859600,2.429859619140625,-1.858250617980957,-1.4214823246002197,-2.7592761516571045
1790266833563112000,2.44711181640625,-1.265711784362793,-0.49968740344047546,-2.2705843448638916
1790266833580364300,2.4643642578125,-0.7122683525085449,-0.053145237267017365,-1.3738348484039307
1790266833597617000,2.481616943359375,-0.1948658674955368,0.08613193035125732,-1.0415244102478027
1790266833614869200,2.498869140625,-0.13194678723812103,0.44959646463394165,-0.5595521330833435
1790266833632121900,2.516121826171875,-0.09407317638397217,0.5778780579566956,-0.0665842592716217
1790266833649374500,2.53337451171875,-0.07757982611656189,0.7098248600959778,0.3695732057094574
1790266833666626600,2.55062646484375,0.033597562462091446,0.5320632457733154,0.9040798544883728
1790266833683879200,2.567879150390625,0.14660754799842834,0.5613847374916077,1.5216641426086426
1790266833701131500,2.585131591796875,0.33536475896835327,0.3335321843624115,2.2058327198028564
1790266833718384000,2.602384033203125,0.38728827238082886,0.5143481492996216,2.5741841793060303
1790266833735636700,2.61963671875,0.5137372612953186,1.303585410118103,2.793484687805176
1790266833752889000,2.63688916015625,0.7745765447616577,1.6346741914749146,3.0836453437805176
1790266833770141400,2.654141357421875,1.0793980360031128,1.4679080247879028,3.2479679584503174
1790266833787394000,2.67139404296875,1.191797137260437,1.1887428760528564,3.2064292430877686
1790266833804646400,2.688646484375,1.1221586465835571,0.9010255336761475,3.0616543292999268
1790266833821899000,2.70589892578125,1.0384701490402222,0.7153226733207703,2.8631231784820557
1790266833839151400,2.7231513671875,1.0122029781341553,0.5913171172142029,2.66275954246521
1790266833856404000,2.740404052734375,1.0879502296447754,0.7990111112594604,2.3090689182281494
1790266833873656300,2.75765625,1.158199667930603,0.9773836731910706,2.0909900665283203
1790266833890909000,2.774908935546875,1.3261874914169312,0.7428115606307983,1.950491189956665
1790266833908161300,2.792161376953125,1.4227041006088257,-0.0409279391169548,1.9871431589126587
1790266833925413600,2.80941357421875,1.2217295169830322,-0.5198459029197693,2.0127995014190674
1790266833942666200,2.826666259765625,1.0396918058395386,-0.5143481492996216,1.8283182382583618
1790266833959918600,2.843918701171875,1.033583164215088,-0.13255766034126282,1.5406010150909424
1790266833977171200,2.861171142578125,0.952949047088623,0.3659079968929291,1.0739002227783203
1790266833994423800,2.878423828125,0.711046576499939,0.41294458508491516,0.6682860851287842
1790266834011676200,2.89567626953125,0.471587598323822,0.3133736252784729,0.2608392536640167
1790266834028928500,2.912928466796875,0.205861434340477,0.1233946830034256,-0.05803215503692627
1790266834046181000,2.93018115234375,-0.13255766034126282,-0.11178825795650482,-0.28405213356018066
1790266834063433500,2.94743359375,-0.21502439677715302,-0.25961753726005554,-0.41783151030540466
1790266834080685600,2.964685546875,-0.2767217457294464,-0.4007273018360138,-0.7971785664558411
1790266834097938400,2.9819384765625,-0.3341430425643921,-0.2419024556875229,-1.0250310897827148
1790266834115190800,2.999190673828125,-0.34636032581329346,-0.1948658674955368,-1.2663227319717407
1790266834132443400,3.016443359375,-0.26450446248054504,-0.6517927050590515,-1.4471386671066284
1790266834149696000,3.033696044921875,-0.3426951467990875,-0.6145299673080444,-1.4495820999145508
1790266834166948400,3.0509482421875,-0.46425724029541016,-0.42271843552589417,-1.4019346237182617
1790266834184201000,3.068200927734375,-0.5338957905769348,-0.4416552484035492,-1.4776818752288818
1790266834201453300,3.085453369140625,-0.6175842881202698,-0.7177661061286926,-1.629176378250122
1790266834218705700,3.10270556640625,-0.7244856357574463,-0.7098248600959778,-1.9217805862426758
1790266834235958300,3.119958251953125,-0.8448259830474854,-0.5986474752426147,-2.318842649459839
1790266834253210600,3.137210693359375,-0.9969313144683838,-0.21685700118541718,-2.752556800842285
1790266834270463200,3.154463134765625,-0.998153030872345,-0.8405499458312988,-2.810588836669922
1790266834287715600,3.171715576171875,-0.8991929292678833,-1.3267983198165894,-2.8936665058135986
1790266834304968200,3.18896826171875,-0.8429933786392212,-1.416595458984375,-2.962083339691162
1790266834322220500,3.206220458984375,-0.7904590368270874,-1.4691298007965088,-2.7959280014038086
1790266834339473000,3.223472900390625,-0.6884446144104004,-1.433088779449463,-2.671311616897583
1790266834356725500,3.2407255859375,-0.6126973628997803,-1.3206896781921387,-2.656651020050049
1790266834373978000,3.25797802734375,-0.6218603253364563,-1.0470222234725952,-2.4465134143829346
1790266834391230500,3.27523046875,-0.5980366468429565,-0.6945532560348511,-2.1025965213775635
1790266834408483000,3.292483154296875,-0.45387253165245056,-0.6939423680305481,-1.629176378250122
1790266834425735400,3.3097353515625,-0.30543237924575806,-0.7165443897247314,-1.2583814859390259
1790266834442987800,3.32698779296875,-0.19181154668331146,-0.36774060130119324,-0.9584468603134155
1790266834460240400,3.344240478515625,-0.10995566099882126,-0.08124501258134842,-0.7635809779167175
1790266834477492700,3.36149267578125,-0.10323614627122879,0.0818558782339096,-0.5094612240791321
1790266834494745300,3.378745361328125,-0.16615521907806396,0.4569268524646759,-0.15210533142089844
1790266834511997700,3.395997802734375,-0.11362084746360779,0.6023126840591431,0.3402516841888428
1790266834529250300,3.413250244140625,0.11606431007385254,0.6017017960548401,0.8429933786392212
1790266834546502700,3.430502685546875,0.3298669755458832,0.711046576499939,1.2999202013015747
1790266834563755300,3.44775537109375,0.5131264328956604,0.9236275553703308,1.6016874313354492
1790266834581007600,3.465007568359375,0.5149590373039246,1.32985258102417,1.8423681259155273
1790266834598260000,3.482260009765625,0.4477638900279999,1.5809180736541748,2.27424955368042
1790266834615512600,3.4995126953125,0.5772672295570374,1.6713260412216187,2.696357250213623
1790266834632765200,3.51676513671875,0.6963858604431152,1.6230677366256714,2.858847141265869
1790266834650017500,3.534017578125,0.7049379348754883,1.6132938861846924,2.9321508407592773
1790266834667270000,3.551269775390625,0.7476984858512878,1.5149446725845337,3.017061233520508
1790266834684522200,3.568522216796875,0.8778126835823059,1.3933825492858887,3.1105234622955322
1790266834701774800,3.58577490234375,1.0146464109420776,1.1856884956359863,3.0860888957977295
1790266834719027500,3.60302734375,1.0115920305252075,0.7629700899124146,2.872897148132324
1790266834736279800,3.62027978515625,0.9743293523788452,0.46914416551589966,2.6279401779174805
1790266834753532400,3.637532470703125,0.8998038172721863,0.24495677649974823,2.436739683151245
1790266834770784800,3.65478466796875,0.860708475112915,-0.12583814561367035,2.3176209926605225
1790266834788037400,3.672037353515625,0.8271108865737915,-0.4935787320137024,2.143524408340454
1790266834805289700,3.689289794921875,0.6945532560348511,-0.6023126840591431,1.8997894525527954
1790266834822542000,3.7065419921875,0.49113526940345764,-0.3610210716724396,1.6126830577850342
1790266834839794700,3.723794677734375,0.36651885509490967,-0.10873392969369888,1.2345577478408813
1790266834857047000,3.741047119140625,0.2987128794193268,-0.14110976457595825,0.9175189137458801
1790266834874299600,3.758299560546875,0.27427828311920166,0.05742128938436508,0.637742817401886
1790266834891552000,3.775552001953125,0.2822195291519165,0.3597993552684784,0.3176496922969818
1790266834908804400,3.792804443359375,0.22663083672523499,0.2626718580722809,-0.031154103577136993
1790266834926057000,3.810056884765625,0.10384701192378998,0.379347026348114,-0.43860089778900146
1790266834943309600,3.8273095703125,-0.013439024798572063,0.5772672295570374,-0.7409789562225342
1790266834960562000,3.84456201171875,-0.11239911615848541,0.2761108875274658,-0.8344413042068481
1790266834977814500,3.861814453125,-0.19181154668331146,-0.1185077652335167,-1.0427461862564087
1790266834995067000,3.87906689453125,-0.2162461280822754,-0.24373504519462585,-1.5375466346740723
1790266835012319200,3.8963193359375,-0.27916520833969116,-0.15088360011577606,-1.9388848543167114
1790266835029571800,3.91357177734375,-0.3799578845500946,-0.20402882993221283,-2.084270715713501
1790266835046824200,3.93082421875,-0.41416633129119873,-0.3787361681461334,-2.059225082397461
1790266835064076800,3.948076904296875,-0.32070401310920715,-0.6456840634346008,-1.9278892278671265
1790266835081329200,3.9653291015625,-0.18692462146282196,-0.9089667797088623,-1.9608759880065918
1790266835098581500,3.98258154296875,-0.26511532068252563,-0.915686309337616,-2.25531268119812
1790266835115834000,3.999834228515625,-0.6334667801856995,-0.7666352987289429,-2.486830472946167
1790266835133086500,4.01708642578125,-0.9413426518440247,-0.842382550239563,-2.598618745803833
1790266835150339000,4.034339111328125,-1.0458004474639893,-1.0115920305252075,-2.6804747581481934
1790266835167591400,4.05159130859375,-1.0421353578567505,-1.036637544631958,-2.640157461166382
1790266835184843800,4.06884375,-0.9364557266235352,-1.2229512929916382,-2.579681873321533
1790266835202096400,4.086096435546875,-0.767857015132904,-1.2596031427383423,-2.5106542110443115
1790266835219348700,4.1033486328125,-0.6181951761245728,-1.148425817489624,-2.473391532897949
1790266835236601300,4.120601318359375,-0.5326740741729736,-1.1673625707626343,-2.210719585418701
1790266835253853700,4.137853759765625,-0.5070177912712097,-1.1997383832931519,-2.0323472023010254
1790266835271106300,4.155106201171875,-0.46547895669937134,-0.9486730098724365,-1.858250617980957
1790266835288358700,4.172358642578125,-0.4471530318260193,-0.6591231226921082,-1.5870267152786255
1790266835305611000,4.189611083984375,-0.3897317349910736,-0.24006985127925873,-1.2327251434326172
1790266835322863600,4.206863525390625,-0.3652971386909485,0.09896009415388107,-0.8784235715866089
1790266835340116200,4.2241162109375,-0.42088583111763,0.27977606654167175,-0.5235111117362976
1790266835357368600,4.24136865234375,-0.40317076444625854,0.3946186602115631,-0.11606431007385254
1790266835374621000,4.258620849609375,-0.35735589265823364,0.4477638900279999,0.24373504519462585
1790266835391873300,4.275873291015625,-0.2864955961704254,0.46975502371788025,0.6133082509040833
1790266835409126000,4.2931259765625,-0.17226386070251465,0.5601630210876465,1.092226266860962
1790266835426378500,4.31037841796875,0.014660755172371864,0.7293725609779358,1.561981201171875
1790266835443630800,4.327630859375,0.20708316564559937,1.0427461862564087,1.9291110038757324
1790266835460883200,4.34488330078125,0.36285367608070374,1.3768892288208008,2.190561056137085
1790266835478135800,4.3621357421875,0.4734202027320862,1.5460987091064453,2.517984628677368
1790266835495388200,4.37938818359375,0.618806004524231,1.6890411376953125,2.9443681240081787
1790266835512640800,4.396640869140625,0.7794634699821472,1.7959424257278442,3.2461354732513428
1790266835529893000,4.41389306640625,0.8478803038597107,1.7159191370010376,3.233307361602783
1790266835547145500,4.4311455078125,0.9657772183418274,1.5778636932373047,2.9749114513397217
1790266835564398000,4.448398193359375,1.1111630201339722,1.3793326616287231,2.66275954246521
1790266835581650400,4.465650390625,1.1362085342407227,0.8778126835823059,2.539364814758301
1790266835598903000,4.482903076171875,1.0348049402236938,0.3750709891319275,2.500880479812622
1790266835616155400,4.5001552734375,1.0140355825424194,0.09896009415388107,2.3451099395751953
1790266835633407700,4.51740771484375,1.0097594261169434,-0.0873536616563797,2.1300854682922363
1790266835650660400,4.534660400390625,0.9737184643745422,-0.235793799161911,1.8350378274917603
1790266835667912700,4.55191259765625,0.9193515181541443,-0.38301220536231995,1.5760310888290405
1790266835685165000,4.5691650390625,0.8619301915168762,-0.37201663851737976,1.4043781757354736
1790266835702417700,4.586417724609375,0.7629700899124146,-0.3536907136440277,1.0769546031951904
1790266835719670000,4.603669921875,0.5681042671203613,-0.3897317349910736,0.6872228980064392
1790266835736922600,4.620922607421875,0.3433060050010681,-0.28954991698265076,0.3066541254520416
1790266835754175000,4.638175048828125,0.1692095398902893,-0.12583814561367035,-0.013439024798572063
1790266835771427300,4.65542724609375,0.0818558782339096,-0.06352993845939636,-0.2919933497905731
1790266835788680000,4.672679931640625,0.027488915249705315,-0.08674279600381851,-0.6145299673080444
1790266835805932300,4.689932373046875,-0.07635809481143951,-0.11117739230394363,-0.9101884961128235
1790266835823185000,4.707184814453125,-0.1948658674955368,-0.04214967042207718,-1.01708984375
1790266835840437200,4.724437255859375,-0.2767217457294464,-0.09101885557174683,-0.9932661056518555
1790266835857689600,4.741689697265625,-0.3530798554420471,-0.15149445831775665,-1.0134246349334717
1790266835874942200,4.758942138671875,-0.4789179861545563,-0.15699224174022675,-1.1502584218978882
1790266835892194600,4.776194580078125,-0.5827649831771851,-0.185092031955719,-1.388495683670044
1790266835909447200,4.793447265625,-0.6969966888427734,-0.18081597983837128,-1.700036644935608
1790266835926699500,4.810699462890625,-0.8808670043945312,-0.1386663019657135,-1.8991786241531372
1790266835943952000,4.827951904296875,-1.0415244102478027,-0.44348782300949097,-1.9663736820220947
1790266835961204500,4.84520458984375,-1.1380411386489868,-0.8649845123291016,-2.1080944538116455
1790266835978456800,4.862456787109375,-1.173471212387085,-1.1899645328521729,-2.237597703933716
1790266835995709400,4.87970947265625,-1.1343759298324585,-1.4538581371307373,-2.3438880443573
1790266836012961500,4.89696142578125,-1.033583164215088,-1.6853759288787842,-2.5497496128082275
1790266836030214000,4.9142138671875,-0.8881973624229431,-1.6383392810821533,-2.761108875274658
1790266836047466200,4.93146630859375,-0.7568614482879639,-1.3127484321594238,-2.8228061199188232
1790266836064718600,4.948718505859375,-0.7006618976593018,-1.1838558912277222,-2.626718521118164
1790266836081970700,4.965970703125,-0.6969966888427734,-1.2107340097427368,-2.431241750717163
1790266836099223000,4.98322314453125,-0.7648026943206787,-1.0134246349334717,-2.2394301891326904
1790266836116475600,5.0004755859375,-0.6921098232269287,-0.4618137776851654,-2.2278237342834473
1790266836133728000,5.01772802734375,-0.536339282989502,-0.03787361457943916,-1.8686354160308838
1790266836150980600,5.034980712890625,-0.4740310609340668,0.17043127119541168,-1.3384047746658325
1790266836168233000,5.05223291015625,-0.38728827238082886,0.5711585879325867,-0.9578359723091125
1790266836185485600,5.069485595703125,-0.2889390289783478,0.7116574645042419,-0.5748237371444702
1790266836202738000,5.086738037109375,-0.3035998046398163,0.5693259835243225,-0.1594357043504715
1790266836219990500,5.103990478515625,-0.2315177470445633,0.4734202027320862,0.24984370172023773
1790266836237243100,5.1212431640625,-0.05070177838206291,0.5015199780464172,0.7195987105369568
1790266836254495500,5.13849560546875,0.07452550530433655,0.5271763205528259,1.1594213247299194
1790266836271748000,5.155748046875,0.17104214429855347,0.7250964641571045,1.5711442232131958
1790266836289000400,5.17300048828125,0.2981020212173462,1.05496346950531,1.9346086978912354
1790266836306253000,5.190253173828125,0.39767298102378845,1.3665045499801636,2.1795654296875
1790266836323505700,5.207505615234375,0.4679224193096161,1.6676608324050903,2.360992431640625
1790266836340758000,5.224758056640625,0.5748237371444702,1.8417572975158691,2.5075998306274414
1790266836358010600,5.2420107421875,0.6780598759651184,1.8551963567733765,2.6254968643188477
1790266836375263000,5.259262939453125,0.7648026943206787,1.8130466938018799,2.783099889755249
1790266836392515600,5.276515625,0.9199623465538025,1.6242893934249878,2.7501132488250732
1790266836409768000,5.293767822265625,1.0800089836120605,1.4569125175476074,2.551582098007202
1790266836427020300,5.311020263671875,1.174692988395691,1.3432916402816772,2.453843832015991
1790266836444272600,5.328272705078125,1.303585410118103,1.045189619064331,2.408639907836914
1790266836461524700,5.345524658203125,1.454469084739685,0.7409789562225342,2.2785255908966064
1790266836478777000,5.362777099609375,1.4789036512374878,0.37262752652168274,2.0237951278686523
1790266836496029400,5.380029541015625,1.3237439393997192,-0.023823726922273636,1.8252639770507812
1790266836513281800,5.39728173828125,1.221118688583374,-0.09896009415388107,1.6267329454421997
1790266836530534400,5.414534423828125,1.1233803033828735,0.049480047076940536,1.4062107801437378
1790266836547786800,5.431786865234375,0.9938769936561584,0.1081230640411377,1.1282672882080078
1790266836565039400,5.449039306640625,0.860708475112915,0.008552107028663158,0.7373138070106506
1790266836582292000,5.4662919921875,0.6786707639694214,-0.15149445831775665,0.3756818473339081
1790266836599544300,5.48354443359375,0.5015199780464172,-0.33719736337661743,0.17165300250053406
1790266836616796000,5.5007958984375,0.39828383922576904,-0.5485565662384033,0.06047561392188072
1790266836634047700,5.5180478515625,0.36651885509490967,-0.5473348498344421,-0.053756099194288254
1790266836651299300,5.53529931640625,0.2779434621334076,-0.35796675086021423,-0.22968515753746033
1790266836668551000,5.552551025390625,0.11117739230394363,-0.13133592903614044,-0.48075059056282043
1790266836685802800,5.569802734375,-0.02932151034474373,0.049480047076940536,-0.7153226733207703
1790266836703055000,5.58705517578125,-0.08002328872680664,0.2632827162742615,-0.8442151546478271
1790266836720308200,5.60430810546875,-0.08857539296150208,0.328645259141922,-0.8662062287330627
1790266836737561300,5.621561279296875,-0.1893680840730667,0.17165300250053406,-0.9187406301498413
1790266836754814500,5.638814453125,-0.4422661066055298,0.10873392969369888,-1.3909391164779663
1790266836772067600,5.656067626953125,-0.8582650423049927,0.22235478460788727,-1.777005672454834
1790266836789320700,5.67332080078125,-0.9077450633049011,0.11423171311616898,-1.2760965824127197
1790266836806573300,5.6905732421875,-0.583375871181488,-0.5980366468429565,-0.6407971382141113
1790266836823826000,5.707825927734375,-0.2162461280822754,-1.1557561159133911,-0.998763918876648
1790266836841078300,5.725078369140625,-0.328645259141922,-1.0012073516845703,-2.0946552753448486
1790266836858331000,5.742330810546875,-1.0458004474639893,-0.6010909676551819,-2.5699081420898438
1790266836875583200,5.759583251953125,-0.850934624671936,-0.9388991594314575,-1.9144501686096191
1790266836892835800,5.7768359375,-0.31642794609069824,-0.9749401807785034,-1.2791508436203003
1790266836910088400,5.79408837890625,-0.3090975880622864,-0.7648026943206787,-1.3921607732772827
1790266836927340800,5.8113408203125,-0.48563748598098755,-0.5021308660507202,-1.6511675119400024
1790266836944593400,5.828593505859375,-0.4886918365955353,-0.5571087002754211,-1.5234967470169067
1790266836961845800,5.845845703125,-0.411722868680954,-0.7788525819778442,-1.4135410785675049
1790266836979098400,5.863098388671875,-0.43493571877479553,-0.6603448390960693,-1.507614254951477
1790266836996351000,5.88035107421875,-0.5516108870506287,-0.5216785073280334,-1.499062180519104
1790266837013603300,5.897603271484375,-0.6615665555000305,-0.749531090259552,-1.3567306995391846
1790266837030856000,5.91485595703125,-0.6927206516265869,-0.7641918659210205,-1.3115266561508179
1790266837048108300,5.9321083984375,-0.618806004524231,-0.6194168925285339,-1.4110976457595825
1790266837065361000,5.94936083984375,-0.5595521330833435,-0.767857015132904,-1.4483604431152344
1790266837082613200,5.96661328125,-0.545502245426178,-0.9682206511497498,-1.5381574630737305
1790266837099865900,5.983865966796875,-0.5778780579566956,-1.0293071269989014,-1.5320488214492798
1790266837117118000,6.001117919921875,-0.6969966888427734,-0.5302306413650513,-1.3634501695632935
1790266837134370300,6.018370361328125,-0.7373138070106506,0,-1.1966841220855713
1790266837151622700,6.03562255859375,-0.5607738494873047,0.11484257876873016,-1.0903936624526978
1790266837168875000,6.052875,-0.37690356373786926,0.41416633129119873,-0.7935133576393127
1790266837186127000,6.070127197265625,-0.1893680840730667,0.6267472505569458,-0.40866854786872864
1790266837203379700,6.087379638671875,-0.1893680840730667,0.5955931544303894,-0.27488914132118225
1790266837220632000,6.104632080078125,-0.32681265473365784,0.44409868121147156,-0.1545487940311432
1790266837237884700,6.121884765625,-0.31581708788871765,0.3836230933666229,0.05192350596189499
1790266837255137300,6.13913720703125,-0.2003636509180069,0.39217519760131836,0.2626718580722809
1790266837272389600,6.1563896484375,-0.12705987691879272,0.35674503445625305,0.3787361681461334
1790266837289642200,6.173642333984375,-0.05253437161445618,0.40255987644195557,0.5393936038017273
1790266837306894600,6.19089453125,0.04520399495959282,0.45326167345046997,0.6914989352226257
1790266837324147200,6.208147216796875,0.1496618688106537,0.5589412450790405,0.8973603844642639
1790266837341399600,6.225399658203125,0.2932150959968567,0.6407971382141113,1.0360267162322998
1790266837358652200,6.242652099609375,0.3549124300479889,0.6866120100021362,1.0836740732192993
1790266837375904800,6.25990478515625,0.3695732057094574,0.6921098232269287,1.1050543785095215
1790266837393157000,6.2771572265625,0.38850998878479004,0.66645348072052,1.173471212387085
1790266837410409700,6.29440966796875,0.4172206521034241,0.6035344004631042,1.2437206506729126
1790266837427662000,6.311662109375,0.4575377106666565,0.5613847374916077,1.3164136409759521
1790266837444914700,6.328914794921875,0.4831940531730652,0.6438514590263367,1.4135410785675049
1790266837462167000,6.3461669921875,0.5045742988586426,0.6536253094673157,1.4929535388946533
1790266837479419600,6.363419677734375,0.4923570156097412,0.6505709886550903,1.5558725595474243
1790266837496671700,6.380671630859375,0.44837474822998047,0.6695078015327454,1.6242893934249878
1790266837513923800,6.397923828125,0.43432486057281494,0.7122683525085449,1.6713260412216187
1790266837531175700,6.41517578125,0.4379900395870209,0.6908880472183228,1.6853759288787842
1790266837548427500,6.432427490234375,0.4673115611076355,0.7012727856636047,1.72141695022583
1790266837565679400,6.449679443359375,0.5375609993934631,0.7238747477531433,1.7812817096710205
1790266837582931200,6.46693115234375,0.6420188546180725,0.6969966888427734,1.803883671760559
1790266837600183300,6.484183349609375,0.6878337264060974,0.62857985496521,1.7989968061447144
1790266837617436200,6.501436279296875,0.6914989352226257,0.5247328281402588,1.7043126821517944
1790266837634689300,6.518689208984375,0.7049379348754883,0.3494146466255188,1.5552617311477661
1790266837651942100,6.535942138671875,0.7635809779167175,0.10995566099882126,1.453247308731079
1790266837669195000,6.553195068359375,0.749531090259552,-0.11362084746360779,1.3640609979629517
1790266837686447900,6.57044775390625,0.6866120100021362,-0.2706131041049957,1.2626575231552124
1790266837703700700,6.58770068359375,0.6456840634346008,-0.3042106628417969,1.1514800786972046
1790266837720953000,6.604953125,0.6151408553123474,-0.13927717506885529,1.0512982606887817
1790266837738205700,6.622205810546875,0.6175842881202698,-0.039706211537122726,0.8949168920516968
1790266837755458000,6.6394580078125,0.6126973628997803,-0.0030543238390237093,0.8277217745780945
1790266837772710700,6.656710693359375,0.5681042671203613,-0.06352993845939636,0.7971785664558411
1790266837789963300,6.67396337890625,0.48502662777900696,-0.11423171311616898,0.7367029190063477
1790266837807215600,6.691215576171875,0.40927940607070923,-0.06841685622930527,0.5962040424346924
1790266837824468200,6.70846826171875,0.337808221578598,0.09285144507884979,0.3842339515686035
1790266837841720600,6.725720458984375,0.2571740746498108,0.21685700118541718,0.18631376326084137
1790266837858973200,6.74297314453125,0.20280711352825165,0.17287473380565643,0.08613193035125732
1790266837876225500,6.7602255859375,0.16249002516269684,0.08368847519159317,0.027488915249705315
1790266837893478100,6.77747802734375,0.11362084746360779,0.034208428114652634,-0.11667517572641373
1790266837910730500,6.79473046875,0.03237583488225937,0.04886918142437935,-0.3347539007663727
1790266837927982800,6.81198291015625,-0.059864748269319534,0.03909534588456154,-0.4990765154361725
1790266837945235000,6.82923486328125,-0.12095122784376144,-0.034208428114652634,-0.6310232877731323
1790266837962487300,6.8464873046875,-0.13011419773101807,-0.13622283935546875,-0.6829468011856079
1790266837979739600,6.86373974609375,-0.06414080411195755,-0.1899789422750473,-0.7275399565696716
1790266837996992000,6.880991943359375,0.023212861269712448,-0.0769689604640007,-0.8002328872680664
1790266838014244400,6.898244384765625,0.05070177838206291,0.04581485688686371,-0.8863648176193237
1790266838031497000,6.9154970703125,0.01954767294228077,0.06780599057674408,-0.9468404054641724
1790266838048749600,6.93274951171875,-0.043371398001909256,0.023212861269712448,-0.972496747970581
1790266838066002000,6.950001953125,-0.13622283935546875,0.003665188793092966,-0.9272927641868591
1790266838083254500,6.967254638671875,-0.18753549456596375,-0.008552107028663158,-0.8301652073860168
1790266838100507000,6.9845068359375,-0.21807873249053955,0.05803215503692627,-0.813060998916626
1790266838117759500,7.001759521484375,-0.3090975880622864,0.10995566099882126,-0.916297197341919
1790266838135011800,7.01901171875,-0.3903425931930542,-0.03176496922969818,-1.0439679622650146
1790266838152264400,7.036264404296875,-0.4105011224746704,-0.2883281707763672,-1.2333359718322754
1790266838169517000,7.05351708984375,-0.4056142270565033,-0.4886918365955353,-1.380554437637329
1790266838186769400,7.070769287109375,-0.3909534513950348,-0.5528326034545898,-1.3017528057098389
1790266838204021800,7.088021728515625,-0.35674503445625305,-0.5216785073280334,-1.2046253681182861
1790266838221274000,7.105274169921875,-0.35796675086021423,-0.5809323787689209,-1.2418880462646484
1790266838238526500,7.1225263671875,-0.4324922561645508,-0.6957749724388123,-1.2162318229675293
1790266838255778600,7.139778564453125,-0.47586366534233093,-0.8246674537658691,-1.1594213247299194
1790266838273031000,7.157031005859375,-0.4563159942626953,-1.0512982606887817,-1.2699878215789795
1790266838290283300,7.174283203125,-0.46059203147888184,-1.1826342344284058,-1.4391974210739136
1790266838307536000,7.191535888671875,-0.4838049113750458,-1.1209368705749512,-1.5375466346740723
1790266838324788200,7.208788330078125,-0.47952884435653687,-0.9602794051170349,-1.592524528503418
1790266838342040800,7.226040771484375,-0.44959646463394165,-0.7947350740432739,-1.5234967470169067
1790266838359293200,7.243293212890625,-0.4679224193096161,-0.7092140316963196,-1.320078730583191
1790266838376545800,7.2605458984375,-0.45937031507492065,-0.6310232877731323,-1.22234046459198
1790266838393798100,7.277798095703125,-0.4410443603992462,-0.5534434914588928,-1.3530654907226562
1790266838411050500,7.295050537109375,-0.481361448764801,-0.5106829404830933,-1.4520255327224731
1790266838428303000,7.31230322265625,-0.5540543794631958,-0.5326740741729736,-1.4196497201919556
1790266838445555700,7.3295556640625,-0.5485565662384033,-0.4361574649810791,-1.352454662322998
1790266838462808000,7.34680810546875,-0.48563748598098755,-0.34208428859710693,-1.2889246940612793
1790266838480060700,7.364060791015625,-0.4459312856197357,-0.3555232882499695,-1.2443315982818604
1790266838497313000,7.38131298828125,-0.36712974309921265,-0.41233372688293457,-1.4813470840454102
1790266838514565600,7.398565673828125,-0.5332849621772766,-0.7599157691001892,-1.2003493309020996
1790266838531818000,7.41581787109375,-0.4526508152484894,-0.4373791813850403,-0.943175196647644
1790266838549070600,7.433070556640625,-0.15760311484336853,0.19730933010578156,-0.7794634699821472
1790266838566323200,7.4503232421875,-0.017715077847242355,0.4557051360607147,-0.5137372612953186
1790266838583575600,7.467575439453125,0.014049889519810677,0.7947350740432739,-0.2620609998703003
1790266838600828000,7.484827880859375,-0.23884813487529755,0.8350521326065063,-0.22785256803035736
1790266838618080300,7.502080322265625,-0.4068359434604645,0.7391464114189148,-0.27000224590301514
1790266838635332600,7.51933251953125,-0.19425499439239502,0.5393936038017273,-0.017104214057326317
1790266838652585000,7.5365849609375,0.17348559200763702,0.19120067358016968,0.13500112295150757
1790266838669837000,7.553837158203125,0.28038692474365234,-0.14782927930355072,0.01954767294228077
1790266838687089400,7.57108935546875,0.2467893660068512,-0.20402882993221283,-0.031154103577136993
1790266838704342000,7.588342041015625,0.20647229254245758,-0.11056652665138245,0.1178968995809555
1790266838721594400,7.605594482421875,0.20280711352825165,0.13194678723812103,0.34636032581329346
1790266838738847000,7.622846923828125,0.25045454502105713,0.42394015192985535,0.5503891706466675
1790266838756099300,7.640099365234375,0.2467893660068512,0.5595521330833435,0.7440332770347595
1790266838773352000,7.65735205078125,0.22663083672523499,0.6352993845939636,0.9004147052764893
1790266838790604300,7.674604248046875,0.1893680840730667,0.6731730103492737,0.8680388331413269
1790266838807857000,7.69185693359375,0.18387030065059662,0.7806851863861084,1.007315993309021
1790266838825109500,7.709109619140625,0.2614501118659973,0.7440332770347595,1.1905754804611206
1790266838842361900,7.72636181640625,0.3610210716724396,0.6798924803733826,1.229670763015747
1790266838859614500,7.743614501953125,0.3384190797805786,0.6908880472183228,1.1753038167953491
1790266838876866800,7.76086669921875,0.2254091054201126,0.5106829404830933,1.2253947257995605
1790266838894119400,7.778119384765625,0.1539379209280014,0.39828383922576904,1.193018913269043
1790266838911371500,7.79537158203125,0.16187916696071625,0.47464191913604736,1.2315033674240112
1790266838928623900,7.812623779296875,0.2205221801996231,0.4990765154361725,1.3188570737838745
1790266838945876200,7.829876220703125,0.2412915825843811,0.45387253165245056,1.386052131652832
1790266838963128600,7.847128662109375,0.24556763470172882,0.3799578845500946,1.452636480331421
1790266838980380700,7.864380615234375,0.23884813487529755,0.3329212963581085,1.5051708221435547
1790266838997633300,7.88163330078125,0.2364046722650528,0.3549124300479889,1.5112794637680054
1790266839014885600,7.8988857421875,0.268169641494751,0.44348782300949097,1.5179989337921143
1790266839032138200,7.91613818359375,0.32009315490722656,0.4929678738117218,1.5045599937438965
1790266839049390600,7.933390625,0.3799578845500946,0.49052441120147705,1.5125012397766113
1790266839066643200,7.950643310546875,0.3995055556297302,0.5143481492996216,1.5008947849273682
1790266839083895800,7.967895751953125,0.370184063911438,0.536339282989502,1.4721840620040894
1790266839101148200,7.985148193359375,0.389120876789093,0.4874700903892517,1.425147533416748
1790266839118400800,8.00240087890625,0.4630354940891266,0.35124725103378296,1.3866630792617798
1790266839135653000,8.019653076171876,0.544891357421875,0.2571740746498108,1.362228512763977
1790266839152905700,8.03690576171875,0.5558869242668152,0.1747073233127594,1.2999202013015747
1790266839170158000,8.054157958984375,0.5369501113891602,0.08613193035125732,1.158199667930603
1790266839187410700,8.07141064453125,0.5259546041488647,0.026878049597144127,1.0873392820358276
1790266839204663000,8.0886630859375,0.4770853817462921,-0.023823726922273636,1.0873392820358276
1790266839221915400,8.105915283203124,0.4453204274177551,-0.14538581669330597,1.0067051649093628
1790266839239167500,8.12316748046875,0.4569268524646759,-0.2712239623069763,0.9205732345581055
1790266839256419800,8.140419921875,0.4312705397605896,-0.2559523284435272,0.8772017955780029
1790266839273672200,8.157672119140624,0.37140578031539917,-0.053756099194288254,0.8258891701698303
1790266839290924300,8.17492431640625,0.3225366175174713,0.014049889519810677,0.7348703145980835
1790266839308177000,8.192177001953125,0.30543237924575806,-0.050090912729501724,0.6200277805328369
1790266839325429200,8.20942919921875,0.2761108875274658,-0.11667517572641373,0.5015199780464172
1790266839342681900,8.226681884765625,0.21441353857517242,-0.0977383628487587,0.4312705397605896
1790266839359934200,8.243934326171875,0.16615521907806396,-0.1233946830034256,0.4312705397605896
1790266839377186800,8.261186767578126,0.12705987691879272,-0.1130099818110466,0.3946186602115631
1790266839394439200,8.278439208984375,0.0769689604640007,0.01588248461484909,0.31581708788871765
1790266839411691800,8.29569189453125,0.03176496922969818,0.07330377399921417,0.24556763470172882
1790266839428944400,8.3129443359375,0.021991131827235222,0.03481929376721382,0.22968515753746033
1790266839446196700,8.33019677734375,0.0256563201546669,0.09957095980644226,0.2315177470445633
1790266839463449300,8.347449462890625,-0.002443459117785096,0.09285144507884979,0.11423171311616898
1790266839480701700,8.36470166015625,-0.043982263654470444,-0.017715077847242355,-0.05497783049941063
1790266839497954300,8.381954345703125,-0.07269290834665298,-0.0030543238390237093,-0.2370155304670334
1790266839515206700,8.39920654296875,-0.07880155742168427,0.001221729558892548,-0.4050033390522003
1790266839532458800,8.416458740234376,-0.12095122784376144,0.01649334840476513,-0.526565432548523
1790266839549711000,8.433711181640625,-0.15027274191379547,0.09957095980644226,-0.5699368119239807
1790266839566963500,8.45096337890625,-0.0922405794262886,0.13439024984836578,-0.5057960152626038
1790266839584215800,8.4682158203125,-0.027488915249705315,0.33719736337661743,-0.45875945687294006
1790266839601468200,8.48546826171875,-0.010384701192378998,0.4740310609340668,-0.4783071279525757
1790266839618720500,8.502720458984374,-0.03298669680953026,0.4324922561645508,-0.4734202027320862
1790266839635973000,8.51997314453125,-0.07391463965177536,0.3249800503253937,-0.5106829404830933
1790266839653225500,8.5372255859375,-0.10629047453403473,0.18203771114349365,-0.5937605500221252
1790266839670478000,8.55447802734375,-0.09590577334165573,0.21441353857517242,-0.6786707639694214
1790266839687730700,8.571730712890625,-0.0665842592716217,0.41905322670936584,-0.7428115606307983
1790266839704983000,8.588983154296875,-0.08552107214927673,0.39217519760131836,-0.842382550239563
1790266839722235600,8.606235595703126,-0.17348559200763702,0.17898337543010712,-0.8405499458312988
1790266839739488000,8.623488037109375,-0.22296564280986786,0.011606430634856224,-0.7165443897247314
1790266839756740600,8.64074072265625,-0.20830489695072174,0.002443459117785096,-0.665842592716217
1790266839773993200,8.6579931640625,-0.21807873249053955,0.04276053607463837,-0.7257073521614075
1790266839791245600,8.67524560546875,-0.27427828311920166,0.020158538594841957,-0.8967494964599609
1790266839808498000,8.692497802734374,-0.318871408700943,-0.059864748269319534,-1.036637544631958
1790266839825750300,8.709750244140626,-0.31154105067253113,-0.24312418699264526,-0.9950987100601196
1790266839843002400,8.72700244140625,-0.2632827162742615,-0.4575377106666565,-0.7953459620475769
1790266839860254700,8.744254638671874,-0.21807873249053955,-0.5687150955200195,-0.5705476999282837
1790266839877507000,8.761507080078125,-0.21319180727005005,-0.6322450637817383,-0.5393936038017273
1790266839894759400,8.778759521484375,-0.25350889563560486,-0.6835576891899109,-0.6096430420875549
1790266839912011800,8.79601171875,-0.268169641494751,-0.6927206516265869,-0.7092140316963196
1790266839929264400,8.813264404296875,-0.2510654330253601,-0.6090322136878967,-0.8295543789863586
1790266839946517000,8.83051708984375,-0.26389357447624207,-0.500298261642456,-0.8924734592437744
1790266839963769300,8.847769287109376,-0.32192572951316833,-0.5283980369567871,-0.9169080257415771
1790266839981022000,8.86502197265625,-0.39278605580329895,-0.6078104376792908,-1.0048725605010986
1790266839998274300,8.8822744140625,-0.4373791813850403,-0.6371319890022278,-1.202792763710022
1790266840015526700,8.899526611328126,-0.4367683231830597,-0.5015199780464172,-1.3084723949432373
1790266840032778800,8.91677880859375,-0.3946186602115631,-0.430659681558609,-1.2382229566574097
1790266840050031000,8.934031005859374,-0.37690356373786926,-0.5186241865158081,-1.2327251434326172
1790266840067283500,8.951283447265626,-0.4043924808502197,-0.6218603253364563,-1.304807186126709
1790266840084535800,8.968535888671875,-0.38179048895835876,-0.6536253094673157,-1.2877029180526733
1790266840101788200,8.9857880859375,-0.2614501118659973,-0.7623592615127563,-1.2327251434326172
1790266840119040800,9.003040771484375,-0.1692095398902893,-0.8692606091499329,-1.2901464700698853
1790266840136293000,9.020293212890625,-0.15515965223312378,-0.7617483735084534,-1.433699607849121
1790266840153545700,9.037545654296874,-0.21807873249053955,-0.7037162184715271,-1.524107575416565
1790266840170798000,9.054798095703125,-0.33108872175216675,-0.7220421433448792,-1.5149446725845337
1790266840188050700,9.07205078125,-0.4324922561645508,-0.6560688018798828,-1.398269534111023
1790266840205303300,9.08930322265625,-0.42882707715034485,-0.4929678738117218,-1.3457350730895996
1790266840222555600,9.1065556640625,-0.337808221578598,-0.48930269479751587,-1.2528836727142334
1790266840239808300,9.123808349609375,-0.3225366175174713,-0.5510000586509705,-1.1801908016204834
1790266840257060600,9.141060546875,-0.337808221578598,-0.3585776388645172,-1.1759146451950073
1790266840274313200,9.158313232421875,-0.2767217457294464,-0.10323614627122879,-1.1001675128936768
1790266840291565600,9.175565673828125,-0.16004657745361328,0.001832594396546483,-0.9370665550231934
1790266840308818000,9.19281787109375,-0.08552107214927673,0.13072505593299866,-0.7666352987289429
1790266840326070300,9.2100703125,-0.05803215503692627,0.11056652665138245,-0.667064368724823
1790266840343322600,9.227322509765624,-0.029932374134659767,0.06597339361906052,-0.5821541547775269
1790266840360574700,9.24457470703125,-0.009162971749901772,0.007330377586185932,-0.49113526940345764
1790266840377827000,9.2618271484375,0.06780599057674408,0.16554436087608337,-0.34697118401527405
1790266840395079400,9.279079345703124,0.12522727251052856,0.35246896743774414,-0.19792018830776215
1790266840412332000,9.29633203125,0.07513637095689774,0.31642794609069824,0.004886918235570192
1790266840429584400,9.31358447265625,0.053756099194288254,0.35185810923576355,0.15821397304534912
1790266840446837000,9.3308369140625,0.06902772188186646,0.29443681240081787,0.27427828311920166
1790266840464089600,9.348089599609375,0.053145237267017365,0.15638138353824615,0.3897317349910736
1790266840481342000,9.365342041015625,0.0769689604640007,0.15271618962287903,0.5705476999282837
1790266840498594600,9.382594482421876,0.07941242307424545,0.205861434340477,0.6927206516265869
1790266840515847000,9.399846923828125,0.04886918142437935,0.3066541254520416,0.8387173414230347
1790266840533099500,9.417099609375,0.003665188793092966,0.4379900395870209,0.9498947262763977
1790266840550352000,9.434351806640626,0.0030543238390237093,0.593149721622467,1.01708984375
1790266840567604500,9.4516044921875,0.01893680728971958,0.6230821013450623,1.1435388326644897
1790266840584857000,9.468857177734375,0.06780599057674408,0.5540543794631958,1.2822052240371704
1790266840602109200,9.486109130859376,0.07757982611656189,0.648127555847168,1.304807186126709
1790266840619361500,9.503361572265625,0.06352993845939636,0.7079922556877136,1.3756674528121948
1790266840636614000,9.52061376953125,0.0818558782339096,0.6805033683776855,1.4355322122573853
1790266840653866200,9.5378662109375,0.11362084746360779,0.7666352987289429,1.4898991584777832
1790266840671118300,9.555118408203125,0.16554436087608337,0.8295543789863586,1.553429126739502
1790266840688370700,9.57237060546875,0.24556763470172882,0.748920202255249,1.6774346828460693
1790266840705623300,9.589623291015625,0.34147340059280396,0.5925388336181641,1.709810495376587
1790266840722876000,9.6068759765625,0.3970620930194855,0.6291907429695129,1.729358196258545
1790266840740128300,9.624128173828124,0.4202749729156494,0.5723803043365479,1.6756020784378052
1790266840757380900,9.641380859375,0.42943793535232544,0.5882627964019775,1.617569923400879
1790266840774633200,9.65863330078125,0.471587598323822,0.6493492722511292,1.6859867572784424
1790266840791885800,9.6758857421875,0.5583304166793823,0.6243038177490234,1.6633847951889038
1790266840809138000,9.693137939453125,0.6401863098144531,0.6487383842468262,1.6438370943069458
1790266840826390300,9.710390380859375,0.6829468011856079,0.6145299673080444,1.6224569082260132
1790266840843642600,9.727642578125,0.6774490475654602,0.6078104376792908,1.5662572383880615
1790266840860895000,9.74489501953125,0.6627882719039917,0.6884446144104004,1.5583161115646362
1790266840878147000,9.76214697265625,0.657290518283844,0.721431314945221,1.5045599937438965
1790266840895399700,9.779399658203126,0.638353705406189,0.5821541547775269,1.3842196464538574
1790266840912652000,9.796652099609375,0.6395754218101501,0.45020735263824463,1.2620465755462646
1790266840929904600,9.813904541015624,0.6621774435043335,0.4050033390522003,1.1239912509918213
1790266840947157000,9.831156982421875,0.6682860851287842,0.33108872175216675,1.0329723358154297
1790266840964409600,9.84840966796875,0.6914989352226257,0.2052505612373352,0.9505056142807007
1790266840981662200,9.865662109375,0.6945532560348511,0.056199558079242706,0.8772017955780029
1790266840998914300,9.882914306640625,0.6450732350349426,-0.036651886999607086,0.8368847370147705
1790266841016166100,9.900166259765625,0.6059778332710266,-0.07147117704153061,0.6945532560348511
1790266841033419300,9.917419189453126,0.5919279456138611,-0.007330377586185932,0.5772672295570374
1790266841050672000,9.934672119140625,0.5986474752426147,0.008552107028663158,0.5198459029197693
1790266841067924500,9.951924560546875,0.5870410799980164,-0.18203771114349365,0.4202749729156494
1790266841085177000,9.969177001953126,0.5149590373039246,-0.379347026348114,0.4013381600379944
1790266841102429400,9.986429443359375,0.41294458508491516,-0.3439168632030487,0.3549124300479889
1790266841119681800,10.003681884765625,0.31642794609069824,-0.13988803327083588,0.23457208275794983
1790266841136934400,10.020934326171876,0.2364046722650528,0.08491020649671555,0.17592905461788177
1790266841154186800,10.038186767578125,0.2009745091199875,0.185092031955719,0.20647229254245758
1790266841171439000,10.055439208984374,0.19792018830776215,0.06108647957444191,0.19425499439239502
1790266841188691500,10.07269140625,0.2101374864578247,0.033597562462091446,0.08979712426662445
1790266841205944000,10.089944091796875,0.17104214429855347,0.10995566099882126,-0.043371398001909256
1790266841223196400,10.107196533203124,0.08002328872680664,0.030543239787220955,-0.17898337543010712
1790266841240448800,10.12444873046875,-0.004276053514331579,-0.17043127119541168,-0.3176496922969818
1790266841257701000,10.141701171875,-0.06291907280683517,-0.22663083672523499,-0.4147771894931793
1790266841274953500,10.158953369140624,-0.09040798991918564,-0.1698204129934311,-0.4770853817462921
1790266841292206000,10.1762060546875,-0.09590577334165573,-0.16554436087608337,-0.5106829404830933
1790266841309458400,10.19345849609375,-0.06719512492418289,-0.1380554437637329,-0.5210676789283752
1790266841326710800,10.210710693359376,-0.028099779039621353,-0.014049889519810677,-0.5351175665855408
1790266841343963100,10.227963134765625,-0.05253437161445618,0.15577052533626556,-0.4984656572341919
1790266841361215700,10.2452158203125,-0.14172062277793884,0.2968802750110626,-0.39889469742774963
1790266841378468000,10.262468017578126,-0.25411975383758545,0.3488037884235382,-0.36712974309921265
1790266841395720400,10.279720458984375,-0.3182605504989624,0.36224281787872314,-0.42332929372787476
1790266841412973000,10.29697314453125,-0.2864955961704254,0.3274235129356384,-0.516791582107544
1790266841430225400,10.314225341796876,-0.25045454502105713,0.19242240488529205,-0.6450732350349426
1790266841447477800,10.331477783203125,-0.2981020212173462,0.06291907280683517,-0.7147117853164673
1790266841464730000,10.348730224609374,-0.401949018239975,0.1081230640411377,-0.7415898442268372
1790266841481982500,10.365982421875,-0.4477638900279999,0.20463970303535461,-0.721431314945221
1790266841499235000,10.383235107421875,-0.4361574649810791,0.08124501258134842,-0.6627882719039917
1790266841516487400,10.4004873046875,-0.4520399272441864,-0.06230820715427399,-0.6786707639694214
1790266841533739800,10.41773974609375,-0.500298261642456,-0.20341797173023224,-0.721431314945221
1790266841550992100,10.4349921875,-0.4825831651687622,-0.347582072019577,-0.7122683525085449
1790266841568244500,10.452244384765624,-0.4196641147136688,-0.462424635887146,-0.7660244107246399
1790266841585497000,10.4694970703125,-0.4043924808502197,-0.5626064538955688,-0.9792162179946899
1790266841602749400,10.48674951171875,-0.45387253165245056,-0.6627882719039917,-1.2260055541992188
1790266841620001800,10.504001708984376,-0.46975502371788025,-0.5949822664260864,-1.237612009048462
1790266841637254400,10.52125439453125,-0.4404335021972656,-0.3744601011276245,-1.1783581972122192
1790266841654506800,10.5385068359375,-0.42882707715034485,-0.25045454502105713,-1.1533126831054688
1790266841671759000,10.555759033203126,-0.4373791813850403,-0.31581708788871765,-1.1606431007385254
1790266841689011500,10.573011474609375,-0.4251618981361389,-0.40927940607070923,-1.230892539024353
1790266841706264000,10.59026416015625,-0.38179048895835876,-0.4831940531730652,-1.2638791799545288
1790266841723516400,10.607516357421876,-0.3341430425643921,-0.48930269479751587,-1.3616175651550293
1790266841740768800,10.624768798828125,-0.33231043815612793,-0.5021308660507202,-1.4813470840454102
1790266841758021000,10.642021240234374,-0.3597993552684784,-0.6462949514389038,-1.4617993831634521
1790266841775273500,10.6592734375,-0.3280344009399414,-0.8045089244842529,-1.3310743570327759
1790266841792526000,10.676526123046875,-0.22785256803035736,-0.7446441650390625,-1.2528836727142334
1790266841809778400,10.6937783203125,-0.15760311484336853,-0.6872228980064392,-1.3781108856201172
1790266841827030800,10.71103076171875,-0.16310089826583862,-0.6963858604431152,-1.5723659992218018
1790266841844283100,10.728283203125,-0.21258094906806946,-0.656679630279541,-1.5772528648376465
1790266841861535700,10.74553564453125,-0.25534147024154663,-0.6114756464958191,-1.5094468593597412
1790266841878788000,10.7627880859375,-0.328645259141922,-0.7061597108840942,-1.480736255645752
1790266841896040400,10.78004052734375,-0.41233372688293457,-0.8216131329536438,-1.5234967470169067
1790266841913293000,10.79729296875,-0.4056142270565033,-0.6921098232269287,-1.525329351425171
1790266841930545400,10.81454541015625,-0.33231043815612793,-0.6084213256835938,-1.454469084739685
1790266841947797800,10.8317978515625,-0.3237583339214325,-0.5021308660507202,-1.3732240200042725
1790266841965050000,10.849050048828126,-0.41233372688293457,-0.32131487131118774,-1.3041963577270508
1790266841982302500,10.866302490234375,-0.5277871489524841,-0.13988803327083588,-1.1777472496032715
1790266841999555000,10.88355517578125,-0.48991355299949646,-0.11178825795650482,-0.9621120095252991
1790266842016807400,10.900807373046876,-0.39889469742774963,-0.10506874322891235,-0.8032872080802917
1790266842034059800,10.918059814453125,-0.32620179653167725,-0.05070177838206291,-0.7336485981941223
1790266842051312000,10.93531201171875,-0.2632827162742615,0.11423171311616898,-0.6750055551528931
1790266842068564500,10.952564453125,-0.19303326308727264,0.24923282861709595,-0.5338957905769348
1790266842085817000,10.969817138671875,-0.13072505593299866,0.2864955961704254,-0.38789913058280945
1790266842103069400,10.9870693359375,-0.08796452730894089,0.29993459582328796,-0.19364413619041443
1790266842120321800,11.00432177734375,-0.018325943499803543,0.36163195967674255,-0.09468404203653336
1790266842137574100,11.02157421875,0.027488915249705315,0.2632827162742615,0.04886918142437935
1790266842154826800,11.03882666015625,0.040317077189683914,0.2822195291519165,0.25900667905807495
1790266842172079000,11.0560791015625,0.06597339361906052,0.25473061203956604,0.48930269479751587
1790266842189331500,11.07333154296875,0.13500112295150757,0.24434591829776764,0.6823359727859497
1790266842206583800,11.090583740234376,0.2003636509180069,0.4098902642726898,0.7788525819778442
1790266842223836200,11.107836181640625,0.16187916696071625,0.2528980076313019,0.8808670043945312
1790266842241088800,11.1250888671875,0.07941242307424545,0.2370155304670334,0.9388991594314575
1790266842258341000,11.142341064453126,0.06841685622930527,0.3194822669029236,1.0769546031951904
1790266842275593500,11.159593505859375,0.1337793916463852,0.44959646463394165,1.1911863088607788
1790266842292846000,11.17684619140625,0.1997527778148651,0.6786707639694214,1.3249657154083252
1790266842310098400,11.194098388671875,0.22846342623233795,0.7550288438796997,1.386052131652832
1790266842327350800,11.211350830078125,0.18875721096992493,0.7104357481002808,1.444695234298706
1790266842344603100,11.22860302734375,0.15149445831775665,0.6780598759651184,1.51616632938385
1790266842361855500,11.24585546875,0.1637117564678192,0.7024945020675659,1.5210533142089844
1790266842379107800,11.26310791015625,0.2205221801996231,0.7776308655738831,1.5479313135147095
1790266842396360400,11.2803603515625,0.34636032581329346,0.8210022449493408,1.581528902053833
1790266842413612800,11.29761279296875,0.4728093445301056,0.8527672290802002,1.64872407913208
1790266842430865200,11.314865234375,0.5491674542427063,0.9065233469009399,1.6407828330993652
1790266842448117500,11.332117431640626,0.5094612240791321,0.9370665550231934,1.5790854692459106
1790266842465370000,11.3493701171875,0.39278605580329895,0.8741474747657776,1.5552617311477661
1790266842482622500,11.36662255859375,0.3597993552684784,0.6976075768470764,1.571755051612854
1790266842499874800,11.383874755859376,0.44959646463394165,0.5070177912712097,1.5332705974578857
1790266842517127200,11.401127197265625,0.5998691916465759,0.481361448764801,1.5314379930496216
1790266842534379500,11.418379638671874,0.7324268817901611,0.4618137776851654,1.545487880706787
1790266842551632100,11.435632080078125,0.7874047160148621,0.40744680166244507,1.5674790143966675
1790266842568884500,11.452884521484375,0.7550288438796997,0.4612029194831848,1.6310089826583862
1790266842586136800,11.47013671875,0.7379246354103088,0.4868592321872711,1.5528182983398438
1790266842603389200,11.48738916015625,0.7849612236022949,0.4459312856197357,1.3854413032531738
1790266842620641800,11.504641845703125,0.7965676784515381,0.360410213470459,1.249218463897705
1790266842637894100,11.52189404296875,0.7544180154800415,0.13561198115348816,1.0769546031951904
1790266842655146500,11.539146484375,0.7079922556877136,-0.11911863088607788,1.0396918058395386
1790266842672398800,11.55639892578125,0.7122683525085449,-0.29138249158859253,0.9700532555580139
1790266842689651200,11.573651123046876,0.7153226733207703,-0.14538581669330597,0.8680388331413269
1790266842706903600,11.590903564453125,0.7195987105369568,0.08552107214927673,0.7531962990760803
1790266842724156200,11.60815625,0.7049379348754883,0.08307760953903198,0.6609556674957275
1790266842741408500,11.625408447265626,0.627968966960907,-0.05558869615197182,0.6157516837120056
1790266842758660900,11.642660888671875,0.49480047821998596,-0.25473061203956604,0.6041452884674072
1790266842775913500,11.65991357421875,0.3543015718460083,-0.2467893660068512,0.5894845128059387
1790266842793165800,11.677165771484376,0.2516762912273407,-0.053756099194288254,0.46486809849739075
1790266842810418200,11.694418212890625,0.1594357043504715,0.020158538594841957,0.337808221578598
1790266842827670500,11.71167041015625,0.08429934084415436,0.04276053607463837,0.2315177470445633
1790266842844923000,11.7289228515625,0.0513126403093338,0.04886918142437935,0.17898337543010712
1790266842862175200,11.74617529296875,0.053145237267017365,-0.04764745384454727,0.17531819641590118
1790266842879427800,11.763427734375,0.07819069176912308,-0.05925388261675835,0.21746785938739777
1790266842896680200,11.78068017578125,0.13500112295150757,0.03298669680953026,0.15088360011577606
1790266842913932500,11.7979326171875,0.1282816082239151,0.03909534588456154,-0.056199558079242706
1790266842931185000,11.815184814453126,0.043982263654470444,-0.06841685622930527,-0.268169641494751
1790266842948437200,11.832437255859375,-0.04764745384454727,-0.2003636509180069,-0.45020735263824463
1790266842965689900,11.84968994140625,-0.12217295914888382,-0.16187916696071625,-0.554665207862854
1790266842982942200,11.866942138671876,-0.16065743565559387,-0.0769689604640007,-0.5803215503692627
1790266843000194600,11.884194580078125,-0.15515965223312378,0.08491020649671555,-0.5112938284873962
1790266843017447000,11.901447021484374,-0.15699224174022675,0.36224281787872314,-0.3958403766155243
1790266843034699500,11.918699462890626,-0.20158538222312927,0.667064368724823,-0.27916520833969116
1790266843051951900,11.935951904296875,-0.3194822669029236,0.8069523572921753,-0.18753549456596375
1790266843069204200,11.953204345703124,-0.4978547990322113,0.8161153197288513,-0.12767073512077332
1790266843086456600,11.97045654296875,-0.6267472505569458,0.7342594861984253,-0.12095122784376144
1790266843103709000,11.987708984375,-0.5900954008102417,0.4569268524646759,-0.20891575515270233
1790266843120961300,12.004961181640626,-0.4618137776851654,0.02871064469218254,-0.3597993552684784
1790266843138214000,12.0222138671875,-0.370184063911438,-0.3500255048274994,-0.5784889459609985
1790266843155466200,12.03946630859375,-0.4422661066055298,-0.5302306413650513,-0.7177661061286926
1790266843172718600,12.056718505859376,-0.5027416944503784,-0.29138249158859253,-0.695164144039154
1790266843189971000,12.073970947265625,-0.3744601011276245,0.03909534588456154,-0.574212908744812
1790266843207223600,12.0912236328125,-0.21502439677715302,0.06780599057674408,-0.6090322136878967
1790266843224476000,12.108475830078126,-0.2205221801996231,-0.08002328872680664,-0.8265000581741333
1790266843241728300,12.125728271484375,-0.40378162264823914,-0.05925388261675835,-1.094058871269226
1790266843258980600,12.142980712890624,-0.5271763205528259,-0.11484257876873016,-1.0983349084854126
1790266843276233000,12.16023291015625,-0.4422661066055298,-0.3433060050010681,-0.9816597104072571
1790266843293485300,12.1774853515625,-0.36774060130119324,-0.4428769648075104,-1.2046253681182861
1790266843310738000,12.194738037109374,-0.4862483739852905,-0.4612029194831848,-1.4624103307724
1790266843327990300,12.211990234375,-0.5485565662384033,-0.6059778332710266,-1.36772620677948
1790266843345242600,12.22924267578125,-0.43860089778900146,-0.720820426940918,-1.2620465755462646
1790266843362495000,12.246494873046874,-0.3610210716724396,-0.6554579138755798,-1.3127484321594238
1790266843379747300,12.263747314453125,-0.3530798554420471,-0.7275399565696716,-1.5118902921676636
1790266843397000000,12.281,-0.23335035145282745,-0.7666352987289429,-1.451414704322815
1790266843414252300,12.298252197265626,-0.1893680840730667,-0.9767727851867676,-1.406821608543396
1790266843431504600,12.315504638671875,-0.19120067358016968,-0.870482325553894,-1.3585633039474487
1790266843448757000,12.332757080078125,-0.27855435013771057,-0.7183769941329956,-1.5125012397766113
1790266843466009600,12.350009521484376,-0.42882707715034485,-0.6438514590263367,-1.6988149881362915
1790266843483262000,12.367261962890625,-0.4453204274177551,-0.8631519079208374,-1.3597849607467651
1790266843500514300,12.384514404296874,-0.39767298102378845,-1.007315993309021,-1.323133111000061
1790266843517766700,12.4017666015625,-0.3750709891319275,-0.9114102721214294,-1.6536109447479248
1790266843535019000,12.41901904296875,-0.3640754222869873,-0.8014546036720276,-1.7806708812713623
1790266843552271400,12.436271240234374,-0.31093016266822815,-0.8393282294273376,-1.459966778755188
1790266843569524000,12.45352392578125,-0.2675587832927704,-1.1838558912277222,-1.3084723949432373
1790266843586776300,12.4707763671875,-0.2675587832927704,-0.9694424271583557,-1.5247185230255127
1790266843604028700,12.488028564453124,-0.3023780584335327,-0.4838049113750458,-1.528383731842041
1790266843621281000,12.505281005859375,-0.3530798554420471,-0.4312705397605896,-1.2260055541992188
1790266843638533400,12.522533447265625,-0.4050033390522003,-0.4819723069667816,-1.120326042175293
1790266843655785700,12.53978564453125,-0.42943793535232544,-0.19303326308727264,-1.1820234060287476
1790266843673038300,12.557038330078125,-0.3176496922969818,0.013439024798572063,-1.0763437747955322
1790266843690290700,12.574290771484375,-0.20219624042510986,0.0030543238390237093,-0.822834849357605
1790266843707543000,12.59154296875,-0.12217295914888382,0.19364413619041443,-0.7134900689125061
1790266843724795400,12.60879541015625,-0.16187916696071625,0.15027274191379547,-0.5192350745201111
1790266843742047700,12.6260478515625,-0.2724456787109375,-0.25961753726005554,-0.37812530994415283
1790266843759300400,12.64330029296875,-0.3237583339214325,0.06719512492418289,-0.4428769648075104
1790266843776552700,12.660552734375,-0.3139844834804535,0.09346231073141098,-0.4612029194831848
1790266843793805000,12.67780517578125,-0.31031930446624756,0.026878049597144127,-0.1905898153781891
1790266843811057400,12.695057373046875,-0.16310089826583862,0.07880155742168427,0.13439024984836578
1790266843828310000,12.71231005859375,-0.09407317638397217,0.006719512399286032,0.35185810923576355
1790266843845562400,12.729562255859374,-0.1795942485332489,0.2315177470445633,0.43004879355430603
1790266843862814700,12.746814697265625,-0.09712749719619751,0.3860665261745453,0.6389645338058472
1790266843880067000,12.764067138671875,0.04581485688686371,0.4043924808502197,0.7342594861984253
1790266843897319400,12.7813193359375,0.0513126403093338,0.5204567909240723,0.7971785664558411
1790266843914571800,12.79857177734375,0.009773836471140385,0.6273581385612488,0.9010255336761475
1790266843931824400,12.815824462890625,0.009773836471140385,0.6444623470306396,1.063515543937683
1790266843949076700,12.83307666015625,0.08674279600381851,0.6456840634346008,1.219896912574768
1790266843966329000,12.8503291015625,0.1533270627260208,0.675616443157196,1.3445134162902832
1790266843983581400,12.86758154296875,0.19730933010578156,0.8167262077331543,1.4660754203796387
1790266844000833800,12.884833740234376,0.24312418699264526,0.7910698652267456,1.5961896181106567
1790266844018086100,12.902086181640625,0.31031930446624756,0.6652317643165588,1.731190800666809
1790266844035338800,12.9193388671875,0.3292561173439026,0.6444623470306396,1.811824917793274
1790266844052591000,12.936591064453125,0.24923282861709595,0.5815432667732239,1.8631376028060913
1790266844069843500,12.953843505859375,0.21380266547203064,0.6432406306266785,1.8826853036880493
1790266844087095800,12.971095703125,0.30543237924575806,0.9065233469009399,1.8661918640136719
1790266844104348200,12.98834814453125,0.47036588191986084,1.1154390573501587,1.8912373781204224
1790266844121600800,13.005600830078125,0.6328558921813965,1.0989457368850708,1.8747440576553345
1790266844138853000,13.02285302734375,0.7464767694473267,1.043357014656067,1.8820743560791016
1790266844156105500,13.04010546875,0.8008437156677246,0.9211840629577637,1.907119870185852
1790266844173357800,13.05735791015625,0.8161153197288513,0.8271108865737915,1.8649702072143555
1790266844190610200,13.074610107421876,0.8271108865737915,0.8796452879905701,1.7079778909683228
1790266844207862500,13.091862548828125,0.8655954003334045,0.9908226728439331,1.5760310888290405
1790266844225115100,13.109115234375,0.9486730098724365,1.036637544631958,1.5656464099884033
1790266844242367500,13.126367431640626,1.0622938871383667,0.9450078010559082,1.5399900674819946
1790266844259619800,13.143619873046875,1.212566614151001,0.6902772188186646,1.5332705974578857
1790266844276872200,13.1608720703125,1.2993093729019165,0.3017672002315521,1.489288330078125
1790266844294124500,13.17812451171875,1.380554437637329,0.021380268037319183,1.3933825492858887
1790266844311377000,13.195376953125,1.4538581371307373,0.05253437161445618,1.331685185432434
1790266844328629500,13.21262939453125,1.469740629196167,0.2052505612373352,1.2541054487228394
1790266844345881900,13.2298818359375,1.4110976457595825,0.21441353857517242,1.174692988395691
1790266844363134000,13.247134033203125,1.3799434900283813,0.18875721096992493,1.1013891696929932
1790266844380386300,13.26438623046875,1.3695588111877441,0.13927717506885529,1.0720677375793457
1790266844397638700,13.281638671875,1.26021409034729,0.02871064469218254,1.0519092082977295
1790266844414891000,13.29889111328125,0.9694424271583557,-0.04825831577181816,0.9669989347457886
1790266844432143400,13.316143310546876,0.6695078015327454,-0.13194678723812103,0.7037162184715271
1790266844449395700,13.333395751953125,0.4618137776851654,-0.34147340059280396,0.4410443603992462
1790266844466648300,13.3506484375,0.2009745091199875,-0.574212908744812,0.2626718580722809
1790266844483900700,13.367900634765626,-0.0409279391169548,-0.4269944727420807,0.164322629570961
1790266844501153300,13.3851533203125,-0.13439024984836578,-0.35674503445625305,-0.02871064469218254
1790266844518405600,13.402405517578124,-0.17348559200763702,-0.370184063911438,-0.20280711352825165
1790266844535658200,13.419658203125,-0.15271618962287903,-0.3787361681461334,-0.2724456787109375
1790266844552910600,13.43691064453125,-0.07086031138896942,-0.34086254239082336,-0.39889469742774963
1790266844570162700,13.45416259765625,-0.002443459117785096,-0.10873392969369888,-0.4612029194831848
1790266844587415000,13.4714150390625,-0.053145237267017365,-0.12767073512077332,-0.5870410799980164
1790266844604667400,13.48866748046875,-0.10384701192378998,-0.35185810923576355,-0.7379246354103088
1790266844621919700,13.505919677734376,-0.19181154668331146,-0.5723803043365479,-0.842382550239563
1790266844639172000,13.523172119140625,-0.2565632164478302,-0.6346884965896606,-0.8643736839294434
1790266844656424400,13.540424560546874,-0.28466299176216125,-0.4520399272441864,-0.8851430416107178
1790266844673677000,13.557677001953126,-0.2864955961704254,-0.1386663019657135,-0.9321796298027039
1790266844690929400,13.574929443359375,-0.27977606654167175,0.04459312930703163,-0.9279035925865173
1790266844708182000,13.59218212890625,-0.2816086709499359,0.02871064469218254,-0.8851430416107178
1790266844725434600,13.6094345703125,-0.38301220536231995,0.0256563201546669,-0.7629700899124146
1790266844742687000,13.62668701171875,-0.5094612240791321,0.08796452730894089,-0.5784889459609985
1790266844759939000,13.64393896484375,-0.5858193039894104,0.16065743565559387,-0.3909534513950348
1790266844777191400,13.66119140625,-0.5870410799980164,0.18081597983837128,-0.328645259141922
1790266844794443800,13.67844384765625,-0.5662716627120972,0.19669845700263977,-0.370184063911438
1790266844811696000,13.695696044921876,-0.593149721622467,0.19853104650974274,-0.39217519760131836
1790266844828948500,13.712948486328125,-0.6407971382141113,0.07024945318698883,-0.36163195967674255
1790266844846200800,13.730200927734375,-0.7104357481002808,-0.12767073512077332,-0.36712974309921265
1790266844863453200,13.747453125,-0.8307760953903198,-0.16004657745361328,-0.5192350745201111
1790266844880705800,13.764705810546875,-0.9749401807785034,-0.10995566099882126,-0.7422007322311401
1790266844897958400,13.78195849609375,-0.9737184643745422,-0.12767073512077332,-0.7757982611656189
1790266844915210800,13.799210693359376,-0.7806851863861084,-0.19669845700263977,-0.7348703145980835
1790266844932463400,13.81646337890625,-0.5955931544303894,-0.18753549456596375,-0.7977893948554993
1790266844949715700,13.8337158203125,-0.5821541547775269,-0.2107483446598053,-0.9077450633049011
1790266844966967800,13.8509677734375,-0.6603448390960693,-0.2516762912273407,-1.0855066776275635
1790266844984220200,13.86822021484375,-0.7153226733207703,-0.22785256803035736,-1.2638791799545288
1790266845001472500,13.885472412109374,-0.6682860851287842,-0.20280711352825165,-1.3322961330413818
1790266845018724900,13.902724853515625,-0.5345066785812378,-0.25045454502105713,-1.2345577478408813
1790266845035977000,13.91997705078125,-0.4214966893196106,-0.3543015718460083,-1.1264346837997437
1790266845053229300,13.937229248046876,-0.3958403766155243,-0.3995055556297302,-1.1337649822235107
1790266845070481700,13.954481689453125,-0.3756818473339081,-0.5210676789283752,-1.239444613456726
1790266845087734000,13.971734130859375,-0.36163195967674255,-0.7898481488227844,-1.4477494955062866
1790266845104986000,13.988986083984376,-0.3494146466255188,-1.0012073516845703,-1.5772528648376465
1790266845122238500,14.006238525390625,-0.3078758418560028,-1.082452416419983,-1.5693116188049316
1790266845139490800,14.02349072265625,-0.26389357447624207,-1.1936297416687012,-1.4782928228378296
1790266845156743400,14.040743408203125,-0.26878049969673157,-1.1490366458892822,-1.5583161115646362
1790266845173996000,14.05799609375,-0.2712239623069763,-0.9407317638397217,-1.7104213237762451
1790266845191248400,14.075248291015624,-0.2706131041049957,-0.8539889454841614,-1.8729114532470703
1790266845208501000,14.0925009765625,-0.3329212963581085,-0.8949168920516968,-1.96148681640625
1790266845225753300,14.10975341796875,-0.4770853817462921,-0.6487383842468262,-1.785557746887207
1790266845243005700,14.127005615234374,-0.564439058303833,-0.33231043815612793,-1.6780455112457275
1790266845260258000,14.144258056640625,-0.5919279456138611,-0.4410443603992462,-1.5766420364379883
1790266845277510400,14.161510498046875,-0.573602020740509,-0.23945899307727814,-1.5008947849273682
1790266845294762500,14.178762451171876,-0.574212908744812,0.17653992772102356,-1.4844014644622803
1790266845312014800,14.196014892578125,-0.5968148708343506,0.2461785078048706,-1.2663227319717407
1790266845329267200,14.21326708984375,-0.657290518283844,0.08063415437936783,-1.0574069023132324
1790266845346519800,14.230519775390626,-0.6444623470306396,-0.026878049597144127,-0.8735366463661194
1790266845363772200,14.247772216796875,-0.49602219462394714,-0.004276053514331579,-0.6841685771942139
1790266845381024800,14.265024658203124,-0.328645259141922,0.009773836471140385,-0.5766563415527344
1790266845398277000,14.282277099609376,-0.18387030065059662,0.12400554865598679,-0.48563748598098755
1790266845415529700,14.29952978515625,-0.10140355676412582,0.22968515753746033,-0.35735589265823364
1790266845432782000,14.316781982421874,-0.03848448023200035,0.3597993552684784,-0.21991132199764252
1790266845450034400,14.334034423828125,-0.02260199747979641,0.2565632164478302,-0.049480047076940536
1790266845467286800,14.351286865234375,-0.013439024798572063,0.27916520833969116,0.12461641430854797
1790266845484539100,14.3685390625,0.010995565913617611,0.20891575515270233,0.19364413619041443
1790266845501791200,14.385791259765625,0.003665188793092966,0.19425499439239502,0.3995055556297302
1790266845519043600,14.403043701171875,0.0360410213470459,0.49052441120147705,0.5937605500221252
1790266845536296000,14.4202958984375,0.08491020649671555,0.6823359727859497,0.7440332770347595
1790266845553548500,14.437548583984375,0.1380554437637329,0.7672461867332458,0.9126319885253906
1790266845570801000,14.45480078125,0.23518294095993042,0.7464767694473267,1.064737319946289
1790266845588053500,14.472053466796876,0.2816086709499359,0.7330377101898193,1.164919137954712
1790266845605306000,14.48930615234375,0.3396408259868622,0.6817250847816467,1.1985167264938354
1790266845622558500,14.506558349609374,0.4269944727420807,0.7354812026023865,1.2632683515548706
1790266845639810800,14.523810791015626,0.4831940531730652,0.7739656567573547,1.3976585865020752
1790266845657063200,14.541063232421875,0.4740310609340668,0.6322450637817383,1.5039490461349487
1790266845674315500,14.5583154296875,0.4471530318260193,0.564439058303833,1.5699224472045898
1790266845691567600,14.575567626953125,0.4361574649810791,0.6133082509040833,1.5968005657196045
1790266845708820000,14.592820068359375,0.46975502371788025,0.6579013466835022,1.6633847951889038
1790266845726072300,14.610072265625,0.5088503360748291,0.5797106623649597,1.703091025352478
1790266845743325000,14.627324951171875,0.5076286196708679,0.6139190793037415,1.6530001163482666
1790266845760577300,14.644577392578125,0.48563748598098755,0.8582650423049927,1.544877052307129
1790266845777830000,14.661829833984376,0.5210676789283752,0.9926552772521973,1.5296053886413574
1790266845795082200,14.679082275390625,0.618806004524231,0.8875865340232849,1.57297682762146
1790266845812334800,14.6963349609375,0.7086031436920166,0.8210022449493408,1.6200133562088013
1790266845829587200,14.713587158203126,0.7800742983818054,0.8875865340232849,1.5668681859970093
1790266845846839600,14.730839599609375,0.8564324378967285,0.9865466356277466,1.5491530895233154
1790266845864092000,14.748091796875,0.9492838382720947,0.9095776677131653,1.6120721101760864
1790266845881344300,14.76534423828125,0.9975422024726868,0.7202095985412598,1.646891474723816
1790266845898596400,14.782596435546875,0.998153030872345,0.6462949514389038,1.6224569082260132
1790266845915848700,14.7998486328125,1.0079269409179688,0.6627882719039917,1.4434734582901
1790266845933101000,14.81710107421875,1.073289394378662,0.26022839546203613,1.3170244693756104
1790266845950353700,14.834353759765625,1.2137882709503174,-0.07086031138896942,1.2986985445022583
1790266845967606000,14.85160595703125,1.1716386079788208,-0.2156352698802948,1.26021409034729
1790266845984858600,14.868858642578125,1.008537769317627,-0.41844236850738525,1.1661409139633179
1790266846002111200,14.886111328125,0.9327905178070068,-0.4013381600379944,1.025641918182373
1790266846019363600,14.903363525390626,0.9303470849990845,-0.1533270627260208,0.9230166673660278
1790266846036616000,14.920615966796875,0.8625410795211792,-0.05742128938436508,0.8387173414230347
1790266846053868300,14.937868408203125,0.7244856357574463,-0.14660754799842834,0.7635809779167175
1790266846071120600,14.95512060546875,0.5900954008102417,-0.1997527778148651,0.6267472505569458
1790266846088372700,14.972372802734375,0.45326167345046997,-0.19914191961288452,0.49602219462394714
1790266846105625000,14.989625,0.3756818473339081,-0.1539379209280014,0.3170388340950012
1790266846122877400,15.00687744140625,0.37323838472366333,-0.028099779039621353,0.08307760953903198
1790266846140129800,15.0241298828125,0.40805765986442566,0.11728604137897491,0.000610864779446274
1790266846157382400,15.04138232421875,0.39889469742774963,0.25473061203956604,-0.06841685622930527
1790266846174635000,15.058635009765625,0.29565855860710144,0.2522871494293213,-0.08307760953903198
1790266846191887400,15.075887451171875,0.1747073233127594,-0.18264856934547424,-0.14721840620040894
1790266846209140000,15.093139892578124,0.10567960888147354,-0.4465421438217163,-0.14721840620040894
1790266846226392300,15.110392333984375,0.1747073233127594,-0.31581708788871765,-0.14049890637397766
1790266846243644400,15.12764453125,0.2052505612373352,-0.13072505593299866,-0.25350889563560486
1790266846260896800,15.144896728515626,0.17165300250053406,0.013439024798572063,-0.360410213470459
1790266846278149000,15.162149169921875,0.1185077652335167,-0.09040798991918564,-0.4147771894931793
1790266846295401500,15.1794013671875,0.04214967042207718,-0.1185077652335167,-0.4868592321872711
1790266846312653600,15.196653564453126,-0.014660755172371864,-0.12034036219120026,-0.5180133581161499
1790266846329906000,15.213906005859375,-0.03848448023200035,-0.18631376326084137,-0.48930269479751587
1790266846347158500,15.231158447265624,-0.053756099194288254,-0.28038692474365234,-0.43432486057281494
1790266846364411000,15.248410888671875,-0.06352993845939636,-0.31031930446624756,-0.33047783374786377
1790266846381663500,15.26566357421875,-0.08124501258134842,-0.1594357043504715,-0.3298669755458832
1790266846398915800,15.282915771484374,-0.16310089826583862,0.036651886999607086,-0.5106829404830933
1790266846416168400,15.30016845703125,-0.3127627670764923,0.33719736337661743,-0.6994401812553406
1790266846433420800,15.3174208984375,-0.43004879355430603,0.6982184648513794,-0.6921098232269287
1790266846450673200,15.334673095703126,-0.5351175665855408,0.8723149299621582,-0.5955931544303894
1790266846467925500,15.351925537109375,-0.6737838387489319,0.7367029190063477,-0.5662716627120972
1790266846485177900,15.369177734375,-0.8069523572921753,0.36835145950317383,-0.7232639193534851
1790266846502430000,15.386429931640626,-0.7996219992637634,0.1490510106086731,-0.6701186895370483
1790266846519682300,15.403682373046875,-0.7018836140632629,0.02626718580722809,-0.5149590373039246
1790266846536934700,15.4209345703125,-0.6169734001159668,-0.017104214057326317,-0.44959646463394165
1790266846554187300,15.438187255859376,-0.5955931544303894,-0.15149445831775665,-0.6713404059410095
1790266846571439600,15.455439697265625,-0.6817250847816467,-0.3451386094093323,-1.0060943365097046
1790266846588692200,15.472692138671874,-0.7360920310020447,-0.44837474822998047,-1.033583164215088
1790266846605944800,15.48994482421875,-0.6236929297447205,-0.5345066785812378,-0.8979712128639221
1790266846623197200,15.507197265625,-0.5302306413650513,-0.5174024701118469,-0.9761618971824646
1790266846640449500,15.524449462890624,-0.5674933791160583,-0.4935787320137024,-1.1447606086730957
1790266846657702000,15.541701904296875,-0.5491674542427063,-0.5106829404830933,-1.174692988395691
1790266846674954200,15.558954345703125,-0.4453204274177551,-0.481361448764801,-1.1924080848693848
1790266846692206600,15.57620654296875,-0.43004879355430603,-0.2626718580722809,-1.3756674528121948
1790266846709458700,15.593458740234375,-0.48563748598098755,-0.1026252806186676,-1.5314379930496216
1790266846726711000,15.6107109375,-0.47952884435653687,-0.24373504519462585,-1.488066554069519
1790266846743963400,15.62796337890625,-0.35246896743774414,-0.47036588191986084,-1.3347395658493042
1790266846761215700,15.6452158203125,-0.24006985127925873,-0.7037162184715271,-1.2205078601837158
1790266846778467800,15.6624677734375,-0.19608759880065918,-0.850934624671936,-1.388495683670044
1790266846795720200,15.67972021484375,-0.22785256803035736,-0.9083559513092041,-1.6597195863723755
1790266846812972500,15.69697265625,-0.26022839546203613,-0.998153030872345,-1.692095398902893
1790266846830225000,15.714224853515624,-0.25045454502105713,-0.9883792400360107,-1.7232495546340942
1790266846847477200,15.731477294921875,-0.2657261788845062,-0.9309579133987427,-1.740964651107788
1790266846864729900,15.748729736328125,-0.3237583339214325,-0.7067705392837524,-1.6963714361190796
1790266846881982200,15.765982177734376,-0.3329212963581085,-0.7757982611656189,-1.5748094320297241
1790266846899234800,15.78323486328125,-0.3396408259868622,-1.0109812021255493,-1.4831796884536743
1790266846916487400,15.8004873046875,-0.3433060050010681,-0.8796452879905701,-1.5601485967636108
1790266846933739800,15.81773974609375,-0.32620179653167725,-0.43860089778900146,-1.6004657745361328
1790266846950992100,15.8349921875,-0.4153880476951599,-0.2632827162742615,-1.4746276140213013
1790266846968244200,15.852244140625,-0.6175842881202698,-0.31520622968673706,-1.314581036567688
1790266846985496600,15.86949658203125,-0.7367029190063477,-0.2461785078048706,-1.1924080848693848
1790266847002749000,15.8867490234375,-0.6615665555000305,-0.11545344442129135,-1.137430191040039
1790266847020001300,15.904001220703124,-0.5082395076751709,0.03909534588456154,-0.9896009564399719
1790266847037253600,15.921253662109375,-0.37690356373786926,0.007941242307424545,-0.638353705406189
1790266847054506000,15.938506103515625,-0.2467893660068512,0.1380554437637329,-0.41416633129119873
1790266847071758600,15.955758544921874,-0.13927717506885529,0.4147771894931793,-0.2877173125743866
1790266847089011200,15.97301123046875,-0.06963858753442764,0.3848448097705841,-0.21746785938739777
1790266847106263600,15.990263671875,-0.050090912729501724,0.3811796307563782,-0.09101885557174683
1790266847123516200,16.00751611328125,-0.001832594396546483,0.4111120104789734,0.03481929376721382
1790266847140768500,16.0247685546875,-0.000610864779446274,0.5717694163322449,0.21868959069252014
1790266847158020600,16.0420205078125,0.02626718580722809,0.5436696410179138,0.5210676789283752
1790266847175273000,16.05927294921875,0.11606431007385254,0.4740310609340668,0.7562506198883057
1790266847192525300,16.076525390625,0.11484257876873016,0.32620179653167725,0.8362739086151123
1790266847209777700,16.093777587890624,0.034208428114652634,0.32192572951316833,0.813671886920929
1790266847227029800,16.11102978515625,0.014660755172371864,0.4361574649810791,0.9114102721214294
1790266847244282400,16.128282470703127,0.07513637095689774,0.32559093832969666,1.0543526411056519
1790266847261534700,16.14553466796875,0.10445787757635117,0.17226386070251465,1.147204041481018
1790266847278787300,16.162787353515625,0.043982263654470444,0.22968515753746033,1.1954623460769653
1790266847296040000,16.1800400390625,0.007330377586185932,0.4196641147136688,1.3121376037597656
1790266847313292300,16.197292236328124,0.12522727251052856,0.5137372612953186,1.4581341743469238
1790266847330545000,16.214544921875,0.29016077518463135,0.5754346251487732,1.5363249778747559
1790266847347797000,16.231796875,0.3689623177051544,0.8118392825126648,1.5735876560211182
1790266847365049300,16.24904931640625,0.41233372688293457,0.9034690260887146,1.6615521907806396
1790266847382301700,16.2663017578125,0.4978547990322113,0.9578359723091125,1.7287473678588867
1790266847399554000,16.283553955078126,0.5687150955200195,0.9547816514968872,1.7763947248458862
1790266847416806100,16.30080615234375,0.6175842881202698,0.7599157691001892,1.803883671760559
1790266847434058500,16.31805859375,0.6579013466835022,0.7422007322311401,1.7501275539398193
1790266847451310800,16.335310791015626,0.6707295179367065,0.7220421433448792,1.6670500040054321
1790266847468563200,16.352563232421875,0.6548470258712769,0.6743947267532349,1.6218459606170654
1790266847485815600,16.369815673828125,0.6487383842468262,0.42882707715034485,1.5344923734664917
1790266847503067600,16.387067626953126,0.767857015132904,0.287106454372406,1.556483507156372
1790266847520320000,16.404320068359375,0.9407317638397217,0.3182605504989624,1.6481131315231323
1790266847537572400,16.421572265625,1.033583164215088,0.3426951467990875,1.748905897140503
1790266847554825000,16.438824951171874,1.1142174005508423,0.34208428859710693,1.7996076345443726
1790266847572077300,16.456077392578123,1.2180644273757935,0.1747073233127594,1.786779522895813
1790266847589330000,16.473329833984376,1.3054180145263672,0.0054977829568088055,1.8270965814590454
1790266847606582500,16.49058251953125,1.3891065120697021,0.001832594396546483,1.9511021375656128
1790266847623835000,16.5078349609375,1.3793326616287231,0.15515965223312378,1.8576397895812988
1790266847641087200,16.525087158203124,1.2284491062164307,0.16065743565559387,1.6114612817764282
1790266847658339600,16.542339599609374,0.9920443892478943,-0.008552107028663158,1.3933825492858887
1790266847675592000,16.559592041015627,0.8930842876434326,0.08552107214927673,1.286481261253357
1790266847692844000,16.576843994140624,0.8881973624229431,-0.14233149588108063,1.1533126831054688
1790266847710096400,16.594096435546874,0.7984002828598022,-0.3903425931930542,1.0274745225906372
1790266847727348700,16.6113486328125,0.5809323787689209,-0.3023780584335327,0.8564324378967285
1790266847744601000,16.62860107421875,0.35735589265823364,-0.11606431007385254,0.6615665555000305
1790266847761853700,16.645853759765625,0.20219624042510986,0.001221729558892548,0.5100721120834351
1790266847779106300,16.663106201171875,0.08674279600381851,0.013439024798572063,0.4422661066055298
1790266847796358700,16.680358642578124,0.021991131827235222,-0.07024945318698883,0.33658650517463684
1790266847813611300,16.697611328125,-0.02626718580722809,-0.22296564280986786,0.17531819641590118
1790266847830863600,16.714863525390626,-0.013439024798572063,-0.258395791053772,0.007330377586185932
1790266847848116000,16.732115966796876,-0.004886918235570192,-0.19608759880065918,-0.18264856934547424
1790266847865368300,16.749368408203125,-0.07819069176912308,-0.10506874322891235,-0.30054548382759094
1790266847882620400,16.766620361328126,-0.21197007596492767,-0.11117739230394363,-0.462424635887146
1790266847899872800,16.783872802734376,-0.34086254239082336,-0.1533270627260208,-0.721431314945221
1790266847917125000,16.801125,-0.37201663851737976,-0.16249002516269684,-0.8759800791740417
1790266847934377500,16.81837744140625,-0.2822195291519165,-0.20769402384757996,-0.842382550239563
1790266847951630000,16.835630126953124,-0.12522727251052856,-0.028099779039621353,-0.7318159937858582
1790266847968882400,16.85288232421875,-0.03481929376721382,-0.001832594396546483,-0.6249146461486816
1790266847986135000,16.870135009765626,-0.02260199747979641,-0.14294235408306122,-0.5797106623649597
1790266848003387400,16.887387451171875,-0.04459312930703163,0.043371398001909256,-0.5406153202056885
1790266848020640000,16.904639892578125,-0.12034036219120026,0.5497782826423645,-0.545502245426178
1790266848037892400,16.921892333984374,-0.2101374864578247,0.7751874327659607,-0.544891357421875
1790266848055144400,16.93914453125,-0.2614501118659973,0.5485565662384033,-0.5351175665855408
1790266848072396800,16.956396728515625,-0.2626718580722809,0.08002328872680664,-0.5021308660507202
1790266848089649200,16.973649169921874,-0.2834412455558777,-0.29504770040512085,-0.49968740344047546
1790266848106901500,16.990901611328123,-0.33231043815612793,-0.2577849328517914,-0.5943714380264282
1790266848124153600,17.008153564453124,-0.43310311436653137,0.15271618962287903,-0.7641918659210205
1790266848141406200,17.02540625,-0.44470956921577454,0.5204567909240723,-0.8484911918640137
1790266848158658600,17.042658447265627,-0.4269944727420807,0.5516108870506287,-0.8148936033248901
1790266848175911200,17.0599111328125,-0.47036588191986084,0.28038692474365234,-0.8173370957374573
1790266848193163500,17.07716357421875,-0.6212494969367981,0.026878049597144127,-0.9669989347457886
1790266848210416000,17.094416015625,-0.8185588121414185,0.07941242307424545,-1.0848958492279053
1790266848227668700,17.111668701171876,-0.8765909671783447,0.1282816082239151,-1.0177006721496582
1790266848244920800,17.1289208984375,-0.7696896195411682,0.14782927930355072,-1.0201442241668701
1790266848262173200,17.146173095703126,-0.6768381595611572,0.08368847519159317,-1.1368193626403809
1790266848279425500,17.163425537109376,-0.675616443157196,-0.2156352698802948,-1.0231984853744507
1790266848296678000,17.180677978515625,-0.6444623470306396,-0.4917461574077606,-0.9608902931213379
1790266848313930200,17.19793017578125,-0.6139190793037415,-0.47952884435653687,-1.1600322723388672
1790266848331182300,17.215182373046876,-0.5430588126182556,-0.5149590373039246,-1.0891718864440918
1790266848348434700,17.2324345703125,-0.35124725103378296,-0.8173370957374573,-0.9352339506149292
1790266848365687000,17.24968701171875,-0.20158538222312927,-0.880256175994873,-1.1325433254241943
1790266848382939400,17.266939453125,-0.205861434340477,-0.8851430416107178,-1.4269801378250122
1790266848400191500,17.28419140625,-0.2571740746498108,-0.9260709881782532,-1.630398154258728
1790266848417443800,17.30144384765625,-0.2883281707763672,-0.8472694754600525,-1.8668028116226196
1790266848434696200,17.3186962890625,-0.28405213356018066,-0.8436042666435242,-1.7256929874420166
1790266848451948800,17.33594873046875,-0.2614501118659973,-0.8747583627700806,-1.4617993831634521
1790266848469201200,17.353201171875,-0.2657261788845062,-0.7281508445739746,-1.5674790143966675
1790266848486453800,17.370453857421875,-0.27977606654167175,-0.7776308655738831,-1.6591087579727173
1790266848503706000,17.3877060546875,-0.29138249158859253,-0.7220421433448792,-1.8057162761688232
1790266848520958700,17.404958740234374,-0.3017672002315521,-0.34208428859710693,-2.126420259475708
1790266848538211000,17.422211181640623,-0.3848448097705841,-0.030543239787220955,-2.0806055068969727
1790266848555463400,17.43946337890625,-0.5100721120834351,-0.18875721096992493,-1.5668681859970093
1790266848572715800,17.4567158203125,-0.5858193039894104,-0.40866854786872864,-1.33290696144104
1790266848589968000,17.4739677734375,-0.5845975875854492,-0.6017017960548401,-1.4172062873840332
1790266848607220200,17.49122021484375,-0.4984656572341919,-0.5809323787689209,-1.3384047746658325
1790266848624472600,17.50847265625,-0.42271843552589417,-0.3023780584335327,-1.26021409034729
1790266848641725000,17.525724853515626,-0.44837474822998047,-0.06902772188186646,-1.1325433254241943
1790266848658977500,17.5429775390625,-0.5393936038017273,-0.1337793916463852,-0.7977893948554993
1790266848676230100,17.560230224609374,-0.5491674542427063,-0.328645259141922,-0.5192350745201111
1790266848693482500,17.577482421875,-0.48013970255851746,-0.08063415437936783,-0.3811796307563782
1790266848710735000,17.594735107421876,-0.32009315490722656,0.023212861269712448,-0.29443681240081787
1790266848727987500,17.611987548828125,-0.10629047453403473,0.2816086709499359,-0.21441353857517242
1790266848745239800,17.62923974609375,-0.009773836471140385,0.41355544328689575,-0.11117739230394363
1790266848762492200,17.6464921875,0.10384701192378998,0.45448338985443115,0.04459312930703163
1790266848779744500,17.66374462890625,0.19853104650974274,0.46975502371788025,0.13255766034126282
1790266848796996600,17.68099658203125,0.21991132199764252,0.3298669755458832,0.20769402384757996
1790266848814249000,17.6982490234375,0.3078758418560028,0.32070401310920715,0.35796675086021423
1790266848831501300,17.715501220703125,0.38850998878479004,0.2528980076313019,0.5540543794631958
1790266848848753700,17.732753662109374,0.41355544328689575,0.1802051067352295,0.6407971382141113
1790266848866005800,17.750005859375,0.30115634202957153,0.3066541254520416,0.5821541547775269
1790266848883258000,17.767258056640625,0.3170388340950012,0.32681265473365784,0.7709113359451294
1790266848900510500,17.784510498046874,0.41844236850738525,0.3549124300479889,0.9279035925865173
1790266848917762800,17.8017626953125,0.46914416551589966,0.22357651591300964,1.0855066776275635
1790266848935015200,17.81901513671875,0.3848448097705841,0.18203771114349365,1.1478148698806763
1790266848952267500,17.836267578125,0.2974911332130432,0.3335321843624115,1.2815942764282227
1790266848969520000,17.85352001953125,0.3182605504989624,0.32559093832969666,1.4850122928619385
1790266848986772700,17.870772705078124,0.3543015718460083,0.287106454372406,1.5387684106826782
1790266849004025000,17.888025146484374,0.3231474757194519,0.43432486057281494,1.6444480419158936
1790266849021277700,17.905277587890627,0.32620179653167725,0.5338957905769348,1.8423681259155273
1790266849038530000,17.922530029296876,0.4007273018360138,0.6316341757774353,1.9492695331573486
1790266849055782100,17.9397822265625,0.401949018239975,0.6701186895370483,2.0775511264801025
1790266849073034500,17.957034423828127,0.2919933497905731,0.8026763200759888,2.2253804206848145
1790266849090286800,17.974286865234376,0.2052505612373352,0.8167262077331543,2.1636829376220703
1790266849107539200,17.991539306640625,0.1905898153781891,0.8399390578269958,2.0341796875
1790266849124791300,18.008791259765626,0.21991132199764252,0.8784235715866089,1.9095633029937744
1790266849142044000,18.0260439453125,0.3139844834804535,0.7116574645042419,1.7348560094833374
1790266849159296500,18.043296630859373,0.5381718873977661,0.5491674542427063,1.6145156621932983
1790266849176548900,18.060548828125,0.794124186038971,0.34697118401527405,1.6297872066497803
1790266849193801500,18.077801513671876,0.9639446139335632,0.14049890637397766,1.6969823837280273
1790266849211053800,18.0950537109375,1.0879502296447754,0.17653992772102356,1.6975932121276855
1790266849228306400,18.112306396484374,1.204014539718628,0.33108872175216675,1.6401718854904175
1790266849245558800,18.129558837890624,1.3005311489105225,0.27855435013771057,1.700036644935608
1790266849262811000,18.146810791015625,1.3078614473342896,0.1747073233127594,1.8674136400222778
1790266849280063200,18.164063232421874,1.2510510683059692,0.24251331388950348,1.8912373781204224
1790266849297315600,18.181315673828124,1.227838158607483,0.5247328281402588,1.7568471431732178
1790266849314568000,18.19856787109375,1.3078614473342896,0.546113133430481,1.68354332447052
1790266849331820000,18.215820068359374,1.4703515768051147,0.13561198115348816,1.6511675119400024
1790266849349072400,18.233072265625,1.5277727842330933,-0.30482152104377747,1.6743803024291992
1790266849366324700,18.25032470703125,1.2956441640853882,-0.5589412450790405,1.646891474723816
1790266849383577000,18.2675771484375,0.9211840629577637,-0.2559523284435272,1.4929535388946533
1790266849400829200,18.2848291015625,0.676227331161499,0.17226386070251465,1.334128737449646
1790266849418081500,18.30208154296875,0.5424479246139526,0.35735589265823364,1.1759146451950073
1790266849435334100,18.319334228515626,0.3634645342826843,0.38850998878479004,0.8374956250190735
1790266849452586500,18.33658642578125,0.16798780858516693,0.1233946830034256,0.5430588126182556
1790266849469839000,18.353839111328124,-0.03848448023200035,-0.07086031138896942,0.15577052533626556
1790266849487091500,18.371091552734374,-0.18387030065059662,-0.014660755172371864,-0.27550002932548523
1790266849504344000,18.388343994140627,-0.2260199636220932,0.003665188793092966,-0.5235111117362976
1790266849521596400,18.405596435546876,-0.26511532068252563,-0.19425499439239502,-0.6921098232269287
1790266849538848800,18.422848876953125,-0.31642794609069824,-0.3836230933666229,-0.8808670043945312
1790266849556101000,18.44010107421875,-0.4471530318260193,-0.2419024556875229,-1.0103703737258911
1790266849573353500,18.457353515625,-0.5760455131530762,-0.08307760953903198,-1.1252129077911377
1790266849590605800,18.474605712890625,-0.5974257588386536,-0.017715077847242355,-1.1588104963302612
1790266849607858000,18.49185791015625,-0.5681042671203613,0.043371398001909256,-1.0720677375793457
1790266849625110300,18.5091103515625,-0.4630354940891266,-0.04764745384454727,-0.9999856352806091
1790266849642362600,18.526362548828125,-0.3494146466255188,-0.10140355676412582,-0.9865466356277466
1790266849659615000,18.543614990234374,-0.31154105067253113,0.13133592903614044,-1.0690133571624756
1790266849676867000,18.5608671875,-0.23029601573944092,0.3237583339214325,-1.0519092082977295
1790266849694119400,18.578119384765625,-0.17653992772102356,0.5057960152626038,-0.9877683520317078
1790266849711371800,18.595371826171874,-0.25534147024154663,0.6334667801856995,-0.9425643682479858
1790266849728624000,18.6126240234375,-0.4013381600379944,0.5937605500221252,-0.9523382186889648
1790266849745876700,18.629876708984376,-0.5345066785812378,0.38179048895835876,-0.998763918876648
1790266849763129000,18.647129150390626,-0.6255255341529846,0.15515965223312378,-1.0403027534484863
1790266849780381700,18.664381591796875,-0.6261364221572876,-0.05436696484684944,-1.0622938871383667
1790266849797634000,18.681634033203125,-0.5479456782341003,-0.17348559200763702,-1.211344838142395
1790266849814886700,18.69888671875,-0.48991355299949646,-0.18692462146282196,-1.3988803625106812
1790266849832139000,18.716138916015623,-0.5308414697647095,-0.1948658674955368,-1.296255111694336
1790266849849391400,18.733391357421876,-0.5748237371444702,-0.2974911332130432,-1.065959095954895
1790266849866643500,18.7506435546875,-0.6243038177490234,-0.33169957995414734,-1.156977891921997
1790266849883895800,18.767895751953127,-0.7232639193534851,-0.2993237376213074,-1.3671153783798218
1790266849901148200,18.785148193359376,-0.7715222239494324,-0.43310311436653137,-1.2431098222732544
1790266849918400500,18.802400390625,-0.7104357481002808,-0.6120865345001221,-1.1673625707626343
1790266849935652900,18.81965283203125,-0.695164144039154,-0.5681042671203613,-1.3188570737838745
1790266849952905500,18.836905517578124,-0.7177661061286926,-0.5100721120834351,-1.3530654907226562
1790266849970157800,18.85415771484375,-0.6621774435043335,-0.6829468011856079,-1.288313865661621
1790266849987410400,18.871410400390626,-0.6175842881202698,-0.8301652073860168,-1.3994911909103394
1790266850004663000,18.8886630859375,-0.6322450637817383,-0.7367029190063477,-1.6065744161605835
1790266850021915400,18.905915283203125,-0.647516667842865,-0.618806004524231,-1.6200133562088013
1790266850039167700,18.923167724609375,-0.6426297426223755,-0.7483093738555908,-1.5906919240951538
1790266850056419800,18.940419921875,-0.6652317643165588,-0.8692606091499329,-1.5247185230255127
1790266850073672200,18.957672119140625,-0.62857985496521,-0.6591231226921082,-1.3854413032531738
1790266850090924500,18.974924560546874,-0.6102539300918579,-0.7318159937858582,-1.452636480331421
1790266850108177000,18.992177001953124,-0.6633991599082947,-1.0403027534484863,-1.5491530895233154
1790266850125429200,19.00942919921875,-0.6963858604431152,-0.8759800791740417,-1.5864158868789673
1790266850142681300,19.026681396484374,-0.6352993845939636,-0.6120865345001221,-1.5760310888290405
1790266850159933700,19.04393359375,-0.5882627964019775,-0.6560688018798828,-1.4941751956939697
1790266850177186000,19.06118603515625,-0.5632173418998718,-0.8387173414230347,-1.4074324369430542
1790266850194438400,19.0784384765625,-0.5308414697647095,-0.6792816519737244,-1.4355322122573853
1790266850211690500,19.0956904296875,-0.4978547990322113,-0.29504770040512085,-1.368947982788086
1790266850228943000,19.112943115234376,-0.47525280714035034,-0.30115634202957153,-1.1465932130813599
1790266850246195500,19.130195556640626,-0.4734202027320862,-0.22357651591300964,-1.1129956245422363
1790266850263448000,19.147447998046875,-0.4477638900279999,-0.19730933010578156,-0.9388991594314575
1790266850280700400,19.164700439453124,-0.4043924808502197,-0.21197007596492767,-0.759304940700531
1790266850297953000,19.181953125,-0.25350889563560486,0.020769402384757996,-0.6548470258712769
1790266850315205600,19.19920556640625,-0.15210533142089844,0.3017672002315521,-0.472198486328125
1790266850332457700,19.216457763671876,-0.09040798991918564,0.19364413619041443,-0.28527384996414185
1790266850349710000,19.2337099609375,0.006108647678047419,0.3072649836540222,-0.11423171311616898
1790266850366962400,19.25096240234375,0.1282816082239151,0.25473061203956604,0.10506874322891235
1790266850384214800,19.26821484375,0.18631376326084137,0.1081230640411377,0.15577052533626556
1790266850401467000,19.285466796875,0.22846342623233795,0.04825831577181816,0.30543237924575806
1790266850418719200,19.30271923828125,0.2510654330253601,0.0665842592716217,0.4526508152484894
1790266850435971600,19.3199716796875,0.26450446248054504,0.1899789422750473,0.500298261642456
1790266850453224000,19.337223876953125,0.2883281707763672,0.19669845700263977,0.6603448390960693
1790266850470476300,19.354476318359374,0.31581708788871765,0.23518294095993042,0.7318159937858582
1790266850487728400,19.371728271484375,0.30482152104377747,0.30054548382759094,0.8979712128639221
1790266850504980700,19.388980712890625,0.31154105067253113,0.4465421438217163,0.9871574640274048
1790266850522233000,19.406233154296874,0.32192572951316833,0.545502245426178,1.1136064529418945
1790266850539485700,19.423485595703124,0.3646862804889679,0.546113133430481,1.2021819353103638
1790266850556738000,19.440738037109377,0.360410213470459,0.6462949514389038,1.3420698642730713
1790266850573990700,19.45799072265625,0.29443681240081787,0.6646208763122559,1.4593559503555298
1790266850591243300,19.4752431640625,0.24984370172023773,0.7385355234146118,1.5375466346740723
1790266850608495600,19.49249560546875,0.29993459582328796,0.7874047160148621,1.5485422611236572
1790266850625748000,19.509748046875,0.3280344009399414,0.7550288438796997,1.5876375436782837
1790266850643000300,19.527000244140623,0.33719736337661743,0.7360920310020447,1.6126830577850342
1790266850660252400,19.54425244140625,0.389120876789093,0.6493492722511292,1.6872085332870483
1790266850677504800,19.5615048828125,0.4886918365955353,0.5748237371444702,1.7684534788131714
1790266850694757000,19.578757080078127,0.5491674542427063,0.6359102129936218,1.8839069604873657
1790266850712009500,19.596009521484376,0.5913171172142029,0.62857985496521,1.9230023622512817
1790266850729261800,19.61326171875,0.5797106623649597,0.6621774435043335,1.9346086978912354
1790266850746514400,19.630514404296875,0.5815432667732239,0.7959567904472351,1.99936044216156
1790266850763766800,19.647766845703124,0.6603448390960693,0.8955277800559998,1.986532211303711
1790266850781019400,19.665019287109374,0.8289434909820557,0.7605266571044922,1.9089524745941162
1790266850798271700,19.682271728515627,1.0519092082977295,0.6023126840591431,1.85092031955719
1790266850815524400,19.6995244140625,1.156977891921997,0.5558869242668152,1.7898337841033936
1790266850832776700,19.716776611328125,1.1759146451950073,0.3396408259868622,1.7452406883239746
1790266850850028800,19.73402880859375,1.2205078601837158,-0.09468404203653336,1.6725478172302246
1790266850867281200,19.75128125,1.2534945011138916,-0.4838049113750458,1.571755051612854
1790266850884533500,19.768533447265625,1.2467750310897827,-0.45326167345046997,1.5430444478988647
1790266850901785900,19.785785888671874,1.26021409034729,-0.16004657745361328,1.5937461853027344
1790266850919038200,19.8030380859375,1.2143992185592651,0.12278381735086441,1.5485422611236572
1790266850936290300,19.820290283203125,1.0702351331710815,0.15149445831775665,1.4575233459472656
1790266850953542700,19.837542724609374,0.8888082504272461,0.14233149588108063,1.4850122928619385
1790266850970795000,19.854794921875,0.6707295179367065,0.17776164412498474,1.3628393411636353
1790266850988047400,19.87204736328125,0.5033525824546814,0.2461785078048706,1.01708984375
1790266851005299500,19.889299560546874,0.38667741417884827,0.1747073233127594,0.7611374855041504
1790266851022551800,19.9065517578125,0.20280711352825165,0.08368847519159317,0.6078104376792908
1790266851039804400,19.923804443359376,0.018325943499803543,0.047036588191986084,0.4196641147136688
1790266851057056800,19.941056884765626,-0.14110976457595825,0.12400554865598679,0.14172062277793884
1790266851074309400,19.958309326171875,-0.24740023910999298,0.2669478952884674,-0.2254091054201126
1790266851091562000,19.97556201171875,-0.28405213356018066,0.24984370172023773,-0.4459312856197357
1790266851108814300,19.992814453125,-0.23273947834968567,0.02260199747979641,-0.5406153202056885
1790266851126066400,20.01006640625,-0.16004657745361328,-0.35063639283180237,-0.5387827157974243
1790266851143318800,20.02731884765625,-0.06108647957444191,-0.5229002237319946,-0.48013970255851746
1790266851160571100,20.044571044921874,0.007941242307424545,-0.4251618981361389,-0.6163625717163086
1790266851177823500,20.061823486328127,-0.03787361457943916,-0.17226386070251465,-0.8710931539535522
1790266851195075800,20.079075927734376,-0.14294235408306122,0.01282816007733345,-1.084285020828247
1790266851212328000,20.096327880859373,-0.22724169492721558,0.12644900381565094,-1.1294889450073242
1790266851229580500,20.11358056640625,-0.2626718580722809,0.12400554865598679,-1.0720677375793457
1790266851246833000,20.1308330078125,-0.3035998046398163,0.13011419773101807,-1.0482439994812012
1790266851264085500,20.14808544921875,-0.318871408700943,0.3897317349910736,-1.0684025287628174
1790266851281338000,20.165338134765626,-0.3481929302215576,0.6133082509040833,-0.9706641435623169
1790266851298590500,20.182590576171876,-0.3426951467990875,0.6243038177490234,-0.8277217745780945
1790266851315843000,20.199843017578125,-0.360410213470459,0.36712974309921265,-0.7232639193534851
1790266851333095200,20.21709521484375,-0.3426951467990875,0.17653992772102356,-0.7531962990760803
1790266851350347500,20.234347412109376,-0.39278605580329895,0.03298669680953026,-0.9560033679008484
1790266851367599900,20.251599853515625,-0.45937031507492065,-0.10873392969369888,-1.074511170387268
1790266851384852200,20.268852294921874,-0.5015199780464172,-0.1637117564678192,-0.916297197341919
1790266851402104300,20.286104248046875,-0.5021308660507202,-0.11606431007385254,-0.7611374855041504
1790266851419356700,20.303356689453125,-0.5491674542427063,-0.14782927930355072,-0.7892373204231262
1790266851436609000,20.320609130859374,-0.6487383842468262,-0.3426951467990875,-0.8692606091499329
1790266851453861400,20.337861328125,-0.7275399565696716,-0.6945532560348511,-0.8246674537658691
1790266851471113500,20.355113525390625,-0.6878337264060974,-0.7880155444145203,-0.7947350740432739
1790266851488365800,20.37236572265625,-0.6010909676551819,-0.6456840634346008,-0.8014546036720276
1790266851505618200,20.3896181640625,-0.5858193039894104,-0.6352993845939636,-0.9083559513092041
1790266851522870500,20.40687060546875,-0.6994401812553406,-0.6847794055938721,-1.0592395067214966
1790266851540123000,20.424122802734374,-0.813060998916626,-0.7159335017204285,-1.1184934377670288
1790266851557375500,20.44137548828125,-0.8051197528839111,-0.7483093738555908,-1.08978271484375
1790266851574627800,20.4586279296875,-0.7470875978469849,-0.7281508445739746,-1.1643083095550537
1790266851591880400,20.47588037109375,-0.7092140316963196,-0.573602020740509,-1.2913681268692017
1790266851609132800,20.4931328125,-0.667064368724823,-0.5161807537078857,-1.351232886314392
1790266851626385400,20.510385498046876,-0.5992583632469177,-0.6487383842468262,-1.351232886314392
1790266851643637500,20.527637451171874,-0.5277871489524841,-0.6560688018798828,-1.5033382177352905
1790266851660889900,20.544889892578126,-0.4886918365955353,-0.5302306413650513,-1.6475023031234741
1790266851678142200,20.56214208984375,-0.48502662777900696,-0.4373791813850403,-1.6065744161605835
1790266851695394600,20.57939453125,-0.5045742988586426,-0.3035998046398163,-1.5931353569030762
1790266851712646700,20.596646728515626,-0.5632173418998718,-0.2260199636220932,-1.423925757408142
1790266851729899300,20.613899169921876,-0.646905779838562,-0.34636032581329346,-1.2663227319717407
1790266851747151600,20.631151611328125,-0.7067705392837524,-0.36835145950317383,-1.431867003440857
1790266851764404200,20.648404296875,-0.7476984858512878,-0.5033525824546814,-1.5289945602416992
1790266851781656800,20.66565673828125,-0.7202095985412598,-0.3634645342826843,-1.4049890041351318
1790266851798909200,20.6829091796875,-0.675616443157196,-0.31520622968673706,-1.2412772178649902
1790266851816161800,20.700161865234374,-0.6811142563819885,-0.6945532560348511,-1.1789690256118774
1790266851833414000,20.717413818359375,-0.6719512343406677,-0.7226530313491821,-1.2626575231552124
1790266851850666200,20.734666259765625,-0.6352993845939636,-0.5314523577690125,-1.2791508436203003
1790266851867918600,20.751918701171874,-0.6004800796508789,-0.32559093832969666,-1.1459823846817017
1790266851885171000,20.7691708984375,-0.5137372612953186,-0.023212861269712448,-1.1099413633346558
1790266851902423300,20.78642333984375,-0.43860089778900146,0.2968802750110626,-0.9553925395011902
1790266851919675400,20.80367529296875,-0.3543015718460083,0.22418737411499023,-0.6181951761245728
1790266851936927700,20.820927734375,-0.2260199636220932,0.3738492429256439,-0.44348782300949097
1790266851954180000,20.83818017578125,-0.12034036219120026,0.5613847374916077,-0.35063639283180237
1790266851971432400,20.855432373046874,-0.040317077189683914,0.47464191913604736,-0.18142683804035187
1790266851988684500,20.8726845703125,0.043982263654470444,0.37629270553588867,0.08063415437936783
1790266852005937000,20.88993701171875,0.17531819641590118,0.3488037884235382,0.20830489695072174
1790266852023189200,20.907189208984374,0.20647229254245758,0.2761108875274658,0.2706131041049957
1790266852040441900,20.92444189453125,0.20891575515270233,0.07574722915887833,0.4367683231830597
1790266852057694200,20.941694091796876,0.21441353857517242,0.10629047453403473,0.4923570156097412
1790266852074946800,20.95894677734375,0.2370155304670334,0.2467893660068512,0.536339282989502
1790266852092199400,20.976199462890627,0.31642794609069824,0.3396408259868622,0.7464767694473267
1790266852109451800,20.99345166015625,0.3836230933666229,0.4159989058971405,0.9474512934684753
1790266852126704000,21.0107041015625,0.4361574649810791,0.43310311436653137,1.147204041481018
1790266852143956500,21.02795654296875,0.4062250852584839,0.28405213356018066,1.2156208753585815
1790266852161208800,21.045208740234376,0.3329212963581085,0.23518294095993042,1.2644901275634766
1790266852178461000,21.0624609375,0.23945899307727814,0.25961753726005554,1.331685185432434
1790266852195713300,21.07971337890625,0.2510654330253601,0.49541133642196655,1.2596031427383423
1790266852212965600,21.096965576171876,0.33536475896835327,0.9169080257415771,1.2382229566574097
1790266852230218000,21.114218017578125,0.39889469742774963,1.1502584218978882,1.3237439393997192
1790266852247470000,21.131469970703126,0.45998117327690125,1.0708459615707397,1.581528902053833
1790266852264722400,21.148722412109375,0.5375609993934631,0.9144645929336548,1.7635666131973267
1790266852281974800,21.165974853515625,0.5784889459609985,0.8210022449493408,1.7256929874420166
1790266852299227100,21.18322705078125,0.5790998339653015,0.8155044913291931,1.6939280033111572
1790266852316479500,21.2004794921875,0.6126973628997803,0.7825177907943726,1.6310089826583862
1790266852333731800,21.21773193359375,0.7538071274757385,0.7764091491699219,1.617569923400879
1790266852350984400,21.234984375,0.9028581380844116,0.7733548283576965,1.6340632438659668
1790266852368236800,21.25223681640625,0.9615011811256409,0.6243038177490234,1.6536109447479248
1790266852385489400,21.269489501953124,0.9315688014030457,0.4831940531730652,1.6151264905929565
1790266852402742000,21.286741943359374,0.9016364216804504,0.3439168632030487,1.4960078001022339
1790266852419994400,21.303994384765623,0.9474512934684753,0.2260199636220932,1.4734058380126953
1790266852437246500,21.32124658203125,1.000596523284912,0.185092031955719,1.5326597690582275
1790266852454498800,21.338498779296874,1.0079269409179688,0.0977383628487587,1.5442661046981812
1790266852471751200,21.355751220703127,1.0018181800842285,-0.03848448023200035,1.5479313135147095
1790266852489003500,21.37300341796875,1.028085470199585,-0.06108647957444191,1.5515965223312378
1790266852506255600,21.390255615234373,1.0671807527542114,0.07574722915887833,1.4984513521194458
1790266852523508200,21.40750830078125,1.0158681869506836,0.1539379209280014,1.4117084741592407
1790266852540760600,21.424760498046876,0.8955277800559998,0.04764745384454727,1.2247838973999023
1790266852558013200,21.44201318359375,0.758694052696228,0.07330377399921417,1.1362085342407227
1790266852575265500,21.459265625,0.6206386089324951,0.08613193035125732,0.9578359723091125
1790266852592518100,21.47651806640625,0.5852084755897522,0.10140355676412582,0.7024945020675659
