time,seconds_elapsed,z,y,x
1790163248190608600,0.068608642578125,0,0,0
1790163248200608800,0.07860888671875,0.00003719329833984375,0.05746495723724365,-0.02352297306060791
1790163248210608600,0.088608642578125,-0.02945995330810547,0.057245612144470215,-0.0593162477016449
1790163248220608800,0.09860888671875,-0.11545276641845703,0.017341136932373047,-0.07589510083198547
1790163248230608600,0.108608642578125,-0.1958141326904297,0.0016021728515625,-0.01568552851676941
1790163248240608800,0.11860888671875,-0.15166568756103516,0.004046082496643066,0.05072140693664551
1790163248250608600,0.128608642578125,-0.1145477294921875,-0.025667786598205566,0.03578460216522217
1790163248260608800,0.13860888671875,-0.03768444061279297,-0.02902805805206299,-0.07438385486602783
1790163248270608600,0.148608642578125,-0.023065567016601562,0.0064830780029296875,-0.1306845247745514
1790163248280608800,0.15860888671875,-0.23303699493408203,0.03413081169128418,-0.08424514532089233
1790163248290608600,0.168608642578125,-0.5538825988769531,0.013376235961914062,0.05313992500305176
1790163248300608800,0.17860888671875,-0.6666460037231445,-0.030136585235595703,0.03525823354721069
1790163248310608600,0.188608642578125,-0.5610246658325195,-0.13356828689575195,-0.01392701268196106
1790163248320608800,0.19860888671875,-0.2619781494140625,-0.3331878185272217,-0.42879754304885864
1790163248330608600,0.208608642578125,-0.1491250991821289,-0.6415433883666992,-0.9341113567352295
1790163248340608800,0.21860888671875,-0.2809286117553711,-0.8272488117218018,-1.1808533668518066
1790163248350608600,0.228608642578125,-0.16206645965576172,-0.566401481628418,-0.6210146546363831
1790163248360608800,0.23860888671875,0.3085203170776367,-0.046927809715270996,0.3337807357311249
1790163248370608600,0.248608642578125,0.9262332916259766,0.2756996154785156,1.2026708126068115
1790163248380608800,0.25860888671875,1.259913444519043,0.24884116649627686,1.4650588035583496
1790163248390608600,0.268608642578125,1.1898765563964844,0.15329253673553467,1.2585231065750122
1790163248400608800,0.27860888671875,0.7194108963012695,0.008157014846801758,0.47375941276550293
1790163248410608600,0.288608642578125,-0.029725074768066406,-0.24293899536132812,-0.29771333932876587
1790163248420608800,0.29860888671875,-0.45585060119628906,-0.7254539728164673,-0.10712456703186035
1790163248430608600,0.308608642578125,-0.52557373046875,-0.46170270442962646,-0.5358286499977112
1790163248440608800,0.31860888671875,-0.42664241790771484,0.18150746822357178,-1.0428037643432617
1790163248450608600,0.328608642578125,-0.17635631561279297,0.46376967430114746,-0.7628339529037476
1790163248460608800,0.33860888671875,-0.13675498962402344,0.2890899181365967,-0.5759311318397522
1790163248470608600,0.348608642578125,-0.21117687225341797,-0.0449216365814209,-0.4769973158836365
1790163248480608800,0.35860888671875,-0.24847793579101562,-0.24832379817962646,-0.2850378751754761
1790163248490608600,0.368608642578125,-0.3537273406982422,-0.18563365936279297,0.01874762773513794
1790163248500608800,0.37860888671875,-0.4028797149658203,0.037274718284606934,0.3273651599884033
1790163248510608600,0.388608642578125,-0.5677471160888672,0.22413134574890137,0.31983792781829834
1790163248520608800,0.39860888671875,-0.5879964828491211,0.19016778469085693,0.09034591913223267
1790163248530608600,0.408608642578125,-0.19891643524169922,0.011372923851013184,0.1363479495048523
1790163248540608800,0.41860888671875,0.1813640594482422,-0.08080720901489258,0.14126282930374146
1790163248550608600,0.428608642578125,0.22976207733154297,-0.035715460777282715,0.20041882991790771
1790163248560608800,0.43860888671875,0.19090938568115234,0.11901497840881348,0.2357618808746338
1790163248570608600,0.448608642578125,0.010217666625976562,0.11598896980285645,0.15964144468307495
1790163248580608800,0.45860888671875,0.0006647109985351562,0.12168312072753906,0.0570833683013916
1790163248590608600,0.468608642578125,0.26380252838134766,0.06870484352111816,-0.15338736772537231
1790163248600608800,0.47860888671875,0.7325334548950195,-0.058984994888305664,-0.12367469072341919
1790163248610608600,0.488608642578125,1.1895074844360352,-0.13933324813842773,-0.02116495370864868
1790163248620608800,0.49860888671875,1.3596391677856445,-0.15462124347686768,-0.12856924533843994
1790163248630608600,0.508608642578125,1.5459060668945312,-0.07539820671081543,-0.11000627279281616
1790163248640608800,0.51860888671875,1.2673158645629883,0.030205368995666504,-0.37640511989593506
1790163248650608600,0.528608642578125,0.992340087890625,0.1072767972946167,-0.5088808536529541
1790163248660608800,0.53860888671875,0.6947174072265625,0.15277099609375,-0.39781761169433594
1790163248670608600,0.548608642578125,0.33326244354248047,0.22621464729309082,-0.2339068055152893
1790163248680608800,0.55860888671875,0.0035276412963867188,0.3689323663711548,-0.016035795211791992
1790163248690608600,0.568608642578125,-0.2469644546508789,0.3672715425491333,0.09322327375411987
1790163248700608800,0.57860888671875,-0.3234272003173828,0.27245914936065674,0.23905515670776367
1790163248710608600,0.588608642578125,-0.22874927520751953,0.12063920497894287,0.3991924524307251
1790163248720608800,0.59860888671875,-0.1541280746459961,-0.014301657676696777,0.4967547655105591
1790163248730608600,0.608608642578125,-0.1294841766357422,-0.14215195178985596,0.6541458368301392
1790163248740608800,0.61860888671875,-0.3164653778076172,-0.18120324611663818,0.7597060203552246
1790163248750608600,0.628608642578125,-0.4950132369995117,-0.16023242473602295,0.41550999879837036
1790163248760608800,0.63860888671875,-0.3883552551269531,0.008655905723571777,-0.16674214601516724
1790163248770608600,0.648608642578125,0.13313579559326172,0.1528632640838623,-0.4526228606700897
1790163248780608800,0.65860888671875,0.3959312438964844,0.1610625982284546,-0.36442968249320984
1790163248790608600,0.668608642578125,0.34473323822021484,0.15608131885528564,-0.17816653847694397
1790163248800608800,0.67860888671875,0.050434112548828125,0.1949925422668457,-0.024095922708511353
1790163248810608600,0.688608642578125,-0.3009653091430664,0.22815895080566406,0.03183090686798096
1790163248820608800,0.69860888671875,-0.5012950897216797,0.230210542678833,0.09229221940040588
1790163248830608600,0.708608642578125,-0.4942436218261719,0.1484525203704834,0.1650044322013855
1790163248840608800,0.71860888671875,-0.3206443786621094,-0.18224215507507324,0.2272268831729889
1790163248850608600,0.728608642578125,-0.20122718811035156,-0.24901163578033447,-0.0575127899646759
1790163248860608800,0.73860888671875,-0.14171600341796875,-0.05042111873626709,-0.40895727276802063
1790163248870608600,0.748608642578125,-0.06721782684326172,0.10497558116912842,-0.3294002115726471
1790163248880608800,0.75860888671875,0.25327205657958984,0.17756688594818115,-0.2462497055530548
1790163248890608600,0.768608642578125,0.5680723190307617,0.1107405424118042,-0.2216106355190277
1790163248900608800,0.77860888671875,0.6968927383422852,0.09692859649658203,-0.057158082723617554
1790163248910608600,0.788608642578125,0.54437255859375,0.12948381900787354,0.2359257936477661
1790163248920608800,0.79860888671875,0.3332948684692383,0.16716933250427246,0.2850889563560486
1790163248930608600,0.808608642578125,0.2556886672973633,0.16383099555969238,0.14419493079185486
1790163248940608800,0.81860888671875,0.22322940826416016,0.11875772476196289,-0.061262935400009155
1790163248950608600,0.828608642578125,0.09343147277832031,0.041471123695373535,-0.34831464290618896
1790163248960608800,0.83860888671875,-0.06569862365722656,-0.0264207124710083,-0.36326757073402405
1790163248970608600,0.848608642578125,-0.19016647338867188,-0.009003281593322754,-0.23568710684776306
1790163248980608800,0.85860888671875,-0.12060070037841797,0.12248265743255615,0.0825415551662445
1790163248990608600,0.868608642578125,-0.01288604736328125,0.25079822540283203,0.4585912525653839
1790163249000608800,0.87860888671875,-0.1402597427368164,0.3090791702270508,0.8877878189086914
1790163249010608600,0.888608642578125,-0.26073551177978516,0.35915303230285645,0.6196600198745728
1790163249020608800,0.89860888671875,0.04454612731933594,0.5427777767181396,-0.21229642629623413
1790163249030608600,0.908608642578125,0.5707569122314453,0.873543381690979,-1.059705138206482
1790163249040608800,0.91860888671875,0.5882368087768555,1.0171386003494263,-1.2361475229263306
1790163249050608600,0.928608642578125,0.23051071166992188,0.859106183052063,-1.1583213806152344
1790163249060608800,0.93860888671875,-0.1498861312866211,0.5295045375823975,-0.9543347358703613
1790163249070608600,0.948608642578125,-0.40512752532958984,0.12032389640808105,-0.5802520513534546
1790163249080608800,0.95860888671875,-0.9128704071044922,-0.3146350383758545,-0.058605194091796875
1790163249090608600,0.968608642578125,-1.6966209411621094,-0.755495548248291,0.377160906791687
1790163249100608800,0.97860888671875,-1.962789535522461,-1.1392762660980225,0.522681474685669
1790163249110608600,0.988608642578125,-0.8860683441162109,-1.5596086978912354,0.6374404430389404
1790163249120608800,0.99860888671875,1.0220975875854492,-1.9413886070251465,1.175510287284851
1790163249130608600,1.008608642578125,2.907909393310547,-2.4777474403381348,2.533090829849243
1790163249140608800,1.01860888671875,4.535022735595703,-3.2744834423065186,4.272518634796143
1790163249150608600,1.028608642578125,6.023176193237305,-5.254830360412598,6.108299255371094
1790163249160608800,1.03860888671875,4.2392778396606445,-6.517063140869141,7.3538923263549805
1790163249170608600,1.048608642578125,0.9593448638916016,-5.950290679931641,5.4632744789123535
1790163249180608800,1.05860888671875,-0.15801239013671875,-4.962676525115967,3.057898998260498
1790163249190608600,1.068608642578125,-0.31360435485839844,-4.091556549072266,2.204810857772827
1790163249200608800,1.07860888671875,0.3880634307861328,-3.8628640174865723,2.3563292026519775
1790163249210608600,1.088608642578125,1.1292810440063477,-3.815615653991699,2.222148895263672
1790163249220608800,1.09860888671875,-0.13593006134033203,-3.821556568145752,1.1418542861938477
1790163249230608600,1.108608642578125,0.06467151641845703,-3.572944402694702,1.030686378479004
1790163249240608800,1.11860888671875,3.9315786361694336,-1.6976937055587769,2.4606947898864746
1790163249250608600,1.128608642578125,2.7353878021240234,-0.873497486114502,1.2795720100402832
1790163249260608800,1.13860888671875,-4.572257041931152,-1.7487902641296387,1.7290971279144287
1790163249270608600,1.148608642578125,-8.209330558776855,-1.671815037727356,2.5579233169555664
1790163249280608800,1.15860888671875,-7.218528747558594,-3.5401835441589355,1.3902783393859863
1790163249290608600,1.168608642578125,-5.696637153625488,-3.621302604675293,1.8090887069702148
1790163249300608800,1.17860888671875,-1.892387866973877,-3.3957395553588867,3.618698835372925
1790163249310608600,1.188608642578125,1.0680036544799805,-4.425472736358643,2.093144655227661
1790163249320608800,1.19860888671875,1.0844883918762207,-6.0095415115356445,-3.532622814178467
1790163249330608600,1.208608642578125,2.0666089057922363,-6.4897308349609375,-1.2551994323730469
1790163249340608800,1.21860888671875,3.080414295196533,-6.685894012451172,-0.30443811416625977
1790163249350608600,1.228608642578125,2.1745800971984863,-5.463193416595459,0.6378545761108398
1790163249360608800,1.23860888671875,0.8928136825561523,-4.128299236297607,2.3563246726989746
1790163249370608600,1.248608642578125,-0.4506959915161133,-3.587275505065918,3.913888454437256
1790163249380608800,1.25860888671875,1.704549789428711,-3.8992655277252197,3.3528904914855957
1790163249390608600,1.268608642578125,-0.27193260192871094,-4.947005748748779,3.9117815494537354
1790163249400608800,1.27860888671875,3.20465087890625,-5.717695713043213,1.7602577209472656
1790163249410608600,1.288608642578125,-0.117706298828125,-6.719515800476074,3.882328748703003
1790163249420608800,1.29860888671875,-2.9758996963500977,-6.218851089477539,3.662705898284912
1790163249430608600,1.308608642578125,-4.094056606292725,-5.304170608520508,2.636624813079834
1790163249440608800,1.31860888671875,-4.095549583435059,-4.8999128341674805,1.7812352180480957
1790163249450608600,1.328608642578125,-2.992703437805176,-4.609994888305664,1.4209562540054321
1790163249460608800,1.33860888671875,-1.2288308143615723,-3.975958824157715,0.9873306751251221
1790163249470608600,1.348608642578125,0.44036006927490234,-3.391806125640869,-0.6471688747406006
1790163249480608800,1.35860888671875,1.7471399307250977,-3.4573416709899902,-3.591318368911743
1790163249490608600,1.368608642578125,2.300781726837158,-3.9447391033172607,-6.9313249588012695
1790163249500608800,1.37860888671875,1.6812939643859863,-3.5824854373931885,-10.823831558227539
1790163249510608600,1.388608642578125,0.5932807922363281,-2.2777609825134277,-15.333436965942383
1790163249520608800,1.39860888671875,-2.481168270111084,-0.28041839599609375,-20.659446716308594
1790163249530608600,1.408608642578125,-4.349349021911621,1.6557011604309082,-23.4893856048584
1790163249540608800,1.41860888671875,-2.9736738204956055,3.004401445388794,-24.125530242919922
1790163249550608600,1.428608642578125,-0.5272016525268555,4.213794708251953,-22.92549705505371
1790163249560608800,1.43860888671875,1.368546962738037,4.557555198669434,-20.88055992126465
1790163249570608600,1.448608642578125,2.4393014907836914,4.809738636016846,-18.139694213867188
1790163249580608800,1.45860888671875,2.650242805480957,5.299971103668213,-15.594148635864258
1790163249590608600,1.468608642578125,2.777920722961426,5.695594787597656,-13.111177444458008
1790163249600608800,1.47860888671875,3.142580032348633,6.0344767570495605,-10.685152053833008
1790163249610608600,1.488608642578125,4.441816806793213,6.776337146759033,-8.91905403137207
1790163249620608800,1.49860888671875,5.854806423187256,7.160240173339844,-7.25908088684082
1790163249630608600,1.508608642578125,11.2069730758667,7.210338592529297,-2.6905436515808105
1790163249640608800,1.51860888671875,14.398719787597656,7.2361531257629395,1.8777880668640137
1790163249650608600,1.528608642578125,10.041679382324219,6.925331115722656,3.107004404067993
1790163249660608800,1.53860888671875,13.843208312988281,6.159072399139404,7.458576202392578
1790163249670608600,1.548608642578125,17.6439208984375,5.796570777893066,8.149493217468262
1790163249680608800,1.55860888671875,13.83608627319336,5.218791961669922,4.020116806030273
1790163249690608600,1.568608642578125,10.140275955200195,3.7477152347564697,1.197359561920166
1790163249700608800,1.57860888671875,6.775012016296387,2.2785511016845703,-2.529503345489502
1790163249710608600,1.588608642578125,4.248258590698242,1.2569031715393066,-4.6828999519348145
1790163249720608800,1.59860888671875,2.311586380004883,0.28754091262817383,-5.437046527862549
1790163249730608600,1.608608642578125,0.8878531455993652,-0.3927145004272461,-4.878153324127197
1790163249740608800,1.61860888671875,-0.16397762298583984,-0.5906984806060791,-4.827258110046387
1790163249750608600,1.628608642578125,-0.8496079444885254,-0.6166896820068359,-3.7848100662231445
1790163249760608800,1.63860888671875,-1.2051382064819336,-0.6264398097991943,-0.8508095741271973
1790163249770608600,1.648608642578125,-0.9188075065612793,-0.3336818218231201,-1.1276459693908691
1790163249780608800,1.65860888671875,0.11554574966430664,0.2161250114440918,0.0759744644165039
1790163249790608600,1.668608642578125,-0.20467710494995117,0.5158884525299072,5.08802604675293
1790163249800608800,1.67860888671875,-1.0279498100280762,1.2549903392791748,5.273107528686523
1790163249810608600,1.688608642578125,-1.6166110038757324,2.180233955383301,4.27925443649292
1790163249820608800,1.69860888671875,-1.5089850425720215,2.308048725128174,7.427104473114014
1790163249830608600,1.708608642578125,0.7086853981018066,3.0664987564086914,5.784680366516113
1790163249840608800,1.71860888671875,2.2959556579589844,3.09039306640625,3.912879467010498
1790163249850608600,1.728608642578125,3.026388168334961,3.09023380279541,1.7193303108215332
1790163249860608800,1.73860888671875,1.8568634986877441,3.3088512420654297,1.3871960639953613
1790163249870608600,1.748608642578125,-0.4998011589050293,2.2240407466888428,3.701247215270996
1790163249880608800,1.75860888671875,-0.9738397598266602,2.5112874507904053,3.9798197746276855
1790163249890608600,1.768608642578125,0.007106304168701172,0.9069425463676453,4.7751922607421875
1790163249900608800,1.77860888671875,1.4979438781738281,2.0947415828704834,4.596296787261963
1790163249910608600,1.788608642578125,1.3549013137817383,1.8640114068984985,4.649642467498779
1790163249920608800,1.79860888671875,-1.0506019592285156,1.761084794998169,4.645322799682617
1790163249930608600,1.808608642578125,-6.935840606689453,4.430420875549316,7.7399468421936035
1790163249940608800,1.81860888671875,-0.5596218109130859,1.1112616062164307,5.238963603973389
1790163249950608600,1.828608642578125,2.461732864379883,1.917672872543335,3.5099289417266846
1790163249960608800,1.83860888671875,2.984395980834961,1.9983811378479004,2.14255428314209
1790163249970608600,1.848608642578125,2.6273956298828125,1.5763201713562012,0.3024258613586426
1790163249980608800,1.85860888671875,1.9066505432128906,0.601028561592102,-1.912548542022705
1790163249990608600,1.868608642578125,1.1391420364379883,-2.2602505683898926,-4.340729713439941
1790163250000608800,1.87860888671875,0.9906463623046875,-6.252881050109863,-6.007608413696289
1790163250010608600,1.888608642578125,-0.7843704223632812,-8.875125885009766,-3.9802510738372803
1790163250020608800,1.89860888671875,-0.29412841796875,-11.817245483398438,-1.5208628177642822
1790163250030608600,1.908608642578125,-1.2876520156860352,-13.424346923828125,0.7633997201919556
1790163250040608800,1.91860888671875,-13.318756103515625,-7.497707843780518,3.1589651107788086
1790163250050608600,1.928608642578125,-6.8184309005737305,-3.27884578704834,-1.0410077571868896
1790163250060608800,1.93860888671875,0.07557010650634766,-1.2522099018096924,-5.254514694213867
1790163250070608600,1.948608642578125,3.445277214050293,-1.6742877960205078,-1.900146484375
1790163250080608800,1.95860888671875,5.137990951538086,-4.1297760009765625,1.8254948854446411
1790163250090608600,1.968608642578125,6.245996475219727,-5.323785781860352,2.6100363731384277
1790163250100608800,1.97860888671875,5.738735198974609,-3.7759251594543457,1.1464543342590332
1790163250110608600,1.988608642578125,4.541777610778809,-2.1694068908691406,0.35792112350463867
1790163250120608800,1.99860888671875,2.8826818466186523,-1.879892110824585,0.5087170600891113
1790163250130608600,2.008608642578125,1.287632942199707,-2.630164623260498,0.3717079162597656
1790163250140608800,2.01860888671875,0.44704341888427734,-4.224184989929199,0.853867769241333
1790163250150608600,2.028608642578125,-0.06570625305175781,-4.861364364624023,1.7943096160888672
1790163250160608800,2.03860888671875,-1.4673938751220703,-3.5735745429992676,2.969979763031006
1790163250170608600,2.048608642578125,-2.683168888092041,-1.7969868183135986,3.991405725479126
1790163250180608800,2.05860888671875,-3.6304807662963867,-1.1385622024536133,4.777196407318115
1790163250190608600,2.068608642578125,-5.763632774353027,-1.4398527145385742,6.032489776611328
1790163250200608800,2.07860888671875,-7.636055946350098,-1.750921607017517,7.095683574676514
1790163250210608600,2.088608642578125,-8.66396427154541,-1.8137397766113281,7.157766819000244
1790163250220608800,2.09860888671875,-9.485051155090332,-1.3392653465270996,6.271705627441406
1790163250230608600,2.108608642578125,-8.830062866210938,0.21197599172592163,3.0372469425201416
1790163250240608800,2.11860888671875,-2.9395060539245605,0.9089958667755127,-4.4927659034729
1790163250250608600,2.128608642578125,4.542532444000244,3.2190449237823486,-15.850297927856445
1790163250260608800,2.13860888671875,4.57537317276001,4.039849758148193,-17.75107765197754
1790163250270608600,2.148608642578125,3.658407688140869,2.3595776557922363,-14.782548904418945
1790163250280608800,2.15860888671875,2.772961139678955,1.764901876449585,-9.813596725463867
1790163250290608600,2.168608642578125,2.3415236473083496,1.2907564640045166,-7.498037815093994
1790163250300608800,2.17860888671875,1.4253640174865723,0.5584229230880737,-7.237360954284668
1790163250310608600,2.188608642578125,0.5221371650695801,-0.4960358738899231,-5.632969856262207
1790163250320608800,2.19860888671875,1.4258508682250977,1.204294204711914,-2.059750556945801
1790163250330608600,2.208608642578125,2.0007944107055664,2.5769155025482178,0.2117314338684082
1790163250340608800,2.21860888671875,1.3745336532592773,2.74955677986145,3.6126792430877686
1790163250350608600,2.228608642578125,-2.6745643615722656,3.1437106132507324,0.5904026031494141
1790163250360608800,2.23860888671875,-2.201439380645752,2.9105265140533447,0.9589734077453613
1790163250370608600,2.248608642578125,-0.5471038818359375,2.682384967803955,-0.4136662483215332
1790163250380608800,2.25860888671875,0.99908447265625,3.5163447856903076,-2.7060980796813965
1790163250390608600,2.268608642578125,2.437006950378418,4.769987106323242,-3.2483749389648438
1790163250400608800,2.27860888671875,1.1358938217163086,1.7387138605117798,-1.8440213203430176
1790163250410608600,2.288608642578125,-1.2872910499572754,-0.3607358932495117,-0.8773093223571777
1790163250420608800,2.29860888671875,-3.873724937438965,-0.7074153423309326,-0.26040172576904297
1790163250430608600,2.308608642578125,-2.8933048248291016,0.1731259822845459,1.2246589660644531
1790163250440608800,2.31860888671875,-0.6297421455383301,0.677626371383667,-0.9433226585388184
1790163250450608600,2.328608642578125,0.16541051864624023,2.8900952339172363,-3.5525383949279785
1790163250460608800,2.33860888671875,-0.2929372787475586,6.227065563201904,-3.9957337379455566
1790163250470608600,2.348608642578125,-0.8129963874816895,3.8826162815093994,-0.7696018218994141
1790163250480608800,2.35860888671875,-1.3422627449035645,0.6939072608947754,2.437736988067627
1790163250490608600,2.368608642578125,-0.1767106056213379,-1.226285457611084,4.981791973114014
1790163250500608800,2.37860888671875,1.0477499961853027,-3.1801953315734863,6.9875054359436035
1790163250510608600,2.388608642578125,1.3268799781799316,-5.704039573669434,9.558930397033691
1790163250520608800,2.39860888671875,1.3019976615905762,-7.711092472076416,9.094793319702148
1790163250530608600,2.408608642578125,0.11844873428344727,-5.928778171539307,3.3657851219177246
1790163250540608800,2.41860888671875,-1.5111899375915527,-3.4688539505004883,-0.9820184707641602
1790163250550608600,2.428608642578125,-2.2473506927490234,-3.5289196968078613,-1.8294520378112793
1790163250560608800,2.43860888671875,-0.5208721160888672,-4.225737571716309,-2.509106397628784
1790163250570608600,2.448608642578125,1.6297659873962402,-4.260377883911133,-1.4798283576965332
1790163250580608800,2.45860888671875,1.838653564453125,-3.330667495727539,1.075566053390503
1790163250590608600,2.468608642578125,1.1640849113464355,-2.025339126586914,2.418212413787842
1790163250600608800,2.47860888671875,0.6081514358520508,-0.5696582794189453,2.0991666316986084
1790163250610608600,2.488608642578125,-0.22708702087402344,0.6040024757385254,1.8029907941818237
1790163250620608800,2.49860888671875,-0.5650248527526855,1.5821781158447266,1.6683502197265625
1790163250630608600,2.508608642578125,0.21361017227172852,1.9913430213928223,1.3226966857910156
1790163250640608800,2.51860888671875,0.547633171081543,1.6251330375671387,1.0919363498687744
1790163250650608600,2.528608642578125,0.06702899932861328,1.1081023216247559,0.6257162094116211
1790163250660608800,2.53860888671875,-0.2044849395751953,1.5690526962280273,-0.50850510597229
1790163250670608600,2.548608642578125,-0.32901954650878906,2.487032890319824,-1.2864556312561035
1790163250680608800,2.55860888671875,-0.13287734985351562,2.318338394165039,-1.0155000686645508
1790163250690608600,2.568608642578125,0.09720754623413086,1.6059417724609375,-1.080927848815918
1790163250700608800,2.57860888671875,0.30539751052856445,0.8986001014709473,-0.9339747428894043
1790163250710608600,2.588608642578125,0.7112412452697754,0.9600138664245605,-1.4932317733764648
1790163250720608800,2.59860888671875,-0.014612197875976562,-0.0329585075378418,-2.2510437965393066
1790163250730608600,2.608608642578125,-0.5502142906188965,-0.5171709060668945,-2.106837034225464
1790163250740608800,2.61860888671875,0.05641651153564453,0.37242698669433594,0.6099731922149658
1790163250750608600,2.628608642578125,1.8054428100585938,-1.3613038063049316,5.026024341583252
1790163250760608800,2.63860888671875,1.9495658874511719,-3.8116135597229004,5.196704864501953
1790163250770608600,2.648608642578125,-4.336413860321045,-1.8084640502929688,3.172670841217041
1790163250780608800,2.65860888671875,-3.8113512992858887,0.6655077934265137,0.5545728206634521
1790163250790608600,2.668608642578125,-1.392216682434082,0.40349626541137695,-0.8159122467041016
1790163250800608800,2.67860888671875,1.3659968376159668,-0.1400613784790039,-1.3451805114746094
1790163250810608600,2.688608642578125,3.2735676765441895,-0.15582609176635742,-1.6213102340698242
1790163250820608800,2.69860888671875,3.314906120300293,0.15139341354370117,-2.3929953575134277
1790163250830608600,2.708608642578125,2.0214624404907227,0.3944735527038574,-2.3863024711608887
1790163250840608800,2.71860888671875,0.644444465637207,0.6071553230285645,-0.8876457214355469
1790163250850608600,2.728608642578125,-0.35326290130615234,0.5924749374389648,0.23089122772216797
1790163250860608800,2.73860888671875,-0.7293910980224609,0.45734596252441406,0.741145133972168
1790163250870608600,2.748608642578125,-0.6140713691711426,0.17224454879760742,0.9340057373046875
1790163250880608800,2.75860888671875,-0.6578779220581055,0.11465597152709961,0.6627774238586426
1790163250890608600,2.768608642578125,-0.962712287902832,0.07674980163574219,-0.1380634307861328
1790163250900608800,2.77860888671875,-0.38138389587402344,-0.00788736343383789,-0.4994797706604004
1790163250910608600,2.788608642578125,0.07949066162109375,0.16682910919189453,-0.16657733917236328
1790163250920608800,2.79860888671875,0.5293316841125488,0.4190402030944824,0.39997196197509766
1790163250930608600,2.808608642578125,0.5247626304626465,0.5106363296508789,-0.7620863914489746
1790163250940608800,2.81860888671875,2.3143434524536133,0.7484016418457031,-2.84425687789917
1790163250950608600,2.828608642578125,2.7082767486572266,0.5434269905090332,-0.26226139068603516
1790163250960608800,2.83860888671875,0.6141247749328613,0.22942543029785156,-0.022980213165283203
1790163250970608600,2.848608642578125,-0.7362465858459473,-0.4353322982788086,-0.15586614608764648
1790163250980608800,2.85860888671875,-1.495704174041748,-0.45972728729248047,-1.0536737442016602
1790163250990608600,2.868608642578125,-1.0216217041015625,-0.7033600807189941,-1.1950569152832031
1790163251000608800,2.87860888671875,5.16523551940918,-0.48868894577026367,0.2777729034423828
1790163251010608600,2.888608642578125,-0.9016709327697754,-0.9850039482116699,0.38950014114379883
1790163251020608800,2.89860888671875,-4.980649948120117,-2.6900477409362793,-2.2880449295043945
1790163251030608600,2.908608642578125,-5.059761047363281,-0.8074817657470703,-3.800915241241455
1790163251040608800,2.91860888671875,-1.3871698379516602,0.6311841011047363,-2.3845267295837402
1790163251050608600,2.928608642578125,1.6162290573120117,0.30196332931518555,-1.0293455123901367
1790163251060608800,2.93860888671875,1.779144287109375,-0.5341520309448242,-0.5062861442565918
1790163251070608600,2.948608642578125,0.9714107513427734,-0.4996519088745117,-0.22853422164916992
1790163251080608800,2.95860888671875,-0.2547931671142578,0.18351316452026367,0.22927618026733398
1790163251090608600,2.968608642578125,-1.3789539337158203,0.8348827362060547,0.5365056991577148
1790163251100608800,2.97860888671875,-1.547175407409668,1.1501188278198242,0.8537039756774902
1790163251110608600,2.988608642578125,-0.8736839294433594,0.9629123210906982,1.435246467590332
1790163251120608800,2.99860888671875,-0.44066953659057617,0.6563465595245361,1.419637680053711
1790163251130608600,3.008608642578125,-0.21862554550170898,0.5645003318786621,0.8309164047241211
1790163251140608800,3.01860888671875,-0.27825212478637695,0.18808221817016602,0.19266605377197266
1790163251150608600,3.028608642578125,-0.48170995712280273,-0.19843387603759766,-0.7012028694152832
1790163251160608800,3.03860888671875,-0.5954127311706543,-0.64300537109375,-1.4109158515930176
1790163251170608600,3.048608642578125,-0.5069146156311035,-0.9924221038818359,-1.6228222846984863
1790163251180608800,3.05860888671875,-0.2365407943725586,-1.1864008903503418,-1.3425064086914062
1790163251190608600,3.068608642578125,0.23470640182495117,-1.3678665161132812,-0.7937216758728027
1790163251200608800,3.07860888671875,0.45991086959838867,-1.773672103881836,-0.3113546371459961
1790163251210608600,3.088608642578125,-0.5050888061523438,-2.6434216499328613,-0.4367952346801758
1790163251220608800,3.09860888671875,-1.8293418884277344,-2.840372085571289,-0.9888324737548828
1790163251230608600,3.108608642578125,-3.1461191177368164,-1.9206533432006836,-1.2831478118896484
1790163251240608800,3.11860888671875,-2.153052806854248,-0.5408215522766113,-1.2854409217834473
1790163251250608600,3.128608642578125,1.26460599899292,0.5090203285217285,-0.6131095886230469
1790163251260608800,3.13860888671875,3.5503945350646973,1.2713525295257568,0.48069143295288086
1790163251270608600,3.148608642578125,4.089531898498535,1.7107691764831543,1.3121607303619385
1790163251280608800,3.15860888671875,2.8480987548828125,1.7687487602233887,1.5086026191711426
1790163251290608600,3.168608642578125,1.0613703727722168,1.3982667922973633,1.08880615234375
1790163251300608800,3.17860888671875,0.4422111511230469,0.7739348411560059,-0.17801356315612793
1790163251310608600,3.188608642578125,0.4867863655090332,1.044914960861206,-2.2816202640533447
1790163251320608800,3.19860888671875,1.3190231323242188,1.4524805545806885,-4.220386505126953
1790163251330608600,3.208608642578125,0.28198909759521484,0.921574592590332,-4.330083847045898
1790163251340608800,3.21860888671875,-1.0485610961914062,-0.4976534843444824,-3.0266737937927246
1790163251350608600,3.228608642578125,-1.9912900924682617,-1.1213297843933105,-1.5837242603302002
1790163251360608800,3.23860888671875,-1.92741060256958,-1.4307060241699219,0.36965107917785645
1790163251370608600,3.248608642578125,-0.6504344940185547,-1.663405418395996,2.617518186569214
1790163251380608800,3.25860888671875,1.2649011611938477,-0.8100471496582031,4.026243209838867
1790163251390608600,3.268608642578125,2.678647994995117,0.763270378112793,4.6545867919921875
1790163251400608800,3.27860888671875,2.554372787475586,1.9146332740783691,5.895925045013428
1790163251410608600,3.288608642578125,1.774550437927246,2.62490177154541,6.741764068603516
1790163251420608800,3.29860888671875,0.7096376419067383,3.2893357276916504,6.315010070800781
1790163251430608600,3.308608642578125,-0.40169715881347656,3.149463653564453,4.36342716217041
1790163251440608800,3.31860888671875,-0.7789416313171387,1.5087499618530273,2.7508842945098877
1790163251450608600,3.328608642578125,-1.6950702667236328,-0.1571488380432129,1.6024889945983887
1790163251460608800,3.33860888671875,-2.087801933288574,-0.8518495559692383,0.2954667806625366
1790163251470608600,3.348608642578125,-3.9336628913879395,-1.64876127243042,-0.42863738536834717
1790163251480608800,3.35860888671875,-9.041857719421387,-1.6996750831604004,-1.6587941646575928
1790163251490608600,3.368608642578125,-18.13344383239746,-1.7776436805725098,3.9199814796447754
1790163251500608800,3.37860888671875,13.048651695251465,-3.529758930206299,0.14723430573940277
1790163251510608600,3.388608642578125,5.687832832336426,-2.879631996154785,-0.0425892174243927
1790163251520608800,3.39860888671875,3.7947349548339844,-1.9895548820495605,-2.839340925216675
1790163251530608600,3.408608642578125,1.2400569915771484,-2.4434237480163574,-2.1957924365997314
1790163251540608800,3.41860888671875,-2.8854823112487793,-1.6663646697998047,-0.7690072059631348
1790163251550608600,3.428608642578125,-6.886649131774902,0.38431501388549805,0.06667837500572205
1790163251560608800,3.43860888671875,-4.794394016265869,2.0641050338745117,0.29444241523742676
1790163251570608600,3.448608642578125,-0.46619701385498047,2.00508189201355,0.36550211906433105
1790163251580608800,3.45860888671875,0.7808980941772461,1.4795207977294922,0.09663784503936768
1790163251590608600,3.468608642578125,0.5655632019042969,1.434849739074707,0.8146498799324036
1790163251600608800,3.47860888671875,-0.10031890869140625,1.6267030239105225,0.8285000324249268
1790163251610608600,3.488608642578125,-0.7578287124633789,1.6190037727355957,-0.7890598773956299
1790163251620608800,3.49860888671875,-0.44286155700683594,1.0192458629608154,-2.5225400924682617
1790163251630608600,3.508608642578125,0.9395732879638672,0.45341062545776367,-3.329517126083374
1790163251640608800,3.51860888671875,2.293328285217285,0.11865019798278809,-2.8609626293182373
1790163251650608600,3.528608642578125,2.8270492553710938,-0.18117284774780273,-1.569413185119629
1790163251660608800,3.53860888671875,2.059983253479004,-0.4915187358856201,-0.909883975982666
1790163251670608600,3.548608642578125,1.0022087097167969,-0.5677502155303955,-1.6293113231658936
1790163251680608800,3.55860888671875,0.29160118103027344,-0.17366409301757812,-2.2572338581085205
1790163251690608600,3.568608642578125,0.2696371078491211,0.23444795608520508,-2.0364580154418945
1790163251700608800,3.57860888671875,0.5190906524658203,0.10718393325805664,-1.9180071353912354
1790163251710608600,3.588608642578125,1.1940193176269531,-0.4159064292907715,-1.4677762985229492
1790163251720608800,3.59860888671875,1.410717487335205,-0.3386392593383789,-1.0461325645446777
1790163251730608600,3.608608642578125,1.235809326171875,0.35255908966064453,0.5496559143066406
1790163251740608800,3.61860888671875,0.626924991607666,0.4012315273284912,1.7653141021728516
1790163251750608600,3.628608642578125,0.053287506103515625,0.44828319549560547,1.7393302917480469
1790163251760608800,3.63860888671875,-0.011602401733398438,0.6773605346679688,1.9585199356079102
1790163251770608600,3.648608642578125,-0.12904691696166992,1.0926811695098877,2.4782919883728027
1790163251780608800,3.65860888671875,-0.23786115646362305,1.0715153217315674,2.0909323692321777
1790163251790608600,3.668608642578125,0.11228561401367188,0.8866519927978516,1.7688241004943848
1790163251800608800,3.67860888671875,-0.07455968856811523,0.6699128150939941,0.39475202560424805
1790163251810608600,3.688608642578125,-0.37227725982666016,0.7326974868774414,0.14391183853149414
1790163251820608800,3.69860888671875,-0.14981317520141602,0.9082973003387451,-0.9564027786254883
1790163251830608600,3.708608642578125,-0.12761974334716797,0.7042980194091797,-0.4123849868774414
1790163251840608800,3.71860888671875,0.9524965286254883,-0.07210969924926758,0.954064130783081
1790163251850608600,3.728608642578125,0.593498706817627,-0.8411555290222168,-0.7112894058227539
1790163251860608800,3.73860888671875,-0.06613540649414062,-1.137784481048584,-1.2106189727783203
1790163251870608600,3.748608642578125,0.7278971672058105,-1.550948143005371,0.6061968803405762
1790163251880608800,3.75860888671875,-0.6040172576904297,-0.5803751945495605,1.239945888519287
1790163251890608600,3.768608642578125,-1.9001498222351074,0.18384647369384766,-0.5918369293212891
1790163251900608800,3.77860888671875,-0.9039278030395508,-0.128309965133667,-1.5651884078979492
1790163251910608600,3.788608642578125,-0.517209529876709,0.5890684127807617,-0.16511869430541992
1790163251920608800,3.79860888671875,-0.17118310928344727,1.1511592864990234,1.0792975425720215
1790163251930608600,3.808608642578125,0.5623602867126465,0.49927496910095215,0.937401294708252
1790163251940608800,3.81860888671875,1.098198413848877,-0.7198820114135742,0.11915969848632812
1790163251950608600,3.828608642578125,1.232618808746338,-1.1754908561706543,-0.48886871337890625
1790163251960608800,3.83860888671875,0.8335070610046387,-1.1765589714050293,-1.4848995208740234
1790163251970608600,3.848608642578125,0.8659176826477051,-1.976147174835205,-2.5518627166748047
1790163251980608800,3.85860888671875,1.2768778800964355,-1.0193681716918945,-0.5116548538208008
1790163251990608600,3.868608642578125,2.548856258392334,0.28302812576293945,-0.9730291366577148
1790163252000608800,3.87860888671875,0.09007453918457031,0.979454755783081,1.7018952369689941
1790163252010608600,3.888608642578125,-1.6936264038085938,0.6487183570861816,3.1414761543273926
1790163252020608800,3.89860888671875,-1.5651788711547852,0.3403661251068115,0.8805127143859863
1790163252030608600,3.908608642578125,-0.8928389549255371,-0.2717726230621338,-1.787266731262207
1790163252040608800,3.91860888671875,-0.8539800643920898,-0.9433135986328125,0.6899013519287109
1790163252050608600,3.928608642578125,-1.1825981140136719,-0.8666684627532959,-0.028548717498779297
1790163252060608800,3.93860888671875,-1.590672492980957,-0.39406752586364746,0.5543258190155029
1790163252070608600,3.948608642578125,0.7165384292602539,-0.18204832077026367,-1.2469584941864014
1790163252080608800,3.95860888671875,1.7986602783203125,-0.34111785888671875,-3.2717864513397217
1790163252090608600,3.968608642578125,0.2505464553833008,-0.9569454193115234,-0.31429290771484375
1790163252100608800,3.97860888671875,-0.6516718864440918,-0.8379306793212891,2.8958933353424072
1790163252110608600,3.988608642578125,0.9551515579223633,-0.15826988220214844,1.5770940780639648
1790163252120608800,3.99860888671875,2.9139633178710938,-1.1445751190185547,-0.7159242630004883
1790163252130608600,4.008608642578125,-0.685065746307373,-1.5189285278320312,-2.9257616996765137
1790163252140608800,4.01860888671875,-0.7434911727905273,-0.5606329441070557,-2.297875165939331
1790163252150608600,4.028608642578125,-0.3813009262084961,0.25638413429260254,2.043516159057617
1790163252160608800,4.03860888671875,-0.1701517105102539,0.7393984794616699,0.893256425857544
1790163252170608600,4.048608642578125,0.07616424560546875,0.7645730972290039,0.9614112377166748
1790163252180608800,4.05860888671875,-0.1090383529663086,1.4203283786773682,-0.5907371044158936
1790163252190608600,4.068608642578125,0.2908172607421875,1.5811922550201416,-2.471247673034668
1790163252200608800,4.07860888671875,1.4292888641357422,0.5635225772857666,-2.864475965499878
1790163252210608600,4.088608642578125,2.374220848083496,-0.4521064758300781,-2.459986448287964
1790163252220608800,4.09860888671875,2.9285221099853516,-1.4018878936767578,-2.2306461334228516
1790163252230608600,4.108608642578125,0.3430299758911133,-1.548633337020874,2.2150931358337402
1790163252240608800,4.11860888671875,-1.1947145462036133,-1.0007503032684326,1.5323269367218018
1790163252250608600,4.128608642578125,-0.6496295928955078,-0.39677953720092773,-1.1182646751403809
1790163252260608800,4.13860888671875,-0.30879974365234375,0.4696474075317383,-1.4108833074569702
1790163252270608600,4.148608642578125,-1.1119585037231445,0.8351755142211914,-2.170046091079712
1790163252280608800,4.15860888671875,-1.8045768737792969,0.84031081199646,-1.4427974224090576
1790163252290608600,4.168608642578125,-2.1092615127563477,0.7617921829223633,1.0244874954223633
1790163252300608800,4.17860888671875,-1.763317584991455,0.47293949127197266,3.087642192840576
1790163252310608600,4.188608642578125,-1.223567008972168,-0.21605539321899414,2.8146748542785645
1790163252320608800,4.19860888671875,-0.8621816635131836,-0.7226104736328125,1.4785683155059814
1790163252330608600,4.208608642578125,-0.9251589775085449,-0.36876392364501953,0.9585593938827515
1790163252340608800,4.21860888671875,-0.6499748229980469,-0.5222930908203125,0.3886262774467468
1790163252350608600,4.228608642578125,-0.8675069808959961,-0.6952714920043945,-0.10932299494743347
1790163252360608800,4.23860888671875,-1.1751184463500977,-0.7881908416748047,-0.41515928506851196
1790163252370608600,4.248608642578125,-1.1601285934448242,-0.34384632110595703,-0.038323789834976196
1790163252380608800,4.25860888671875,-0.7566204071044922,-0.16312646865844727,-0.3037046790122986
1790163252390608600,4.268608642578125,-0.3879680633544922,0.46242284774780273,-0.23840153217315674
1790163252400608800,4.27860888671875,-0.2677125930786133,1.1127400398254395,-0.03682763874530792
1790163252410608600,4.288608642578125,-0.29783153533935547,1.1079998016357422,0.17403724789619446
1790163252420608800,4.29860888671875,-0.5096549987792969,1.0849642753601074,0.20635154843330383
1790163252430608600,4.308608642578125,-0.9541287422180176,1.620133399963379,-0.8215485215187073
1790163252440608800,4.31860888671875,-0.20155620574951172,2.5706825256347656,-1.5509140491485596
1790163252450608600,4.328608642578125,0.12583541870117188,1.9719390869140625,-1.0567411184310913
1790163252460608800,4.33860888671875,0.6995697021484375,0.6362833976745605,0.17991173267364502
1790163252470608600,4.348608642578125,0.5219221115112305,-0.6158504486083984,1.555989384651184
1790163252480608800,4.35860888671875,0.16712188720703125,-1.3771014213562012,3.2234513759613037
1790163252490608600,4.368608642578125,1.1167058944702148,-2.0624208450317383,3.8087830543518066
1790163252500608800,4.37860888671875,0.9182167053222656,-1.9423234462738037,1.5996814966201782
1790163252510608600,4.388608642578125,-0.11681079864501953,-1.006307601928711,-0.8563196659088135
1790163252520608800,4.39860888671875,-0.4184551239013672,-0.06677985191345215,-1.3536405563354492
1790163252530608600,4.408608642578125,-0.4336271286010742,1.0386285781860352,-0.8772568702697754
1790163252540608800,4.41860888671875,-0.17884540557861328,2.1352601051330566,-0.45306074619293213
1790163252550608600,4.428608642578125,0.3453540802001953,2.013239860534668,0.29673659801483154
1790163252560608800,4.43860888671875,0.5926847457885742,0.4569110870361328,0.5593081712722778
1790163252570608600,4.448608642578125,0.7468881607055664,-1.2893524169921875,-0.17213666439056396
1790163252580608800,4.45860888671875,0.7768211364746094,-1.9516205787658691,-0.8322787284851074
1790163252590608600,4.468608642578125,0.3461475372314453,-1.9291460514068604,-0.6604132652282715
1790163252600608800,4.47860888671875,-0.2705726623535156,-1.3436589241027832,-0.2589462995529175
1790163252610608600,4.488608642578125,-0.6001119613647461,-0.35959577560424805,0.16501891613006592
1790163252620608800,4.49860888671875,-1.1404428482055664,0.47081637382507324,0.9425103664398193
1790163252630608600,4.508608642578125,-1.398801326751709,0.9075455665588379,1.4246121644973755
1790163252640608800,4.51860888671875,-1.5197625160217285,1.130967617034912,1.053781509399414
1790163252650608600,4.528608642578125,-0.2805004119873047,1.2876183986663818,0.017609357833862305
1790163252660608800,4.53860888671875,1.4360685348510742,1.0034348964691162,-0.5877511501312256
1790163252670608600,4.548608642578125,1.5681829452514648,1.052668809890747,-0.6386079788208008
1790163252680608800,4.55860888671875,1.030186653137207,1.043942928314209,-0.2227466106414795
1790163252690608600,4.568608642578125,0.8597879409790039,0.6137049198150635,0.3939218521118164
1790163252700608800,4.57860888671875,0.502446174621582,0.7101490497589111,0.37591075897216797
1790163252710608600,4.588608642578125,0.12795066833496094,0.2500629425048828,0.1829967498779297
1790163252720608800,4.59860888671875,-1.1406140327453613,-0.8624632358551025,-0.25070714950561523
1790163252730608600,4.608608642578125,-2.015012741088867,-2.139434814453125,0.06067490577697754
1790163252740608800,4.61860888671875,-0.5315666198730469,-1.6098854541778564,-1.9928488731384277
1790163252750608600,4.628608642578125,-1.708165168762207,-1.105727195739746,-4.402295112609863
1790163252760608800,4.63860888671875,-0.7603464126586914,-0.35684752464294434,-0.8765745162963867
1790163252770608600,4.648608642578125,0.5533552169799805,1.2571642398834229,-0.12972378730773926
1790163252780608800,4.65860888671875,0.5898456573486328,2.418863296508789,-1.4053573608398438
1790163252790608600,4.668608642578125,0.22580909729003906,2.8836450576782227,-1.308825969696045
1790163252800608800,4.67860888671875,1.4929628372192383,2.6448118686676025,-0.7550241947174072
1790163252810608600,4.688608642578125,2.613058090209961,1.5093119144439697,0.3102385997772217
1790163252820608800,4.69860888671875,1.8737421035766602,0.8678178787231445,0.32959866523742676
1790163252830608600,4.708608642578125,1.0134830474853516,0.3285956382751465,0.33005380630493164
1790163252840608800,4.71860888671875,0.3169689178466797,-0.25420451164245605,0.5772777795791626
1790163252850608600,4.728608642578125,-0.06545543670654297,-0.7160770893096924,1.0203462839126587
1790163252860608800,4.73860888671875,-0.3513517379760742,-1.0663871765136719,1.1217652559280396
1790163252870608600,4.748608642578125,-0.8883013725280762,-1.4021668434143066,0.8754866123199463
1790163252880608800,4.75860888671875,-1.3709115982055664,-1.662724256515503,0.22328877449035645
1790163252890608600,4.768608642578125,-1.241861343383789,-0.5856006145477295,0.3487262725830078
1790163252900608800,4.77860888671875,-0.4891214370727539,0.38872432708740234,0.24271488189697266
1790163252910608600,4.788608642578125,-0.39093875885009766,0.5981519222259521,0.40561771392822266
1790163252920608800,4.79860888671875,-0.036391258239746094,0.30011439323425293,0.3982656002044678
1790163252930608600,4.808608642578125,0.13898944854736328,-0.00730443000793457,0.00012922286987304688
1790163252940608800,4.81860888671875,0.29621315002441406,0.05270957946777344,-0.32421231269836426
1790163252950608600,4.828608642578125,0.11367225646972656,0.2367231845855713,-0.8477072715759277
1790163252960608800,4.83860888671875,-0.41911792755126953,0.2015528678894043,-1.1793622970581055
1790163252970608600,4.848608642578125,-0.6939826011657715,-0.1382451057434082,-1.2599334716796875
1790163252980608800,4.85860888671875,-3.1553773880004883,0.5703160762786865,-2.067509651184082
1790163252990608600,4.868608642578125,-0.04634666442871094,0.7261209487915039,-0.3782980442047119
1790163253000608800,4.87860888671875,2.34049129486084,0.32614588737487793,-0.08146429061889648
1790163253010608600,4.888608642578125,5.029211044311523,-1.1782970428466797,1.3240575790405273
1790163253020608800,4.89860888671875,-0.13376235961914062,-1.5369505882263184,-2.5491490364074707
1790163253030608600,4.908608642578125,0.5650205612182617,1.5042645931243896,-0.6771888732910156
1790163253040608800,4.91860888671875,0.25409984588623047,-0.49798154830932617,1.2331278324127197
1790163253050608600,4.928608642578125,0.02707672119140625,-2.067875862121582,4.370121002197266
1790163253060608800,4.93860888671875,2.377335548400879,-2.6449005603790283,-0.50284743309021
1790163253070608600,4.948608642578125,-0.33489513397216797,-1.271432638168335,-0.20080947875976562
1790163253080608800,4.95860888671875,1.189347267150879,-0.0598757266998291,2.820368528366089
1790163253090608600,4.968608642578125,1.2526769638061523,1.1597397327423096,0.28656935691833496
1790163253100608800,4.97860888671875,0.7752513885498047,1.07654869556427,-0.45754098892211914
1790163253110608600,4.988608642578125,0.06373882293701172,0.6655335426330566,-1.7992956638336182
1790163253120608800,4.99860888671875,-0.19081497192382812,-0.04722189903259277,-1.8300271034240723
1790163253130608600,5.008608642578125,0.46648693084716797,-0.8532619476318359,-0.1106424331665039
1790163253140608800,5.01860888671875,0.3163137435913086,-1.3485026359558105,-0.7012913227081299
1790163253150608600,5.028608642578125,-0.656519889831543,-2.0208308696746826,1.6395888328552246
1790163253160608800,5.03860888671875,-4.248080253601074,-2.134329319000244,3.531681537628174
1790163253170608600,5.048608642578125,-2.2008590698242188,-0.6689543724060059,0.8217461109161377
1790163253180608800,5.05860888671875,-0.1638050079345703,-0.7376353740692139,1.339416742324829
1790163253190608600,5.068608642578125,-4.1953816413879395,-0.7231786251068115,3.0476033687591553
1790163253200608800,5.07860888671875,-3.0964527130126953,-0.0946805477142334,5.2565388679504395
1790163253210608600,5.088608642578125,4.7749786376953125,1.1294898986816406,2.60097074508667
1790163253220608800,5.09860888671875,4.856060981750488,1.196751356124878,-0.9622740745544434
1790163253230608600,5.108608642578125,1.7557334899902344,0.652839183807373,-1.2924871444702148
1790163253240608800,5.11860888671875,-0.7071323394775391,0.27557969093322754,-0.6728847026824951
1790163253250608600,5.128608642578125,-1.2435765266418457,-0.08933806419372559,-1.0067791938781738
1790163253260608800,5.13860888671875,-1.051253318786621,-0.28195667266845703,-0.7724430561065674
1790163253270608600,5.148608642578125,-0.5686311721801758,-0.31696581840515137,-0.21249890327453613
1790163253280608800,5.15860888671875,0.1779165267944336,-0.2583274841308594,0.07815074920654297
1790163253290608600,5.168608642578125,1.2430076599121094,-0.10385727882385254,0.14611053466796875
1790163253300608800,5.17860888671875,1.6580982208251953,-0.015239238739013672,-0.042533159255981445
1790163253310608600,5.188608642578125,1.1933727264404297,-0.16429543495178223,-0.732163667678833
1790163253320608800,5.19860888671875,0.4821624755859375,-0.2657327651977539,-1.5099735260009766
1790163253330608600,5.208608642578125,0.5553159713745117,-0.27916717529296875,-1.647007703781128
1790163253340608800,5.21860888671875,1.088724136352539,-0.30399155616760254,-1.2722773551940918
1790163253350608600,5.228608642578125,1.4793405532836914,-0.27329111099243164,-0.4046480655670166
1790163253360608800,5.23860888671875,1.6165390014648438,-0.14690637588500977,0.5744185447692871
1790163253370608600,5.248608642578125,1.3599128723144531,-0.20165109634399414,1.2884225845336914
1790163253380608800,5.25860888671875,0.7599658966064453,-0.6002986431121826,1.6200990676879883
1790163253390608600,5.268608642578125,0.26348304748535156,-1.0406923294067383,1.4949787855148315
1790163253400608800,5.27860888671875,0.1711864471435547,-1.3240976333618164,1.1670252084732056
1790163253410608600,5.288608642578125,0.30579471588134766,-1.2405962944030762,0.9484241008758545
1790163253420608800,5.29860888671875,0.994969367980957,-0.9348762035369873,0.8253751993179321
1790163253430608600,5.308608642578125,1.4169139862060547,-0.6825675964355469,0.5346475839614868
1790163253440608800,5.31860888671875,1.0249338150024414,-0.4586324691772461,0.11998629570007324
1790163253450608600,5.328608642578125,-0.26605796813964844,-0.2868729829788208,-0.47713470458984375
1790163253460608800,5.33860888671875,-2.2408366203308105,-0.3959991931915283,-0.7521131038665771
1790163253470608600,5.348608642578125,-3.662740707397461,-0.4838601350784302,-0.6787405014038086
1790163253480608800,5.35860888671875,-4.145691871643066,-0.6279557943344116,-0.6304383277893066
1790163253490608600,5.368608642578125,-3.7562551498413086,-0.45026350021362305,-0.08318805694580078
1790163253500608800,5.37860888671875,-2.9061074256896973,-0.06514501571655273,0.572537899017334
1790163253510608600,5.388608642578125,-2.3744635581970215,0.6752864122390747,0.40680766105651855
1790163253520608800,5.39860888671875,-1.980147361755371,1.3895676136016846,0.351513147354126
1790163253530608600,5.408608642578125,-1.8542490005493164,2.0233614444732666,0.0399327278137207
1790163253540608800,5.41860888671875,-1.970266342163086,2.2535293102264404,-0.28234386444091797
1790163253550608600,5.428608642578125,-2.109193801879883,2.1150362491607666,-0.4546952247619629
1790163253560608800,5.43860888671875,-2.202672004699707,1.8810603618621826,-0.6643195152282715
1790163253570608600,5.448608642578125,-2.271902084350586,1.524246335029602,-1.4487278461456299
1790163253580608800,5.45860888671875,-2.419668197631836,1.1268888711929321,-1.5161852836608887
1790163253590608600,5.468608642578125,-2.499912738800049,0.9371473789215088,-1.4396371841430664
1790163253600608800,5.47860888671875,-2.6301827430725098,0.8098945617675781,-1.5162224769592285
1790163253610608600,5.488608642578125,-2.4540233612060547,0.6369466781616211,-1.5679519176483154
1790163253620608800,5.49860888671875,-1.789663314819336,0.4270838499069214,-1.3823344707489014
1790163253630608600,5.508608642578125,-1.3160595893859863,0.20873641967773438,-0.930264949798584
1790163253640608800,5.51860888671875,-1.194925308227539,0.04218482971191406,-0.3216850757598877
1790163253650608600,5.528608642578125,-1.3735370635986328,-0.2931489944458008,0.1538684368133545
1790163253660608800,5.53860888671875,-1.692535400390625,-0.7104206085205078,0.35436511039733887
1790163253670608600,5.548608642578125,-1.8002738952636719,-0.8982219696044922,0.43732142448425293
1790163253680608800,5.55860888671875,-1.6694989204406738,-0.9582529067993164,0.5542428493499756
1790163253690608600,5.568608642578125,-1.180835247039795,-1.0834202766418457,0.504352331161499
1790163253700608800,5.57860888671875,-0.6076431274414062,-1.0432088375091553,0.7254143953323364
1790163253710608600,5.588608642578125,-0.34604930877685547,-0.9424121379852295,0.721142053604126
1790163253720608800,5.59860888671875,-0.23865985870361328,-0.6291494369506836,1.0408185720443726
1790163253730608600,5.608608642578125,0.012037277221679688,-0.6525049209594727,0.9332139492034912
1790163253740608800,5.61860888671875,-0.018256187438964844,-0.7094955444335938,0.8151136636734009
1790163253750608600,5.628608642578125,0.07175731658935547,-0.9010062217712402,0.40767884254455566
1790163253760608800,5.63860888671875,0.21428489685058594,-0.7891950607299805,0.3864462375640869
1790163253770608600,5.648608642578125,0.17969417572021484,-1.134427547454834,-0.16948890686035156
1790163253780608800,5.65860888671875,0.3886728286743164,-1.0864081382751465,-0.029630422592163086
1790163253790608600,5.668608642578125,0.818758487701416,-1.0349512100219727,0.2563440799713135
1790163253800608800,5.67860888671875,1.3585329055786133,-0.9080972671508789,0.4925966262817383
1790163253810608600,5.688608642578125,1.5885686874389648,-0.5819368362426758,0.2837636470794678
1790163253820608800,5.69860888671875,1.3200693130493164,-0.38758373260498047,0.13750934600830078
1790163253830608600,5.708608642578125,1.182680606842041,-0.3197159767150879,-0.14089345932006836
1790163253840608800,5.71860888671875,1.3155226707458496,-0.3008394241333008,-0.453324556350708
1790163253850608600,5.728608642578125,1.7048077583312988,-0.564824104309082,-1.0978007316589355
1790163253860608800,5.73860888671875,2.177367687225342,-0.4177703857421875,-1.0611066818237305
1790163253870608600,5.748608642578125,2.412137985229492,-0.36808061599731445,-0.7522647380828857
1790163253880608800,5.75860888671875,2.2820558547973633,-0.5224547386169434,-0.3394298553466797
1790163253890608600,5.768608642578125,2.1025166511535645,-0.7025661468505859,-0.03764009475708008
1790163253900608800,5.77860888671875,1.993971824645996,-0.7904219627380371,-0.022509336471557617
1790163253910608600,5.788608642578125,1.922053337097168,-0.7740716934204102,-0.3147115707397461
1790163253920608800,5.79860888671875,1.7933282852172852,-0.8593654632568359,-0.595170259475708
1790163253930608600,5.808608642578125,1.8424410820007324,-0.6545882225036621,-1.3289859294891357
1790163253940608800,5.81860888671875,2.166630744934082,-0.48659372329711914,-1.9491322040557861
1790163253950608600,5.828608642578125,2.4968814849853516,-0.41478729248046875,-2.1819007396698
1790163253960608800,5.83860888671875,2.7109556198120117,-0.46736764907836914,-2.1049389839172363
1790163253970608600,5.848608642578125,2.55892276763916,-0.5318069458007812,-1.8828120231628418
1790163253980608800,5.85860888671875,2.263227939605713,-0.5526280403137207,-1.5570290088653564
1790163253990608600,5.868608642578125,2.076986312866211,-0.5036110877990723,-1.3346402645111084
1790163254000608800,5.87860888671875,2.112031936645508,-0.3914008140563965,-1.2779693603515625
1790163254010608600,5.888608642578125,2.4692463874816895,-0.19814157485961914,-1.319383144378662
1790163254020608800,5.89860888671875,2.8077430725097656,-0.022225379943847656,-1.281087875366211
1790163254030608600,5.908608642578125,3.0013957023620605,0.04764604568481445,-1.2884337902069092
1790163254040608800,5.91860888671875,2.8557496070861816,-0.04053783416748047,-1.259690523147583
1790163254050608600,5.928608642578125,2.464169979095459,-0.16288042068481445,-1.2294590473175049
1790163254060608800,5.93860888671875,1.9549641609191895,-0.3014988899230957,-1.0060570240020752
1790163254070608600,5.948608642578125,1.4346132278442383,-0.35915613174438477,-0.8281610012054443
1790163254080608800,5.95860888671875,1.0067458152770996,-0.35293006896972656,-0.8010270595550537
1790163254090608600,5.968608642578125,0.8896303176879883,-0.2566394805908203,-0.867262601852417
1790163254100608800,5.97860888671875,1.2763910293579102,-0.22934484481811523,-0.8743579387664795
1790163254110608600,5.988608642578125,1.4922657012939453,-0.37578678131103516,-0.8303670883178711
1790163254120608800,5.99860888671875,1.281022071838379,-0.6720724105834961,-0.9565134048461914
1790163254130608600,6.008608642578125,0.8124260902404785,-1.0052709579467773,-1.553283452987671
1790163254140608800,6.01860888671875,0.7305517196655273,-1.141573429107666,-2.032045364379883
1790163254150608600,6.028608642578125,0.6609334945678711,-1.0191307067871094,-1.9905223846435547
1790163254160608800,6.03860888671875,0.7559099197387695,-0.978276252746582,-1.4294047355651855
1790163254170608600,6.048608642578125,0.7833938598632812,-1.067018985748291,-0.8160669803619385
1790163254180608800,6.05860888671875,0.8204717636108398,-1.1622633934020996,-0.277862548828125
1790163254190608600,6.068608642578125,0.6162052154541016,-1.2476205825805664,0.05772519111633301
1790163254200608800,6.07860888671875,0.5424280166625977,-1.3686552047729492,0.094512939453125
1790163254210608600,6.088608642578125,0.7544374465942383,-1.3742692470550537,-0.015804290771484375
1790163254220608800,6.09860888671875,-1.1111516952514648,-1.8732221126556396,0.3925361633300781
1790163254230608600,6.108608642578125,-2.0381407737731934,-2.0516316890716553,-0.006421566009521484
1790163254240608800,6.11860888671875,-3.0297422409057617,-2.111234664916992,-0.44733142852783203
1790163254250608600,6.128608642578125,-5.817309379577637,-1.962789535522461,-3.643491268157959
1790163254260608800,6.13860888671875,0.8706655502319336,-2.023599147796631,-2.521773099899292
1790163254270608600,6.148608642578125,5.629071235656738,-2.205962657928467,-2.652294874191284
1790163254280608800,6.15860888671875,4.0207109451293945,-1.7946875095367432,-1.51761794090271
1790163254290608600,6.168608642578125,0.47534942626953125,-1.3198490142822266,-0.8495919704437256
1790163254300608800,6.17860888671875,-1.8153433799743652,-0.8960773944854736,-0.24971961975097656
1790163254310608600,6.188608642578125,-2.5717639923095703,-0.6574032306671143,0.4756314754486084
1790163254320608800,6.19860888671875,-3.1368050575256348,-0.32082104682922363,0.8663229942321777
1790163254330608600,6.208608642578125,-2.581742286682129,-0.15526127815246582,0.45625805854797363
1790163254340608800,6.21860888671875,-1.2114553451538086,-0.2534693479537964,0.1227264404296875
1790163254350608600,6.228608642578125,0.0703582763671875,-0.5107603073120117,0.6412146091461182
1790163254360608800,6.23860888671875,0.4200763702392578,-0.4713475704193115,1.433102011680603
1790163254370608600,6.248608642578125,0.13782691955566406,-0.588441014289856,1.9171632528305054
1790163254380608800,6.25860888671875,-0.7449178695678711,-0.6490219831466675,2.0277223587036133
1790163254390608600,6.268608642578125,-1.3673105239868164,-0.7307034730911255,2.2364439964294434
1790163254400608800,6.27860888671875,-1.2803058624267578,-0.8508358001708984,2.0730252265930176
1790163254410608600,6.288608642578125,-1.1156959533691406,-0.9079527854919434,1.6600332260131836
1790163254420608800,6.29860888671875,-0.8005237579345703,-0.6517528295516968,1.5773813724517822
1790163254430608600,6.308608642578125,-0.2893953323364258,-0.6048818230628967,1.2060973644256592
1790163254440608800,6.31860888671875,0.004764556884765625,-0.7463141679763794,0.9724113941192627
1790163254450608600,6.328608642578125,-0.5942354202270508,-0.6022392511367798,1.241046667098999
1790163254460608800,6.33860888671875,-1.0737829208374023,-0.4870656728744507,0.19397830963134766
1790163254470608600,6.348608642578125,-0.9917802810668945,-0.3554367125034332,0.604722261428833
1790163254480608800,6.35860888671875,-0.8837165832519531,-0.5132241249084473,0.5231821537017822
1790163254490608600,6.368608642578125,-0.8428945541381836,-0.6876547336578369,0.7263917922973633
1790163254500608800,6.37860888671875,-1.1508264541625977,-0.14067918062210083,1.358845829963684
1790163254510608600,6.388608642578125,-1.5269832611083984,-0.3277820944786072,0.41750645637512207
1790163254520608800,6.39860888671875,-1.80955171585083,-0.025549709796905518,0.5168629884719849
1790163254530608600,6.408608642578125,-1.6305150985717773,0.5274421572685242,0.602057933807373
1790163254540608800,6.41860888671875,-1.616434097290039,0.111031174659729,-0.7434449195861816
1790163254550608600,6.428608642578125,-1.2604150772094727,0.31021952629089355,0.13653826713562012
1790163254560608800,6.43860888671875,-0.9464359283447266,0.36615145206451416,0.6303830146789551
1790163254570608600,6.448608642578125,-0.950739860534668,0.6088001728057861,1.2821919918060303
1790163254580608800,6.45860888671875,-1.4966325759887695,0.3543311357498169,0.8227179050445557
1790163254590608600,6.468608642578125,-1.825265884399414,0.3658332824707031,0.4718754291534424
1790163254600608800,6.47860888671875,-2.1088314056396484,0.4323540925979614,0.5824971199035645
1790163254610608600,6.488608642578125,-1.9797658920288086,0.39586639404296875,0.6968722343444824
1790163254620608800,6.49860888671875,-1.836390495300293,0.39174890518188477,1.062169075012207
1790163254630608600,6.508608642578125,-1.7562870979309082,0.371875524520874,1.558793067932129
1790163254640608800,6.51860888671875,-1.8225946426391602,0.5064306259155273,1.7153733968734741
1790163254650608600,6.528608642578125,-2.1740927696228027,0.7186447381973267,1.7250800132751465
1790163254660608800,6.53860888671875,-2.3747739791870117,0.745697021484375,1.5650339126586914
1790163254670608600,6.548608642578125,-2.7231640815734863,0.7726547718048096,1.16023850440979
1790163254680608800,6.55860888671875,-2.728395462036133,0.6943135261535645,0.8023805618286133
1790163254690608600,6.568608642578125,-2.4651613235473633,0.7489778995513916,0.6305530071258545
1790163254700608800,6.57860888671875,-2.2863826751708984,0.755075216293335,0.8820805549621582
1790163254710608600,6.588608642578125,-2.1127476692199707,0.6869049072265625,1.3182265758514404
1790163254720608800,6.59860888671875,-2.2105517387390137,0.641258955001831,1.6929347515106201
1790163254730608600,6.608608642578125,-2.468532085418701,0.6728813648223877,1.7803106307983398
1790163254740608800,6.61860888671875,-2.5026068687438965,0.6428748369216919,1.5683743953704834
1790163254750608600,6.628608642578125,-2.464144229888916,0.5014379024505615,1.3296616077423096
1790163254760608800,6.63860888671875,-2.1058149337768555,0.4582127332687378,1.2107785940170288
1790163254770608600,6.648608642578125,-1.8242597579956055,0.43370509147644043,1.284630537033081
1790163254780608800,6.65860888671875,-1.7277841567993164,0.5190356969833374,1.2266631126403809
1790163254790608600,6.668608642578125,-1.568441390991211,0.4067622423171997,1.236545205116272
1790163254800608800,6.67860888671875,-1.2442069053649902,0.3074425458908081,1.2426159381866455
1790163254810608600,6.688608642578125,-1.0161466598510742,0.1458742618560791,1.2226282358169556
1790163254820608800,6.69860888671875,-0.8581228256225586,0.030686378479003906,1.0754332542419434
1790163254830608600,6.708608642578125,-0.6648664474487305,-0.08435642719268799,0.9337780475616455
1790163254840608800,6.71860888671875,-0.7016191482543945,-0.19192922115325928,0.9372937679290771
1790163254850608600,6.728608642578125,-0.990962028503418,-0.29638588428497314,0.8906970024108887
1790163254860608800,6.73860888671875,-1.371530532836914,-0.4934161901473999,0.8673243522644043
1790163254870608600,6.748608642578125,-1.5727362632751465,-0.7384857535362244,0.7769074440002441
1790163254880608800,6.75860888671875,-1.3168444633483887,-0.8768874406814575,0.45195484161376953
1790163254890608600,6.768608642578125,-1.1115951538085938,-0.9491301774978638,0.06588196754455566
1790163254900608800,6.77860888671875,-1.0558290481567383,-1.0351338386535645,-0.00458836555480957
1790163254910608600,6.788608642578125,-1.0327587127685547,-1.1597771644592285,0.36878514289855957
1790163254920608800,6.79860888671875,-0.6023635864257812,-1.3355001211166382,0.7685294151306152
1790163254930608600,6.808608642578125,-0.18091487884521484,-1.405877709388733,0.9337005615234375
1790163254940608800,6.81860888671875,-0.03699779510498047,-1.4591217041015625,0.8258795738220215
1790163254950608600,6.828608642578125,0.06015491485595703,-1.3676830530166626,0.5561821460723877
1790163254960608800,6.83860888671875,-0.0017347335815429688,-1.4280259609222412,0.31487274169921875
1790163254970608600,6.848608642578125,-0.4508810043334961,-1.5516104698181152,0.09396815299987793
1790163254980608800,6.85860888671875,-0.8282771110534668,-1.6942222118377686,-0.045503854751586914
1790163254990608600,6.868608642578125,0.1115570068359375,-1.9023256301879883,-0.4095165729522705
1790163255000608800,6.87860888671875,0.7831935882568359,-1.8215043544769287,-1.1658225059509277
1790163255010608600,6.888608642578125,0.8096122741699219,-1.7091641426086426,-1.805316686630249
1790163255020608800,6.89860888671875,0.6731357574462891,-1.5842556953430176,-2.1561243534088135
1790163255030608600,6.908608642578125,0.2948484420776367,-1.3005192279815674,-1.8115098476409912
1790163255040608800,6.91860888671875,-0.14146041870117188,-0.9843606948852539,-1.0675172805786133
1790163255050608600,6.928608642578125,-0.3387422561645508,-0.7172842025756836,-0.10283994674682617
1790163255060608800,6.93860888671875,-0.2639122009277344,-0.5007922649383545,0.9144656658172607
1790163255070608600,6.948608642578125,0.7241334915161133,-0.4382047653198242,1.6391326189041138
1790163255080608800,6.95860888671875,1.7481565475463867,-0.4566202163696289,1.297893762588501
1790163255090608600,6.968608642578125,1.9530296325683594,-0.29815101623535156,0.9527907371520996
1790163255100608800,6.97860888671875,1.244044303894043,-0.4497952461242676,0.2365741729736328
1790163255110608600,6.988608642578125,0.3362760543823242,-0.5268983840942383,0.4436953067779541
1790163255120608800,6.99860888671875,-0.6033258438110352,-0.8327198028564453,0.2859992980957031
1790163255130608600,7.008608642578125,-0.7483067512512207,-0.8875479698181152,0.5442724227905273
1790163255140608800,7.01860888671875,-0.36929798126220703,-0.9375629425048828,0.17565679550170898
1790163255150608600,7.028608642578125,0.7077598571777344,-1.0211153030395508,-0.2376878261566162
1790163255160608800,7.03860888671875,2.035458564758301,-1.0940356254577637,-0.7878537178039551
1790163255170608600,7.048608642578125,2.5893592834472656,-0.9391932487487793,-0.27988123893737793
1790163255180608800,7.05860888671875,2.1779589653015137,-1.1516914367675781,-0.2579216957092285
1790163255190608600,7.068608642578125,1.409416675567627,-1.2862458229064941,-0.012139081954956055
1790163255200608800,7.07860888671875,1.0045318603515625,-1.4818344116210938,0.020387887954711914
1790163255210608600,7.088608642578125,0.941779613494873,-1.616990566253662,-0.24007558822631836
1790163255220608800,7.09860888671875,1.023073673248291,-1.7386369705200195,-0.8152737617492676
1790163255230608600,7.108608642578125,1.229508399963379,-1.7210092544555664,-1.519773006439209
1790163255240608800,7.11860888671875,1.5762743949890137,-1.7336058616638184,-2.0318806171417236
1790163255250608600,7.128608642578125,1.8443059921264648,-1.3920421600341797,-2.2940752506256104
1790163255260608800,7.13860888671875,2.26865816116333,-1.3834905624389648,-2.2629361152648926
1790163255270608600,7.148608642578125,2.5584797859191895,-1.2665138244628906,-2.131002426147461
1790163255280608800,7.15860888671875,2.5210652351379395,-1.0655760765075684,-2.066926956176758
1790163255290608600,7.168608642578125,2.528027057647705,-0.9054193496704102,-1.9776852130889893
1790163255300608800,7.17860888671875,2.6887693405151367,-0.740696907043457,-1.8754584789276123
1790163255310608600,7.188608642578125,2.4860682487487793,-0.5991668701171875,-1.8038949966430664
1790163255320608800,7.19860888671875,1.8652105331420898,-0.42877197265625,-2.008727788925171
1790163255330608600,7.208608642578125,1.6356587409973145,-0.4199671745300293,-1.8762621879577637
1790163255340608800,7.21860888671875,1.8394794464111328,-0.3486766815185547,-1.688309669494629
1790163255350608600,7.228608642578125,2.0188469886779785,-0.20868921279907227,-1.9681830406188965
1790163255360608800,7.23860888671875,2.0422005653381348,-0.1256418228149414,-2.360034465789795
1790163255370608600,7.248608642578125,1.9930691719055176,-0.09375190734863281,-2.4502720832824707
1790163255380608800,7.25860888671875,2.0406370162963867,-0.10871267318725586,-2.197267770767212
1790163255390608600,7.268608642578125,1.9860429763793945,-0.16768169403076172,-1.8671140670776367
1790163255400608800,7.27860888671875,2.1490235328674316,-0.3031282424926758,-1.4693398475646973
1790163255410608600,7.288608642578125,2.2179765701293945,-0.43848323822021484,-1.4004137516021729
1790163255420608800,7.29860888671875,1.9128227233886719,-0.661402702331543,-1.4814872741699219
1790163255430608600,7.308608642578125,1.2386512756347656,-0.8092522621154785,-1.775000810623169
1790163255440608800,7.31860888671875,1.0495853424072266,-1.0345096588134766,-1.9179067611694336
1790163255450608600,7.328608642578125,1.3589463233947754,-1.2307868003845215,-1.9120080471038818
1790163255460608800,7.33860888671875,1.8086543083190918,-1.2280759811401367,-2.008486032485962
1790163255470608600,7.348608642578125,2.283484935760498,-1.2533984184265137,-2.0475199222564697
1790163255480608800,7.35860888671875,2.4782114028930664,-1.2922682762145996,-2.040493965148926
1790163255490608600,7.368608642578125,2.1541337966918945,-1.3772549629211426,-2.1902670860290527
1790163255500608800,7.37860888671875,1.5304012298583984,-1.523515224456787,-2.3232011795043945
1790163255510608600,7.388608642578125,1.1741151809692383,-1.499901294708252,-2.169667959213257
1790163255520608800,7.39860888671875,0.8791742324829102,-1.3568577766418457,-1.6523704528808594
1790163255530608600,7.408608642578125,0.8188676834106445,-1.3459763526916504,-0.900294303894043
1790163255540608800,7.41860888671875,0.8560962677001953,-1.4264826774597168,-0.27329540252685547
1790163255550608600,7.428608642578125,0.48286914825439453,-1.4963111877441406,-0.05689501762390137
1790163255560608800,7.43860888671875,-0.05841350555419922,-1.4612150192260742,-0.1300032138824463
1790163255570608600,7.448608642578125,-0.3601856231689453,-1.4110054969787598,-0.3786323070526123
1790163255580608800,7.45860888671875,-0.4801979064941406,-1.1561760902404785,-0.3613138198852539
1790163255590608600,7.468608642578125,-0.2979087829589844,-0.9411447048187256,-0.01476597785949707
1790163255600608800,7.47860888671875,-0.002315521240234375,-0.8754668235778809,0.42513418197631836
1790163255610608600,7.488608642578125,0.15927505493164062,-0.8820528984069824,0.942986011505127
1790163255620608800,7.49860888671875,-0.0012645721435546875,-1.0277705192565918,1.3055469989776611
1790163255630608600,7.508608642578125,-0.3461570739746094,-1.0435125827789307,1.2574684619903564
1790163255640608800,7.51860888671875,-1.0203495025634766,-1.110482931137085,1.0161631107330322
1790163255650608600,7.528608642578125,-1.664076328277588,-1.2566826343536377,1.1222721338272095
1790163255660608800,7.53860888671875,-1.602945327758789,-1.2859828472137451,1.4243581295013428
1790163255670608600,7.548608642578125,-1.0578231811523438,-1.2551472187042236,1.7088987827301025
1790163255680608800,7.55860888671875,-0.5374135971069336,-1.2311419248580933,1.6875755786895752
1790163255690608600,7.568608642578125,-0.5695705413818359,-1.1030066013336182,1.522101879119873
1790163255700608800,7.57860888671875,-1.2312202453613281,-1.0384039878845215,1.3320493698120117
1790163255710608600,7.588608642578125,-1.774087905883789,-0.9544188976287842,1.2599576711654663
1790163255720608800,7.59860888671875,-1.8692827224731445,-0.857731282711029,1.2626595497131348
1790163255730608600,7.608608642578125,-1.7054290771484375,-0.9564870595932007,1.252393364906311
1790163255740608800,7.61860888671875,-1.361520767211914,-1.1404892206192017,1.5255557298660278
1790163255750608600,7.628608642578125,-1.1218652725219727,-1.19154691696167,1.940352201461792
1790163255760608800,7.63860888671875,-0.9406394958496094,-0.9855465292930603,1.6507643461227417
1790163255770608600,7.648608642578125,-1.344731330871582,-0.7813366055488586,0.6897906064987183
1790163255780608800,7.65860888671875,-1.8655762672424316,-0.44146522879600525,-0.19550204277038574
1790163255790608600,7.668608642578125,-2.2012104988098145,-0.3644191026687622,-0.5817763805389404
1790163255800608800,7.67860888671875,-1.9318361282348633,-0.2470099925994873,0.35747241973876953
1790163255810608600,7.688608642578125,-1.375518798828125,-0.11409586668014526,0.8314824104309082
1790163255820608800,7.69860888671875,-0.8102092742919922,0.065082848072052,1.2516504526138306
1790163255830608600,7.708608642578125,-1.0920391082763672,0.20894885063171387,0.4147036075592041
1790163255840608800,7.71860888671875,-1.7217674255371094,0.38397371768951416,-0.3743588924407959
1790163255850608600,7.728608642578125,-2.2245912551879883,0.636444091796875,-1.0009357929229736
1790163255860608800,7.73860888671875,-2.4179201126098633,0.7545911073684692,-0.4405179023742676
1790163255870608600,7.748608642578125,-2.3813514709472656,0.7490800619125366,-0.030403614044189453
1790163255880608800,7.75860888671875,-2.120736598968506,0.8113640546798706,0.6293199062347412
1790163255890608600,7.768608642578125,-1.7994585037231445,0.7731119394302368,1.0698986053466797
1790163255900608800,7.77860888671875,-1.769500732421875,0.5451775789260864,1.2493088245391846
1790163255910608600,7.788608642578125,-2.0605506896972656,0.2622857093811035,0.48844051361083984
1790163255920608800,7.79860888671875,-2.4721899032592773,0.18604326248168945,0.7398457527160645
1790163255930608600,7.808608642578125,-2.860929489135742,0.21711945533752441,1.0085899829864502
1790163255940608800,7.81860888671875,-3.1126537322998047,0.20605897903442383,0.7166774272918701
1790163255950608600,7.828608642578125,-2.962967872619629,0.41501784324645996,1.1919196844100952
1790163255960608800,7.83860888671875,-2.5017709732055664,0.47234082221984863,1.5618276596069336
1790163255970608600,7.848608642578125,-2.2770705223083496,0.42470502853393555,1.8577889204025269
1790163255980608800,7.85860888671875,-2.2862930297851562,0.413679838180542,1.8386787176132202
1790163255990608600,7.868608642578125,-2.4883346557617188,0.3769795894622803,1.7852675914764404
1790163256000608800,7.87860888671875,-2.8148880004882812,0.3723325729370117,1.84898841381073
1790163256010608600,7.888608642578125,-3.1168432235717773,0.43735384941101074,1.8141453266143799
1790163256020608800,7.89860888671875,-3.325532913208008,0.41758108139038086,1.6642347574234009
1790163256030608600,7.908608642578125,-2.8126449584960938,0.30382025241851807,1.5932155847549438
1790163256040608800,7.91860888671875,-2.03934907913208,0.26526379585266113,1.496503472328186
1790163256050608600,7.928608642578125,-1.26092529296875,0.23531198501586914,1.5679030418395996
1790163256060608800,7.93860888671875,-0.43204689025878906,0.19481539726257324,1.6035112142562866
1790163256070608600,7.948608642578125,-0.34902381896972656,0.18768036365509033,1.5298898220062256
1790163256080608800,7.95860888671875,-1.035475730895996,0.20450985431671143,1.3943188190460205
1790163256090608600,7.968608642578125,-1.6617708206176758,0.2112663984298706,1.3291667699813843
1790163256100608800,7.97860888671875,-2.0352120399475098,0.12796461582183838,1.3009023666381836
1790163256110608600,7.988608642578125,-1.9942522048950195,0.12817597389221191,1.2664474248886108
1790163256120608800,7.99860888671875,-1.6218552589416504,0.15396320819854736,1.2864201068878174
1790163256130608600,8.008608642578125,-0.8355293273925781,0.1370915174484253,1.1620616912841797
1790163256140608800,8.01860888671875,-0.21889495849609375,0.09709638357162476,0.9822745323181152
1790163256150608600,8.028608642578124,0.02956676483154297,0.038096070289611816,0.9335774183273315
1790163256160608800,8.03860888671875,-0.30161190032958984,-0.1457103192806244,0.901413083076477
1790163256170608600,8.048608642578126,-0.8685712814331055,-0.3901716470718384,0.7717056274414062
1790163256180608800,8.05860888671875,-1.3355913162231445,-0.5202425122261047,0.5248980522155762
1790163256190608600,8.068608642578125,-1.7206697463989258,-0.5182274580001831,0.3771979808807373
1790163256200608800,8.07860888671875,-1.939070701599121,-0.4687962532043457,0.32315945625305176
1790163256210608600,8.088608642578125,-1.4800548553466797,-0.4529338479042053,0.3095088005065918
1790163256220608800,8.09860888671875,-0.8305759429931641,-0.45676398277282715,0.3162374496459961
1790163256230608600,8.108608642578124,-0.1751852035522461,-0.7473286390304565,0.4790308475494385
1790163256240608800,8.11860888671875,0.156005859375,-1.0525131225585938,0.6107168197631836
1790163256250608600,8.128608642578126,-0.028743743896484375,-1.3259079456329346,0.6043455600738525
1790163256260608800,8.13860888671875,-0.5786170959472656,-1.51801598072052,0.611299991607666
1790163256270608600,8.148608642578125,-1.3382468223571777,-1.66328763961792,0.7918252944946289
1790163256280608800,8.15860888671875,-1.549485206604004,-1.6955065727233887,0.7718555927276611
1790163256290608600,8.168608642578125,-0.8079118728637695,-1.6061267852783203,0.5689215660095215
1790163256300608800,8.17860888671875,0.6828842163085938,-1.552485704421997,-0.03203701972961426
1790163256310608600,8.188608642578124,1.4039602279663086,-1.4218652248382568,-0.3672049045562744
1790163256320608800,8.19860888671875,1.2388629913330078,-1.4221551418304443,-0.4012289047241211
1790163256330608600,8.208608642578126,0.514129638671875,-1.448432445526123,-0.1730043888092041
1790163256340608800,8.21860888671875,-0.2106618881225586,-1.5263745784759521,0.2625408172607422
1790163256350608600,8.228608642578125,-0.45033740997314453,-1.614199161529541,0.6721944808959961
1790163256360608800,8.23860888671875,-0.7777156829833984,-1.595374584197998,0.8487370014190674
1790163256370608600,8.248608642578125,-0.8683004379272461,-1.5845532417297363,1.0222915410995483
1790163256380608800,8.25860888671875,-0.44559288024902344,-1.6222715377807617,0.8101017475128174
1790163256390608600,8.268608642578124,0.5504770278930664,-1.5690712928771973,0.6875050067901611
1790163256400608800,8.27860888671875,1.2218265533447266,-1.4323444366455078,0.2771155834197998
1790163256410608600,8.288608642578126,1.5767712593078613,-1.2985339164733887,0.15024209022521973
1790163256420608800,8.29860888671875,1.3261098861694336,-1.3019890785217285,-0.06750106811523438
1790163256430608600,8.308608642578125,0.5838222503662109,-1.3571820259094238,-0.12440252304077148
1790163256440608800,8.31860888671875,-0.18438148498535156,-1.5133671760559082,-0.5592741966247559
1790163256450608600,8.328608642578125,-0.19707059860229492,-1.5965209007263184,-0.5946395397186279
1790163256460608800,8.33860888671875,0.4021644592285156,-1.670809268951416,-0.749687910079956
1790163256470608600,8.348608642578125,1.0519609451293945,-1.6144118309020996,-0.9171373844146729
1790163256480608800,8.35860888671875,1.880922794342041,-1.4082965850830078,-0.6964242458343506
1790163256490608600,8.368608642578126,1.817087173461914,-1.5792746543884277,-1.0076053142547607
1790163256500608800,8.37860888671875,0.9887385368347168,-1.651233196258545,-0.9948501586914062
1790163256510608600,8.388608642578125,0.6483058929443359,-1.7297048568725586,-1.3734261989593506
1790163256520608800,8.39860888671875,1.0540189743041992,-1.7414436340332031,-1.9026590585708618
1790163256530608600,8.408608642578125,1.298447608947754,-1.5934791564941406,-2.5119194984436035
1790163256540608800,8.41860888671875,1.5644745826721191,-1.3494410514831543,-2.594822883605957
1790163256550608600,8.428608642578125,1.9277749061584473,-1.186082363128662,-2.802546977996826
1790163256560608800,8.43860888671875,2.0527095794677734,-1.0112204551696777,-2.4147956371307373
1790163256570608600,8.448608642578124,2.4608354568481445,-0.9334688186645508,-2.1969475746154785
1790163256580608800,8.45860888671875,2.769186496734619,-0.8096332550048828,-1.8526318073272705
1790163256590608600,8.468608642578126,2.1507773399353027,-0.7646784782409668,-2.0402421951293945
1790163256600608800,8.47860888671875,1.8542900085449219,-0.6922321319580078,-2.30379581451416
1790163256610608600,8.488608642578125,2.1217031478881836,-0.5425457954406738,-2.711599349975586
1790163256620608800,8.49860888671875,2.6122941970825195,-0.3870553970336914,-3.008779287338257
1790163256630608600,8.508608642578125,2.8803138732910156,-0.19024085998535156,-3.1664204597473145
1790163256640608800,8.51860888671875,2.9835662841796875,-0.1660780906677246,-2.966308116912842
1790163256650608600,8.528608642578124,2.9723868370056152,-0.22754764556884766,-2.5046815872192383
1790163256660608800,8.53860888671875,2.578460216522217,-0.34642744064331055,-2.0285348892211914
1790163256670608600,8.548608642578126,1.909968376159668,-0.5196003913879395,-1.6876033544540405
1790163256680608800,8.55860888671875,1.5177497863769531,-0.5320501327514648,-1.5231568813323975
1790163256690608600,8.568608642578125,1.4658746719360352,-0.4525909423828125,-1.5920847654342651
1790163256700608800,8.57860888671875,1.6857938766479492,-0.37137794494628906,-1.8026288747787476
1790163256710608600,8.588608642578125,1.9322195053100586,-0.3592491149902344,-2.0533785820007324
1790163256720608800,8.59860888671875,2.0613293647766113,-0.4392104148864746,-2.2245025634765625
1790163256730608600,8.608608642578124,1.945223331451416,-0.5507597923278809,-2.180795192718506
1790163256740608800,8.61860888671875,1.826528549194336,-0.6512527465820312,-2.0704822540283203
1790163256750608600,8.628608642578126,1.888880729675293,-0.8254208564758301,-1.9909238815307617
1790163256760608800,8.63860888671875,1.7813310623168945,-1.0251097679138184,-1.870202898979187
1790163256770608600,8.648608642578125,1.641624927520752,-1.3370733261108398,-1.8040353059768677
1790163256780608800,8.65860888671875,1.5563974380493164,-1.5457091331481934,-1.6530046463012695
1790163256790608600,8.668608642578125,1.7855195999145508,-1.6037254333496094,-1.6507799625396729
1790163256800608800,8.67860888671875,2.0991787910461426,-1.73121976852417,-1.8663628101348877
1790163256810608600,8.688608642578124,2.0516343116760254,-1.8770179748535156,-2.299196243286133
1790163256820608800,8.69860888671875,1.7362442016601562,-2.1040430068969727,-2.700690269470215
1790163256830608600,8.708608642578126,1.1356925964355469,-2.1730499267578125,-3.149430274963379
1790163256840608800,8.71860888671875,0.9526748657226562,-2.206296920776367,-3.194789171218872
1790163256850608600,8.728608642578125,0.8415389060974121,-2.1803340911865234,-2.489595413208008
1790163256860608800,8.73860888671875,0.490145206451416,-2.132056713104248,-1.4621632099151611
1790163256870608600,8.748608642578125,0.37764835357666016,-2.0547938346862793,-0.6442849636077881
1790163256880608800,8.75860888671875,0.14913272857666016,-1.9663491249084473,-0.01491093635559082
1790163256890608600,8.768608642578124,-0.014707565307617188,-1.9560308456420898,0.4985957145690918
1790163256900608800,8.77860888671875,-0.03684520721435547,-1.8853588104248047,0.6970248222351074
1790163256910608600,8.788608642578126,-0.22208690643310547,-1.6851391792297363,0.5390727519989014
1790163256920608800,8.79860888671875,-0.6154394149780273,-1.544532299041748,0.1040806770324707
1790163256930608600,8.808608642578125,-0.9209480285644531,-1.687530279159546,-0.36646509170532227
1790163256940608800,8.81860888671875,-1.3318815231323242,-1.813816785812378,-0.4533867835998535
1790163256950608600,8.828608642578125,-1.4835472106933594,-1.9993438720703125,0.04159069061279297
1790163256960608800,8.83860888671875,-1.4359369277954102,-2.036224365234375,0.913632869720459
1790163256970608600,8.848608642578125,-0.8527717590332031,-1.9148485660552979,1.9324157238006592
1790163256980608800,8.85860888671875,-0.43707752227783203,-1.6721489429473877,2.785125970840454
1790163256990608600,8.868608642578126,-0.6968936920166016,-1.4507472515106201,3.033008098602295
1790163257000608800,8.87860888671875,-1.0332136154174805,-1.3039262294769287,3.1484241485595703
1790163257010608600,8.888608642578125,-1.1832056045532227,-1.1473910808563232,3.467075824737549
1790163257020608800,8.89860888671875,-1.2676653861999512,-0.9628361463546753,3.6317124366760254
1790163257030608600,8.908608642578125,-1.0736618041992188,-0.7254320383071899,3.6677494049072266
1790163257040608800,8.91860888671875,-0.9552536010742188,-0.48198699951171875,3.612483024597168
1790163257050608600,8.928608642578125,-0.9727463722229004,-0.3018062114715576,3.474033832550049
1790163257060608800,8.93860888671875,-1.0945978164672852,-0.22314155101776123,3.319654703140259
1790163257070608600,8.948608642578124,-1.2462072372436523,-0.2935229539871216,3.3558530807495117
1790163257080608800,8.95860888671875,-1.3514165878295898,-0.30181026458740234,3.248775005340576
1790163257090608600,8.968608642578126,-1.6433687210083008,-0.2549101412296295,2.940260887145996
1790163257100608800,8.97860888671875,-2.2322397232055664,-0.15161120891571045,2.5835812091827393
1790163257110608600,8.988608642578125,-2.7806172370910645,-0.05675956979393959,2.229942560195923
1790163257120608800,8.99860888671875,-2.7400503158569336,0.06979891657829285,2.287747383117676
1790163257130608600,9.008608642578125,-2.5576744079589844,0.15945735573768616,2.0204546451568604
1790163257140608800,9.01860888671875,-2.471435546875,0.44913965463638306,2.4197723865509033
1790163257150608600,9.028608642578124,-2.6353745460510254,0.537175178527832,1.9062714576721191
1790163257160608800,9.03860888671875,-2.950308322906494,0.8905278444290161,2.0240859985351562
1790163257170608600,9.048608642578126,-3.009317398071289,1.1944727897644043,1.3396339416503906
1790163257180608800,9.05860888671875,-3.0275163650512695,1.436014175415039,1.223231315612793
1790163257190608600,9.068608642578125,-2.996331214904785,1.5717496871948242,1.3253436088562012
1790163257200608800,9.07860888671875,-2.850581169128418,1.5956013202667236,1.519747257232666
1790163257210608600,9.088608642578125,-2.7125539779663086,1.492871880531311,1.5090489387512207
1790163257220608800,9.09860888671875,-2.851633071899414,1.3609123229980469,1.4673717021942139
1790163257230608600,9.108608642578124,-2.955571174621582,1.158557653427124,1.4589223861694336
1790163257240608800,9.11860888671875,-2.929945945739746,0.9418658018112183,1.4716877937316895
1790163257250608600,9.128608642578126,-2.8162331581115723,0.7189434766769409,1.5356478691101074
1790163257260608800,9.13860888671875,-2.764540195465088,0.4110208749771118,1.6699485778808594
1790163257270608600,9.148608642578125,-2.6376190185546875,0.17373430728912354,1.8943426609039307
1790163257280608800,9.15860888671875,-2.4599061012268066,-0.027413666248321533,2.07734751701355
1790163257290608600,9.168608642578125,-2.420559883117676,-0.07895523309707642,2.1804122924804688
1790163257300608800,9.17860888671875,-2.2328577041625977,-0.02492302656173706,2.2201638221740723
1790163257310608600,9.188608642578124,-1.9451861381530762,0.11310207843780518,2.15877366065979
1790163257320608800,9.19860888671875,-1.4787168502807617,0.31458020210266113,2.0198349952697754
1790163257330608600,9.208608642578126,-0.9957056045532227,0.5072005391120911,1.685776710510254
1790163257340608800,9.21860888671875,-0.8465104103088379,0.5966379046440125,1.3893299102783203
1790163257350608600,9.228608642578125,-1.1276960372924805,0.5822228789329529,1.3849551677703857
1790163257360608800,9.23860888671875,-1.4730238914489746,0.4661986827850342,1.4862520694732666
1790163257370608600,9.248608642578125,-1.4991397857666016,0.2774984836578369,1.3283600807189941
1790163257380608800,9.25860888671875,-1.6941213607788086,0.12967181205749512,0.7627964019775391
1790163257390608600,9.268608642578124,-1.9658455848693848,-0.03697466850280762,0.22549057006835938
1790163257400608800,9.27860888671875,-2.024764060974121,-0.2596774101257324,0.03478527069091797
1790163257410608600,9.288608642578126,-1.854318618774414,-0.4867842197418213,0.14336681365966797
1790163257420608800,9.29860888671875,-1.510148048400879,-0.6314675807952881,0.3122553825378418
1790163257430608600,9.308608642578125,-1.2813291549682617,-0.8770337104797363,0.6121978759765625
1790163257440608800,9.31860888671875,-0.5747909545898438,-1.1786015033721924,0.8457427024841309
1790163257450608600,9.328608642578125,0.14159011840820312,-1.347027063369751,0.7605571746826172
1790163257460608800,9.33860888671875,0.3719329833984375,-1.5839221477508545,0.2340083122253418
1790163257470608600,9.348608642578125,0.14468669891357422,-1.8616876602172852,-0.21749258041381836
1790163257480608800,9.35860888671875,0.31345653533935547,-2.055725574493408,-0.5633449554443359
1790163257490608600,9.368608642578126,0.22144317626953125,-2.1063778400421143,-1.0108160972595215
1790163257500608800,9.37860888671875,-0.09217071533203125,-2.088994026184082,-0.766787052154541
1790163257510608600,9.388608642578125,-0.31214094161987305,-2.0507123470306396,0.01945018768310547
1790163257520608800,9.39860888671875,0.06540298461914062,-2.0839920043945312,0.6716909408569336
1790163257530608600,9.408608642578125,0.48331451416015625,-2.132939338684082,1.0602197647094727
1790163257540608800,9.41860888671875,0.7983307838439941,-2.2014527320861816,1.0504436492919922
1790163257550608600,9.428608642578125,0.902895450592041,-2.2443671226501465,0.838618278503418
1790163257560608800,9.43860888671875,0.6923322677612305,-2.253190517425537,0.5172255039215088
1790163257570608600,9.448608642578124,0.5251312255859375,-2.131166934967041,0.1976327896118164
1790163257580608800,9.45860888671875,0.6437807083129883,-1.9498295783996582,0.026354312896728516
1790163257590608600,9.468608642578126,1.1504430770874023,-1.6984949111938477,0.11902332305908203
1790163257600608800,9.47860888671875,1.7884225845336914,-1.6342687606811523,-0.5211935043334961
1790163257610608600,9.488608642578125,1.7353229522705078,-1.4705181121826172,-1.3123860359191895
1790163257620608800,9.49860888671875,0.9414482116699219,-1.6136846542358398,-2.1482553482055664
1790163257630608600,9.508608642578125,0.5068297386169434,-1.6955952644348145,-1.7233588695526123
1790163257640608800,9.51860888671875,0.23833131790161133,-1.753244400024414,-1.2853221893310547
1790163257650608600,9.528608642578124,-0.15251541137695312,-1.7716851234436035,-0.5368516445159912
1790163257660608800,9.53860888671875,-0.040660858154296875,-1.7070894241333008,-0.16923093795776367
1790163257670608600,9.548608642578126,0.5034432411193848,-1.3621931076049805,0.37682008743286133
1790163257680608800,9.55860888671875,1.2301268577575684,-1.110724925994873,-0.06545519828796387
1790163257690608600,9.568608642578125,1.9026870727539062,-0.9929032325744629,-0.7420644760131836
1790163257700608800,9.57860888671875,2.112288475036621,-1.0404143333435059,-1.7585225105285645
1790163257710608600,9.588608642578125,1.7091097831726074,-1.2737650871276855,-2.764998435974121
1790163257720608800,9.59860888671875,1.0872611999511719,-1.5972142219543457,-2.698101043701172
1790163257730608600,9.608608642578124,0.6606736183166504,-1.7518730163574219,-2.4910647869110107
1790163257740608800,9.61860888671875,0.9651250839233398,-1.6808271408081055,-2.5032095909118652
1790163257750608600,9.628608642578126,1.5554780960083008,-1.6324739456176758,-2.7735602855682373
1790163257760608800,9.63860888671875,1.853726863861084,-1.554595947265625,-2.9222118854522705
1790163257770608600,9.648608642578125,2.007643699645996,-1.45192289352417,-3.033111333847046
1790163257780608800,9.65860888671875,2.098196029663086,-1.2845306396484375,-3.251945734024048
1790163257790608600,9.668608642578125,2.0894408226013184,-1.0637140274047852,-3.464242458343506
1790163257800608800,9.67860888671875,2.2858028411865234,-0.7822809219360352,-3.531726121902466
1790163257810608600,9.688608642578124,2.9555912017822266,-0.4272489547729492,-3.4687764644622803
1790163257820608800,9.69860888671875,3.752378463745117,-0.18243646621704102,-3.185523271560669
1790163257830608600,9.708608642578126,3.8447532653808594,-0.08408308029174805,-2.8395395278930664
1790163257840608800,9.71860888671875,3.050837993621826,-0.14208984375,-2.7983241081237793
1790163257850608600,9.728608642578125,2.4988656044006348,-0.4836287498474121,-2.5435028076171875
1790163257860608800,9.73860888671875,2.3745837211608887,-0.7381253242492676,-2.1766343116760254
1790163257870608600,9.748608642578125,2.360389232635498,-0.9877815246582031,-2.113003969192505
1790163257880608800,9.75860888671875,2.2637338638305664,-1.334188461303711,-2.506301164627075
1790163257890608600,9.768608642578124,2.0146732330322266,-1.6503338813781738,-2.654633045196533
1790163257900608800,9.77860888671875,2.1835803985595703,-1.81565523147583,-2.510223865509033
1790163257910608600,9.788608642578126,2.703075408935547,-1.9004616737365723,-2.2473323345184326
1790163257920608800,9.79860888671875,2.6332807540893555,-2.002595901489258,-1.90958833694458
1790163257930608600,9.808608642578125,2.178785800933838,-2.182201385498047,-1.8428597450256348
1790163257940608800,9.81860888671875,2.1145706176757812,-2.453484535217285,-1.9038739204406738
1790163257950608600,9.828608642578125,1.8955707550048828,-2.640113353729248,-1.8476357460021973
1790163257960608800,9.83860888671875,1.3846092224121094,-2.7531509399414062,-1.4263763427734375
1790163257970608600,9.848608642578125,0.6431641578674316,-2.7436251640319824,-0.8399591445922852
1790163257980608800,9.85860888671875,-0.04399681091308594,-2.6760659217834473,-0.34058237075805664
1790163257990608600,9.868608642578126,-0.3387484550476074,-2.4094290733337402,-0.0702204704284668
1790163258000608800,9.87860888671875,-0.1921067237854004,-2.0565648078918457,-0.17675447463989258
1790163258010608600,9.888608642578125,0.2680392265319824,-1.8571090698242188,-0.7129087448120117
1790163258020608800,9.89860888671875,0.3964653015136719,-1.794175148010254,-0.6019396781921387
1790163258030608600,9.908608642578125,0.10650110244750977,-1.9050607681274414,-0.583216667175293
1790163258040608800,9.91860888671875,-0.010769844055175781,-2.0045523643493652,-0.01722860336303711
1790163258050608600,9.928608642578125,-0.4293670654296875,-2.1052346229553223,0.37524938583374023
1790163258060608800,9.93860888671875,-0.46920204162597656,-2.0813934803009033,1.1084728240966797
1790163258070608600,9.948608642578124,-0.9587860107421875,-2.1714797019958496,1.6924309730529785
1790163258080608800,9.95860888671875,-1.6396780014038086,-2.1316051483154297,2.0244574546813965
1790163258090608600,9.968608642578126,-1.7330732345581055,-1.9347641468048096,2.3328857421875
1790163258100608800,9.97860888671875,-1.3109807968139648,-1.8231732845306396,2.4152982234954834
1790163258110608600,9.988608642578125,-0.8663897514343262,-1.5587589740753174,3.1262409687042236
1790163258120608800,9.99860888671875,-0.8793516159057617,-1.3112082481384277,3.1116139888763428
1790163258130608600,10.008608642578125,-0.8274059295654297,-1.2913532257080078,3.0325663089752197
1790163258140608800,10.01860888671875,-0.9475727081298828,-0.7876441478729248,3.3278794288635254
1790163258150608600,10.028608642578124,-1.967538833618164,-0.747652530670166,2.670424461364746
1790163258160608800,10.03860888671875,-3.1850457191467285,-0.5485351085662842,2.5649197101593018
1790163258170608600,10.048608642578126,-3.4476137161254883,-0.21882784366607666,2.283395767211914
1790163258180608800,10.05860888671875,-2.8626708984375,0.34748780727386475,2.6329824924468994
1790163258190608600,10.068608642578125,-2.257258892059326,0.718544065952301,2.8719844818115234
1790163258200608800,10.07860888671875,-2.1840076446533203,0.7139492034912109,2.9495439529418945
1790163258210608600,10.088608642578125,-2.0995988845825195,1.1238292455673218,3.3874309062957764
1790163258220608800,10.09860888671875,-2.6396985054016113,0.6748907566070557,2.0411887168884277
1790163258230608600,10.108608642578124,-3.442570686340332,0.5366722941398621,1.5650453567504883
1790163258240608800,10.11860888671875,-3.7752490043640137,0.9715928435325623,1.6992297172546387
1790163258250608600,10.128608642578126,-4.103970050811768,1.159792184829712,1.5348000526428223
1790163258260608800,10.13860888671875,-4.09401798248291,1.3627115488052368,0.7772183418273926
1790163258270608600,10.148608642578125,-3.7499237060546875,1.6717798709869385,0.8253803253173828
1790163258280608800,10.15860888671875,-3.3832993507385254,1.8284419775009155,0.9435820579528809
1790163258290608600,10.168608642578125,-2.8693771362304688,1.5407350063323975,0.8235645294189453
1790163258300608800,10.17860888671875,-2.9006404876708984,1.366236686706543,0.8198480606079102
1790163258310608600,10.188608642578124,-3.1487255096435547,1.1754423379898071,0.9927873611450195
1790163258320608800,10.19860888671875,-3.472177505493164,1.1371386051177979,1.429011344909668
1790163258330608600,10.208608642578126,-3.5066967010498047,1.2033971548080444,1.9750983715057373
1790163258340608800,10.21860888671875,-3.30234432220459,1.275650143623352,2.5008316040039062
1790163258350608600,10.228608642578125,-3.10760498046875,1.3021087646484375,2.7232842445373535
1790163258360608800,10.23860888671875,-2.9417943954467773,1.281074047088623,2.7781004905700684
1790163258370608600,10.248608642578125,-2.987058639526367,1.2093138694763184,2.9093329906463623
1790163258380608800,10.25860888671875,-2.8358631134033203,1.057206153869629,3.07353138923645
1790163258390608600,10.268608642578124,-2.4787302017211914,0.8866605758666992,3.258301258087158
1790163258400608800,10.27860888671875,-2.034945487976074,0.6340328454971313,3.208883762359619
1790163258410608600,10.288608642578126,-1.8904356956481934,0.33872467279434204,2.9871251583099365
1790163258420608800,10.29860888671875,-1.9778242111206055,-0.012600541114807129,2.5338456630706787
1790163258430608600,10.308608642578125,-2.3358230590820312,-0.281390905380249,2.202744960784912
1790163258440608800,10.31860888671875,-2.3989219665527344,-0.6021440029144287,2.2703628540039062
1790163258450608600,10.328608642578125,-2.4038968086242676,-0.8565083742141724,2.409332275390625
1790163258460608800,10.33860888671875,-1.8041596412658691,-1.1242823600769043,2.0740468502044678
1790163258470608600,10.348608642578125,-1.25970458984375,-1.2948353290557861,0.8340649604797363
1790163258480608800,10.35860888671875,-1.3408551216125488,-1.4530611038208008,-0.20021772384643555
1790163258490608600,10.368608642578126,-1.526224136352539,-1.6460704803466797,-0.22618389129638672
1790163258500608800,10.37860888671875,-1.3559398651123047,-1.8940041065216064,0.4267253875732422
1790163258510608600,10.388608642578125,-1.0513863563537598,-1.9986836910247803,1.1737961769104004
1790163258520608800,10.39860888671875,-0.3115997314453125,-2.0644917488098145,1.2509360313415527
1790163258530608600,10.408608642578125,-0.01682138442993164,-2.0904929637908936,0.22423124313354492
1790163258540608800,10.41860888671875,0.07169818878173828,-2.1710188388824463,-0.5132179260253906
1790163258550608600,10.428608642578125,0.3749203681945801,-2.201653242111206,-0.7316102981567383
1790163258560608800,10.43860888671875,0.6589164733886719,-2.137998580932617,-0.464571475982666
1790163258570608600,10.448608642578124,0.8679294586181641,-2.0181832313537598,0.3828425407409668
1790163258580608800,10.45860888671875,1.0427017211914062,-1.8316798210144043,1.5316462516784668
1790163258590608600,10.468608642578126,1.649510383605957,-1.6334776878356934,1.7395119667053223
1790163258600608800,10.47860888671875,1.7140254974365234,-1.6680717468261719,0.2748556137084961
1790163258610608600,10.488608642578125,1.2398457527160645,-1.89015531539917,-1.2317934036254883
1790163258620608800,10.49860888671875,0.793032169342041,-2.0254340171813965,-1.66701340675354
1790163258630608600,10.508608642578125,0.3566279411315918,-1.9997105598449707,-1.1720402240753174
1790163258640608800,10.51860888671875,0.040943145751953125,-2.170926570892334,-0.23325085639953613
1790163258650608600,10.528608642578124,0.5579714775085449,-2.1490402221679688,1.054976463317871
1790163258660608800,10.53860888671875,1.6164374351501465,-2.174624443054199,0.6678988933563232
1790163258670608600,10.548608642578126,2.422508716583252,-2.0854640007019043,-0.7009189128875732
1790163258680608800,10.55860888671875,2.5557703971862793,-2.007870674133301,-2.196821689605713
1790163258690608600,10.568608642578125,1.7906250953674316,-2.0088820457458496,-2.9705286026000977
1790163258700608800,10.57860888671875,1.2997350692749023,-1.84940767288208,-1.8085432052612305
1790163258710608600,10.588608642578125,1.620697021484375,-1.8496766090393066,-1.600367546081543
1790163258720608800,10.59860888671875,2.35341215133667,-1.8785662651062012,-2.105109214782715
1790163258730608600,10.608608642578124,2.49979305267334,-1.9620985984802246,-2.7849018573760986
1790163258740608800,10.61860888671875,2.0501036643981934,-2.0906567573547363,-3.0035674571990967
1790163258750608600,10.628608642578126,1.643613338470459,-2.0395216941833496,-2.888833522796631
1790163258760608800,10.63860888671875,1.6679811477661133,-1.8205008506774902,-3.206319808959961
1790163258770608600,10.648608642578125,1.8246417045593262,-1.35992431640625,-3.520425796508789
1790163258780608800,10.65860888671875,2.65413761138916,-0.8193278312683105,-3.4643993377685547
1790163258790608600,10.668608642578125,3.4788460731506348,-0.5221738815307617,-3.3504645824432373
1790163258800608800,10.67860888671875,3.511723518371582,-0.36591625213623047,-3.0961551666259766
1790163258810608600,10.688608642578124,2.9774580001831055,-0.3968024253845215,-2.674795627593994
1790163258820608800,10.69860888671875,2.4663467407226562,-0.45031023025512695,-2.5509018898010254
1790163258830608600,10.708608642578126,2.321282386779785,-0.4878964424133301,-2.703476905822754
1790163258840608800,10.71860888671875,2.260615825653076,-0.5255694389343262,-2.820549964904785
1790163258850608600,10.728608642578125,2.252340793609619,-0.4733715057373047,-2.8670713901519775
1790163258860608800,10.73860888671875,2.2001237869262695,-0.42255687713623047,-3.05953049659729
1790163258870608600,10.748608642578125,2.219839572906494,-0.4468531608581543,-3.1023569107055664
1790163258880608800,10.75860888671875,2.601543426513672,-0.43167686462402344,-3.003730535507202
1790163258890608600,10.768608642578124,2.9665017127990723,-0.4752817153930664,-2.8682548999786377
1790163258900608800,10.77860888671875,2.692753314971924,-0.6848273277282715,-2.7372303009033203
1790163258910608600,10.788608642578126,1.9931926727294922,-1.0111169815063477,-2.8051908016204834
1790163258920608800,10.79860888671875,1.5479369163513184,-1.361532211303711,-2.7465109825134277
1790163258930608600,10.808608642578125,1.4826598167419434,-1.5248470306396484,-2.544372797012329
1790163258940608800,10.81860888671875,1.8007941246032715,-1.6824288368225098,-2.4911866188049316
1790163258950608600,10.828608642578125,1.9161715507507324,-1.9412031173706055,-2.433286428451538
1790163258960608800,10.83860888671875,1.931635856628418,-2.211498260498047,-2.5248043537139893
1790163258970608600,10.848608642578125,2.284097671508789,-2.3684120178222656,-2.5791244506835938
1790163258980608800,10.85860888671875,2.261444568634033,-2.390603542327881,-2.2838704586029053
1790163258990608600,10.868608642578126,1.2775726318359375,-2.389282703399658,-2.345531702041626
1790163259000608800,10.87860888671875,-0.20577239990234375,-2.352999687194824,-2.8279244899749756
1790163259010608600,10.888608642578125,-0.8880324363708496,-2.211289405822754,-2.5021374225616455
1790163259020608800,10.89860888671875,-0.3588681221008301,-2.2180328369140625,-1.3324971199035645
1790163259030608600,10.908608642578125,0.6370081901550293,-2.2643423080444336,-0.2183525562286377
1790163259040608800,10.91860888671875,1.5994658470153809,-2.181227207183838,0.2806892395019531
1790163259050608600,10.928608642578125,1.7580161094665527,-2.09401798248291,0.4246807098388672
1790163259060608800,10.93860888671875,1.2045531272888184,-2.0738134384155273,0.8255605697631836
1790163259070608600,10.948608642578124,0.21951770782470703,-2.1102213859558105,1.0682616233825684
1790163259080608800,10.95860888671875,-1.058901309967041,-2.0759267807006836,0.8717727661132812
1790163259090608600,10.968608642578126,-1.9157953262329102,-1.932055950164795,0.4863004684448242
1790163259100608800,10.97860888671875,-2.2058019638061523,-1.6001904010772705,0.4887375831604004
1790163259110608600,10.988608642578125,-2.553652763366699,-1.2897870540618896,0.7674300670623779
1790163259120608800,10.99860888671875,-2.296405792236328,-1.260572910308838,1.498995304107666
1790163259130608600,11.008608642578125,-1.492274284362793,-1.330622911453247,2.2393300533294678
1790163259140608800,11.01860888671875,-0.7539820671081543,-1.4204440116882324,3.1005706787109375
1790163259150608600,11.028608642578124,-0.44239330291748047,-1.565204381942749,3.6732494831085205
1790163259160608800,11.03860888671875,-0.395965576171875,-1.5919346809387207,4.135879993438721
1790163259170608600,11.048608642578126,-0.6090764999389648,-1.4405503273010254,3.9791324138641357
1790163259180608800,11.05860888671875,-1.5305700302124023,-1.2642228603363037,3.2702934741973877
1790163259190608600,11.068608642578125,-2.14028263092041,-1.0676480531692505,2.4785141944885254
1790163259200608800,11.07860888671875,-2.3800625801086426,-0.694180965423584,2.5576019287109375
1790163259210608600,11.088608642578125,-2.7432308197021484,-0.4128457307815552,2.8874716758728027
1790163259220608800,11.09860888671875,-2.923849105834961,-0.19939136505126953,3.6425094604492188
1790163259230608600,11.108608642578124,-2.943356513977051,0.03029322624206543,4.086363792419434
1790163259240608800,11.11860888671875,-3.0084619522094727,0.2378450632095337,4.225677967071533
1790163259250608600,11.128608642578126,-2.988654136657715,0.4051862359046936,3.8812246322631836
1790163259260608800,11.13860888671875,-2.8590474128723145,0.6441615223884583,3.1209964752197266
1790163259270608600,11.148608642578125,-2.6298770904541016,0.9185784459114075,2.3052144050598145
1790163259280608800,11.15860888671875,-2.821364402770996,0.7232568860054016,0.5545375347137451
1790163259290608600,11.168608642578125,-2.919182300567627,1.043587327003479,0.7097468376159668
1790163259300608800,11.17860888671875,-3.3697261810302734,0.9016526937484741,-0.33617639541625977
1790163259310608600,11.188608642578124,-3.45023775100708,0.9457290172576904,-0.021752595901489258
1790163259320608800,11.19860888671875,-3.2437124252319336,1.100581169128418,0.47214508056640625
1790163259330608600,11.208608642578126,-3.096080780029297,1.1634891033172607,0.792722225189209
1790163259340608800,11.21860888671875,-2.9042272567749023,1.2827452421188354,1.0279710292816162
1790163259350608600,11.228608642578125,-2.8294572830200195,1.3381459712982178,1.092130422592163
1790163259360608800,11.23860888671875,-2.8727707862854004,1.268250823020935,1.2214124202728271
1790163259370608600,11.248608642578125,-3.012099266052246,1.2168889045715332,1.433314561843872
1790163259380608800,11.25860888671875,-3.131479263305664,1.10919189453125,1.7356688976287842
1790163259390608600,11.268608642578124,-3.1492204666137695,0.9514889121055603,1.9771069288253784
1790163259400608800,11.27860888671875,-2.94338321685791,0.797950029373169,2.146920919418335
1790163259410608600,11.288608642578126,-2.710113525390625,0.6524454355239868,2.2416882514953613
1790163259420608800,11.29860888671875,-2.572981834411621,0.5350418090820312,2.398515462875366
1790163259430608600,11.308608642578125,-2.3424501419067383,0.4185521900653839,2.645080327987671
1790163259440608800,11.31860888671875,-2.2166290283203125,0.344634473323822,2.8956120014190674
1790163259450608600,11.328608642578125,-2.1599254608154297,0.2197158932685852,3.0108602046966553
1790163259460608800,11.33860888671875,-2.1379709243774414,0.1514381766319275,2.7954838275909424
1790163259470608600,11.348608642578125,-2.1040210723876953,0.12266963720321655,2.381999969482422
1790163259480608800,11.35860888671875,-2.3251800537109375,0.09608590602874756,1.8902528285980225
1790163259490608600,11.368608642578126,-2.2349462509155273,0.04068422317504883,1.528587818145752
1790163259500608800,11.37860888671875,-2.1691641807556152,-0.06314563751220703,1.367424488067627
1790163259510608600,11.388608642578125,-1.7898569107055664,-0.24376094341278076,1.1516001224517822
1790163259520608800,11.39860888671875,-1.3391656875610352,-0.416532039642334,1.0359060764312744
1790163259530608600,11.408608642578125,-0.954653263092041,-0.6142861843109131,1.0670177936553955
1790163259540608800,11.41860888671875,-0.5525970458984375,-0.8255825042724609,1.0368521213531494
1790163259550608600,11.428608642578125,-0.3769798278808594,-1.0798804759979248,0.9796428680419922
1790163259560608800,11.43860888671875,-0.3493661880493164,-1.2602033615112305,0.9127593040466309
1790163259570608600,11.448608642578124,-0.33481788635253906,-1.3523781299591064,0.5522561073303223
1790163259580608800,11.45860888671875,-0.4106121063232422,-1.5171802043914795,0.1210479736328125
1790163259590608600,11.468608642578126,-0.37143468856811523,-1.7591660022735596,-0.019411563873291016
1790163259600608800,11.47860888671875,0.00453948974609375,-2.001574993133545,0.06926703453063965
1790163259610608600,11.488608642578125,0.48331356048583984,-2.250647783279419,-0.16108417510986328
1790163259620608800,11.49860888671875,1.1118316650390625,-2.4139404296875,-0.6978623867034912
1790163259630608600,11.508608642578125,1.5643267631530762,-2.3816494941711426,-1.4730486869812012
1790163259640608800,11.51860888671875,1.3660459518432617,-2.0890984535217285,-1.801377296447754
1790163259650608600,11.528608642578124,0.880861759185791,-1.8233933448791504,-1.5077838897705078
1790163259660608800,11.53860888671875,0.5778980255126953,-1.580430030822754,-0.8662569522857666
1790163259670608600,11.548608642578126,0.452120304107666,-1.4911422729492188,0.20107126235961914
1790163259680608800,11.55860888671875,0.6003403663635254,-1.512265682220459,0.8528652191162109
1790163259690608600,11.568608642578125,0.5811657905578613,-1.556694507598877,0.29489779472351074
1790163259700608800,11.57860888671875,0.30739641189575195,-1.4394688606262207,-0.4334723949432373
1790163259710608600,11.588608642578125,0.22349071502685547,-1.4322257041931152,-1.3220877647399902
1790163259720608800,11.59860888671875,0.6209707260131836,-1.1525301933288574,-1.6813385486602783
1790163259730608600,11.608608642578124,1.1672024726867676,-1.1281318664550781,-2.238478183746338
1790163259740608800,11.61860888671875,1.6901330947875977,-0.9727640151977539,-1.9560189247131348
1790163259750608600,11.628608642578126,2.131330966949463,-0.8134846687316895,-1.6038329601287842
1790163259760608800,11.63860888671875,2.111433982849121,-0.6784982681274414,-1.489917516708374
1790163259770608600,11.648608642578125,1.504694938659668,-0.9846987724304199,-1.670438528060913
1790163259780608800,11.65860888671875,0.7655258178710938,-1.2136783599853516,-1.031256914138794
1790163259790608600,11.668608642578125,0.02630472183227539,-1.4963574409484863,-0.954291582107544
1790163259800608800,11.67860888671875,0.4817790985107422,-1.6383018493652344,-1.4003591537475586
1790163259810608600,11.688608642578124,2.0293307304382324,-1.6183562278747559,-2.43499755859375
1790163259820608800,11.69860888671875,3.458082675933838,-1.5942540168762207,-3.3828070163726807
1790163259830608600,11.708608642578126,3.887298107147217,-1.6372718811035156,-3.9780149459838867
1790163259840608800,11.71860888671875,3.4659504890441895,-1.676271915435791,-3.8696975708007812
1790163259850608600,11.728608642578125,2.951420783996582,-1.5916948318481445,-3.262798309326172
1790163259860608800,11.73860888671875,2.75266695022583,-1.3823485374450684,-2.485481023788452
1790163259870608600,11.748608642578125,2.835017204284668,-1.0069355964660645,-1.8496243953704834
1790163259880608800,11.75860888671875,3.019052028656006,-0.6155080795288086,-1.778491497039795
1790163259890608600,11.768608642578124,3.1061110496520996,-0.40349292755126953,-2.156809091567993
1790163259900608800,11.77860888671875,2.9576220512390137,-0.33222150802612305,-2.571991205215454
1790163259910608600,11.788608642578126,2.7971315383911133,-0.3529491424560547,-2.7156708240509033
1790163259920608800,11.79860888671875,2.7812728881835938,-0.33869028091430664,-2.5336551666259766
1790163259930608600,11.808608642578125,2.868075370788574,-0.31795835494995117,-2.3019771575927734
1790163259940608800,11.81860888671875,3.019169807434082,-0.3802332878112793,-2.2188282012939453
1790163259950608600,11.828608642578125,3.036795139312744,-0.657167911529541,-2.1786422729492188
1790163259960608800,11.83860888671875,2.714811325073242,-1.0179824829101562,-2.2994110584259033
1790163259970608600,11.848608642578125,2.153352737426758,-1.378368854522705,-2.6667840480804443
1790163259980608800,11.85860888671875,1.5909748077392578,-1.7519793510437012,-3.0647528171539307
1790163259990608600,11.868608642578126,1.0951943397521973,-2.0398406982421875,-3.148660898208618
1790163260000608800,11.87860888671875,1.1455974578857422,-2.1679935455322266,-2.7604856491088867
1790163260010608600,11.888608642578125,1.6750926971435547,-2.127704620361328,-2.0649783611297607
1790163260020608800,11.89860888671875,1.9552688598632812,-2.0605411529541016,-1.6312041282653809
1790163260030608600,11.908608642578125,1.8724370002746582,-2.2071681022644043,-1.3531889915466309
1790163260040608800,11.91860888671875,1.6603779792785645,-2.2672810554504395,-0.8968503475189209
1790163260050608600,11.928608642578125,0.8139219284057617,-2.367806911468506,-0.8626375198364258
1790163260060608800,11.93860888671875,-0.10283041000366211,-2.5034284591674805,-0.810338020324707
1790163260070608600,11.948608642578124,-0.5448136329650879,-2.5009841918945312,-0.5106453895568848
1790163260080608800,11.95860888671875,-0.8114986419677734,-2.100402355194092,-0.17575597763061523
1790163260090608600,11.968608642578126,-0.9145269393920898,-1.7010951042175293,0.06402349472045898
1790163260100608800,11.97860888671875,-0.8726868629455566,-1.4048080444335938,0.17487192153930664
1790163260110608600,11.988608642578125,-0.5396595001220703,-1.0633063316345215,0.29465150833129883
1790163260120608800,11.99860888671875,-0.30669212341308594,-0.8914041519165039,0.25830984115600586
1790163260130608600,12.008608642578125,-0.611600399017334,-0.901808500289917,0.6585664749145508
1790163260140608800,12.01860888671875,-1.2329230308532715,-0.9301133155822754,1.1249032020568848
1790163260150608600,12.028608642578124,-1.6589274406433105,-0.8304417133331299,1.559037685394287
1790163260160608800,12.03860888671875,-1.7977266311645508,-0.6071171760559082,1.8678297996520996
1790163260170608600,12.048608642578126,-1.7801332473754883,-0.5130698680877686,1.9691503047943115
1790163260180608800,12.05860888671875,-1.2705388069152832,-0.4524049758911133,2.1413516998291016
1790163260190608600,12.068608642578125,-1.0421652793884277,-0.4622688293457031,1.9186391830444336
1790163260200608800,12.07860888671875,-0.8661460876464844,-0.48248982429504395,2.095398426055908
1790163260210608600,12.088608642578125,-0.8584747314453125,-0.5720953941345215,1.9040021896362305
1790163260220608800,12.09860888671875,-0.839561939239502,-0.4575934410095215,2.072010040283203
1790163260230608600,12.108608642578124,-1.3125419616699219,-0.36797070503234863,1.8039934635162354
1790163260240608800,12.11860888671875,-1.813542366027832,-0.22986876964569092,1.826643943786621
1790163260250608600,12.128608642578126,-1.8688859939575195,-0.06365752220153809,2.1100852489471436
1790163260260608800,12.13860888671875,-1.7976694107055664,0.06421494483947754,2.2379441261291504
1790163260270608600,12.148608642578125,-1.919886589050293,0.19366508722305298,2.7079834938049316
1790163260280608800,12.15860888671875,-2.1440868377685547,0.13375729322433472,2.3520822525024414
1790163260290608600,12.168608642578125,-2.1753158569335938,0.18755966424942017,2.371616840362549
1790163260300608800,12.17860888671875,-2.367465019226074,0.18268918991088867,2.1216988563537598
1790163260310608600,12.188608642578124,-2.6577205657958984,0.2141055464744568,1.719968318939209
1790163260320608800,12.19860888671875,-2.5514073371887207,0.43769487738609314,1.8634204864501953
1790163260330608600,12.208608642578126,-2.472013473510742,0.5613322257995605,2.1040844917297363
1790163260340608800,12.21860888671875,-2.404374599456787,0.6966958045959473,2.515028476715088
1790163260350608600,12.228608642578125,-2.594392776489258,0.6762346029281616,2.279245615005493
1790163260360608800,12.23860888671875,-2.812276840209961,0.7468696236610413,2.4362282752990723
1790163260370608600,12.248608642578125,-2.8338847160339355,0.7834423184394836,2.475200891494751
1790163260380608800,12.25860888671875,-2.9133687019348145,0.8267772197723389,2.416149854660034
1790163260390608600,12.268608642578124,-3.07541561126709,0.8760074377059937,2.294536828994751
1790163260400608800,12.27860888671875,-3.033982753753662,0.9153792858123779,2.303260326385498
1790163260410608600,12.288608642578126,-2.8768081665039062,0.8922349810600281,2.43847918510437
1790163260420608800,12.29860888671875,-2.7013559341430664,0.7854936718940735,2.523024082183838
1790163260430608600,12.308608642578125,-2.548975944519043,0.5578269958496094,2.581070899963379
1790163260440608800,12.31860888671875,-2.430234909057617,0.3078082203865051,2.584017276763916
1790163260450608600,12.328608642578125,-2.342358112335205,0.18079540133476257,2.4900240898132324
1790163260460608800,12.33860888671875,-2.167064666748047,0.17145681381225586,2.4208106994628906
1790163260470608600,12.348608642578125,-1.908949851989746,0.19797590374946594,2.4962525367736816
1790163260480608800,12.35860888671875,-1.5477628707885742,0.1840876340866089,2.7207536697387695
1790163260490608600,12.368608642578126,-1.1392145156860352,0.19846272468566895,2.8009746074676514
1790163260500608800,12.37860888671875,-1.0364694595336914,0.23999828100204468,2.426126480102539
1790163260510608600,12.388608642578125,-1.279484748840332,0.07217693328857422,1.8728771209716797
1790163260520608800,12.39860888671875,-1.6396880149841309,-0.2395932674407959,1.5180978775024414
1790163260530608600,12.408608642578125,-1.7474079132080078,-0.5831449031829834,1.422851800918579
1790163260540608800,12.41860888671875,-1.518221378326416,-0.9314923286437988,1.4858036041259766
1790163260550608600,12.428608642578125,-1.2451038360595703,-1.1437374353408813,1.5455286502838135
1790163260560608800,12.43860888671875,-0.8950896263122559,-1.4007673263549805,1.4385132789611816
1790163260570608600,12.448608642578124,-0.4406747817993164,-1.6628732681274414,0.9385602474212646
1790163260580608800,12.45860888671875,-0.21555614471435547,-1.7194828987121582,0.3695073127746582
1790163260590608600,12.468608642578126,0.005496978759765625,-1.631941556930542,-0.014976024627685547
1790163260600608800,12.47860888671875,-0.07693767547607422,-1.4834306240081787,-0.1084432601928711
1790163260610608600,12.488608642578125,-0.5055770874023438,-1.4405033588409424,0.03515768051147461
1790163260620608800,12.49860888671875,-0.7298212051391602,-1.5031721591949463,0.6300370693206787
1790163260630608600,12.508608642578125,-0.4212932586669922,-1.524219036102295,1.2339153289794922
1790163260640608800,12.51860888671875,0.1101236343383789,-1.6485929489135742,0.843146562576294
1790163260650608600,12.528608642578124,0.2808966636657715,-1.6351404190063477,-0.04632878303527832
