time,seconds_elapsed,z,y,x
1790266437518877000,0.097876953125,9.743574142456055,3.1417760848999023,-1.196411371231079
1790266437536130600,0.115130615234375,8.748159408569336,3.218346357345581,-1.153340458869934
1790266437553384000,0.132384033203125,8.12123966217041,3.3236305713653564,-1.6247265338897705
1790266437570637300,0.14963720703125,8.00638484954834,3.438486099243164,-1.8472590446472168
1790266437587890700,0.166890625,7.82692289352417,3.486342668533325,-1.495514154434204
1790266437605144300,0.184144287109375,8.14516830444336,3.1585259437561035,-1.038485050201416
1790266437622397700,0.201397705078125,9.475577354431152,1.4691931009292603,1.1198409795761108
1790266437639651300,0.2186513671875,10.088140487670898,1.5146567821502686,1.373480200767517
1790266437656904700,0.23590478515625,7.192824840545654,1.7922241687774658,1.6366907358169556
1790266437674158000,0.253157958984375,6.833901405334473,1.923829436302185,2.187039852142334
1790266437691411700,0.27041162109375,9.34157943725586,2.541177749633789,-0.8781659007072449
1790266437708665000,0.2876650390625,9.635896682739258,2.5531418323516846,-4.66361141204834
1790266437725918700,0.304918701171875,7.903493404388428,1.7132610082626343,-5.182853698730469
1790266437743172000,0.322172119140625,11.145768165588379,1.2251251935958862,-7.968099594116211
1790266437760425500,0.339425537109375,17.4412841796875,3.7806596755981445,-7.716853141784668
1790266437777679000,0.35667919921875,13.100704193115234,0.6556333899497986,-4.563112735748291
1790266437794932500,0.373932373046875,10.097711563110352,-0.5862415432929993,-1.581655740737915
1790266437812185900,0.391185791015625,7.044469833374023,-0.11964113265275955,0.20817556977272034
1790266437829439500,0.408439453125,7.4847493171691895,4.175475597381592,-2.2205393314361572
1790266437846692900,0.42569287109375,8.365307807922363,5.111069202423096,-4.455435752868652
1790266437863946500,0.442946533203125,9.482755661010742,3.0556344985961914,-3.1274192333221436
1790266437881199900,0.460199951171875,8.073383331298828,2.344966173171997,-2.1990039348602295
1790266437898453200,0.477453369140625,5.589633464813232,2.3473589420318604,-0.9690931439399719
1790266437915707000,0.494706787109375,6.199803352355957,3.13220477104187,-2.304288148880005
1790266437932960300,0.511960205078125,7.496713161468506,3.6921253204345703,-4.965106964111328
1790266437950213600,0.529213623046875,6.39601469039917,3.3068809509277344,-5.436492919921875
1790266437967467300,0.54646728515625,7.558926582336426,2.586641311645508,-2.871387243270874
1790266437984720600,0.563720703125,8.958727836608887,2.4095723628997803,-0.9906286001205444
1790266438001974000,0.58097412109375,9.856036186218262,1.794616937637329,0.43549370765686035
1790266438019227600,0.5982275390625,11.882757186889648,0.16510476171970367,1.2945170402526855
1790266438036481000,0.61548095703125,13.591232299804688,-0.2632105052471161,-0.20578274130821228
1790266438053734700,0.632734619140625,13.808979034423828,0.727418065071106,0.21296121180057526
1790266438070988000,0.649988037109375,11.861222267150879,0.3158525824546814,4.204189300537109
1790266438088241400,0.667241455078125,7.200003147125244,0.97148597240448,5.278566837310791
1790266438105495000,0.6844951171875,5.127819061279297,2.8905298709869385,1.2418749332427979
1790266438122748400,0.70174853515625,4.084548473358154,2.431107759475708,1.9070796966552734
1790266438140001800,0.719001708984375,4.230510234832764,2.132004976272583,2.6057839393615723
1790266438157255400,0.73625537109375,5.477170944213867,0.6604190468788147,2.557927370071411
1790266438174508800,0.7535087890625,5.819344520568848,0.09092725813388824,3.2709884643554688
1790266438191762200,0.77076220703125,2.8977081775665283,0.32303106784820557,3.0963125228881836
1790266438209015800,0.788015869140625,0.3924229145050049,0.13878370821475983,2.1678972244262695
1790266438226269200,0.805269287109375,0.07896314561367035,0.035892341285943985,0.47617170214653015
1790266438243522600,0.8225224609375,1.5840486288070679,-6.798008918762207,7.884350776672363
1790266438260776200,0.839776123046875,5.838487148284912,-4.505684852600098,4.768895626068115
1790266438278029600,0.857029541015625,7.5708909034729,-1.1509476900100708,1.5840486288070679
1790266438295283200,0.874283203125,4.730610370635986,-3.768695592880249,4.984249591827393
1790266438312536600,0.89153662109375,1.6893328428268433,-5.223531723022461,6.051448345184326
1790266438329790000,0.9087900390625,1.8472590446472168,-6.474977970123291,6.948757171630859
1790266438347043600,0.926043701171875,2.0745773315429688,-6.453442573547363,6.781259536743164
1790266438364297000,0.943296875,-0.30149564146995544,-7.623532772064209,7.750352382659912
1790266438381550300,0.96055029296875,-3.2542388439178467,-7.893921852111816,10.681560516357422
1790266438398804000,0.977803955078125,-4.177868366241455,-7.240681171417236,12.949955940246582
1790266438416057300,0.995057373046875,-3.531806230545044,-7.130611419677734,17.400606155395508
1790266438433310700,1.012310791015625,-2.3401806354522705,-5.6925249099731445,20.528024673461914
1790266438450564400,1.029564453125,-3.445664644241333,-4.721039295196533,20.25763702392578
1790266438467817700,1.046817626953125,-4.084548473358154,-3.7423746585845947,19.800607681274414
1790266438485071000,1.064071044921875,-2.586641311645508,-3.744767427444458,21.655044555664062
1790266438502324700,1.08132470703125,-0.7848458290100098,-2.6057839393615723,22.193429946899414
1790266438519578000,1.098578125,-1.34476637840271,-0.7896314859390259,22.805992126464844
1790266438536831700,1.115831787109375,-3.9146578311920166,0.20338992774486542,22.50688934326172
1790266438554085000,1.133085205078125,-7.63310432434082,0.9427721500396729,19.508682250976562
1790266438571338500,1.15033837890625,-10.351350784301758,1.5960127115249634,16.137195587158203
1790266438588591900,1.167591796875,-9.882357597351074,0.09810572862625122,15.744772911071777
1790266438605845500,1.184845458984375,-1.545763373374939,0.34695929288864136,14.273186683654785
1790266438623099000,1.202098876953125,-4.811966419219971,-0.9643075466156006,13.270594596862793
1790266438640352500,1.2193525390625,-8.331808090209961,-1.6630117893218994,9.789037704467773
1790266438657606000,1.23660595703125,-6.2189459800720215,-2.2683959007263184,5.312066078186035
1790266438674859300,1.253859375,-4.783252239227295,-2.4047868251800537,-0.5096712112426758
1790266438692113000,1.27111279296875,-2.871387243270874,-3.3164522647857666,-1.7754744291305542
1790266438709366300,1.2883662109375,-2.196611166000366,-3.290131092071533,2.816352367401123
1790266438726619600,1.30561962890625,-3.376272678375244,-1.5026925802230835,3.7806596755981445
1790266438743873000,1.322873046875,-3.8835511207580566,-1.0265209674835205,5.855237007141113
1790266438761126700,1.340126708984375,-3.9672999382019043,-2.304288148880005,7.168896675109863
1790266438778380000,1.357380126953125,-7.8317084312438965,-1.1126625537872314,9.425328254699707
1790266438795633400,1.37463330078125,-7.365108013153076,0.30628129839897156,9.253045082092285
1790266438812887000,1.391886962890625,-7.5708909034729,2.9312076568603516,8.09970474243164
1790266438830140400,1.409140380859375,-6.608976364135742,0.9451649188995361,13.658231735229492
1790266438847394000,1.42639404296875,-5.2283172607421875,-1.0001999139785767,15.050854682922363
1790266438864647400,1.4436474609375,-5.718846321105957,0.45942193269729614,13.548161506652832
1790266438881900800,1.46090087890625,-7.412964344024658,1.6917256116867065,12.026326179504395
1790266438899154200,1.478154296875,-6.759724140167236,1.6366907358169556,9.17886734008789
1790266438916407800,1.49540771484375,-5.5106706619262695,0.4091726839542389,4.084548473358154
1790266438933661200,1.5126611328125,-5.757131099700928,0.6867401003837585,2.2061824798583984
1790266438950914800,1.529914794921875,-7.427321434020996,0.9667003750801086,4.0079779624938965
1790266438968168200,1.547168212890625,-8.315058708190918,-0.672383189201355,5.876772403717041
1790266438985421600,1.564421630859375,-8.324629783630371,-1.1198409795761108,5.917450428009033
1790266439002675000,1.581675048828125,-8.63330364227295,-1.4500504732131958,8.123632431030273
1790266439019928600,1.598928466796875,-7.898707389831543,-0.9068797826766968,7.003791809082031
1790266439037182000,1.616181884765625,-7.420143127441406,-0.8015955686569214,5.247459888458252
1790266439054435300,1.633435302734375,-7.893921852111816,0.48574298620224,4.565505504608154
1790266439071689000,1.65068896484375,-9.540184020996094,0.7848458290100098,4.369294166564941
1790266439088942300,1.6679423828125,-8.894122123718262,0.9667003750801086,4.9292144775390625
1790266439106195700,1.68519580078125,-6.324230194091797,1.7635103464126587,4.567898273468018
1790266439123449300,1.702449462890625,-5.350351333618164,2.0027925968170166,3.390629768371582
1790266439140702700,1.71970263671875,-7.956135272979736,1.3112667798995972,2.5938198566436768
1790266439157956000,1.7369560546875,-7.465606689453125,1.6031911373138428,2.053041934967041
1790266439175209700,1.754209716796875,-7.310073375701904,1.7228323221206665,1.5840486288070679
1790266439192463000,1.771463134765625,-7.3292155265808105,1.9692929983139038,1.7395820617675781
1790266439209716500,1.788716552734375,-7.613961696624756,1.9716858863830566,1.7754744291305542
1790266439226970000,1.80597021484375,-6.142375946044922,1.0145567655563354,2.0985054969787598
1790266439244222200,1.82322216796875,-5.383851051330566,0.5575276613235474,2.2923240661621094
1790266439261476900,1.840476806640625,-7.027719974517822,0.6436693072319031,1.0289137363433838
1790266439278730000,1.85772998046875,-6.991827964782715,1.0887342691421509,1.576870083808899
1790266439295983400,1.8749833984375,-6.305087566375732,1.28255295753479,1.8496519327163696
1790266439313237000,1.892237060546875,-5.551348686218262,0.9690931439399719,2.768495798110962
1790266439330490600,1.90949072265625,-5.37906551361084,0.21774685382843018,3.91705060005188
1790266439347744000,1.926743896484375,-5.381458282470703,-0.3565305769443512,5.240281581878662
1790266439364997600,1.94399755859375,-6.283552169799805,-0.5024927258491516,6.8004021644592285
1790266439382251000,1.9612509765625,-10.159924507141113,-1.6462619304656982,4.855037212371826
1790266439399504400,1.97850439453125,-13.555339813232422,-3.610769271850586,3.6370904445648193
1790266439416757500,1.995757568359375,-13.02652645111084,-5.101497650146484,2.7661030292510986
1790266439434011000,2.013010986328125,-8.97787094116211,-6.247660160064697,-0.05742774158716202
1790266439451264300,2.03026416015625,-7.324429988861084,-7.025327205657959,-0.9092726111412048
1790266439468517600,2.047517578125,-7.135396957397461,-5.816951751708984,-0.5910272002220154
1790266439485771300,2.064771240234375,-7.9250288009643555,-2.524427890777588,2.3856441974639893
1790266439503024600,2.082024658203125,-7.465606689453125,-3.4743785858154297,3.3619158267974854
1790266439520278300,2.0992783203125,-3.775874137878418,-6.6113691329956055,7.635497093200684
1790266439537532000,2.116531982421875,-7.168896675109863,-9.142974853515625,16.567903518676758
1790266439554785300,2.133785400390625,-17.611175537109375,-6.5491557121276855,16.685152053833008
1790266439572039000,2.151038818359375,-14.866606712341309,-1.129412293434143,9.241081237792969
1790266439589292000,2.1682919921875,-12.937992095947266,-1.4691931009292603,7.35314416885376
1790266439606545400,2.18554541015625,-10.576275825500488,-2.8929226398468018,7.070790767669678
1790266439623798800,2.202798828125,-10.822736740112305,-2.8211379051208496,4.847858905792236
1790266439641052200,2.22005224609375,-9.884750366210938,-2.7493531703948975,1.9334007501602173
1790266439658305500,2.237305419921875,-6.44387149810791,-3.570091485977173,-1.9716858863830566
1790266439675559000,2.254558837890625,0.4785645306110382,-4.890929698944092,-6.0610198974609375
1790266439692812500,2.2718125,-0.8446664214134216,-6.340980052947998,-4.855037212371826
1790266439710066200,2.289066162109375,-10.076175689697266,-6.329015731811523,2.940778970718384
1790266439727319600,2.306319580078125,-12.212966918945312,-4.402793884277344,9.308079719543457
1790266439744573200,2.3235732421875,-12.911670684814453,-5.309673309326172,13.351950645446777
1790266439761826600,2.34082666015625,-14.120046615600586,-9.09272575378418,15.52224063873291
1790266439779080200,2.358080078125,-9.674181938171387,-8.176275253295898,8.082955360412598
1790266439796333800,2.375333740234375,-7.767102241516113,-6.247660160064697,2.0673987865448
1790266439813587200,2.392587158203125,-5.563312530517578,-5.391029357910156,-1.6247265338897705
1790266439830840800,2.4098408203125,-3.452843189239502,-4.9052863121032715,-2.991028308868408
1790266439848094500,2.427094482421875,-1.4476577043533325,-4.108476638793945,-2.9216363430023193
1790266439865347800,2.444347900390625,-1.8065811395645142,-3.5748770236968994,0.6005984544754028
1790266439882601200,2.461601318359375,-5.79063081741333,-4.969892501831055,3.28773832321167
1790266439899854600,2.4788544921875,-8.82233715057373,-6.692724704742432,4.417150497436523
1790266439917108000,2.49610791015625,-7.025327205657959,-7.451249599456787,3.2853455543518066
1790266439934361000,2.513361083984375,-6.273981094360352,-8.338987350463867,1.3926228284835815
1790266439951614500,2.530614501953125,-8.023134231567383,-7.905886173248291,2.084148406982422
1790266439968867600,2.54786767578125,-7.793423175811768,-5.694917678833008,2.1104695796966553
1790266439986121200,2.565121337890625,-8.35573673248291,-5.0703911781311035,1.3256237506866455
1790266440003374600,2.58237451171875,-8.398807525634766,-4.567898273468018,1.7371892929077148
1790266440020628200,2.599628173828125,-8.250452041625977,-4.34536600112915,0.6867401003837585
1790266440037881900,2.6168818359375,-7.779066562652588,-6.197410583496094,-0.9092726111412048
1790266440055135200,2.63413525390625,-8.286344528198242,-9.133403778076172,1.4811571836471558
1790266440072388900,2.651388916015625,-4.369294166564941,-5.4867424964904785,3.9385859966278076
1790266440089642200,2.668642333984375,-10.114460945129395,-2.1655044555664062,2.108076810836792
1790266440106896000,2.685895751953125,-11.801401138305664,-3.9840497970581055,3.5916268825531006
1790266440124149500,2.7031494140625,-8.09252643585205,-5.010570526123047,4.776073932647705
1790266440141403000,2.72040283203125,-7.609176158905029,-4.634897232055664,4.6061835289001465
1790266440158656500,2.737656494140625,-7.523034572601318,-4.48414945602417,2.746960401535034
1790266440175910100,2.75491015625,-7.582854747772217,-4.764110088348389,2.4263222217559814
1790266440193163500,2.77216357421875,-7.963313579559326,-2.0578274726867676,1.6630117893218994
1790266440210417200,2.789417236328125,-6.309873104095459,-1.8544375896453857,1.6175481081008911
1790266440227670800,2.8066708984375,-7.5708909034729,-0.1866401731967926,2.383251428604126
1790266440244924200,2.823924072265625,-6.551548480987549,1.3950155973434448,3.864408493041992
1790266440262177800,2.841177734375,-1.337587833404541,1.2370892763137817,1.8544375896453857
1790266440279431200,2.85843115234375,-1.2179467678070068,-7.616354465484619,4.4410786628723145
1790266440296684500,2.8756845703125,-6.190232276916504,-7.934599876403809,1.9716858863830566
1790266440313937700,2.892937744140625,-5.307280540466309,-7.056434154510498,0.8374879360198975
1790266440331191000,2.91019091796875,-1.5912270545959473,-6.927221775054932,0.2799602448940277
1790266440348444400,2.9274443359375,-5.376672267913818,-7.322037220001221,-0.7465606927871704
1790266440365697800,2.94469775390625,-7.008577346801758,-5.656632900238037,-2.469393014907837
1790266440382951400,2.961951416015625,-8.219346046447754,-5.460421085357666,-4.405186653137207
1790266440400204800,2.979204833984375,-3.4432718753814697,-7.805387496948242,-1.4931213855743408
1790266440417458400,2.99645849609375,-0.30628129839897156,-10.325029373168945,3.500699520111084
1790266440434712000,3.013712158203125,-1.5337992906570435,-12.507284164428711,5.625525951385498
1790266440451965400,3.03096533203125,-5.06799840927124,-12.416357040405273,5.565705299377441
1790266440469219000,3.048218994140625,-12.155538558959961,-14.421542167663574,4.35254430770874
1790266440486472700,3.06547265625,-1.828116536140442,-17.694923400878906,1.3495519161224365
1790266440503726000,3.08272607421875,-3.263810157775879,-18.113666534423828,-1.2442678213119507
1790266440520979700,3.099979736328125,-6.711867332458496,-17.568103790283203,-4.0797624588012695
1790266440538233300,3.1172333984375,-6.661618232727051,-16.223337173461914,-1.397408366203308
1790266440555486700,3.13448681640625,-5.67338228225708,-13.655838966369629,-0.2871387302875519
1790266440572740000,3.151739990234375,-4.632504463195801,-8.358129501342773,-0.380458801984787
1790266440589993500,3.168993408203125,-2.799602508544922,-5.335994720458984,0.3158525824546814
1790266440607246800,3.186246826171875,-2.210968017578125,-5.077569484710693,-0.45224347710609436
1790266440624500200,3.203500244140625,-2.5531418323516846,-6.994220733642578,-1.3567304611206055
1790266440641753600,3.220753662109375,-3.6323046684265137,-9.166903495788574,-0.25363919138908386
1790266440659006700,3.2380068359375,-5.350351333618164,-10.387243270874023,1.246660590171814
1790266440676260400,3.25526025390625,-4.59421968460083,-8.918049812316895,1.9070796966552734
1790266440693514000,3.272513916015625,-3.4002010822296143,-8.336593627929688,0.4666004180908203
1790266440710767400,3.289767333984375,-2.9551360607147217,-8.276773452758789,-0.059820566326379776
1790266440728021000,3.30702099609375,-2.0985054969787598,-8.293522834777832,0.23688943684101105
1790266440745274600,3.324274658203125,-3.94097900390625,-1.4141582250595093,2.1990039348602295
1790266440762528000,3.341528076171875,-4.579862594604492,-6.216553211212158,4.091726779937744
1790266440779781600,3.35878173828125,-5.326423168182373,-9.966106414794922,2.3330020904541016
1790266440797035300,3.37603515625,-5.312066078186035,-9.279366493225098,2.550748825073242
1790266440814288600,3.39328857421875,-4.29033088684082,-7.795815944671631,3.565305709838867
1790266440831542300,3.410542236328125,-3.4241292476654053,-8.37727165222168,2.526820659637451
1790266440848796000,3.4277958984375,-4.027120590209961,-10.545169830322266,1.8400806188583374
1790266440866049300,3.44504931640625,-3.5916268825531006,-11.420942306518555,1.7371892929077148
1790266440883302700,3.462302734375,-4.493721008300781,-10.246066093444824,2.1128623485565186
1790266440900555800,3.4795556640625,-5.182853698730469,-8.547162055969238,1.820937991142273
1790266440917809200,3.49680908203125,-4.00319242477417,-8.726624488830566,1.25144624710083
1790266440935062500,3.5140625,-3.266202926635742,-8.621339797973633,1.3519448041915894
1790266440952316000,3.53131591796875,-2.8666014671325684,-10.272387504577637,0.8231309652328491
1790266440969569300,3.5485693359375,-4.280759811401367,-10.358529090881348,0.24646073579788208
1790266440986823000,3.565822998046875,-3.5294134616851807,-8.865407943725586,1.7443677186965942
1790266441004076500,3.58307666015625,-4.096512317657471,-8.673981666564941,1.3758729696273804
1790266441021330000,3.600329833984375,-3.1274192333221436,-7.0755767822265625,0.42831525206565857
1790266441038583600,3.61758349609375,-3.6370904445648193,-10.420742988586426,1.8616160154342651
1790266441055837200,3.634837158203125,-0.26081767678260803,-8.980263710021973,-1.7682958841323853
1790266441073090600,3.652090576171875,-6.367300987243652,-9.643074989318848,3.964907169342041
1790266441090344200,3.66934423828125,-3.759124279022217,-8.427521705627441,3.0723843574523926
1790266441107597800,3.686597900390625,-5.106283664703369,-9.858428955078125,1.9884356260299683
1790266441124851200,3.703851318359375,-3.8428730964660645,-8.080561637878418,1.5290136337280273
1790266441142104800,3.721104736328125,-4.094119548797607,-7.322037220001221,1.703689694404602
1790266441159358200,3.738358154296875,-2.7326035499572754,-8.48016357421875,2.785245656967163
1790266441176611600,3.755611572265625,-4.00319242477417,-8.61176872253418,2.9694929122924805
1790266441193865000,3.772864990234375,-4.5583271980285645,-8.14516830444336,1.9405791759490967
1790266441211118300,3.790118408203125,-3.1202406883239746,-8.566305160522461,1.2945170402526855
1790266441228371700,3.807371826171875,-1.8113667964935303,-7.520641803741455,1.31365966796875
1790266441245625000,3.824625,-2.861815929412842,-7.936992645263672,2.225325107574463
1790266441262878500,3.84187841796875,-6.38165807723999,-11.196017265319824,1.1485549211502075
1790266441280131800,3.8591318359375,-4.522434711456299,-11.734402656555176,3.0005996227264404
1790266441297385500,3.876385498046875,-5.266602516174316,-10.944770812988281,2.2229323387145996
1790266441314639000,3.89363916015625,-4.517649173736572,-9.308079719543457,2.0338993072509766
1790266441331892500,3.910892578125,-2.423929452896118,-8.169096946716309,1.9286150932312012
1790266441349146000,3.92814599609375,-1.1892328262329102,-7.733603000640869,1.093519926071167
1790266441366399500,3.9453994140625,-1.2658032178878784,-6.872186660766602,0.5670989751815796
1790266441383652900,3.96265283203125,-2.517249345779419,-7.204789161682129,1.4093725681304932
1790266441400906200,3.97990625,-3.06999135017395,-8.288737297058105,2.768495798110962
1790266441418159600,3.99715966796875,-3.098705291748047,-9.671789169311523,1.643869161605835
1790266441435412700,4.014412841796875,-2.1655044555664062,-9.358329772949219,-0.02632104977965355
1790266441452666000,4.031666015625,-1.5170495510101318,-9.028120040893555,0.19621145725250244
1790266441469919700,4.048919677734375,-1.5840486288070679,-9.621540069580078,0.8111668825149536
1790266441487173000,4.066173095703125,-2.1822543144226074,-10.595418930053711,0.9068797826766968
1790266441504426800,4.0834267578125,-1.7539390325546265,-10.992627143859863,1.2275179624557495
1790266441521680400,4.100680419921875,-2.311466693878174,-10.849058151245117,1.6510475873947144
1790266441538933800,4.117933837890625,-2.227717876434326,-10.176674842834473,1.8496519327163696
1790266441556187400,4.1351875,-2.5148565769195557,-10.430314064025879,1.490728497505188
1790266441573441000,4.15244091796875,-2.5770699977874756,-11.210373878479004,0.9690931439399719
1790266441590694400,4.1696943359375,-2.706282377243042,-11.624332427978516,2.0745773315429688
1790266441607948000,4.186947998046875,-2.8211379051208496,-10.564311981201172,3.146561861038208
1790266441625201700,4.20420166015625,-5.048855781555176,-7.769495010375977,2.0554347038269043
1790266441642455000,4.221455078125,-7.45364236831665,-6.393621921539307,2.172683000564575
1790266441659708200,4.238708251953125,-5.699703693389893,-6.812366008758545,2.770888566970825
1790266441676961500,4.25596142578125,-2.9359934329986572,-8.02791976928711,1.8185452222824097
1790266441694215200,4.273215087890625,-3.8979079723358154,-10.030712127685547,-0.6628118753433228
1790266441711468500,4.290468505859375,-9.535398483276367,-10.432706832885742,5.154139995574951
1790266441728722200,4.30772216796875,-3.90987229347229,-10.590633392333984,5.513063430786133
1790266441745975800,4.324975830078125,-7.135396957397461,-8.772088050842285,3.6323046684265137
1790266441763229200,4.342229248046875,-6.833901405334473,-8.556734085083008,3.6370904445648193
1790266441780482600,4.359482666015625,-8.642875671386719,-10.375279426574707,3.9050865173339844
1790266441797735700,4.376735595703125,-8.492127418518066,-11.92343521118164,3.704089403152466
1790266441814989000,4.393989013671875,-5.029713153839111,-12.55992603302002,2.8689942359924316
1790266441832242400,4.411242431640625,-4.797609329223633,-10.39202880859375,4.130012035369873
1790266441849495800,4.428495849609375,-6.25723123550415,-8.812766075134277,2.8929226398468018
1790266441866749200,4.445749267578125,-5.79780912399292,-7.5708909034729,2.0171494483947754
1790266441884002800,4.4630029296875,-6.144768714904785,-7.202396392822266,2.9072794914245605
1790266441901256200,4.480256103515625,-6.410371780395508,-7.350750923156738,4.158725738525391
1790266441918509800,4.497509765625,-6.57547664642334,-7.334001541137695,4.1491546630859375
1790266441935763500,4.514763427734375,-7.642675399780273,-6.821937561035156,3.8739798069000244
1790266441953016800,4.532016845703125,-8.264809608459473,-6.448657035827637,4.453042984008789
1790266441970270200,4.549270263671875,-8.74337387084961,-6.223731517791748,5.0943193435668945
1790266441987523600,4.566523681640625,-8.449056625366211,-5.960521221160889,5.2354960441589355
1790266442004777000,4.58377685546875,-8.398807525634766,-5.742774486541748,4.481756687164307
1790266442022030300,4.6010302734375,-8.24566650390625,-5.816951751708984,3.4480574131011963
1790266442039283700,4.61828369140625,-8.396414756774902,-5.742774486541748,2.8737800121307373
1790266442056537000,4.635537109375,-8.420342445373535,-5.056034088134766,2.0721843242645264
1790266442073790500,4.65279052734375,-5.0225348472595215,-2.854637384414673,-0.794417142868042
1790266442091044000,4.670044189453125,-11.368300437927246,-1.5242279767990112,-0.29431718587875366
1790266442108297500,4.68729736328125,-6.7070817947387695,-3.1920254230499268,0.8638089895248413
1790266442125551000,4.704551025390625,-5.544169902801514,-3.452843189239502,1.2299108505249023
1790266442142804700,4.7218046875,-5.508277893066406,-2.2301106452941895,1.2897313833236694
1790266442160058000,4.73905810546875,-5.85284423828125,-0.44745782017707825,2.3952155113220215
1790266442177311500,4.7563115234375,-6.226124286651611,-0.02871387079358101,2.4263222217559814
1790266442194564900,4.77356494140625,-6.623332977294922,0.18424734473228455,1.34476637840271
1790266442211818200,4.790818359375,-5.61116886138916,0.23688943684101105,1.155733346939087
1790266442229071600,4.808071533203125,-5.233103275299072,0.3756731450557709,1.1629117727279663
1790266442246324700,4.82532470703125,-5.44845724105835,0.4426721930503845,0.19142581522464752
1790266442263578000,4.842578125,-5.154139995574951,0.5096712112426758,-0.19142581522464752
1790266442280831700,4.859831787109375,-5.522634506225586,0.9619147181510925,0.08135596662759781
1790266442298085400,4.87708544921875,-5.271388053894043,1.1892328262329102,0.30149564146995544
1790266442315338800,4.8943388671875,-5.54177713394165,0.7968099117279053,-0.02392822690308094
1790266442332592400,4.91159228515625,-6.338587284088135,0.8087740540504456,0.19381862878799438
1790266442349846000,4.928845947265625,-6.240481376647949,0.275174617767334,0.916451096534729
1790266442367099400,4.946099365234375,-6.03948450088501,-0.48813581466674805,1.3040883541107178
1790266442384352800,4.963352783203125,-6.766902446746826,-0.9930213689804077,1.5290136337280273
1790266442401606100,4.980606201171875,-6.16391134262085,-1.3830515146255493,1.9597218036651611
1790266442418859300,4.997859375,-6.075376510620117,-2.3497519493103027,2.2061824798583984
1790266442436112600,5.015112548828125,-6.4941205978393555,-3.1752755641937256,2.5220351219177246
1790266442453366000,5.032365966796875,-7.463213920593262,-3.483949661254883,3.036491870880127
1790266442470619600,5.04961962890625,-8.059026718139648,-3.6849467754364014,3.8500516414642334
1790266442487873000,5.066873046875,-7.10429048538208,-4.383651256561279,3.493520975112915
1790266442505126700,5.084126708984375,-6.63051176071167,-5.876772403717041,3.184846878051758
1790266442522380000,5.101380126953125,-6.436692714691162,-7.338787078857422,3.82373046875
1790266442539633700,5.118633544921875,-7.793423175811768,-8.094919204711914,4.926821708679199
1790266442556887300,5.13588720703125,-8.817551612854004,-7.345965385437012,5.190032482147217
1790266442574140400,5.153140380859375,-8.535198211669922,-6.881757736206055,4.541577339172363
1790266442591394000,5.17039404296875,-7.865208148956299,-7.164111137390137,3.7471601963043213
1790266442608647400,5.1876474609375,-7.738388538360596,-7.247859954833984,3.249453067779541
1790266442625901000,5.204901123046875,-7.489534854888916,-7.637889862060547,3.1561331748962402
1790266442643154700,5.22215478515625,-7.850851058959961,-8.46341323852539,3.3786656856536865
1790266442660408000,5.239407958984375,-7.133004188537598,-9.293723106384277,3.428914785385132
1790266442677661400,5.256661376953125,-6.790830612182617,-9.920642852783203,3.751945972442627
1790266442694914800,5.273914794921875,-7.475177764892578,-10.925628662109375,4.333401679992676
1790266442712168200,5.291168212890625,-8.140382766723633,-11.059626579284668,5.307280540466309
1790266442729421600,5.308421630859375,-8.37727165222168,-10.571490287780762,6.673582553863525
1790266442746675000,5.325675048828125,-7.865208148956299,-9.497113227844238,7.561319351196289
1790266442763928300,5.34292822265625,-7.121040344238281,-8.461020469665527,7.791030406951904
1790266442781181700,5.360181640625,-6.254838466644287,-7.527820110321045,7.190432071685791
1790266442798435300,5.377435302734375,-5.934200286865234,-7.077969551086426,5.8097734451293945
1790266442815689000,5.39468896484375,-6.240481376647949,-7.307680130004883,4.230510234832764
1790266442832942300,5.4119423828125,-6.838686943054199,-8.109275817871094,2.9479575157165527
1790266442850196000,5.429196044921875,-6.865008354187012,-8.671588897705078,2.4837498664855957
1790266442867449300,5.446449462890625,-6.649653911590576,-8.788837432861328,2.943171739578247
1790266442884702700,5.46370263671875,-6.618547439575195,-8.652446746826172,3.1657042503356934
1790266442901956000,5.4809560546875,-7.262216567993164,-8.336593627929688,3.8428730964660645
1790266442919209500,5.49820947265625,-7.396214962005615,-8.24566650390625,4.792823791503906
1790266442936462800,5.515462890625,-6.86261510848999,-8.530412673950195,5.264209747314453
1790266442953716000,5.532716064453125,-6.534798622131348,-8.461020469665527,4.991427898406982
1790266442970969600,5.549969482421875,-6.307480335235596,-8.271987915039062,4.673182487487793
1790266442988223000,5.567222900390625,-6.297909259796143,-7.884350776672363,4.790431022644043
1790266443005476600,5.5844765625,-7.29093074798584,-7.527820110321045,5.565705299377441
1790266443022730200,5.601730224609375,-7.802994728088379,-7.427321434020996,6.190232276916504
1790266443039983600,5.618983642578125,-7.606783390045166,-7.214360237121582,5.649454116821289
1790266443057237200,5.6362373046875,-7.343572616577148,-6.702296257019043,5.044070243835449
1790266443074490600,5.65349072265625,-7.898707389831543,-6.221338748931885,5.283352375030518
1790266443091744000,5.670743896484375,-7.64028263092041,-6.262016773223877,5.771488189697266
1790266443108997400,5.687997314453125,-6.805187702178955,-6.324230194091797,6.197410583496094
1790266443126250500,5.70525048828125,-7.159325122833252,-6.197410583496094,5.632704734802246
1790266443143504000,5.72250390625,-8.358129501342773,-5.742774486541748,5.5106706619262695
1790266443160757200,5.73975732421875,-9.499505996704102,-5.283352375030518,4.924428939819336
1790266443178011000,5.757010986328125,-9.506684303283691,-5.115854740142822,3.596412420272827
1790266443195264300,5.77426416015625,-7.8556365966796875,-4.864608287811279,2.6488547325134277
1790266443212518000,5.791517822265625,-6.98704195022583,-4.5822553634643555,2.641676187515259
1790266443229771500,5.808771484375,-6.656832695007324,-4.110869407653809,3.050848960876465
1790266443247025000,5.82602490234375,-5.7547383308410645,-3.902693748474121,2.830709218978882
1790266443264278500,5.843278564453125,-6.041877269744873,-3.208775281906128,1.8664016723632812
1790266443281532000,5.860531982421875,-5.60399055480957,-2.280359983444214,1.3663017749786377
1790266443298785300,5.877785400390625,-6.104090690612793,-1.6773686408996582,0.9379864931106567
1790266443316038400,5.895038330078125,-5.874379634857178,-1.2418749332427979,1.1868400573730469
1790266443333291800,5.912291748046875,-5.79063081741333,-0.42352959513664246,1.2323036193847656
1790266443350545200,5.929545166015625,-6.599404811859131,0.380458801984787,0.7848458290100098
1790266443367798500,5.946798583984375,-7.03489875793457,0.8183453679084778,0.1866401731967926
1790266443385052000,5.964052001953125,-6.295516490936279,0.6508477330207825,0.5742774605751038
1790266443402305000,5.981304931640625,-5.07517671585083,0.6101697683334351,0.7178468108177185
1790266443419558400,5.998558349609375,-5.517848968505859,0.9116654396057129,0.1052841991186142
1790266443436811800,6.015811767578125,-5.726024627685547,0.8446664214134216,0.6029912829399109
1790266443454065200,6.033065185546875,-4.807180881500244,0.4378865361213684,0.18903298676013947
1790266443471318500,6.050318603515625,-5.182853698730469,0.3565305769443512,-0.2584248483181
1790266443488572000,6.067572021484375,-5.79063081741333,0.30628129839897156,0.2967100143432617
1790266443505825500,6.084825439453125,-6.116054534912109,0.01196411345154047,0.27756741642951965
1790266443523079200,6.1020791015625,-6.405586242675781,0.16031911969184875,2.227717876434326
1790266443540332500,6.11933251953125,-6.1710896492004395,-1.1653046607971191,3.0388846397399902
1790266443557586200,6.136586181640625,-7.04207706451416,-1.100698471069336,2.4023938179016113
1790266443574839600,6.153839599609375,-7.558926582336426,-2.194218397140503,3.10109806060791
1790266443592093000,6.171093017578125,-6.080162525177002,-3.046063184738159,3.7974095344543457
1790266443609346300,6.18834619140625,-6.1399827003479,-3.4648072719573975,3.1824541091918945
1790266443626599700,6.205599609375,-6.9104719161987305,-3.9146578311920166,3.6059837341308594
1790266443643852800,6.222852783203125,-7.893921852111816,-4.321437835693359,3.720839262008667
1790266443661106200,6.240106201171875,-7.405786037445068,-5.249852657318115,3.981656789779663
1790266443678359800,6.25735986328125,-6.474977970123291,-6.137589931488037,4.237689018249512
1790266443695613400,6.274613525390625,-7.312466144561768,-7.17368221282959,4.996213912963867
1790266443712866800,6.29186669921875,-8.133204460144043,-8.097311973571777,5.364708423614502
1790266443730120400,6.309120361328125,-8.583054542541504,-7.860422611236572,4.828716278076172
1790266443747374000,6.3263740234375,-8.23848819732666,-7.69531774520874,4.711467742919922
1790266443764627500,6.34362744140625,-8.02791976928711,-7.932207107543945,4.792823791503906
1790266443781880800,6.360880859375,-7.7216386795043945,-8.279166221618652,4.400400638580322
1790266443799134200,6.37813427734375,-7.027719974517822,-8.640482902526855,3.658625841140747
1790266443816387300,6.39538720703125,-7.810173034667969,-9.221938133239746,3.5676984786987305
1790266443833640700,6.412640625,-7.877171993255615,-9.245866775512695,3.7974095344543457
1790266443850894000,6.42989404296875,-8.051848411560059,-9.109476089477539,4.362115859985352
1790266443868147500,6.4471474609375,-7.714460372924805,-9.140582084655762,5.338387489318848
1790266443885401000,6.464401123046875,-7.357929706573486,-9.152546882629395,5.702096462249756
1790266443902654700,6.48165478515625,-7.412964344024658,-9.138189315795898,5.699703693389893
1790266443919908000,6.498908203125,-7.623532772064209,-9.154939651489258,5.838487148284912
1790266443937161700,6.51616162109375,-7.740781307220459,-8.891729354858398,5.824130535125732
1790266443954415400,6.533415283203125,-7.164111137390137,-8.516056060791016,5.546562671661377
1790266443971668700,6.550668701171875,-6.5491557121276855,-7.9968132972717285,4.766502857208252
1790266443988921900,6.567921875,-6.3601226806640625,-7.886743545532227,3.8524444103240967
1790266444006175200,6.58517529296875,-6.419943332672119,-7.970492362976074,3.5054850578308105
1790266444023428600,6.6024287109375,-6.759724140167236,-8.530412673950195,3.617947816848755
1790266444040682000,6.619681884765625,-6.939185619354248,-9.032905578613281,3.469592809677124
1790266444057935400,6.636935302734375,-7.066005229949951,-9.399007797241211,3.397808074951172
1790266444075188700,6.654188720703125,-7.0301127433776855,-9.45882797241211,3.900300979614258
1790266444092441900,6.67144189453125,-6.903293132781982,-9.047262191772461,4.218546390533447
1790266444109695200,6.6886953125,-7.403393268585205,-8.02791976928711,4.560719966888428
1790266444126948600,6.705948486328125,-7.920242786407471,-7.18086051940918,5.3694939613342285
1790266444144202000,6.723201904296875,-8.078168869018555,-6.999006271362305,5.855237007141113
1790266444161455400,6.740455322265625,-8.250452041625977,-6.869793891906738,5.936593055725098
1790266444178709000,6.757708984375,-8.671588897705078,-6.879364967346191,5.831308841705322
1790266444195962400,6.77496240234375,-8.398807525634766,-7.109076023101807,5.630311489105225
1790266444213216000,6.792216064453125,-7.747959613800049,-6.912864685058594,5.630311489105225
1790266444230469600,6.8094697265625,-7.45364236831665,-6.553941249847412,5.266602516174316
1790266444247723000,6.826722900390625,-7.207181930541992,-6.364908218383789,4.893322467803955
1790266444264976400,6.843976318359375,-7.317251682281494,-5.941378593444824,4.455435752868652
1790266444282229800,6.861229736328125,-7.934599876403809,-5.635097503662109,4.156332969665527
1790266444299483100,6.878483154296875,-6.860222339630127,-5.024927616119385,3.9792640209198
1790266444316736500,6.895736572265625,-6.666403770446777,-4.278367042541504,4.106083869934082
1790266444333990000,6.912989990234375,-7.537391185760498,-3.656233072280884,3.7160534858703613
1790266444351243300,6.9302431640625,-8.228917121887207,-3.2374889850616455,3.610769271850586
1790266444368496600,6.94749658203125,-8.86062240600586,-3.029313564300537,4.163511276245117
1790266444385750300,6.964750244140625,-8.066205024719238,-2.809173822402954,4.591826438903809
1790266444403003600,6.982003662109375,-7.458428382873535,-2.768495798110962,4.898108005523682
1790266444420257300,6.99925732421875,-7.324429988861084,-2.912065267562866,5.151747226715088
1790266444437511000,7.016510986328125,-7.836493968963623,-2.5674986839294434,4.132404804229736
1790266444454764300,7.033764404296875,-7.2574310302734375,-1.215553879737854,3.2470602989196777
1790266444472017700,7.051017578125,-5.467599868774414,-0.6125625967979431,2.6464617252349854
1790266444489271000,7.06827099609375,-3.6873397827148438,-0.9906286001205444,0.5096712112426758
1790266444506524400,7.0855244140625,-4.977071285247803,-0.6101697683334351,-1.2251251935958862
1790266444523777800,7.10277783203125,-4.41475772857666,0.3684946894645691,-0.44027936458587646
1790266444541031000,7.120031005859375,-4.161118507385254,1.1485549211502075,0.20338992774486542
1790266444558284300,7.1372841796875,-4.570291042327881,1.4811571836471558,0.1459621787071228
1790266444575537700,7.15453759765625,-5.146961688995361,1.8424733877182007,0.2967100143432617
1790266444592791000,7.171791015625,-4.567898273468018,2.0027925968170166,0.7226324677467346
1790266444610044400,7.18904443359375,-5.3216376304626465,1.550549030303955,0.4139583110809326
1790266444627297800,7.2062978515625,-5.190032482147217,1.0289137363433838,0.4211367964744568
1790266444644551000,7.223551025390625,-5.874379634857178,0.7752745151519775,0.47617170214653015
1790266444661804500,7.240804443359375,-6.015556335449219,0.2273181527853012,1.5984054803848267
1790266444679058000,7.258057861328125,-6.39601469039917,-0.6221339106559753,2.5076780319213867
1790266444696311600,7.2753115234375,-5.072783946990967,-1.7395820617675781,3.601198196411133
1790266444713565200,7.292565185546875,-4.965106964111328,-2.919243574142456,3.775874137878418
1790266444730818600,7.309818603515625,-7.295716285705566,-3.2757742404937744,4.359723091125488
1790266444748072200,7.327072265625,-7.255038261413574,-3.84765887260437,4.5200419425964355
1790266444765325600,7.34432568359375,-6.300302028656006,-4.649254322052002,4.1730828285217285
1790266444782579000,7.361578857421875,-6.340980052947998,-5.13739013671875,4.383651256561279
1790266444799832300,7.378832275390625,-7.384250640869141,-4.924428939819336,4.46979284286499
1790266444817085700,7.396085693359375,-7.202396392822266,-4.5391845703125,4.1419758796691895
1790266444834338800,7.4133388671875,-7.345965385437012,-5.149354457855225,3.7950167655944824
1790266444851592200,7.43059228515625,-7.712067604064941,-6.5252275466918945,4.199403762817383
1790266444868845600,7.447845458984375,-8.104490280151367,-7.929814338684082,4.563112735748291
1790266444886099000,7.465098876953125,-7.6043901443481445,-8.635697364807129,4.59421968460083
1790266444903352300,7.482352294921875,-7.401000499725342,-8.817551612854004,4.646861553192139
1790266444920605700,7.499605712890625,-8.274380683898926,-9.025727272033691,4.910071849822998
1790266444937858800,7.51685888671875,-9.17886734008789,-9.28893756866455,4.900500774383545
1790266444955112200,7.5341123046875,-8.403593063354492,-9.29611587524414,4.735395908355713
1790266444972365800,7.55136572265625,-7.307680130004883,-9.181260108947754,4.878965377807617
1790266444989619500,7.568619384765625,-7.073183536529541,-9.279366493225098,5.218746185302734
1790266445006872800,7.585872802734375,-7.3292155265808105,-9.695717811584473,5.5968122482299805
1790266445024126500,7.60312646484375,-6.104090690612793,-10.214960098266602,6.063412666320801
1790266445041380000,7.620380126953125,-6.8865437507629395,-10.054640769958496,5.814558982849121
1790266445058633500,7.637633544921875,-7.712067604064941,-9.233902931213379,5.472385406494141
1790266445075886800,7.654886962890625,-7.523034572601318,-8.21695327758789,4.967499732971191
1790266445093140200,7.67214013671875,-7.63310432434082,-7.597211837768555,4.610969066619873
1790266445110393300,7.689393310546875,-7.4225358963012695,-7.690532207489014,4.555934429168701
1790266445127646700,7.706646728515625,-6.984649181365967,-8.02074146270752,4.185046672821045
1790266445144900000,7.723900146484375,-6.680760860443115,-8.109275817871094,3.5581271648406982
1790266445162153200,7.7411533203125,-5.687739372253418,-8.240880966186523,2.9359934329986572
1790266445179751400,7.75875146484375,-5.307280540466309,-8.585447311401367,2.2372891902923584
1790266445197349600,7.776349609375,-6.228517532348633,-8.60459041595459,2.3808584213256836
1790266445214947800,7.79394775390625,-7.207181930541992,-8.74337387084961,2.9216363430023193
1790266445232545800,7.8115458984375,-7.712067604064941,-8.755337715148926,4.7473602294921875
1790266445250144000,7.82914404296875,-7.692924976348877,-8.398807525634766,6.192625045776367
1790266445267742200,7.8467421875,-8.01356315612793,-7.865208148956299,6.661618232727051
1790266445285340400,7.86434033203125,-8.173882484436035,-7.288537979125977,6.479763507843018
1790266445302939000,7.88193896484375,-7.494320392608643,-6.805187702178955,6.099305152893066
1790266445320537000,7.899537109375,-8.193024635314941,-6.534798622131348,6.154339790344238
1790266445338135600,7.917135498046875,-8.556734085083008,-6.623332977294922,6.034698486328125
1790266445355733800,7.934733642578125,-8.384450912475586,-6.735795974731445,5.747560024261475
1790266445373190000,7.95218994140625,-7.824530124664307,-6.424728870391846,5.493920803070068
1790266445390504000,7.96950390625,-7.568498134613037,-6.065805435180664,5.063212871551514
1790266445407818000,7.98681787109375,-7.135396957397461,-5.687739372253418,4.756931304931641
1790266445425131800,8.0041318359375,-6.963113784790039,-5.266602516174316,4.383651256561279
1790266445442445800,8.02144580078125,-8.21695327758789,-4.589433670043945,3.761517286300659
1790266445459759900,8.038759765625,-7.915457248687744,-4.261617183685303,3.074777126312256
1790266445477028400,8.0560283203125,-7.17368221282959,-4.110869407653809,3.1800613403320312
1790266445494281700,8.07328173828125,-7.767102241516113,-3.7710886001586914,3.414557933807373
1790266445511534800,8.090534912109375,-8.516056060791016,-3.586841106414795,3.6059837341308594
1790266445528788200,8.107788330078124,-7.740781307220459,-3.524627685546875,3.689732551574707
1790266445546041600,8.12504150390625,-6.125626087188721,-3.2135608196258545,3.672982692718506
1790266445563295000,8.142294921875,-6.553941249847412,-2.5842485427856445,2.933600664138794
1790266445580548400,8.15954833984375,-6.649653911590576,-2.03629207611084,1.6917256116867065
1790266445597801700,8.1768017578125,-5.491528034210205,-1.0456634759902954,0.7010970115661621
1790266445615054800,8.194054931640625,-5.580062389373779,0.27756741642951965,0.1866401731967926
1790266445632308200,8.21130810546875,-5.556134223937988,0.8973084688186646,-0.36610186100006104
1790266445649561600,8.2285615234375,-5.343173027038574,1.1988041400909424,-0.49292147159576416
1790266445666815000,8.24581494140625,-5.44845724105835,0.7489534616470337,-0.24406790733337402
1790266445684068600,8.263068603515626,-4.59421968460083,0.4378865361213684,0.605384111404419
1790266445701322000,8.280322021484375,-5.106283664703369,1.1940184831619263,0.17946170270442963
1790266445718575600,8.29757568359375,-3.6634113788604736,1.490728497505188,-0.11724831163883209
1790266445735829200,8.314829345703124,-4.412364959716797,0.9403793215751648,-0.4713860750198364
1790266445753082600,8.33208251953125,-5.309673309326172,0.2105683982372284,-0.6843472719192505
1790266445770336300,8.349336181640625,-5.522634506225586,-0.46420758962631226,-0.6699903607368469
1790266445787589400,8.36658935546875,-6.094519138336182,-0.7704889178276062,0.16510476171970367
1790266445804842800,8.3838427734375,-5.350351333618164,-1.1485549211502075,1.8975083827972412
1790266445822096100,8.40109619140625,-6.50608491897583,-1.7682958841323853,2.9048867225646973
1790266445839349500,8.418349609375,-6.3529438972473145,-2.6847469806671143,3.4337005615234375
1790266445856603000,8.435602783203125,-7.087540626525879,-3.6777684688568115,3.2781670093536377
1790266445873856300,8.452856201171874,-7.743174076080322,-4.450650215148926,3.82373046875
1790266445891109400,8.470109375,-7.652246952056885,-4.910071849822998,4.350151538848877
1790266445908362800,8.48736279296875,-7.094718933105469,-5.285745143890381,4.977071285247803
1790266445925616000,8.5046162109375,-6.5419769287109375,-5.934200286865234,5.163711071014404
1790266445942869500,8.521869384765624,-7.355536937713623,-6.692724704742432,5.111069202423096
1790266445960123000,8.539122802734376,-7.020541667938232,-7.17368221282959,4.716253280639648
1790266445977376300,8.556376220703125,-7.003791809082031,-7.491927623748779,4.230510234832764
1790266445994629400,8.57362939453125,-6.898507595062256,-7.609176158905029,3.981656789779663
1790266446011882800,8.5908828125,-7.429714202880859,-8.02791976928711,4.321437835693359
1790266446029136100,8.60813623046875,-7.688138961791992,-8.772088050842285,4.981856822967529
1790266446046389500,8.625389404296875,-7.814958572387695,-9.53779125213623,5.3312087059021
1790266446063643000,8.642642822265625,-8.396414756774902,-9.997213363647461,4.804787635803223
1790266446080896300,8.659896240234374,-8.528019905090332,-10.234102249145508,4.575077056884766
1790266446098150000,8.67714990234375,-8.707481384277344,-10.53081226348877,4.706682205200195
1790266446115403300,8.6944033203125,-8.260024070739746,-10.985448837280273,5.151747226715088
1790266446132657000,8.711656982421875,-6.8865437507629395,-11.33240795135498,5.917450428009033
1790266446149910500,8.72891064453125,-5.3455657958984375,-11.028519630432129,5.544169902801514
1790266446167164000,8.746163818359374,-6.486942291259766,-9.31047248840332,4.340580463409424
1790266446184417300,8.763417236328126,-7.750352382659912,-7.6498541831970215,3.3930225372314453
1790266446201670700,8.780670654296875,-6.903293132781982,-6.999006271362305,3.548556089401245
1790266446218924000,8.797924072265625,-6.228517532348633,-7.128218650817871,3.9146578311920166
1790266446236177400,8.815177490234374,-6.766902446746826,-7.434499740600586,3.7471601963043213
1790266446253430500,8.832430419921875,-7.250252723693848,-7.982456207275391,3.840480327606201
1790266446270684000,8.849683837890625,-6.482156753540039,-8.784051895141602,4.077369689941406
1790266446287937300,8.866937255859375,-6.233303070068359,-9.45882797241211,3.9385859966278076
1790266446305190700,8.884190673828124,-6.522834300994873,-9.796216011047363,3.6059837341308594
1790266446322444000,8.901444091796876,-7.317251682281494,-9.399007797241211,3.988835334777832
1790266446339697400,8.918697509765625,-7.575676441192627,-8.209774017333984,4.658825874328613
1790266446356950500,8.935950439453125,-8.312665939331055,-7.654639720916748,4.874179840087891
1790266446374204000,8.953203857421874,-7.846065521240234,-7.795815944671631,4.7952165603637695
1790266446391457300,8.970457275390626,-7.156932353973389,-8.178668022155762,5.154139995574951
1790266446408710700,8.987710693359375,-7.159325122833252,-8.374878883361816,5.149354457855225
1790266446425964000,9.004964111328125,-7.568498134613037,-8.02074146270752,5.161318302154541
1790266446443217400,9.022217529296874,-7.817351341247559,-7.657032489776611,5.266602516174316
1790266446460470500,9.039470458984376,-8.214560508728027,-7.448856830596924,5.26181697845459
1790266446477724200,9.05672412109375,-7.03489875793457,-7.027719974517822,4.800002098083496
1790266446494977800,9.073977783203125,-7.2430739402771,-6.26440954208374,4.393222332000732
1790266446512231200,9.091231201171874,-8.374878883361816,-5.781059741973877,4.153940200805664
1790266446529484800,9.10848486328125,-7.984848976135254,-5.675775527954102,4.2209391593933105
1790266446546738400,9.125738525390625,-7.82692289352417,-5.405386447906494,3.7256247997283936
1790266446563991800,9.14299169921875,-8.135597229003906,-4.814359188079834,3.0963125228881836
1790266446581245200,9.1602451171875,-7.8317084312438965,-4.792823791503906,2.770888566970825
1790266446598498600,9.17749853515625,-7.231110095977783,-4.721039295196533,2.486142635345459
1790266446615752000,9.194751953125,-6.975078105926514,-4.180261135101318,2.2301106452941895
1790266446633005000,9.212005126953125,-8.599804878234863,-3.4504501819610596,2.313859462738037
1790266446650258400,9.229258544921874,-8.578269004821777,-3.187239646911621,2.6560330390930176
1790266446667511800,9.24651171875,-6.802794933319092,-3.28773832321167,3.4887354373931885
1790266446684765200,9.26376513671875,-5.548955917358398,-2.7038896083831787,3.0867412090301514
1790266446702018600,9.2810185546875,-5.426921844482422,-1.404586911201477,1.4883357286453247
1790266446719272000,9.29827197265625,-4.304687976837158,-0.09092725813388824,0
1790266446736525000,9.315525146484376,-3.5748770236968994,1.5290136337280273,-0.8614161610603333
1790266446753778400,9.3327783203125,-4.168296813964844,2.524427890777588,-2.3808584213256836
1790266446771031800,9.35003173828125,-5.000999450683594,2.3162522315979004,-1.1365907192230225
1790266446788285200,9.36728515625,-3.845266103744507,1.490728497505188,1.0001999139785767
1790266446805538600,9.38453857421875,-3.704089403152466,0.638883650302887,1.576870083808899
1790266446822792000,9.4017919921875,-4.883750915527344,0.25363919138908386,0.28235307335853577
1790266446840045000,9.419045166015625,-4.893322467803955,0.30149564146995544,0.009571290574967861
1790266446857298400,9.43629833984375,-4.833501815795898,0.27756741642951965,0.5216353535652161
1790266446874551800,9.4535517578125,-6.752545356750488,0.43549370765686035,0.3278166949748993
1790266446891805200,9.47080517578125,-7.618747234344482,0.5814558863639832,1.2610175609588623
1790266446909058600,9.48805859375,-7.003791809082031,0.04307080805301666,2.3736801147460938
1790266446926312000,9.50531201171875,-7.1234331130981445,-1.4979069232940674,3.7639100551605225
1790266446943565000,9.52256494140625,-6.704689025878906,-3.7328033447265625,4.146761417388916
1790266446960818400,9.539818359375,-5.8719868659973145,-5.836094379425049,3.8524444103240967
1790266446978071800,9.55707177734375,-6.556334018707275,-6.8243303298950195,3.589233875274658
1790266446995325400,9.574325439453125,-7.487142086029053,-6.747759819030762,3.6059837341308594
1790266447012579000,9.5915791015625,-7.719245910644531,-5.766702651977539,3.680161237716675
1790266447029832400,9.60883251953125,-7.015756130218506,-4.874179840087891,3.862015724182129
1790266447047086000,9.626086181640625,-6.8482584953308105,-4.48414945602417,4.00319242477417
1790266447064339500,9.64333935546875,-7.278966426849365,-4.900500774383545,4.223331928253174
1790266447081592800,9.6605927734375,-6.991827964782715,-6.029912948608398,3.806980848312378
1790266447098846200,9.67784619140625,-7.317251682281494,-7.465606689453125,3.565305709838867
1790266447116099600,9.695099609375,-7.154539585113525,-8.82951545715332,4.084548473358154
1790266447133353000,9.71235302734375,-7.221538543701172,-9.937392234802246,5.1804609298706055
1790266447150606300,9.7296064453125,-7.405786037445068,-10.700702667236328,6.297909259796143
1790266447167859500,9.746859375,-7.953742504119873,-11.437692642211914,6.900900363922119
1790266447185112800,9.76411279296875,-8.520841598510742,-11.703295707702637,7.032505512237549
1790266447202366200,9.7813662109375,-7.582854747772217,-10.96869945526123,7.475177764892578
1790266447219619600,9.79861962890625,-7.793423175811768,-9.664610862731934,7.5086774826049805
1790266447236873000,9.815873046875,-7.231110095977783,-8.413164138793945,6.410371780395508
1790266447254126300,9.833126220703125,-7.523034572601318,-7.805387496948242,5.123033046722412
1790266447271379500,9.85037939453125,-7.523034572601318,-8.195417404174805,4.453042984008789
1790266447288632800,9.8676328125,-6.6831536293029785,-8.602197647094727,4.252045631408691
1790266447305886200,9.88488623046875,-5.92223596572876,-8.00638484954834,3.4911282062530518
1790266447323139600,9.9021396484375,-5.680561065673828,-7.288537979125977,2.778067111968994
1790266447340393000,9.91939306640625,-6.130411624908447,-7.410571575164795,2.9766714572906494
1790266447357646300,9.936646240234374,-6.135197162628174,-8.403593063354492,3.507878065109253
1790266447374899500,9.9538994140625,-5.962913990020752,-9.087940216064453,3.493520975112915
1790266447392152800,9.97115283203125,-6.357729911804199,-9.437292098999023,3.0077781677246094
1790266447409406200,9.98840625,-7.190432071685791,-9.370293617248535,2.840280532836914
1790266447426659600,10.00565966796875,-8.394021987915039,-9.21715259552002,4.0079779624938965
1790266447443913000,10.022912841796876,-8.228917121887207,-9.257830619812012,5.67338228225708
1790266447461166300,10.040166259765625,-6.984649181365967,-9.013762474060059,6.790830612182617
1790266447478419500,10.05741943359375,-7.9250288009643555,-7.977670669555664,6.7070817947387695
1790266447495672800,10.0746728515625,-8.901300430297852,-7.369893550872803,6.7692952156066895
1790266447512926200,10.09192626953125,-7.551748275756836,-7.221538543701172,7.056434154510498
1790266447530179600,10.1091796875,-6.740581512451172,-7.058826923370361,6.52044153213501
1790266447547433000,10.126432861328125,-7.022934436798096,-6.563512325286865,5.493920803070068
1790266447564686300,10.143686279296874,-6.805187702178955,-6.092126369476318,4.572684288024902
1790266447581939700,10.160939697265626,-7.412964344024658,-5.702096462249756,4.070191383361816
1790266447599193300,10.178193359375,-8.676374435424805,-5.680561065673828,4.048655986785889
1790266447616447000,10.195447021484375,-7.29810905456543,-5.929414749145508,3.6873397827148438
1790266447633700400,10.212700439453124,-6.723831653594971,-5.781059741973877,3.0891339778900146
1790266447650954000,10.2299541015625,-9.492327690124512,-5.551348686218262,2.589034080505371
1790266447668207400,10.247207275390625,-9.305686950683594,-5.063212871551514,1.9286150932312012
1790266447685460700,10.264460693359375,-7.168896675109863,-4.5391845703125,2.306680917739868
1790266447702714000,10.281714111328125,-6.836294174194336,-4.543970108032227,2.5938198566436768
1790266447719967500,10.298967529296876,-7.334001541137695,-4.429114818572998,2.093719720840454
1790266447737220900,10.316220947265625,-6.331408500671387,-3.6059837341308594,1.6654045581817627
1790266447754474000,10.333473876953125,-6.072983741760254,-1.8137595653533936,2.196611166000366
1790266447771727400,10.350727294921874,-6.721438884735107,-0.1818545162677765,2.117648124694824
1790266447788980700,10.367980712890626,-4.2281174659729,0.07178468257188797,1.9094724655151367
1790266447806234000,10.385234130859375,-3.9601213932037354,0.8590233325958252,0.8015955686569214
1790266447823487500,10.402487548828125,-4.692325115203857,1.3519448041915894,-0.7345965504646301
1790266447840740600,10.41974072265625,-3.845266103744507,1.7252250909805298,-0.9786644577980042
1790266447857994000,10.436993896484376,-3.964907169342041,1.9669002294540405,-0.5670989751815796
1790266447875247400,10.454247314453125,-3.7328033447265625,1.2921242713928223,0.5575276613235474
1790266447892500700,10.471500732421875,-4.783252239227295,0.6771687865257263,0.727418065071106
1790266447909754000,10.488754150390625,-4.560719966888428,0.24885354936122894,0.038285162299871445
1790266447927007500,10.506007568359376,-4.572684288024902,0.19381862878799438,-0.32542386651039124
1790266447944260600,10.523260498046875,-5.13739013671875,0.550349235534668,-0.05742774158716202
1790266447961514000,10.540513916015625,-5.529813289642334,0.2632105052471161,1.0887342691421509
1790266447978767400,10.557767333984375,-6.116054534912109,-0.6891329288482666,1.7395820617675781
1790266447996020700,10.575020751953126,-5.44845724105835,-1.734796404838562,1.6845471858978271
1790266448013274000,10.592274169921875,-6.273981094360352,-2.6177480220794678,2.163111686706543
1790266448030527500,10.609527587890625,-7.2430739402771,-3.78544545173645,3.029313564300537
1790266448047780600,10.626780517578124,-6.415157318115234,-4.807180881500244,3.4911282062530518
1790266448065034000,10.644033935546876,-5.6590256690979,-5.656632900238037,3.438486099243164
1790266448082287400,10.661287353515625,-6.5252275466918945,-6.589833736419678,3.5509488582611084
1790266448099540700,10.678540771484375,-8.882157325744629,-7.295716285705566,4.1491546630859375
1790266448116794000,10.695794189453125,-8.86780071258545,-7.6498541831970215,4.297509670257568
1790266448134047500,10.713047607421874,-7.276573657989502,-7.858029365539551,3.7950167655944824
1790266448151300600,10.730300537109375,-6.1399827003479,-7.77188777923584,3.524627685546875
1790266448168554000,10.747553955078125,-6.1710896492004395,-7.8556365966796875,3.5916268825531006
1790266448185807400,10.764807373046875,-7.10429048538208,-8.307880401611328,4.405186653137207
1790266448203060700,10.782060791015626,-7.635497093200684,-8.647661209106445,4.512863636016846
1790266448220314000,10.799314208984375,-7.850851058959961,-8.958727836608887,4.666004180908203
1790266448237567500,10.8165673828125,-7.133004188537598,-9.387042999267578,5.551348686218262
1790266448254820600,10.833820556640624,-8.080561637878418,-10.248459815979004,7.401000499725342
1790266448272074000,10.851073974609376,-9.580862045288086,-11.148160934448242,7.8556365966796875
1790266448289327400,10.868327392578125,-9.693324089050293,-11.746366500854492,7.020541667938232
1790266448306580700,10.885580810546875,-8.260024070739746,-11.944971084594727,6.642475605010986
1790266448323834000,10.902834228515625,-7.094718933105469,-11.71286678314209,5.747560024261475
1790266448341087500,10.92008740234375,-7.18086051940918,-10.97587776184082,4.024727821350098
1790266448358340600,10.937340576171875,-7.451249599456787,-10.068997383117676,2.864208698272705
1790266448375594000,10.954593994140625,-7.814958572387695,-9.358329772949219,2.9001009464263916
1790266448392847400,10.971847412109375,-7.843672752380371,-8.93240737915039,3.232703447341919
1790266448410100700,10.989100830078126,-6.783652305603027,-8.147561073303223,2.974278450012207
1790266448427354000,11.00635400390625,-5.065605640411377,-6.9344000816345215,2.794816732406616
1790266448444607500,11.023607421875,-4.541577339172363,-6.175875186920166,3.0795626640319824
1790266448461860600,11.040860595703125,-5.747560024261475,-6.690331935882568,3.2685956954956055
1790266448479114000,11.058114013671876,-6.845865726470947,-7.843672752380371,3.266202926635742
1790266448496367400,11.075367431640625,-6.927221775054932,-8.566305160522461,3.6681971549987793
1790266448513620700,11.092620849609375,-7.6474609375,-9.052047729492188,4.67078971862793
1790266448530874000,11.1098740234375,-7.977670669555664,-9.324830055236816,5.67338228225708
1790266448548127500,11.12712744140625,-7.719245910644531,-9.212367057800293,6.211767673492432
1790266448565380600,11.144380615234375,-8.999405860900879,-8.915657043457031,6.673582553863525
1790266448582634000,11.161634033203125,-8.898907661437988,-8.781659126281738,7.496713161468506
1790266448599887400,11.178887451171875,-8.001599311828613,-8.236095428466797,7.69531774520874
1790266448617140700,11.196140625,-8.693124771118164,-7.1856465339660645,6.742974281311035
1790266448634394000,11.21339404296875,-7.657032489776611,-6.922435760498047,5.840879917144775
1790266448651647500,11.2306474609375,-6.697510719299316,-6.5419769287109375,5.008177757263184
1790266448668900600,11.247900634765625,-7.613961696624756,-6.159125328063965,4.096512317657471
1790266448686154000,11.265154052734376,-8.260024070739746,-6.015556335449219,3.328416347503662
1790266448703407400,11.282407470703125,-7.9728851318359375,-6.116054534912109,3.0628130435943604
1790266448720660700,11.29966064453125,-6.2500529289245605,-5.536991596221924,3.601198196411133
1790266448737913900,11.316913818359374,-6.474977970123291,-4.388436794281006,3.651447296142578
1790266448755167200,11.334167236328126,-6.348158359527588,-3.452843189239502,2.4909284114837646
1790266448772420600,11.351420654296875,-6.429514408111572,-2.8689942359924316,1.4524433612823486
1790266448789674200,11.36867431640625,-6.558726787567139,-2.6608188152313232,0.6580262184143066
1790266448806928000,11.385927978515625,-5.630311489105225,-2.7014968395233154,1.0193424224853516
1790266448824181200,11.40318115234375,-5.84566593170166,-2.746960401535034,1.4021940231323242
1790266448841435000,11.420434814453126,-7.300501823425293,-2.2085752487182617,-0.1746760457754135
1790266448858688500,11.4376884765625,-5.931807518005371,-0.6819544434547424,-0.7465606927871704
1790266448875942000,11.45494189453125,-5.115854740142822,0.8303094506263733,0.12681959569454193
1790266448893195300,11.4721953125,-4.563112735748291,1.4117653369903564,-0.8063812255859375
1790266448910448400,11.489448486328126,-4.831109046936035,1.368694543838501,-1.2897313833236694
1790266448927701800,11.50670166015625,-4.768895626068115,1.6223337650299072,-0.06699903309345245
1790266448944955100,11.523955078125,-4.019941806793213,1.6199408769607544,0.8446664214134216
1790266448962208500,11.54120849609375,-5.07517671585083,1.246660590171814,1.4165509939193726
1790266448979462000,11.5584619140625,-3.9984066486358643,0.5527420043945312,1.0097711086273193
1790266448996715300,11.57571533203125,-3.1202406883239746,0.18424734473228455,0.36610186100006104
1790266449013968400,11.592968505859375,-4.823930263519287,0.24167509377002716,0.009571290574967861
1790266449031221800,11.6102216796875,-5.426921844482422,-0.019142581149935722,0.9762716293334961
1790266449048475100,11.62747509765625,-5.041677474975586,-0.31345975399017334,2.0865414142608643
1790266449065728500,11.644728515625,-5.560919761657715,-0.4498506486415863,1.9860427379608154
1790266449082982000,11.66198193359375,-7.5637125968933105,-1.222732424736023,2.6632115840911865
1790266449100235300,11.6792353515625,-6.98704195022583,-2.541177749633789,3.8739798069000244
1790266449117488400,11.69648828125,-6.8865437507629395,-4.070191383361816,4.768895626068115
1790266449134741800,11.71374169921875,-7.685746192932129,-6.283552169799805,5.010570526123047
1790266449151995100,11.7309951171875,-8.204988479614258,-7.922635555267334,4.323830604553223
1790266449169248300,11.748248291015624,-7.575676441192627,-8.57348346710205,4.158725738525391
1790266449186501600,11.765501708984376,-7.470392227172852,-8.662017822265625,4.34536600112915
1790266449203754800,11.782754638671875,-6.929614543914795,-8.652446746826172,3.9864425659179688
1790266449221008000,11.8000078125,-7.11146879196167,-8.405985832214355,3.8261234760284424
1790266449238261000,11.817260986328124,-8.02074146270752,-8.02791976928711,4.051048755645752
1790266449255514000,11.83451416015625,-7.884350776672363,-7.5708909034729,3.830909013748169
1790266449272767200,11.851767333984375,-8.57348346710205,-7.487142086029053,3.263810157775879
1790266449290020600,11.8690205078125,-8.324629783630371,-7.9728851318359375,3.6059837341308594
1790266449307274000,11.88627392578125,-8.398807525634766,-9.004191398620605,4.053441524505615
1790266449324527400,11.90352734375,-8.195417404174805,-10.068997383117676,4.508078098297119
1790266449341780700,11.92078076171875,-7.76470947265625,-10.631311416625977,4.78803825378418
1790266449359033900,11.938033935546875,-7.539783954620361,-10.246066093444824,5.087141036987305
1790266449376287200,11.955287353515626,-7.690532207489014,-9.547362327575684,4.910071849822998
1790266449393540600,11.97254052734375,-8.303094863891602,-9.245866775512695,4.756931304931641
1790266449410794000,11.9897939453125,-8.50169849395752,-9.803394317626953,5.54177713394165
1790266449428047400,12.00704736328125,-8.159524917602539,-10.679167747497559,6.405586242675781
1790266449445300700,12.02430078125,-7.848458290100098,-9.879964828491211,5.637490272521973
1790266449462553900,12.041553955078125,-7.2813591957092285,-8.338987350463867,4.536791801452637
1790266449479807200,12.05880712890625,-5.98444938659668,-7.240681171417236,4.156332969665527
1790266449497060600,12.076060546875,-6.034698486328125,-7.063612461090088,3.6538400650024414
1790266449514314000,12.09331396484375,-6.618547439575195,-7.561319351196289,3.2135608196258545
1790266449531567400,12.1105673828125,-6.912864685058594,-7.946564197540283,3.445664644241333
1790266449548820700,12.12782080078125,-8.008777618408203,-8.049455642700195,4.0797624588012695
1790266449566073900,12.145073974609375,-9.164510726928711,-8.13798999786377,5.089533805847168
1790266449583327200,12.1623271484375,-6.776473522186279,-8.26241683959961,5.994020938873291
1790266449600580600,12.17958056640625,-4.9292144775390625,-7.501499176025391,5.9437713623046875
1790266449617833700,12.196833740234375,-7.846065521240234,-6.522834300994873,5.9916276931762695
1790266449635087000,12.214087158203125,-11.109875679016113,-6.984649181365967,6.991827964782715
1790266449652340500,12.231340576171876,-7.432106971740723,-8.640482902526855,7.29093074798584
1790266449669593900,12.24859375,-5.31685209274292,-8.305487632751465,6.211767673492432
1790266449686847200,12.26584716796875,-7.678567886352539,-6.922435760498047,5.029713153839111
1790266449704100600,12.2831005859375,-7.82692289352417,-7.008577346801758,4.498506546020508
1790266449721353700,12.300353759765626,-7.477570533752441,-6.891329288482666,3.462414264678955
1790266449738607000,12.317607177734375,-8.157132148742676,-5.97727108001709,2.6153552532196045
1790266449755860500,12.334860595703125,-7.8819580078125,-5.278566837310791,2.8833513259887695
1790266449773113900,12.35211376953125,-7.334001541137695,-5.539384365081787,3.266202926635742
1790266449790367200,12.3693671875,-9.473184585571289,-5.627918720245361,3.0340991020202637
1790266449807620600,12.38662060546875,-9.832108497619629,-5.749952793121338,1.8711873292922974
1790266449824873700,12.403873779296875,-6.118447303771973,-5.0225348472595215,2.5387847423553467
1790266449842127000,12.421127197265625,-4.962714195251465,-3.146561861038208,2.837887763977051
1790266449859380500,12.43838037109375,-6.340980052947998,-1.2681959867477417,0.6269195079803467
1790266449876633900,12.4556337890625,-6.290730953216553,-0.1579262912273407,-0.4737788736820221
1790266449893887200,12.47288720703125,-4.3788652420043945,-0.5144568681716919,0.5048855543136597
1790266449911140600,12.490140625,-4.565505504608154,-1.5601203441619873,0.0933200865983963
1790266449928393700,12.507393798828126,-3.438486099243164,-1.9597218036651611,0.42831525206565857
1790266449945647000,12.524647216796875,-3.651447296142578,-0.363709032535553,-0.07417750358581543
1790266449962900500,12.541900390625,-5.565705299377441,1.797009825706482,-1.0911271572113037
1790266449980153900,12.55915380859375,-5.843272686004639,1.8951154947280884,0.33738797903060913
1790266449997407200,12.5764072265625,-3.4552359580993652,1.2921242713928223,1.2945170402526855
1790266450014660600,12.59366064453125,-4.393222332000732,1.196411371231079,0.7345965504646301
1790266450031913700,12.610913818359375,-4.910071849822998,1.5984054803848267,-0.9978070259094238
1790266450049167000,12.6281669921875,-4.383651256561279,1.0504491329193115,-0.45224347710609436
1790266450066420500,12.64542041015625,-4.6301116943359375,-0.1459621787071228,0.7585247755050659
1790266450083673900,12.662673828125,-5.5728840827941895,-1.2729816436767578,1.6773686408996582
1790266450100927200,12.67992724609375,-5.474778175354004,-2.053041934967041,2.9216363430023193
1790266450118180600,12.6971806640625,-6.070590972900391,-2.6368906497955322,3.759124279022217
1790266450135433700,12.714433837890626,-7.460821151733398,-3.431307554244995,4.29033088684082
1790266450152687000,12.73168701171875,-6.953542709350586,-4.510470867156982,4.237689018249512
1790266450169940500,12.7489404296875,-6.570691108703613,-5.7858452796936035,4.632504463195801
1790266450187193900,12.76619384765625,-7.04207706451416,-6.819544315338135,4.7952165603637695
1790266450204447200,12.783447265625,-7.733603000640869,-7.5326056480407715,4.316651821136475
1790266450221700600,12.80070068359375,-7.932207107543945,-7.427321434020996,4.051048755645752
1790266450238953700,12.81795361328125,-7.410571575164795,-7.087540626525879,4.1970109939575195
1790266450256207000,12.83520703125,-7.10429048538208,-7.156932353973389,3.7734813690185547
1790266450273460500,12.85246044921875,-6.8243303298950195,-7.317251682281494,3.2685956954956055
1790266450290713900,12.8697138671875,-6.881757736206055,-7.594819068908691,3.2685956954956055
1790266450307967200,12.88696728515625,-7.525427341461182,-8.408378601074219,3.5222349166870117
1790266450325220600,12.904220703125,-8.48734188079834,-9.09990406036377,3.759124279022217
1790266450342473700,12.9214736328125,-9.219545364379883,-10.186245918273926,4.814359188079834
1790266450359727000,12.93872705078125,-7.968099594116211,-11.665010452270508,5.699703693389893
1790266450376980500,12.95598046875,-7.9250288009643555,-12.555140495300293,5.745167255401611
1790266450394233900,12.97323388671875,-8.365307807922363,-12.177074432373047,5.663811206817627
1790266450411487200,12.9904873046875,-7.884350776672363,-10.856236457824707,5.4867424964904785
1790266450428740600,13.00774072265625,-7.582854747772217,-9.621540069580078,5.087141036987305
1790266450445993700,13.02499365234375,-7.747959613800049,-8.484949111938477,4.505684852600098
1790266450463247000,13.0422470703125,-7.606783390045166,-7.503891944885254,3.926621913909912
1790266450480500500,13.05950048828125,-7.384250640869141,-7.417750358581543,3.9744784832000732
1790266450497753900,13.07675390625,-6.891329288482666,-7.936992645263672,3.8189449310302734
1790266450515007200,13.09400732421875,-6.711867332458496,-8.382058143615723,3.184846878051758
1790266450532260400,13.11126025390625,-6.738188743591309,-8.590232849121094,2.6464617252349854
1790266450549513700,13.128513671875,-6.642475605010986,-8.839086532592773,2.723032236099243
1790266450566767000,13.14576708984375,-6.953542709350586,-9.245866775512695,3.077169895172119
1790266450584020200,13.163020263671875,-6.821937561035156,-9.68375301361084,3.517449378967285
1790266450601273300,13.1802734375,-7.412964344024658,-9.678967475891113,4.328616142272949
1790266450618526500,13.1975263671875,-8.671588897705078,-9.367900848388672,5.730810165405273
1790266450635779600,13.214779541015625,-8.02074146270752,-9.087940216064453,6.5491557121276855
1790266450653032700,13.23203271484375,-6.920042991638184,-8.197810173034668,6.0777692794799805
1790266450670285800,13.249285888671874,-8.063812255859375,-7.135396957397461,5.601597785949707
1790266450687539200,13.266539306640626,-8.645268440246582,-7.135396957397461,5.92223596572876
1790266450704792600,13.28379248046875,-7.0755767822265625,-7.16650390625,5.343173027038574
1790266450722046000,13.3010458984375,-6.975078105926514,-6.262016773223877,4.78803825378418
1790266450739299300,13.31829931640625,-8.214560508728027,-5.879165172576904,4.651647090911865
1790266450756552700,13.335552734375,-7.501499176025391,-6.3601226806640625,4.070191383361816
1790266450773805800,13.352805908203125,-6.2668023109436035,-6.551548480987549,3.218346357345581
1790266450791059200,13.37005908203125,-10.724631309509277,-6.503692150115967,3.6681971549987793
1790266450808312600,13.3873125,-9.891928672790527,-6.324230194091797,3.5126636028289795
1790266450825566000,13.40456591796875,-7.044469833374023,-6.324230194091797,3.8189449310302734
1790266450842819300,13.4218193359375,-7.719245910644531,-5.936593055725098,3.421736478805542
1790266450860072700,13.43907275390625,-6.288337707519531,-4.673182487487793,2.847458839416504
1790266450877325800,13.456325927734374,-6.530013084411621,-3.1896326541900635,2.093719720840454
1790266450894579200,13.4735791015625,-5.747560024261475,-1.8041882514953613,1.2418749332427979
1790266450911832600,13.49083251953125,-5.254638671875,-0.7441678643226624,1.210768222808838
1790266450929086000,13.5080859375,-4.821537494659424,-0.43549370765686035,0.9212366938591003
1790266450946339300,13.52533935546875,-4.73300313949585,-0.39481574296951294,0.10289137065410614
1790266450963592700,13.5425927734375,-2.8977081775665283,0.3397808074951172,-0.07417750358581543
1790266450980845800,13.559845703125,-2.8450660705566406,1.6630117893218994,-0.21296121180057526
1790266450998099200,13.57709912109375,-4.4243292808532715,2.2779672145843506,-1.2251251935958862
1790266451015352600,13.5943525390625,-4.919643402099609,2.139183521270752,-1.1126625537872314
1790266451032606000,13.61160595703125,-5.084748268127441,1.8424733877182007,-0.14117653667926788
1790266451049859300,13.628859375,-5.197210788726807,1.1389836072921753,0.5694918036460876
1790266451067112700,13.64611279296875,-4.876572608947754,0.28953152894973755,0.16510476171970367
1790266451084365800,13.66336572265625,-4.95074987411499,-0.4977070987224579,0.4833501875400543
1790266451101619200,13.680619140625,-4.938786029815674,-0.7920243144035339,0.9858429431915283
1790266451118872600,13.69787255859375,-6.350551128387451,-0.8733802437782288,1.399801254272461
1790266451136126000,13.7151259765625,-6.680760860443115,-1.0959128141403198,2.7589244842529297
1790266451153379300,13.73237939453125,-6.345765590667725,-1.9453648328781128,3.328416347503662
1790266451170632400,13.749632568359376,-6.003592014312744,-3.1178479194641113,3.596412420272827
1790266451187885600,13.766885498046875,-6.400800704956055,-4.347758769989014,3.067598581314087
1790266451205138700,13.784138671875,-6.020341873168945,-5.72123908996582,2.5124638080596924
1790266451222391800,13.801391845703124,-6.0610198974609375,-6.589833736419678,2.56510591506958
1790266451239645000,13.81864501953125,-6.63051176071167,-6.58265495300293,2.857030153274536
1790266451256898000,13.83589794921875,-7.338787078857422,-6.120840549468994,3.596412420272827
1790266451274151400,13.8531513671875,-6.742974281311035,-6.1710896492004395,4.039084434509277
1790266451291404500,13.870404541015626,-7.334001541137695,-6.8243303298950195,3.2614171504974365
1790266451308658000,13.887657958984375,-8.336593627929688,-8.11406135559082,3.3308091163635254
1790266451325911300,13.904911376953125,-8.413164138793945,-9.607182502746582,4.06540584564209
1790266451343164700,13.92216455078125,-8.616554260253906,-10.834700584411621,5.201996326446533
1790266451360418000,13.93941796875,-9.78664493560791,-11.3778715133667,6.558726787567139
1790266451377671400,13.95667138671875,-9.298508644104004,-10.597811698913574,6.695117950439453
1790266451394924500,13.973924560546875,-8.927620887756348,-9.934999465942383,6.185446739196777
1790266451412178000,13.991177978515625,-7.824530124664307,-9.789037704467773,5.886343479156494
1790266451429431300,14.008431396484376,-6.52044153213501,-9.978070259094238,5.544169902801514
1790266451446684700,14.0256845703125,-5.766702651977539,-9.879964828491211,4.962714195251465
1790266451463938000,14.04293798828125,-6.422336101531982,-9.315258979797363,4.019941806793213
1790266451481191400,14.06019140625,-7.587640762329102,-8.69791030883789,2.9934210777282715
1790266451498444500,14.077444580078126,-7.927421569824219,-8.678768157958984,3.0580272674560547
1790266451515698000,14.094697998046875,-7.544569969177246,-9.028120040893555,4.07258415222168
1790266451532951300,14.111951416015625,-7.590033531188965,-8.93240737915039,4.146761417388916
1790266451550204700,14.12920458984375,-7.975277900695801,-8.575876235961914,3.579662561416626
1790266451567458000,14.1464580078125,-7.645068168640137,-8.228917121887207,3.460021495819092
1790266451584711400,14.16371142578125,-6.417550563812256,-8.154739379882812,3.486342668533325
1790266451601964500,14.180964599609375,-6.419943332672119,-8.300702095031738,3.4959139823913574
1790266451619218000,14.198218017578125,-7.678567886352539,-8.906085968017578,3.507878065109253
1790266451636471300,14.21547119140625,-7.441678524017334,-9.34875774383545,4.938786029815674
1790266451653724700,14.232724609375,-6.369693756103516,-8.930013656616211,6.510870456695557
1790266451670977800,14.249977783203125,-7.302894592285156,-8.109275817871094,6.427121639251709
1790266451688231000,14.26723095703125,-8.030312538146973,-7.606783390045166,6.429514408111572
1790266451705484000,14.284484130859376,-6.896114826202393,-7.343572616577148,6.585047721862793
1790266451722737200,14.301737060546875,-7.278966426849365,-6.915257453918457,6.532405853271484
1790266451739990300,14.318990234375,-7.774280548095703,-6.764509677886963,6.455835342407227
1790266451757243400,14.336243408203124,-6.97268533706665,-6.752545356750488,6.013163089752197
1790266451774496800,14.353496826171876,-7.300501823425293,-6.692724704742432,5.350351333618164
1790266451791750100,14.370750244140625,-7.513463020324707,-6.654439926147461,4.73300313949585
1790266451809003500,14.38800341796875,-8.391629219055176,-6.357729911804199,4.4482574462890625
1790266451826257000,14.4052568359375,-10.145567893981934,-6.262016773223877,3.8285162448883057
1790266451843510000,14.422510009765626,-8.922835350036621,-6.211767673492432,2.6368906497955322
1790266451860763400,14.439763427734375,-8.221738815307617,-6.013163089752197,2.282752752304077
1790266451878016800,14.457016845703125,-8.654839515686035,-5.61116886138916,2.2755744457244873
1790266451895270100,14.474270263671874,-6.52044153213501,-5.675775527954102,2.306680917739868
1790266451912523500,14.4915234375,-6.216553211212158,-5.343173027038574,1.3782658576965332
1790266451929776600,14.508776611328125,-5.661418437957764,-3.87876558303833,0.5024927258491516
1790266451947030000,14.526030029296875,-4.783252239227295,-1.4189438819885254,-0.06699903309345245
1790266451964283400,14.543283447265624,-5.539384365081787,1.1748759746551514,-0.040677983313798904
1790266451981536800,14.560536865234376,-4.960321426391602,2.124826431274414,0.10289137065410614
1790266451998790100,14.5777900390625,-2.6632115840911865,1.9645073413848877,-0.5790630578994751
1790266452016043500,14.59504345703125,-3.4241292476654053,2.2133610248565674,-2.2085752487182617
1790266452033297000,14.612296875,-4.089334011077881,2.093719720840454,-0.7178468108177185
1790266452050550000,14.629550048828126,-3.675375461578369,1.5672988891601562,1.1868400573730469
1790266452067803400,14.646803466796875,-4.273581027984619,1.3184453248977661,1.2059825658798218
1790266452085056500,14.664056396484375,-4.0558342933654785,0.8997012972831726,1.031306505203247
1790266452102309600,14.6813095703125,-4.01754903793335,0.44027936458587646,0.97148597240448
1790266452119562800,14.698562744140625,-4.139583110809326,-0.01196411345154047,1.0600204467773438
1790266452136815900,14.71581591796875,-4.73300313949585,-0.29431718587875366,1.552941918373108
1790266452154069000,14.733069091796875,-4.9986066818237305,-0.41156548261642456,1.828116536140442
1790266452171322000,14.750322021484376,-5.804987907409668,-0.7154539823532104,2.4263222217559814
1790266452188575500,14.767575439453125,-6.400800704956055,-1.5625132322311401,2.8905298709869385
1790266452205828900,14.784828857421875,-5.111069202423096,-2.6464617252349854,3.25663161277771
1790266452223082200,14.802082275390624,-5.125426292419434,-3.730410575866699,3.177668571472168
1790266452240335600,14.819335693359376,-7.704888820648193,-5.2283172607421875,3.383451223373413
1790266452257588700,14.836588623046875,-7.6977105140686035,-6.613761901855469,3.428914785385132
1790266452274842000,14.853842041015625,-6.544369697570801,-7.752745151519775,3.4791641235351562
1790266452292095500,14.871095458984374,-7.025327205657959,-8.37966537475586,4.132404804229736
1790266452309348900,14.888348876953126,-7.386643409729004,-8.549555778503418,4.486542224884033
1790266452326602200,14.905602294921875,-7.75753116607666,-8.882157325744629,4.737788677215576
1790266452343855600,14.922855712890625,-7.1856465339660645,-9.355937004089355,4.120440483093262
1790266452361108700,14.940108642578124,-7.444071292877197,-9.863214492797852,3.4648072719573975
1790266452378362000,14.957362060546876,-7.731209754943848,-10.126425743103027,3.304488182067871
1790266452395615500,14.974615478515625,-9.032905578613281,-9.978070259094238,3.4911282062530518
1790266452412868900,14.991868896484375,-8.389236450195312,-10.02592658996582,4.321437835693359
1790266452430122200,15.009122314453125,-7.479963779449463,-10.715060234069824,5.7547383308410645
1790266452447375600,15.026375732421876,-8.384450912475586,-11.46401309967041,7.444071292877197
1790266452464628700,15.043628662109375,-8.080561637878418,-11.37069320678711,6.994220733642578
1790266452481881900,15.0608818359375,-8.140382766723633,-10.535597801208496,6.003592014312744
1790266452499135000,15.078135009765624,-7.568498134613037,-9.212367057800293,4.618147850036621
1790266452516388000,15.09538818359375,-7.159325122833252,-8.00638484954834,4.077369689941406
1790266452533641200,15.11264111328125,-6.589833736419678,-7.6737823486328125,4.388436794281006
1790266452550894300,15.129894287109375,-6.482156753540039,-7.898707389831543,4.182653903961182
1790266452568147700,15.147147705078124,-6.872186660766602,-8.264809608459473,3.6155550479888916
1790266452585401000,15.164401123046876,-8.123632431030273,-8.846264839172363,3.0029923915863037
1790266452602654200,15.181654296875,-8.563912391662598,-9.56889820098877,2.8498518466949463
1790266452619907600,15.198907470703125,-7.776673793792725,-9.741181373596191,2.6703901290893555
1790266452637161000,15.216160888671874,-6.498906135559082,-9.30329418182373,3.115455150604248
1790266452654414300,15.233414306640626,-5.97727108001709,-8.908478736877441,4.843072891235352
1790266452671667700,15.250667724609375,-6.1328043937683105,-8.925228118896484,5.546562671661377
1790266452688921000,15.267921142578125,-7.001399040222168,-8.8438720703125,5.024927616119385
1790266452706174200,15.28517431640625,-7.015756130218506,-8.530412673950195,5.2043890953063965
1790266452723427600,15.302427490234376,-6.563512325286865,-8.338987350463867,5.185246467590332
1790266452740681000,15.319680908203125,-6.826723098754883,-8.164310455322266,4.919643402099609
1790266452757934300,15.336934326171875,-6.9822564125061035,-7.956135272979736,4.759324073791504
1790266452775187500,15.3541875,-7.6666035652160645,-7.41535758972168,4.855037212371826
1790266452792440600,15.371440673828126,-8.851051330566406,-6.922435760498047,4.972285270690918
1790266452809693700,15.388693603515625,-8.109275817871094,-6.812366008758545,4.213760852813721
1790266452826946800,15.40594677734375,-7.29810905456543,-6.364908218383789,3.634697675704956
1790266452844200000,15.423199951171876,-7.992027759552002,-5.72123908996582,3.7423746585845947
1790266452861453000,15.440453125,-9.43489933013916,-5.450850009918213,3.8979079723358154
1790266452878706400,15.45770654296875,-9.34875774383545,-5.592026710510254,3.517449378967285
1790266452895959800,15.474959716796874,-7.798209190368652,-5.606383323669434,3.3858439922332764
1790266452913213200,15.492213134765626,-6.6113691329956055,-5.474778175354004,3.3571300506591797
1790266452930466600,15.509466552734375,-6.690331935882568,-4.948357105255127,2.675175666809082
1790266452947719700,15.5267197265625,-6.38883638381958,-3.838087558746338,1.1988041400909424
1790266452964973000,15.54397314453125,-5.759523868560791,-2.280359983444214,0.7226324677467346
1790266452982226400,15.561226318359376,-4.979464054107666,-1.301695466041565,1.0049854516983032
1790266452999479800,15.578479736328125,-5.410171985626221,-0.49292147159576416,0.6317051649093628
1790266453016733200,15.595733154296875,-4.342973232269287,0.4450650215148926,-0.12203395366668701
1790266453033986600,15.612986572265624,-4.563112735748291,1.6199408769607544,-1.4644074440002441
1790266453051239700,15.63023974609375,-3.933800458908081,2.148754835128784,-1.6845471858978271
1790266453068493000,15.6474931640625,-2.5770699977874756,1.947757601737976,-0.641276478767395
1790266453085746200,15.66474609375,-2.967100143432617,1.4979069232940674,-0.8470591902732849
1790266453102999300,15.681999267578124,-6.0777692794799805,1.801795482635498,-1.4476577043533325
1790266453120252400,15.69925244140625,-5.821737289428711,1.8472590446472168,0.064606212079525
1790266453137505500,15.716505615234375,-3.2853455543518066,1.057627558708191,2.139183521270752
1790266453154758700,15.733758544921875,-3.81655216217041,0.07178468257188797,2.5124638080596924
1790266453172011800,15.75101171875,-5.970092296600342,-1.2849457263946533,1.7132610082626343
1790266453189265200,15.76826513671875,-6.941578388214111,-2.60339093208313,1.5864413976669312
1790266453206518500,15.7855185546875,-5.814558982849121,-3.3068809509277344,2.715853691101074
1790266453223772000,15.80277197265625,-4.417150497436523,-3.428914785385132,3.428914785385132
1790266453241025000,15.82002490234375,-5.883950710296631,-3.7112679481506348,3.91705060005188
1790266453258278400,15.8372783203125,-8.236095428466797,-4.230510234832764,4.041477680206299
1790266453275531800,15.85453173828125,-7.439285755157471,-4.8191447257995605,3.601198196411133
1790266453292785200,15.87178515625,-6.300302028656006,-5.469992637634277,2.885744094848633
1790266453310038500,15.88903857421875,-6.510870456695557,-6.197410583496094,3.1202406883239746
1790266453327292000,15.9062919921875,-8.93240737915039,-7.436892986297607,3.8739798069000244
1790266453344545300,15.923545166015625,-6.704689025878906,-8.585447311401367,3.359523057937622
1790266453361798400,15.94079833984375,-5.994020938873291,-9.238688468933105,2.60339093208313
1790266453379051500,15.958051513671874,-8.417949676513672,-9.760323524475098,4.113262176513672
1790266453396304600,15.9753046875,-9.056833267211914,-9.623932838439941,5.54177713394165
1790266453413557800,15.992557861328125,-8.910871505737305,-9.28893756866455,4.809573650360107
1790266453430811000,16.009810791015624,-8.81515884399414,-9.31047248840332,4.60139799118042
1790266453448064000,16.02706396484375,-7.731209754943848,-10.212567329406738,6.479763507843018
1790266453465317400,16.0443173828125,-8.429914474487305,-11.502298355102539,7.51585578918457
1790266453482570500,16.061570556640625,-8.085348129272461,-11.676974296569824,6.747759819030762
1790266453499823900,16.078823974609374,-7.922635555267334,-10.188638687133789,6.654439926147461
1790266453517077200,16.0960771484375,-7.2813591957092285,-9.461220741271973,5.998806476593018
1790266453534330600,16.11333056640625,-7.245467185974121,-9.899106979370117,5.9198431968688965
1790266453551584000,16.130583984375,-7.1162543296813965,-9.7938232421875,4.48414945602417
1790266453568837000,16.147837158203124,-7.087540626525879,-8.700303077697754,3.4337005615234375
1790266453586090200,16.16509033203125,-6.417550563812256,-8.097311973571777,4.541577339172363
1790266453603343400,16.18234326171875,-6.056233882904053,-7.917850017547607,4.7952165603637695
1790266453620596500,16.199596435546876,-5.8097734451293945,-7.941778182983398,3.7878382205963135
1790266453637849600,16.216849609375,-5.3934221267700195,-7.917850017547607,3.4815568923950195
1790266453655102700,16.234102783203124,-6.144768714904785,-8.183453559875488,3.4552359580993652
1790266453672356000,16.251356201171873,-8.176275253295898,-8.908478736877441,3.744767427444458
1790266453689609500,16.268609375,-8.126026153564453,-9.643074989318848,4.972285270690918
1790266453706862800,16.28586279296875,-6.147161483764648,-9.32004451751709,6.276373863220215
1790266453724116000,16.303115966796874,-7.726424217224121,-8.664410591125488,6.192625045776367
1790266453741369300,16.320369384765623,-8.970691680908203,-8.520841598510742,5.745167255401611
1790266453758622700,16.337622802734376,-8.068597793579102,-8.559126853942871,5.850451469421387
1790266453775876000,16.3548759765625,-8.087740898132324,-8.303094863891602,6.03948450088501
1790266453793129500,16.37212939453125,-8.126026153564453,-8.082955360412598,6.123233318328857
1790266453810382800,16.3893828125,-7.121040344238281,-7.781459331512451,5.828916072845459
1790266453827636000,16.406635986328126,-7.324429988861084,-6.905686378479004,5.216353416442871
1790266453844889300,16.423889404296876,-7.853243827819824,-6.247660160064697,4.833501815795898
1790266453862142700,16.441142822265626,-6.874579429626465,-6.001199245452881,4.768895626068115
1790266453879395800,16.458395751953127,-8.075776100158691,-5.548955917358398,4.139583110809326
1790266453896649000,16.47564892578125,-8.468199729919434,-4.876572608947754,3.328416347503662
1790266453913902000,16.492902099609374,-6.64486837387085,-4.54636287689209,3.06999135017395
1790266453931155200,16.5101552734375,-6.991827964782715,-5.13021183013916,3.0628130435943604
1790266453948408300,16.527408203125,-6.798008918762207,-5.601597785949707,2.4191436767578125
1790266453965661400,16.544661376953126,-5.637490272521973,-4.8191447257995605,1.4787644147872925
1790266453982914800,16.561914794921876,-5.9676995277404785,-3.0388846397399902,1.215553879737854
1790266454000168200,16.579168212890625,-5.00578498840332,-0.760917603969574,0.9762716293334961
1790266454017421600,16.596421630859375,-5.13021183013916,1.1341979503631592,0.7537391185760498
1790266454034674700,16.6136748046875,-3.9385859966278076,2.258824586868286,0.2871387302875519
1790266454051928000,16.630927978515626,-3.012563705444336,2.675175666809082,-0.3038884699344635
1790266454069181400,16.648181396484375,-4.125226020812988,2.0171494483947754,-0.9068797826766968
1790266454086434600,16.6654345703125,-3.0317063331604004,1.100698471069336,-0.605384111404419
1790266454103687700,16.682687744140626,-4.453042984008789,1.3543375730514526,-0.672383189201355
1790266454120940800,16.69994091796875,-4.934000492095947,1.8951154947280884,1.2370892763137817
1790266454138194000,16.71719384765625,-4.058227062225342,1.6654045581817627,2.0315065383911133
1790266454155447000,16.734447021484375,-4.101297855377197,1.2538390159606934,1.6654045581817627
1790266454172700200,16.7517001953125,-4.878965377807617,0.519242525100708,1.0671988725662231
1790266454189953500,16.76895361328125,-5.319244861602783,-0.2871387302875519,1.0121639966964722
1790266454207207000,16.78620703125,-4.778466701507568,-0.9355936646461487,1.825723648071289
1790266454224460300,16.803460205078125,-5.032105922698975,-1.4165509939193726,2.4909284114837646
1790266454241713700,16.820713623046874,-7.0061845779418945,-2.093719720840454,3.0173492431640625
1790266454258967000,16.837967041015624,-6.448657035827637,-3.0939197540283203,2.878565549850464
1790266454276220200,16.85522021484375,-4.9986066818237305,-4.120440483093262,2.895315408706665
1790266454293473300,16.872473388671875,-5.627918720245361,-5.245067119598389,3.012563705444336
1790266454310726400,16.889726318359376,-6.798008918762207,-6.434299945831299,3.1274192333221436
1790266454327979500,16.9069794921875,-7.747959613800049,-7.310073375701904,3.273381471633911
1790266454345232600,16.924232666015627,-7.671389579772949,-7.929814338684082,3.510270833969116
1790266454362485800,16.94148583984375,-7.269395351409912,-8.195417404174805,3.5198421478271484
1790266454379739100,16.9587392578125,-7.176074981689453,-8.513663291931152,3.751945972442627
1790266454396992500,16.975992431640623,-7.420143127441406,-9.4061861038208,3.9696927070617676
1790266454414245600,16.99324560546875,-7.554141044616699,-9.975677490234375,4.177868366241455
1790266454431499000,17.0104990234375,-8.00638484954834,-10.497312545776367,4.481756687164307
1790266454448752400,17.02775244140625,-7.939385414123535,-10.449456214904785,4.900500774383545
1790266454466005800,17.045005859375,-8.34138011932373,-10.51645565032959,5.781059741973877
1790266454483259000,17.0622587890625,-7.195217609405518,-10.411170959472656,5.637490272521973
1790266454500512000,17.079511962890624,-8.628518104553223,-10.901700019836426,6.211767673492432
1790266454517765000,17.09676513671875,-7.860422611236572,-11.511869430541992,6.7621169090271
1790266454535018200,17.114018310546875,-7.441678524017334,-11.516654968261719,6.613761901855469
1790266454552271400,17.131271240234376,-8.358129501342773,-10.593026161193848,5.063212871551514
1790266454569524500,17.1485244140625,-8.149953842163086,-9.468399047851562,3.2374889850616455
1790266454586777900,17.16577783203125,-8.128418922424316,-8.982656478881836,3.211168050765991
1790266454604031200,17.18303125,-7.393822193145752,-8.95394229888916,3.5461630821228027
1790266454621284600,17.20028466796875,-6.905686378479004,-8.72901725769043,3.0795626640319824
1790266454638538000,17.2175380859375,-6.604190349578857,-7.963313579559326,2.3952155113220215
1790266454655791000,17.234791015625,-5.931807518005371,-7.389036178588867,2.304288148880005
1790266454673044500,17.25204443359375,-3.8333017826080322,-7.403393268585205,2.359323024749756
1790266454690297600,17.269297607421876,-4.4243292808532715,-7.503891944885254,2.251646041870117
1790266454707550700,17.28655078125,-8.22413158416748,-7.927421569824219,1.923829436302185
1790266454724803800,17.303803955078124,-10.72702407836914,-9.233902931213379,4.170690059661865
1790266454742057000,17.321056884765625,-8.075776100158691,-10.604990005493164,7.630711555480957
1790266454759310000,17.33831005859375,-7.271788120269775,-10.001998901367188,7.774280548095703
1790266454776563200,17.355563232421876,-8.846264839172363,-8.970691680908203,6.967899322509766
1790266454793816600,17.372816650390625,-7.822137355804443,-8.10688304901123,5.740381717681885
1790266454811070000,17.390070068359375,-7.475177764892578,-6.936792850494385,5.1182475090026855
1790266454828323300,17.4073232421875,-7.061219692230225,-6.321837425231934,4.599005222320557
1790266454845576700,17.42457666015625,-7.3986077308654785,-5.9198431968688965,4.603790760040283
1790266454862829800,17.441829833984375,-8.085348129272461,-5.7619171142578125,4.405186653137207
1790266454880083000,17.4590830078125,-7.743174076080322,-5.702096462249756,4.278367042541504
1790266454897336300,17.47633642578125,-8.657232284545898,-5.529813289642334,3.9864425659179688
1790266454914589400,17.49358935546875,-8.161917686462402,-5.544169902801514,3.0412776470184326
1790266454931842600,17.510842529296873,-7.2335028648376465,-5.522634506225586,2.6536402702331543
1790266454949095700,17.528095703125,-6.888936519622803,-4.807180881500244,2.706282377243042
1790266454966348800,17.545348876953124,-6.7070817947387695,-3.9218363761901855,2.4837498664855957
1790266454983602200,17.562602294921874,-5.814558982849121,-3.469592809677124,2.1655044555664062
1790266455000855300,17.579855224609375,-6.441478729248047,-3.201596736907959,1.5194423198699951
1790266455018108700,17.597108642578124,-6.905686378479004,-2.572284460067749,0.9643075466156006
1790266455035362000,17.614362060546874,-6.362515449523926,-1.8687944412231445,0.8997012972831726
1790266455052615400,17.631615478515624,-5.302495002746582,-0.9451649188995361,0.7752745151519775
1790266455069868500,17.64886865234375,-4.467400074005127,-0.08614161610603333,0.4211367964744568
1790266455087121700,17.66612158203125,-4.603790760040283,0.4426721930503845,-0.25363919138908386
1790266455104374800,17.683374755859376,-3.8189449310302734,0.8446664214134216,-0.4259224236011505
1790266455121628000,17.7006279296875,-3.0939197540283203,1.3710874319076538,-0.5599204897880554
1790266455138881000,17.717881103515627,-3.438486099243164,2.390429735183716,-0.7322037220001221
1790266455156134100,17.735134033203124,-4.323830604553223,2.5842485427856445,-0.4666004180908203
1790266455173387500,17.752387451171874,-5.292923450469971,1.4141582250595093,-0.17228323221206665
1790266455190641000,17.769640869140623,-4.1347975730896,-0.28235307335853577,0.5000999569892883
1790266455207894300,17.786894287109376,-4.780859470367432,-1.2729816436767578,0.5790630578994751
1790266455225147600,17.804147705078126,-5.982056617736816,-2.00518536567688,1.100698471069336
1790266455242400800,17.82140087890625,-6.51326322555542,-2.550748825073242,1.9070796966552734
1790266455259654100,17.838654052734373,-6.068198204040527,-3.0580272674560547,2.667997360229492
1790266455276907300,17.8559072265625,-5.941378593444824,-3.5509488582611084,2.8905298709869385
1790266455294160400,17.873160400390624,-7.037291526794434,-4.161118507385254,3.4408788681030273
1790266455311413500,17.89041357421875,-7.434499740600586,-4.938786029815674,3.7160534858703613
1790266455328666600,17.90766650390625,-6.597012042999268,-5.489135265350342,3.297309637069702
1790266455345919700,17.924919677734376,-6.393621921539307,-6.128018856048584,3.1752755641937256
1790266455363173000,17.942173095703126,-6.486942291259766,-6.719046115875244,3.5437703132629395
1790266455380426200,17.95942626953125,-6.884150981903076,-7.503891944885254,3.510270833969116
1790266455397679600,17.9766796875,-7.29810905456543,-8.353343963623047,2.9479575157165527
1790266455414933000,17.99393310546875,-7.010970115661621,-9.176474571228027,3.2350962162017822
1790266455432186400,18.011186279296876,-6.778866767883301,-9.896714210510254,4.170690059661865
1790266455449439700,18.028439697265625,-8.331808090209961,-10.569097518920898,5.639883041381836
1790266455466692900,18.04569287109375,-9.372686386108398,-10.884950637817383,6.664011001586914
1790266455483946000,18.062946044921876,-8.46580696105957,-10.906485557556152,6.716653347015381
1790266455501199000,18.08019921875,-8.695517539978027,-10.418350219726562,6.142375946044922
1790266455518452200,18.0974521484375,-8.812766075134277,-9.789037704467773,5.723631858825684
1790266455535705300,18.114705322265625,-8.257631301879883,-9.198010444641113,4.924428939819336
1790266455552958500,18.13195849609375,-7.582854747772217,-9.279366493225098,4.2209391593933105
1790266455570211800,18.1492119140625,-7.460821151733398,-9.731609344482422,3.902693748474121
1790266455587465200,18.16646533203125,-7.582854747772217,-9.741181373596191,3.8883368968963623
1790266455604718600,18.183718505859375,-7.401000499725342,-9.164510726928711,3.5270206928253174
1790266455621971700,18.2009716796875,-7.590033531188965,-9.040083885192871,3.6538400650024414
1790266455639225000,18.21822509765625,-7.776673793792725,-9.066405296325684,3.840480327606201
1790266455656478500,18.235478515625,-7.544569969177246,-8.60459041595459,3.4480574131011963
1790266455673731600,18.252731689453125,-6.429514408111572,-7.668996810913086,2.794816732406616
1790266455690984700,18.269984619140626,-7.070790767669678,-7.3986077308654785,3.1752755641937256
1790266455708237800,18.28723779296875,-8.446663856506348,-8.271987915039062,4.070191383361816
1790266455725491000,18.304490966796877,-8.042277336120605,-9.367900848388672,5.802595138549805
1790266455742744000,18.321744140625,-6.269195556640625,-9.765109062194824,6.723831653594971
1790266455759997200,18.3389970703125,-6.802794933319092,-8.85344409942627,6.072983741760254
1790266455777250300,18.356250244140625,-8.367700576782227,-7.970492362976074,6.216553211212158
1790266455794503400,18.37350341796875,-7.334001541137695,-8.286344528198242,6.537191390991211
1790266455811756500,18.390756591796876,-6.640082836151123,-7.982456207275391,6.135197162628174
1790266455829009700,18.408009765625,-7.523034572601318,-7.317251682281494,5.589633464813232
1790266455846262800,18.4252626953125,-8.147561073303223,-6.872186660766602,5.6685967445373535
1790266455863516000,18.442515869140625,-7.731209754943848,-6.417550563812256,5.72841739654541
1790266455880769300,18.459769287109374,-6.745367050170898,-6.013163089752197,5.304887771606445
1790266455898022700,18.477022705078124,-6.876972198486328,-5.647061347961426,4.534399032592773
1790266455915276000,18.494276123046873,-7.963313579559326,-5.8719868659973145,3.7399818897247314
1790266455932529400,18.511529296875,-9.322437286376953,-6.56829833984375,3.5270206928253174
1790266455949782500,18.528782470703124,-9.384650230407715,-6.752545356750488,3.208775281906128
1790266455967036000,18.546035888671874,-7.106683254241943,-5.953342914581299,3.06999135017395
1790266455984289000,18.5632890625,-6.788437843322754,-5.003392219543457,2.6560330390930176
1790266456001542100,18.580542236328125,-6.994220733642578,-4.122833251953125,1.1030912399291992
1790266456018795300,18.597795166015626,-5.697310924530029,-3.2590243816375732,0.09092725813388824
1790266456036048400,18.61504833984375,-4.646861553192139,-1.7635103464126587,0.33020952343940735
1790266456053301500,18.632301513671877,-5.474778175354004,-0.2991028428077698,-0.19381862878799438
1790266456070555000,18.649554931640626,-5.453242778778076,0.30628129839897156,-0.47617170214653015
1790266456087808000,18.66680810546875,-3.594019651412964,0.14117653667926788,0.5790630578994751
1790266456105061400,18.684061279296873,-2.861815929412842,0.363709032535553,0.5144568681716919
1790266456122314800,18.701314697265627,-4.244867324829102,0.8327022790908813,-0.6939185857772827
1790266456139568000,18.718568115234376,-4.122833251953125,2.201396942138672,-0.5168496966362
1790266456156821500,18.735821533203126,-2.8426733016967773,2.8043880462646484,0.15074782073497772
1790266456174074600,18.75307470703125,-3.0005996227264404,2.0482561588287354,0.9547362327575684
1790266456191327700,18.77032763671875,-4.512863636016846,1.0887342691421509,0.2392822653055191
1790266456208580900,18.787580810546874,-6.017949104309082,0.08853443711996078,-0.2273181527853012
1790266456225834000,18.804833984375,-5.209175109863281,-0.46899324655532837,0.16271193325519562
1790266456243087000,18.822087158203125,-5.13739013671875,-0.6652047038078308,1.9214365482330322
1790266456260340200,18.83934033203125,-5.568098068237305,-1.3758729696273804,2.8354947566986084
1790266456277593300,18.85659326171875,-5.539384365081787,-2.4287149906158447,2.6560330390930176
1790266456294846500,18.873846435546874,-4.876572608947754,-3.335594654083252,2.117648124694824
1790266456312099600,18.891099609375,-5.773880958557129,-3.9122650623321533,3.0340991020202637
1790266456329352700,18.908352783203124,-7.45364236831665,-4.883750915527344,4.302295207977295
1790266456346605800,18.925605712890626,-7.262216567993164,-5.917450428009033,4.264009952545166
1790266456363859000,18.94285888671875,-5.989234924316406,-6.783652305603027,4.333401679992676
1790266456381112300,18.9601123046875,-6.1088762283325195,-7.489534854888916,5.06082010269165
1790266456398365700,18.97736572265625,-7.054041385650635,-8.257631301879883,6.032305717468262
1790266456415619000,18.994619140625,-9.250652313232422,-9.293723106384277,5.618347644805908
1790266456432872400,19.01187255859375,-9.142974853515625,-10.786844253540039,5.003392219543457
1790266456450125800,19.029125732421875,-7.204789161682129,-11.576476097106934,4.18983268737793
1790266456467379000,19.04637890625,-8.197810173034668,-11.648261070251465,4.515256404876709
1790266456484632000,19.063632080078126,-8.47298526763916,-10.124032974243164,3.9290146827697754
1790266456501885200,19.08088525390625,-8.322237014770508,-8.200202941894531,3.16331148147583
1790266456519138300,19.09813818359375,-8.513663291931152,-7.106683254241943,2.9455647468566895
1790266456536391400,19.115391357421874,-8.831908226013184,-7.566105365753174,3.6155550479888916
1790266456553644500,19.13264453125,-8.85344409942627,-9.549755096435547,4.883750915527344
1790266456571070200,19.1500703125,-8.413164138793945,-11.662617683410645,5.0225348472595215
1790266456588668400,19.16766845703125,-7.95134973526001,-11.662617683410645,4.95074987411499
1790266456606266600,19.1852666015625,-7.338787078857422,-10.557133674621582,4.591826438903809
1790266456623864600,19.202864501953126,-6.857829570770264,-9.267401695251465,4.012763500213623
1790266456641462800,19.220462890625,-7.369893550872803,-8.303094863891602,3.610769271850586
1790266456659061000,19.23806103515625,-8.173882484436035,-8.470592498779297,4.369294166564941
1790266456676659000,19.255658935546876,-7.910671710968018,-9.150154113769531,5.3694939613342285
1790266456694257200,19.273257080078125,-5.855237007141113,-9.018548965454102,4.996213912963867
1790266456711855400,19.29085546875,-4.563112735748291,-8.183453559875488,3.1513473987579346
1790266456729453300,19.308453369140626,-5.699703693389893,-7.106683254241943,2.225325107574463
1790266456747051500,19.326051513671874,-8.506484031677246,-7.113861560821533,2.9240293502807617
1790266456764649700,19.343649658203127,-8.319844245910645,-8.195417404174805,5.687739372253418
1790266456781963300,19.36096337890625,-7.18086051940918,-8.839086532592773,7.592426300048828
1790266456799276800,19.37827685546875,-7.250252723693848,-8.46341323852539,6.738188743591309
1790266456816590300,19.39559033203125,-8.417949676513672,-8.070990562438965,6.719046115875244
1790266456833903900,19.41290380859375,-7.338787078857422,-7.144968509674072,5.651846885681152
1790266456851217400,19.430217529296876,-8.980263710021973,-6.439085960388184,5.690132141113281
1790266456868515800,19.447515869140624,-8.61894702911377,-6.702296257019043,6.180660724639893
1790266456885769000,19.46476904296875,-7.381857872009277,-7.238288402557373,5.441278457641602
1790266456903022000,19.48202197265625,-7.336394309997559,-6.967899322509766,4.161118507385254
1790266456920275200,19.499275146484376,-8.236095428466797,-6.601797580718994,3.562912940979004
1790266456937528300,19.5165283203125,-8.264809608459473,-6.711867332458496,3.19441819190979
1790266456954781400,19.533781494140626,-7.953742504119873,-6.333801746368408,2.7086751461029053
1790266456972034600,19.55103466796875,-8.334200859069824,-5.410171985626221,2.4263222217559814
1790266456989287700,19.56828759765625,-7.70249605178833,-4.754538536071777,2.4263222217559814
1790266457006540800,19.585540771484375,-6.154339790344238,-4.73300313949585,2.9838497638702393
1790266457023794000,19.6027939453125,-5.359922885894775,-3.981656789779663,2.2851455211639404
1790266457041047000,19.620047119140626,-5.13739013671875,-2.438286304473877,0.8398807644844055
1790266457058300200,19.637300048828124,-4.613361835479736,-1.3423734903335571,-0.035892341285943985
1790266457075553500,19.654553466796877,-3.7782669067382812,0.08614161610603333,-0.3900300860404968
1790266457092807000,19.671806884765626,-3.8189449310302734,1.0528420209884644,-0.8255237936973572
1790266457110060000,19.68906005859375,-3.840480327606201,1.3208380937576294,-0.672383189201355
1790266457127313400,19.7063134765625,-4.067798614501953,0.9643075466156006,-0.3278166949748993
1790266457144566800,19.72356689453125,-4.59421968460083,0.7441678643226624,-0.7202396392822266
1790266457161820200,19.740820068359376,-5.31685209274292,0.8901300430297852,-0.13639089465141296
1790266457179073300,19.7580732421875,-4.8813581466674805,0.7657032608985901,0.49292147159576416
1790266457196326400,19.775326416015623,-4.529613494873047,0.6340979933738708,0.8709874153137207
1790266457213579500,19.79257958984375,-5.522634506225586,0.6101697683334351,0.8662018179893494
1790266457230832600,19.80983251953125,-6.439085960388184,0.28953152894973755,1.557727575302124
1790266457248085800,19.827085693359376,-4.876572608947754,-0.5455635786056519,2.146361827850342
1790266457265339000,19.8443388671875,-4.311866283416748,-1.2299108505249023,2.3162522315979004
1790266457282592000,19.861592041015626,-5.017749309539795,-1.8137595653533936,1.856830358505249
1790266457299845000,19.87884521484375,-5.580062389373779,-2.4981069564819336,1.3304094076156616
1790266457317098200,19.89609814453125,-5.989234924316406,-3.696911096572876,2.1272194385528564
1790266457334351400,19.913351318359375,-5.862415313720703,-4.704289436340332,3.675375461578369
1790266457351604500,19.9306044921875,-5.927021503448486,-5.723631858825684,4.40757942199707
1790266457368857600,19.947857666015626,-6.439085960388184,-6.422336101531982,4.2831525802612305
1790266457386110700,19.96511083984375,-7.11146879196167,-7.16650390625,3.8333017826080322
1790266457403363800,19.98236376953125,-7.22871732711792,-7.759923934936523,3.7495529651641846
1790266457420617000,19.999616943359374,-7.755138397216797,-8.030312538146973,3.594019651412964
1790266457437870000,20.0168701171875,-8.063812255859375,-8.102097511291504,3.675375461578369
1790266457455123200,20.034123291015625,-7.463213920593262,-8.300702095031738,3.9792640209198
1790266457472376600,20.05137646484375,-7.494320392608643,-8.764909744262695,4.369294166564941
1790266457489630000,20.0686298828125,-8.166703224182129,-9.956535339355469,5.302495002746582
1790266457506883300,20.08588330078125,-8.449056625366211,-10.784451484680176,5.881557941436768
1790266457524136400,20.103136474609375,-8.642875671386719,-11.504691123962402,5.924628734588623
1790266457541389800,20.120389892578125,-8.93240737915039,-11.483156204223633,5.168497085571289
1790266457558643200,20.137643310546874,-9.097511291503906,-10.686346054077148,4.603790760040283
1790266457575896300,20.154896240234375,-8.669196128845215,-9.91825008392334,4.108476638793945
1790266457593149400,20.1721494140625,-8.482556343078613,-9.186046600341797,4.027120590209961
1790266457610402600,20.189402587890626,-7.934599876403809,-8.575876235961914,4.024727821350098
1790266457627655700,20.20665576171875,-7.7216386795043945,-8.312665939331055,4.359723091125488
1790266457644908800,20.22390869140625,-6.912864685058594,-8.61176872253418,4.704289436340332
1790266457662162000,20.241161865234375,-6.403193473815918,-8.8438720703125,4.615755081176758
1790266457679415000,20.2584150390625,-6.7310099601745605,-8.681160926818848,4.204189300537109
1790266457696668200,20.275668212890626,-6.994220733642578,-8.470592498779297,4.278367042541504
1790266457713921300,20.29292138671875,-6.656832695007324,-8.470592498779297,4.931607246398926
1790266457731174400,20.31017431640625,-5.795416355133057,-8.437092781066895,4.910071849822998
1790266457748427500,20.327427490234374,-6.0777692794799805,-8.46341323852539,4.479363918304443
1790266457765680600,20.3446806640625,-6.697510719299316,-8.69791030883789,4.503292083740234
1790266457782933800,20.361933837890625,-7.336394309997559,-9.020941734313965,4.974678039550781
1790266457800187000,20.379186767578126,-7.401000499725342,-9.008976936340332,5.742774486541748
1790266457817440000,20.39643994140625,-7.154539585113525,-8.791230201721191,6.429514408111572
1790266457834693000,20.413693115234373,-6.967899322509766,-8.118846893310547,5.687739372253418
1790266457851946200,20.4309462890625,-7.57806921005249,-7.544569969177246,4.955535888671875
1790266457869199600,20.44819970703125,-8.257631301879883,-7.348358154296875,5.0703911781311035
1790266457886453000,20.465452880859374,-10.473384857177734,-8.221738815307617,5.5345988273620605
1790266457903706400,20.482706298828123,-9.32004451751709,-9.564111709594727,5.9509501457214355
1790266457920959700,20.499959716796877,-10.329814910888672,-9.415757179260254,5.6207404136657715
1790266457938212900,20.517212890625,-7.606783390045166,-7.546962738037109,3.840480327606201
1790266457955466200,20.53446630859375,-6.020341873168945,-6.096911907196045,3.5150563716888428
1790266457972719400,20.55171923828125,-6.302694797515869,-4.658825874328613,2.50289249420166
1790266457989972500,20.568972412109375,-5.532206058502197,-3.335594654083252,1.94297194480896
1790266458007225600,20.5862255859375,-5.472385406494141,-2.2851455211639404,1.5625132322311401
1790266458024478700,20.603478759765625,-5.405386447906494,-1.6582261323928833,1.6390835046768188
1790266458041731800,20.62073193359375,-5.582455158233643,-1.5314065217971802,1.3663017749786377
1790266458058985000,20.63798486328125,-5.170889854431152,-1.8711873292922974,1.100698471069336
1790266458076238000,20.655238037109374,-4.113262176513672,-1.4572290182113647,0.8685946464538574
1790266458093491200,20.6724912109375,-4.211368083953857,0.04785645380616188,1.0552347898483276
1790266458110744300,20.689744384765625,-4.907679080963135,1.521835207939148,0.8207381963729858
1790266458127997400,20.70699755859375,-4.692325115203857,1.9357935190200806,-0.08853443711996078
1790266458145250600,20.72425048828125,-4.577469825744629,1.588834285736084,-0.7585247755050659
1790266458162503700,20.741503662109373,-4.034298896789551,0.6293123364448547,-0.5312066078186035
1790266458179756800,20.7587568359375,-4.393222332000732,-0.09571290761232376,0.08374879509210587
1790266458197010000,20.776010009765624,-5.548955917358398,0.46899324655532837,0.4426721930503845
1790266458214263300,20.79326318359375,-4.666004180908203,1.0432707071304321,0.9427721500396729
1790266458231516400,20.810516357421875,-4.443471431732178,0.8327022790908813,1.3902299404144287
1790266458248769500,20.82776953125,-4.254438877105713,0.14356936514377594,2.1272194385528564
1790266458266022700,20.845022705078126,-4.527220249176025,-0.42352959513664246,2.218146562576294
1790266458283275800,20.86227587890625,-4.417150497436523,-0.8063812255859375,2.4837498664855957
1790266458300529000,20.87952880859375,-4.960321426391602,-1.277767300605774,3.0628130435943604
1790266458317782000,20.896781982421874,-6.111268997192383,-2.122433662414551,3.656233072280884
1790266458335035100,20.91403515625,-6.094519138336182,-3.4265220165252686,3.840480327606201
1790266458352288300,20.931288330078125,-6.027520179748535,-5.230710506439209,3.9912281036376953
1790266458369541400,20.948541259765626,-6.673582553863525,-6.865008354187012,4.1036906242370605
1790266458386794800,20.965794677734376,-6.628118515014648,-8.25523853302002,3.4121651649475098
1790266458404048100,20.983048095703126,-7.846065521240234,-9.028120040893555,2.9718856811523438
1790266458421301200,21.00030126953125,-8.039883613586426,-9.123832702636719,3.3403804302215576
1790266458438554600,21.0175546875,-7.3914289474487305,-8.834300994873047,3.0939197540283203
1790266458455808000,21.03480810546875,-7.798209190368652,-8.554341316223145,3.4169507026672363
1790266458473061000,21.05206103515625,-8.396414756774902,-8.752944946289062,4.199403762817383
1790266458490314500,21.069314453125,-8.760123252868652,-9.317651748657227,4.572684288024902
1790266458507567600,21.086567626953126,-8.329415321350098,-10.183853149414062,4.589433670043945
1790266458524820700,21.10382080078125,-7.582854747772217,-10.746166229248047,5.185246467590332
1790266458542073900,21.121073974609374,-8.602197647094727,-11.33958625793457,5.733202934265137
1790266458559327000,21.138326904296875,-9.152546882629395,-11.741580963134766,5.826523303985596
1790266458576580000,21.155580078125,-8.819944381713867,-11.454442024230957,5.307280540466309
1790266458593833200,21.172833251953126,-8.547162055969238,-10.911271095275879,5.424529075622559
1790266458611086300,21.19008642578125,-8.032705307006836,-9.896714210510254,5.5345988273620605
1790266458628339500,21.20733935546875,-7.456035137176514,-8.506484031677246,4.907679080963135
1790266458645592600,21.224592529296874,-7.259823799133301,-7.893921852111816,4.60139799118042
1790266458662845700,21.241845703125,-7.439285755157471,-8.338987350463867,5.017749309539795
1790266458680098800,21.259098876953125,-7.719245910644531,-8.908478736877441,5.0225348472595215
1790266458697352000,21.27635205078125,-7.0755767822265625,-8.889336585998535,4.323830604553223
1790266458714605000,21.29360498046875,-6.223731517791748,-8.549555778503418,3.462414264678955
1790266458731858200,21.310858154296874,-6.606583118438721,-8.219346046447754,3.2853455543518066
1790266458749111300,21.328111328125,-7.700103282928467,-8.35573673248291,3.9074792861938477
1790266458766364400,21.345364501953124,-8.384450912475586,-8.791230201721191,5.575276851654053
1790266458783617500,21.362617431640626,-8.477770805358887,-9.214759826660156,7.424928665161133
1790266458800870700,21.37987060546875,-7.077969551086426,-9.044869422912598,7.013363361358643
1790266458818123800,21.397123779296876,-6.640082836151123,-8.250452041625977,6.281159400939941
1790266458835377000,21.414376953125,-7.712067604064941,-7.654639720916748,6.010770320892334
1790266458852630000,21.431630126953124,-8.408378601074219,-7.070790767669678,5.613562107086182
1790266458869883100,21.448883056640625,-7.788637638092041,-7.070790767669678,5.831308841705322
1790266458887136300,21.46613623046875,-7.324429988861084,-6.967899322509766,5.259424209594727
1790266458904389400,21.483389404296876,-7.5708909034729,-6.613761901855469,4.728217601776123
1790266458921642500,21.500642578125,-8.382058143615723,-6.613761901855469,4.9986066818237305
1790266458938895600,21.5178955078125,-7.915457248687744,-6.606583118438721,4.570291042327881
1790266458956148700,21.535148681640624,-6.563512325286865,-5.886343479156494,3.8213376998901367
1790266458973401900,21.55240185546875,-5.793023586273193,-4.8502516746521,2.902493953704834
1790266458990655000,21.569655029296875,-5.78345251083374,-4.1036906242370605,2.526820659637451
1790266459007908000,21.586908203125,-6.465406894683838,-3.806980848312378,1.8161523342132568
1790266459025161200,21.6041611328125,-6.199803352355957,-3.610769271850586,1.6414763927459717
1790266459042414300,21.621414306640624,-5.941378593444824,-3.4504501819610596,1.0959128141403198
1790266459059667500,21.63866748046875,-5.082355499267578,-2.1607189178466797,0.4618147611618042
1790266459076920800,21.6559208984375,-5.213960647583008,-0.2799602448940277,0.7848458290100098
1790266459094174200,21.67317431640625,-5.139782905578613,1.062413215637207,-0.09092725813388824
1790266459111427600,21.690427490234374,-4.012763500213623,1.2993026971817017,0.0933200865983963
1790266459128680700,21.7076806640625,-4.063013076782227,1.3878371715545654,-0.23688943684101105
1790266459145934000,21.72493408203125,-3.562912940979004,0.9619147181510925,-0.349352091550827
1790266459163187500,21.7421875,-3.869194269180298,0.9978070259094238,-0.5240281820297241
1790266459180440600,21.759440673828124,-3.2757742404937744,1.6199408769607544,-0.17946170270442963
1790266459197693700,21.776693603515625,-3.8668015003204346,1.9812572002410889,0.23449662327766418
1790266459214946800,21.79394677734375,-5.149354457855225,1.7874385118484497,0.6867401003837585
1790266459232200000,21.811199951171876,-5.618347644805908,0.3038884699344635,1.160519003868103
1790266459249453000,21.828453125,-4.4243292808532715,-0.9786644577980042,1.576870083808899
1790266459266706200,21.8457060546875,-5.757131099700928,-1.9405791759490967,2.7182464599609375
1790266459283959300,21.862959228515624,-6.300302028656006,-3.620340585708618,3.809373617172241
1790266459301212400,21.88021240234375,-5.850451469421387,-4.859822750091553,3.5605201721191406
1790266459318465500,21.897465576171875,-5.498706340789795,-5.5968122482299805,3.1489546298980713
1790266459335718700,21.91471875,-5.843272686004639,-5.85284423828125,3.108276605606079
1790266459352971800,21.9319716796875,-7.271788120269775,-5.675775527954102,3.689732551574707
1790266459370225000,21.949224853515624,-6.977470874786377,-5.869594097137451,3.641875982284546
1790266459387478000,21.96647802734375,-5.5106706619262695,-6.051448345184326,3.4265220165252686
1790266459404731100,21.983731201171874,-6.652047157287598,-7.077969551086426,3.627519130706787
1790266459421984300,22.000984375,-7.312466144561768,-8.520841598510742,3.88594388961792
1790266459439237400,22.0182373046875,-7.264609336853027,-10.322636604309082,3.9122650623321533
1790266459456490500,22.035490478515626,-7.934599876403809,-12.337393760681152,5.103890895843506
1790266459473743600,22.05274365234375,-8.73619556427002,-12.928421020507812,7.197610378265381
