time,seconds_elapsed,z,y,x
1790107223424798500,0.056798583984375,-8.789730380505324,-4.265292177139222,0.8475316056042909
1790107223434743300,0.066743408203125,-8.7951839697361,-4.247085489319264,0.8816947911646217
1790107223444687400,0.076687255859375,-8.791523693662882,-4.247404053749144,0.9160012576531619
1790107223454632400,0.086632568359375,-8.784399540871382,-4.2568736006230115,0.9400750108756124
1790107223464577500,0.09657763671875,-8.778178474399446,-4.267620620086789,0.949409752388671
1790107223474522400,0.1065224609375,-8.776295729392766,-4.272851798738539,0.9432692768722772
1790107223484467500,0.116467529296875,-8.779367391923069,-4.270550828319788,0.9249248610820621
1790107223494411500,0.12641162109375,-8.785380368602276,-4.262048665173351,0.9068748251285403
1790107223504356400,0.1363564453125,-8.792343193352222,-4.249814329761266,0.8967504676077515
1790107223514301200,0.14630126953125,-8.797898489391804,-4.239090691173076,0.8930174185592681
1790107223524246500,0.15624658203125,-8.7993212156713,-4.235781128233671,0.8947009146668017
1790107223534191400,0.16619140625,-8.796062506136298,-4.242278673559427,0.8959550794463604
1790107223544135400,0.176135498046875,-8.7886946077168,-4.258254533587396,0.8924689908962696
1790107223554080500,0.18608056640625,-8.778584717112778,-4.281105247820913,0.8825969276361167
1790107223564025300,0.196025390625,-8.76644185937643,-4.310286626380682,0.860992121810466
1790107223573970400,0.205970458984375,-8.748429232823849,-4.353464381588995,0.8262699871931225
1790107223583914500,0.21591455078125,-8.720165261369942,-4.419155581900477,0.7747036122154444
1790107223593859300,0.225859375,-8.679611717185377,-4.508595906589925,0.712240214844048
1790107223603804400,0.235804443359375,-8.631268249776959,-4.613082993763685,0.6253451176580042
1790107223613749500,0.24574951171875,-8.58678613397181,-4.712092234048247,0.48339485353045164
1790107223623694300,0.2556943359375,-8.547970373365283,-4.79685258422792,0.3046173539987765
1790107223633638400,0.265638427734375,-8.504470254334807,-4.88123270291835,0.1339338204051368
1790107223643583200,0.275583251953125,-8.455255264788866,-4.967614809080958,-0.042916181662678715
1790107223653528600,0.285528564453125,-8.403421032655238,-5.049240368366241,-0.24098323234757407
1790107223663473400,0.295473388671875,-8.348800969195365,-5.122380423378944,-0.47866775194332
1790107223673417200,0.305417236328125,-8.28260328066647,-5.19570226469934,-0.7573311832625419
1790107223683362600,0.315362548828125,-8.195553942766786,-5.27328643963933,-1.0934931560873984
1790107223693307400,0.325307373046875,-8.080101517203449,-5.349530305886268,-1.5049473204575479
1790107223703252200,0.335252197265625,-7.924500621125102,-5.409726708173752,-2.0267035418905315
1790107223713197600,0.345197509765625,-7.724722145146131,-5.4545133598834274,-2.5975641321018337
1790107223723141400,0.355141357421875,-7.500262232375144,-5.504242144170403,-3.101573684442043
1790107223733086500,0.36508642578125,-7.258929510736465,-5.53923630066216,-3.57703518768996
1790107223743031600,0.375031494140625,-6.986299733558297,-5.532383366027474,-4.093253941000998
1790107223752976400,0.384976318359375,-6.6653381794095035,-5.48328411181569,-4.655882855570316
1790107223762920400,0.39492041015625,-6.296456351700424,-5.377244826763868,-5.254547836899757
1790107223772865300,0.404865234375,-5.896605969753861,-5.184753000661731,-5.875266244605183
1790107223782810400,0.414810302734375,-5.505634475311637,-4.904497550910711,-6.465622247272729
1790107223792755500,0.42475537109375,-5.129934784281254,-4.5470036709174515,-7.0127680537670845
1790107223802700500,0.434700439453125,-4.774934474669396,-4.140050763489306,-7.498691622057557
1790107223812644600,0.44464453125,-4.446142957547306,-3.715578565983474,-7.911806559246778
1790107223822589400,0.45458935546875,-4.1372365828514095,-3.2908485943242907,-8.259780038961768
1790107223832534300,0.4645341796875,-3.8301708675861357,-2.8666788868963717,-8.560509536942838
1790107223842479400,0.474479248046875,-3.505035534884035,-2.4343385863639413,-8.829445135778188
1790107223852423400,0.48442333984375,-3.1576854477643965,-1.9884221804216502,-9.068935444420575
1790107223862368300,0.4943681640625,-2.783562796792388,-1.5299256943695245,-9.278011325576902
1790107223872313600,0.504313720703125,-2.3914304418772456,-1.0584281993817537,-9.451517880702019
1790107223882258400,0.514258544921875,-1.9946561063751578,-0.5764294033195823,-9.584334113520383
1790107223892203300,0.524203369140625,-1.6132120264738796,-0.09335673094820231,-9.672601595038175
1790107223902147300,0.534147216796875,-1.2804831699028612,0.37970264306142926,-9.715276369160414
1790107223912092400,0.544092529296875,-1.0119600243259221,0.8388743249613791,-9.718159815642236
1790107223922037200,0.554037353515625,-0.799899574400857,1.2776954388804733,-9.690099842327832
1790107223931982600,0.563982666015625,-0.6372470793105661,1.6928481655076144,-9.638390113356708
1790107223941927400,0.573927490234375,-0.5182667718820274,2.0757830684885383,-9.570417231848836
1790107223951871500,0.58387158203125,-0.43873376442920414,2.4187242531247435,-9.493559033095837
1790107223961816300,0.59381640625,-0.3895700666790828,2.709358911940455,-9.416899571785331
1790107223971761400,0.603761474609375,-0.36230076881833373,2.944917434091866,-9.347008873957394
1790107223981706500,0.61370654296875,-0.3646175213281065,3.136550597538054,-9.284367416605352
1790107223991650300,0.623650390625,-0.385654573735781,3.2772786263942715,-9.234777164006232
1790107224001595400,0.633595458984375,-0.39412140984050925,3.3810961437433957,-9.196915343123674
1790107224011540500,0.64354052734375,-0.3769203919317573,3.4733860126450655,-9.163182000347971
1790107224021485300,0.6534853515625,-0.30591077307648956,3.544011162227392,-9.13875190796852
1790107224031430400,0.663430419921875,-0.18373733216244725,3.5916570027604697,-9.123411130973697
1790107224041374500,0.67337451171875,-0.0551043809446739,3.61094943999052,-9.117477064749599
1790107224051319300,0.6833193359375,0.04222513065859675,3.5846006545081734,-9.127938253009319
1790107224061265000,0.693264892578125,0.11663263005753978,3.4971538417235015,-9.16115195582509
1790107224071210000,0.7032099609375,0.20059214871572328,3.3653722126498815,-9.20893194413185
1790107224081153800,0.71315380859375,0.26082009691894054,3.2167332645386457,-9.260399096518755
1790107224091099000,0.723098876953125,0.3199328321555629,3.0642502082198857,-9.310123204630612
1790107224101044000,0.7330439453125,0.39759113177768884,2.899825077433884,-9.359665526434778
1790107224110988800,0.74298876953125,0.49685387189928437,2.725808526960015,-9.407098308739066
1790107224120934000,0.752933837890625,0.6058412296343595,2.544359780658781,-9.451434294071793
1790107224130878000,0.7628779296875,0.726077090081945,2.3564893307469785,-9.491583349108696
1790107224140822800,0.77282275390625,0.8643135213181375,2.141378991732001,-9.53088952358067
1790107224150767900,0.782767822265625,1.0255175711657851,1.8756329827181994,-9.570826981693505
1790107224160713000,0.792712890625,1.1839915384624153,1.590117274351418,-9.604171032890678
1790107224170657000,0.802656982421875,1.3753320756375789,1.2991066218301652,-9.622431496724486
1790107224180601900,0.812601806640625,1.6071286149069666,0.9566238484859466,-9.626648822158575
1790107224190547000,0.822546875,1.860376084614545,0.5797438616298138,-9.61110287798047
1790107224200492000,0.832491943359375,2.103606018176675,0.2734704292533919,-9.574469137588142
1790107224210436900,0.842436767578125,2.251515629100054,0.026436758310033472,-9.54465033790767
1790107224220381000,0.852380859375,2.3408780662477016,-0.193561848220136,-9.521195812562107
1790107224230326000,0.862325927734375,2.395037672588974,-0.3616984555436298,-9.502809676522016
1790107224240270800,0.872270751953125,2.4330279421567917,-0.4580762878786772,-9.488988071918486
1790107224250216000,0.8822158203125,2.513132867746055,-0.4893431309429928,-9.466524895697832
1790107224260161000,0.8921611328125,2.7543741117089984,-0.4304901426210999,-9.402045117002725
1790107224270104800,0.902104736328125,3.002816080830991,-0.30123552954075855,-9.330742798811198
1790107224280050000,0.9120498046875,3.1944036515697833,-0.16538243151083587,-9.270319602030515
1790107224289995000,0.9219951171875,3.3875545261025426,-0.018784636121673973,-9.202961637550592
1790107224299939800,0.93193994140625,3.558118598034978,0.1418996299188584,-9.137287680634856
1790107224309884000,0.9418837890625,3.680762396407127,0.3157748356932774,-9.08420023356974
1790107224319829000,0.9518291015625,3.7453622943505644,0.5150706792544574,-9.048609280228614
1790107224329773800,0.96177392578125,3.750154204802215,0.6953775620441883,-9.0345544513911
1790107224339719000,0.971718994140625,3.7163305533945556,0.7967688020944594,-9.040159431791306
1790107224349664000,0.9816640625,3.695192196036875,0.8308735354658215,-9.045752137231826
1790107224359607800,0.99160791015625,3.6918063529908656,0.8546556122653186,-9.044914517363905
1790107224369553000,1.001552978515625,3.6983351702377196,0.8891696570899337,-9.03891966086328
1790107224379498000,1.011498046875,3.7054543545931575,0.9278262816119939,-9.032118748676776
1790107224389442800,1.02144287109375,3.735327807070315,0.9608750031244009,-9.016340749308466
1790107224399387000,1.031386962890625,3.785808578768372,1.004317765944451,-8.990515987700224
1790107224409331700,1.041331787109375,3.8239305118918416,1.082916963145882,-8.965222556489705
1790107224419277000,1.051277099609375,3.836861597396433,1.1938785800959915,-8.945586128127575
1790107224429222000,1.061221923828125,3.848643220604956,1.294662063511461,-8.926486875382066
1790107224439167000,1.0711669921875,3.88191683691442,1.3518880716860293,-8.903568356609345
1790107224449111000,1.081111083984375,3.9518203942239283,1.377929983176291,-8.868754232859612
1790107224459055900,1.091055908203125,4.066606464833021,1.3754213613562285,-8.817102371555567
1790107224469000700,1.101000732421875,4.211466771188378,1.3521785790652037,-8.752460680297016
1790107224478946000,1.110946044921875,4.35839774633795,1.3261898590669035,-8.684237038898468
1790107224488889900,1.120889892578125,4.47546345231682,1.3022772146902977,-8.62813287436068
1790107224498835000,1.1308349609375,4.5668595872491595,1.2918356079138815,-8.581685011440515
1790107224508780000,1.140780029296875,4.6569595448911185,1.2960305753856896,-8.532492818248272
1790107224518724900,1.150724853515625,4.724104158881306,1.2961976025156676,-8.495474462452531
1790107224528670000,1.160669921875,4.7333439886525275,1.2943433529511092,-8.490615331983566
1790107224538613800,1.17061376953125,4.718453293512761,1.3186689620427787,-8.49515823611021
1790107224548558800,1.180558837890625,4.698961242057383,1.3839204557627438,-8.495583183524012
1790107224558504000,1.19050390625,4.651303126564621,1.4999607642166315,-8.502109370422362
1790107224568449000,1.200448974609375,4.5248225265085695,1.663023812869191,-8.539950733038783
1790107224578393000,1.21039306640625,4.296137397257984,1.8780884130463003,-8.613149240240455
1790107224588338000,1.220337890625,4.023416726925969,2.1079908091321586,-8.691311507329344
1790107224598282800,1.23028271484375,3.8946804568976163,2.296852169777453,-8.702087168365717
1790107224608228000,1.24022802734375,3.8669489848852154,2.417045944648981,-8.681875570464134
1790107224618173000,1.2501728515625,3.8959468235716224,2.477393738105893,-8.651851019078492
1790107224628116700,1.26011669921875,3.9331712233334777,2.4943475032553075,-8.63011089643538
1790107224638062000,1.27006201171875,3.9386774195343253,2.4942320601820946,-8.627627847447991
1790107224648007000,1.2800068359375,3.8849367692574854,2.490764384071529,-8.652961610668896
1790107224657951700,1.28995166015625,3.7450916607156395,2.5017829139530656,-8.711240781158208
1790107224667895800,1.299895751953125,3.6358220154404637,2.529746441155672,-8.749373820197581
1790107224677841000,1.3098408203125,3.6474376344323156,2.541587977857888,-8.741104004502295
1790107224687786000,1.319785888671875,3.6809161256641145,2.5327155200943348,-8.729639776679873
1790107224697731000,1.32973095703125,3.6797809841543434,2.516818278260529,-8.734714595726132
1790107224707676000,1.339676025390625,3.66224620424658,2.542733933022618,-8.734578402125836
1790107224717620000,1.349619873046875,3.606859248067438,2.5990190070852637,-8.741054904663562
1790107224727564800,1.359564697265625,3.5299162936404347,2.6641002588048575,-8.752865753966569
1790107224737510000,1.369510009765625,3.456842289601266,2.7374752916172147,-8.759386095646024
1790107224747455000,1.379455078125,3.402910208405554,2.8224875707313415,-8.753521587526798
1790107224757398800,1.389398681640625,3.3687855282247066,2.916689702995121,-8.735823433750868
1790107224767343900,1.39934375,3.3515453473493455,3.0193130421236156,-8.707541926640271
1790107224777289000,1.4092890625,3.342648047405481,3.1151947980374097,-8.677134513416886
1790107224787233800,1.41923388671875,3.3290219653740523,3.189245830415189,-8.655444659656286
1790107224797179000,1.429178955078125,3.3093568954393264,3.2385090430170296,-8.644688287842273
1790107224807123000,1.439123046875,3.2911987229362127,3.2625717633888125,-8.642571734079718
1790107224817067800,1.44906787109375,3.292097133080661,3.2710388552218674,-8.639028946906327
1790107224827013000,1.45901318359375,3.3286060780495403,3.2690245927900072,-8.625791864192486
1790107224836958000,1.4689580078125,3.397503965447843,3.2580437645703553,-8.603052793639899
1790107224846902000,1.478902099609375,3.5854397356808185,3.229360106399655,-8.53734551897645
1790107224856846800,1.488846923828125,3.9067446964398025,3.1562758732274174,-8.422922436460851
1790107224866792000,1.4987919921875,4.153756632758677,2.989677490055561,-8.36531663518846
1790107224876736800,1.50873681640625,4.202968991956115,2.7319439609751104,-8.42863613793254
1790107224886681900,1.518681884765625,4.125414627632498,2.394701572502404,-8.568359081399441
1790107224896626000,1.5286259765625,3.961116045835614,2.0233679677270353,-8.739905150106548
1790107224906571000,1.538571044921875,3.736191145901382,1.6964264623858034,-8.906928188431262
1790107224916515800,1.548515869140625,3.5177675906851884,1.4682972134523093,-9.035476242411136
1790107224926461000,1.5584609375,3.334067850586772,1.3734784105949103,-9.119645056438445
1790107224936405000,1.568405029296875,3.1422540698766706,1.374799722326547,-9.187303465169668
1790107224946349800,1.578349853515625,2.9195962380915876,1.419801770352572,-9.253677679309249
1790107224956295000,1.588294921875,2.7763433669328688,1.5197864315405487,-9.281839943954347
1790107224966240000,1.598239990234375,2.7422368069306016,1.7106714069679378,-9.258731455567478
1790107224976184800,1.608184814453125,2.7870938935279845,2.027094587034732,-9.181140850886703
1790107224986129000,1.61812890625,2.8613413252606987,2.5113395545884964,-9.037493427452445
1790107224996074000,1.628073974609375,2.9732123852059242,3.209098531876504,-8.77679140395522
1790107225006018800,1.638018798828125,3.1342548878163097,4.110720039586723,-8.333597554844618
1790107225015964000,1.6479638671875,3.2230691895619032,5.069509249413013,-7.751278728160262
1790107225025908000,1.657907958984375,3.4176521427243944,5.84035918187499,-7.097901913434266
1790107225035852800,1.667852783203125,3.8351878189653155,6.336375105112791,-6.4274471226572985
1790107225045798000,1.6777978515625,4.170132305759191,6.6454854779481884,-5.883699726429581
1790107225055743500,1.687743408203125,4.361752317462861,6.854631501731276,-5.49177078513205
1790107225065687300,1.697687255859375,4.471627819676697,6.994328141713142,-5.220564903277158
1790107225075632400,1.70763232421875,4.484073752012849,7.077488655480742,-5.0963370505839585
1790107225085577500,1.717577392578125,4.432493786901236,7.125003270849585,-5.0752083378374575
1790107225095522300,1.727522216796875,4.367744543614983,7.1481737185567615,-5.098703779715299
1790107225105467400,1.73746728515625,4.290928722698986,7.157611408987641,-5.150432213386893
1790107225115411500,1.747411376953125,4.184369797687232,7.1415417331963775,-5.259257329764962
1790107225125356500,1.7573564453125,4.05572529759556,7.145138296383619,-5.354289483112097
1790107225135301400,1.76730126953125,3.8650174323007462,7.16759036668837,-5.464221683949232
1790107225145246500,1.77724658203125,3.6615576374605294,7.165712297856807,-5.604992090642452
1790107225155190500,1.7871904296875,3.507047166967392,7.162210427215695,-5.707339535439014
1790107225165135400,1.79713525390625,3.3683737325534224,7.219795770221948,-5.718303997045755
1790107225175080200,1.807080078125,3.2680031407877803,7.29747113057673,-5.677800137221813
1790107225185025500,1.817025634765625,3.1170687752157447,7.411632347285747,-5.614447316730022
1790107225194970400,1.826970458984375,2.9625480755895373,7.536859732410311,-5.530770670133829
1790107225204914400,1.83691455078125,2.845195369362831,7.65368578441441,-5.431051820275187
1790107225214859500,1.846859619140625,2.718559578745067,7.786863251760601,-5.305149896889925
1790107225224804400,1.856804443359375,2.5644778550580143,7.9425605939507475,-5.1487435296475885
1790107225234749400,1.86674951171875,2.390808072195202,8.102793241482972,-4.979875740239024
1790107225244693500,1.876693603515625,2.243292429025471,8.24448076302111,-4.8131674669519064
1790107225254638300,1.886638427734375,2.1547378011293707,8.36617471332252,-4.640541494053602
1790107225264583400,1.89658349609375,2.0933036737404764,8.473558398720622,-4.470716842311621
1790107225274528500,1.906528564453125,2.0265429445013403,8.575362822681665,-4.304263128307461
1790107225284473300,1.916473388671875,1.9473514804951846,8.671294555217028,-4.1457054282501336
1790107225294417400,1.92641748046875,1.8749954154670236,8.739784154075384,-4.033721847841143
1790107225304362200,1.9363623046875,1.8501438828051089,8.759310107800363,-4.002729328206181
1790107225314307300,1.946307373046875,1.9231753628768025,8.743494114509224,-4.002884518767893
1790107225324252400,1.95625244140625,2.076510798241198,8.71653421139121,-3.985037019649148
1790107225334196200,1.9661962890625,2.25138805719763,8.676229673531651,-3.9780268486261368
1790107225344141600,1.9761416015625,2.416541794519126,8.616207458767294,-4.011443088276684
1790107225354086400,1.98608642578125,2.5145889117732643,8.5592194971323,-4.072710334666073
1790107225364031200,1.99603125,2.496394791173935,8.520283909538387,-4.164515342660248
1790107225373976600,2.0059765625,2.355660186446458,8.497185942545533,-4.291746176561713
1790107225383920400,2.01592041015625,2.1208139042176306,8.490979489120841,-4.424455441874265
1790107225393865500,2.025865478515625,1.8838349938742815,8.471747549906372,-4.566294354581832
1790107225403810600,2.035810546875,1.7897003738887607,8.420338849708438,-4.697367835386097
1790107225413755400,2.04575537109375,1.8510415622971952,8.35854670266211,-4.783173018443584
1790107225423699500,2.055699462890625,2.0104190543048084,8.306730006185173,-4.809036066235602
1790107225433644300,2.065644287109375,2.202568204449117,8.265569143757224,-4.795773264558613
1790107225443589400,2.07558935546875,2.399420271587372,8.231265307617187,-4.76019517069906
1790107225453534500,2.085534423828125,2.55981424716115,8.19970287913978,-4.731029281969368
1790107225463478300,2.095478271484375,2.659778303952515,8.16193633532524,-4.741178627800942
1790107225473423400,2.10542333984375,2.697344941280782,8.13179721764922,-4.77164595451802
1790107225483368400,2.115368408203125,2.698848331581056,8.12989576794207,-4.774034018698335
1790107225493313300,2.125313232421875,2.6742908134296535,8.143226958680152,-4.765125320577622
1790107225503258400,2.13525830078125,2.654555600868165,8.127867476984859,-4.802240414746105
1790107225513202400,2.145202392578125,2.655261411049962,8.042565859535337,-4.943393391016126
1790107225523147300,2.155147216796875,2.6492174547106027,7.911424866452813,-5.153773925030231
1790107225533092600,2.165092529296875,2.6265064412087202,7.787953969606757,-5.3497319659382105
1790107225543037400,2.175037353515625,2.609519650572538,7.7011980616956945,-5.482001670789718
1790107225552982300,2.184982177734375,2.6065485258072614,7.649987514418363,-5.554636114367843
1790107225562926300,2.19492626953125,2.614307469370961,7.609414096489548,-5.606479114329814
1790107225572871400,2.204871337890625,2.6367607087194918,7.560777783614396,-5.661493730065226
1790107225582816300,2.214816162109375,2.685289761827886,7.4958099291414015,-5.724720293828844
1790107225592761600,2.22476171875,2.7522444062039253,7.415875976204871,-5.796577907815576
1790107225602705400,2.234705322265625,2.8053502657085656,7.330429397326707,-5.879217028057575
1790107225612650500,2.244650390625,2.819571975545585,7.250180971613526,-5.971199730706214
1790107225622595300,2.25459521484375,2.7958982544913886,7.17626408700943,-6.0707964154899114
1790107225632540400,2.26454052734375,2.758881067739427,7.0939283336281775,-6.183458333551883
1790107225642484500,2.274484375,2.7381206037834285,6.990052364090085,-6.309695187979936
1790107225652429300,2.28442919921875,2.7472610648334026,6.855012610003352,-6.452267091137171
1790107225662374400,2.29437451171875,2.788347692981362,6.689620387750864,-6.606396161097288
1790107225672319500,2.304319580078125,2.8485619231864807,6.536465715780854,-6.732806034004688
1790107225682264300,2.314264404296875,2.8988167771741744,6.442228512203693,-6.801831054913997
1790107225692208400,2.32420849609375,2.9713194110661743,6.355050579488277,-6.8523699865400785
1790107225702153500,2.334153564453125,3.0802146700710056,6.232874398627877,-6.9162079602003095
1790107225712098300,2.344098388671875,3.198291014397144,6.0969613688379525,-6.983434991776943
1790107225722043400,2.35404345703125,3.3310257064118978,5.9722828497678035,-7.028975092202424
1790107225731987500,2.363987548828125,3.470173772600293,5.872711299425363,-7.045532843771577
1790107225741932300,2.373932373046875,3.5882442717075347,5.794261447566747,-7.0513400687456125
1790107225751877400,2.38387744140625,3.672670859888196,5.730590647166967,-7.059899807298183
1790107225761822500,2.393822509765625,3.7268054779186843,5.674142783758044,-7.0771052091211075
1790107225771766500,2.4037666015625,3.7556621545687316,5.625239344379305,-7.100849657323956
1790107225781711400,2.41371142578125,3.7639053745180364,5.587667446354032,-7.126104510089754
1790107225791656400,2.423656494140625,3.7586408781185745,5.5591036151707165,-7.15117991463542
1790107225801601500,2.4336015625,3.753536832977831,5.5346244229525325,-7.172815407860279
1790107225811546400,2.44354638671875,3.7507220678180455,5.515666624504328,-7.188872808691859
1790107225821490200,2.453490234375,3.7354511411890385,5.506898796159029,-7.203532617685198
1790107225831435500,2.463435546875,3.70853683077842,5.508632488083839,-7.216098084747791
1790107225841380400,2.47338037109375,3.6744638807848093,5.520851333665847,-7.2241884522229425
1790107225851325400,2.483325439453125,3.6300112833350893,5.541800598192214,-7.230621115618944
1790107225861269500,2.49326953125,3.577079903614521,5.573138570263981,-7.232909518817067
1790107225871214300,2.50321435546875,3.5123461501583453,5.614935392507911,-7.232308630314469
1790107225881159400,2.513159423828125,3.4358629221975803,5.667262961116433,-7.228235097265243
1790107225891104500,2.5231044921875,3.3596389296948908,5.7295566279441115,-7.21494365401566
1790107225901049300,2.53304931640625,3.292169906055927,5.800445104637742,-7.189358546382189
1790107225910993400,2.542993408203125,3.2275042493999004,5.879402321496605,-7.154457913392782
1790107225920938500,2.5529384765625,3.1582562333896753,5.966604804131388,-7.113044537508487
1790107225930883300,2.56288330078125,3.077891780081391,6.061542264932394,-7.0678627490013834
1790107225940828400,2.572828369140625,2.9902994213461875,6.162120946490765,-7.0183157510221
1790107225950772200,2.582772216796875,2.907428830435872,6.263923616886139,-6.96279377028644
1790107225960717300,2.59271728515625,2.8334266056358812,6.365626918560266,-6.900787688228488
1790107225970662400,2.602662353515625,2.7632176356390117,6.468520891323685,-6.8332467683970926
1790107225980607500,2.612607421875,2.6893448824375867,6.572879675942659,-6.76277213320136
1790107225990551600,2.622551513671875,2.6122867771983147,6.679753073731065,-6.6878446102499955
1790107226000496400,2.632496337890625,2.536770640704036,6.7896753376960755,-6.605715777617693
1790107226010441200,2.642441162109375,2.4638790074944494,6.903676979929208,-6.514519256910681
1790107226020386600,2.652386474609375,2.393445434961468,7.02320235401988,-6.412211559602618
1790107226030331400,2.662331298828125,2.325039568863809,7.148840658032894,-6.297512582755089
1790107226040275500,2.672275390625,2.25601820121631,7.279594113102555,-6.171568573793769
1790107226050220500,2.682220458984375,2.183037428418547,7.4142761397928,-6.035996904787421
1790107226060164600,2.69216455078125,2.104144362837076,7.552455360949039,-5.890960072821378
1790107226070109700,2.702109619140625,2.0199146124027667,7.692976761317253,-5.736589595320821
1790107226080053800,2.7120537109375,1.9379815946035086,7.831242491713166,-5.575504130351543
1790107226089998800,2.721998779296875,1.8670336428076029,7.9602523179858915,-5.414699235889315
1790107226099943700,2.731943603515625,1.8037421971142291,8.078401143026351,-5.258932335594296
1790107226109888800,2.741888671875,1.7466048901364206,8.188799207809566,-5.105227628526091
1790107226119833600,2.75183349609375,1.7017464883647857,8.2927295378834,-4.950261523219943
1790107226129777700,2.761777587890625,1.6829036945983766,8.390504267936944,-4.789327741681039
1790107226139722500,2.771722412109375,1.6867925187304615,8.484744394123554,-4.61890161691457
1790107226149667800,2.781667724609375,1.6855594698041676,8.581385151711105,-4.437244488559663
1790107226159612700,2.79161279296875,1.669029190763831,8.683405848771333,-4.240656333054602
1790107226169556700,2.801556640625,1.6421407454468309,8.787457174876332,-4.031669883747399
1790107226179501800,2.811501708984375,1.6159969810172914,8.886991315817832,-3.818417593689263
1790107226189446700,2.82144677734375,1.5937921634718775,8.980055968484281,-3.6040018128097056
1790107226199391500,2.8313916015625,1.5611891399003563,9.066454148998856,-3.3959532288745042
1790107226209335800,2.841335693359375,1.5117041012413799,9.144259273213148,-3.2043200654283166
1790107226219280600,2.85128076171875,1.4715486164636908,9.211233791333436,-3.026238749733567
1790107226229225700,2.861225830078125,1.470320097582042,9.26535058144629,-2.8568846381127835
1790107226239170800,2.8711708984375,1.5034190879769622,9.306745252630114,-2.7008582100987435
1790107226249115600,2.88111572265625,1.553173445096612,9.337046282869577,-2.564688867460191
1790107226259059700,2.891059814453125,1.5967347927950322,9.35926863607168,-2.4545728344887494
1790107226269004500,2.901004638671875,1.6248115711137652,9.375857951822876,-2.3714234266370533
1790107226278949600,2.91094970703125,1.6554935634948311,9.384788277253508,-2.314184997372329
1790107226288894700,2.920894775390625,1.6312734606042503,9.3971666973114,-2.2809264325015244
1790107226298838500,2.930838623046875,1.587775533530861,9.414652085119485,-2.239123618908226
1790107226308783900,2.940783935546875,1.5572634908892213,9.42853915617466,-2.201803503686935
1790107226318728700,2.950728759765625,1.5643224694900213,9.433523374328017,-2.1752887139879165
1790107226328673500,2.960673583984375,1.6024145919971167,9.427203523656726,-2.1749607972078024
1790107226338617900,2.970617919921875,1.6372442055769263,9.413657228863238,-2.2074660594932736
1790107226348562700,2.980562744140625,1.6400613088242708,9.402431485971809,-2.252744440242648
1790107226358507500,2.990507568359375,1.6138798427328467,9.399010279351472,-2.2856930623814464
1790107226368452900,3.000452880859375,1.5758318516284227,9.399009110307693,-2.312093139659613
1790107226378397700,3.010397705078125,1.5382713517799973,9.395897700288891,-2.3497302118755874
1790107226388341800,3.020341796875,1.5054472328037023,9.388705158436299,-2.399213496968895
1790107226398286600,3.03028662109375,1.4826786438956856,9.376901323395966,-2.4588196782782674
1790107226408231700,3.040231689453125,1.486657484398782,9.356692063581942,-2.5323037244230506
1790107226418176800,3.0501767578125,1.5211751094199717,9.329440484040974,-2.6111229941159486
1790107226428120600,3.06012060546875,1.5793788765855132,9.297301132458449,-2.6900027618244287
1790107226438065700,3.070065673828125,1.6489008872315287,9.26130101379454,-2.7712469205766914
1790107226448010800,3.0800107421875,1.7291875991284846,9.217423293623328,-2.866947474704683
1790107226457955600,3.08995556640625,1.8136207631804049,9.165132549893855,-2.980191868829727
1790107226467900000,3.09989990234375,1.8836533536970614,9.111299252897501,-3.099424981975555
1790107226477844700,3.1098447265625,1.9169620413199067,9.062053868213296,-3.2209967672020197
1790107226487789600,3.11978955078125,1.9160322131238876,9.014900487372278,-3.351236719791591
1790107226497735000,3.12973486328125,1.8906177858822046,8.966787321588397,-3.4917990366920826
1790107226507679700,3.1396796875,1.853217006640136,8.918708642596005,-3.632162323889136
1790107226517623600,3.14962353515625,1.806776011852175,8.873275509676336,-3.764429398392141
1790107226527568600,3.159568603515625,1.762538226196915,8.827870433807373,-3.8900586423158643
1790107226537513700,3.169513671875,1.7462191056892276,8.779715766969323,-4.0047105651512735
1790107226547458600,3.17945849609375,1.7621851749755442,8.730711789825557,-4.103628035499155
1790107226557402600,3.189402587890625,1.7804142207577824,8.689937296366692,-4.18156613844335
1790107226567347700,3.19934765625,1.7621856133669613,8.671151347354053,-4.22802510727942
1790107226577292800,3.209292724609375,1.7708420902922748,8.66101456874311,-4.245151598647237
1790107226587237600,3.219237548828125,1.8228047711111603,8.64495716791153,-4.255876990801096
1790107226597181700,3.229181640625,1.874184829736501,8.62673352895677,-4.270517510572075
1790107226607126800,3.239126708984375,1.8977962992094457,8.610520645302534,-4.292751554211974
1790107226617071600,3.249071533203125,1.890205113428086,8.596377553659677,-4.324325673127174
1790107226627016700,3.2590166015625,1.853925739431381,8.58492326270938,-4.36262179377377
1790107226636961800,3.2689619140625,1.792210310883075,8.57826146673262,-4.40133935470283
1790107226646905600,3.278905517578125,1.7146018782846628,8.575044258251786,-4.4383723235458135
1790107226656850700,3.2888505859375,1.634491984259337,8.568982181733846,-4.480107186469436
1790107226666795800,3.298795654296875,1.5703616035237908,8.553488844525814,-4.5323491226211186
1790107226676740600,3.30874072265625,1.5374480526983738,8.526385149022936,-4.594281262660027
1790107226686684700,3.3186845703125,1.5369010863400996,8.48991799736917,-4.661504202583432
1790107226696629800,3.328629638671875,1.5576578970342874,8.446023910585046,-4.7337858872011305
1790107226706574600,3.33857470703125,1.5871933497287332,8.394782383647561,-4.814439094322919
1790107226716519700,3.348519775390625,1.621292749337852,8.335241230398417,-4.905666594690084
1790107226726463700,3.358463623046875,1.6631512386411427,8.26596895672977,-5.007803611606359
1790107226736408800,3.368408935546875,1.720330777325481,8.192739469867945,-5.107825243803858
1790107226746353700,3.378353759765625,1.795658405510336,8.122575215795635,-5.193244350153208
1790107226756298800,3.388298828125,1.8809744898766279,8.052614375340939,-5.271406032720208
1790107226766243600,3.39824365234375,1.9680192977316677,7.97814219494164,-5.352244825541973
1790107226776187600,3.408187744140625,2.0512311032950876,7.8971146015495055,-5.440441579911113
1790107226786132700,3.4181328125,2.1194345786884425,7.810895869255066,-5.537898330056667
1790107226796077800,3.428077880859375,2.157628992526233,7.723807368388772,-5.644275468760728
1790107226806022700,3.438022705078125,2.1584502457812427,7.637633644279838,-5.760037690925598
1790107226815966700,3.447966796875,2.130350963369757,7.549738503205775,-5.885020745900273
1790107226825911800,3.457911865234375,2.0880890078321097,7.4546771237641565,-6.019806232964992
1790107226835856600,3.467856689453125,2.0464177116639912,7.3527978810012335,-6.157833478429914
1790107226845801500,3.477801513671875,2.0113195102758703,7.248157356831431,-6.291997618725896
1790107226855745800,3.487745849609375,1.977330000782013,7.14222737737298,-6.4225505827873945
1790107226865690600,3.497690673828125,1.9436995338588952,7.038218136844039,-6.546442919915914
1790107226875635700,3.5076357421875,1.923182084878534,6.938868120297789,-6.657617229768634
1790107226885580800,3.517580810546875,1.9107263618007302,6.844034704393148,-6.758599815952778
1790107226895524900,3.52752490234375,1.907703506848216,6.751197430741787,-6.852181770491599
1790107226905469700,3.5374697265625,1.9492118675395844,6.651610098308325,-6.937367068085074
1790107226915414800,3.547414794921875,2.0559107855439187,6.543458351147175,-7.009049325504899
1790107226925359600,3.557359619140625,2.2135154226601124,6.43494186232686,-7.061320195490121
1790107226935304700,3.5673046875,2.388287175415456,6.3357221941620105,-7.094018349999189
1790107226945248500,3.57724853515625,2.5420392287567255,6.252811271241307,-7.114124733960628
1790107226955193900,3.58719384765625,2.661704011318087,6.1893649272471665,-7.125832122889161
1790107226965138700,3.597138671875,2.7457264026120303,6.142523681095242,-7.134478370681404
1790107226975083500,3.60708349609375,2.7936738564401864,6.1117380822092295,-7.142297519999742
1790107226985027800,3.61702783203125,2.8108894873961803,6.096725221994519,-7.1483724559992545
1790107226994972700,3.62697265625,2.797406028705835,6.09782236958146,-7.152721883380413
1790107227004917500,3.63691748046875,2.757687474040687,6.112145493966341,-7.155921556204557
1790107227014862800,3.64686279296875,2.7061750212073323,6.1336792803823945,-7.1571642497420305
1790107227024806700,3.656806640625,2.648549053929746,6.159847740861773,-7.156247134897113
1790107227034751700,3.666751708984375,2.5852467945814133,6.190859549719095,-7.15263420509696
1790107227044696800,3.67669677734375,2.5151275486946103,6.226596633532643,-7.146607784414291
1790107227054641700,3.6866416015625,2.440959027417004,6.267067175608873,-7.136943884012102
1790107227064587000,3.6965869140625,2.3684065630339086,6.310199630370736,-7.12337187025547
1790107227074531000,3.706531005859375,2.3031818111903966,6.353282985293865,-7.106444116330146
1790107227084476200,3.71647607421875,2.2482008054636418,6.397802510499954,-7.0840721255242824
1790107227094421200,3.726421142578125,2.1978737630225718,6.444649601870775,-7.057352460902929
1790107227104366300,3.736366455078125,2.1394968312472105,6.496868449407816,-7.027348952305316
1790107227114310100,3.74631005859375,2.0650711203381418,6.556039600300789,-6.994584162300825
1790107227124255200,3.756255126953125,1.975379158975184,6.622187604469061,-6.958081354811787
1790107227134200000,3.766199951171875,1.8761732270747422,6.693788028824329,-6.916905294814706
1790107227144145200,3.776145263671875,1.7734587025314568,6.769938956090807,-6.869726779532432
1790107227154089200,3.786089111328125,1.6734638122104106,6.850452754741907,-6.814777630248665
1790107227164034000,3.796033935546875,1.5810302970543504,6.9346636543452735,-6.751379801571368
1790107227173979400,3.8059794921875,1.4997073739774525,7.023372449889779,-6.677837595498562
1790107227183924200,3.81592431640625,1.4291167111866174,7.116250055551529,-6.594465484806895
1790107227193868300,3.825868408203125,1.369253924767673,7.21179191198647,-6.502736464658379
1790107227203813400,3.8358134765625,1.3228425944656133,7.309706342771649,-6.402240200686454
1790107227213758200,3.84575830078125,1.285574940083921,7.4101453235983845,-6.2934431413590906
1790107227223703000,3.855703125,1.249988370656967,7.512671047571301,-6.177999483624101
1790107227233648400,3.8656484375,1.2093204063124954,7.616293919131159,-6.058049162119627
1790107227243592200,3.87559228515625,1.1645157074894756,7.720325371491908,-5.933874500918388
1790107227253537300,3.885537353515625,1.1254811165004968,7.823474195799231,-5.804904422134161
1790107227263482000,3.895482177734375,1.099462658951059,7.925997581684589,-5.6692292927533385
1790107227273427200,3.90542724609375,1.085735016241297,8.029226485490799,-5.524770552936196
1790107227283371300,3.915371337890625,1.0847395754631608,8.13265588030517,-5.371556844255328
1790107227293316000,3.925316162109375,1.1041786546222865,8.234328786841035,-5.2102779025405646
1790107227303261200,3.93526123046875,1.1411106473088264,8.332955749809742,-5.0428264096707105
1790107227313206300,3.945206298828125,1.192438756551221,8.42480927312076,-4.875557287630438
1790107227323150000,3.955150146484375,1.2614650195695458,8.505700088390707,-4.71509755334407
1790107227333095400,3.965095458984375,1.3503528249427676,8.575137781754135,-4.562232804231345
1790107227343040300,3.975040283203125,1.4612053554952145,8.63344851642549,-4.415744019891322
1790107227352985000,3.984985107421875,1.57880662965551,8.684048822849988,-4.273759561233223
1790107227362929200,3.99492919921875,1.653264343138039,8.736056073462963,-4.1374440881222485
1790107227372874200,4.004874267578125,1.653107983532548,8.795091615277528,-4.010485933682323
1790107227382819000,4.014819091796875,1.6110348285652696,8.85478825134933,-3.8945699822604656
1790107227392764200,4.02476416015625,1.574120225404948,8.90672886646688,-3.789815768583119
1790107227402709200,4.034709228515625,1.555173532872647,8.949988162478805,-3.6945258410826325
1790107227412653300,4.0446533203125,1.557130950550735,8.986890198418498,-3.6029870828092094
1790107227422598100,4.05459814453125,1.5757495801724493,9.019190878042577,-3.5130618972122667
1790107227432543200,4.064543212890625,1.590506127538532,9.050449355137347,-3.4249145349428054
1790107227442488300,4.07448828125,1.5904299935624002,9.0806036703825,-3.344184755453467
1790107227452432100,4.08443212890625,1.5779707633532583,9.107817256000638,-3.275372500512004
1790107227462377200,4.094377197265625,1.5580166473440824,9.13323226776421,-3.2135721701592206
1790107227472322300,4.104322265625,1.5344262206591666,9.158361448323726,-3.1528289476439353
1790107227482267100,4.11426708984375,1.5165104786098003,9.182602740132808,-3.0903695688605306
1790107227492211200,4.124211181640625,1.4958740794248877,9.206699070513247,-3.0281068816930055
1790107227502156300,4.13415625,1.4723517495401204,9.229213684660197,-2.970555148695409
1790107227512101000,4.14410107421875,1.4592412158153951,9.247282425314188,-2.920399078907072
1790107227522046200,4.154046142578125,1.4586701379291713,9.2599601205796,-2.880247978043556
1790107227531990300,4.163990234375,1.4609639479547738,9.267898512363434,-2.8534257298305628
1790107227541935000,4.17393505859375,1.4625168764851986,9.272226896956562,-2.838530066254735
1790107227551880200,4.183880126953125,1.4709708165757358,9.271994257244467,-2.834913629323244
1790107227561825300,4.1938251953125,1.4904577534645795,9.265327785092591,-2.8465125894412395
1790107227571770000,4.20377001953125,1.5142475021138786,9.253229935541748,-2.8731866613551973
1790107227581714200,4.213714111328125,1.5390141329713165,9.23683292749226,-2.912509202440083
1790107227591659300,4.2236591796875,1.5621671911522745,9.216149035903811,-2.9652342459335923
1790107227601604000,4.23360400390625,1.5838732653953134,9.191016348212957,-3.0310028953954578
1790107227611549200,4.243549072265625,1.6050411411084233,9.162147981125116,-3.10632555514425
1790107227621493000,4.253492919921875,1.626414037874341,9.13037746285498,-3.1876892486229536
1790107227631438300,4.263438232421875,1.6534597195796668,9.095610685378313,-3.2720489090472458
1790107227641383200,4.273383056640625,1.6807674132220447,9.0596222571522,-3.3568799863755703
1790107227651328000,4.283327880859375,1.7003450971342622,9.024070466777681,-3.4417145708352326
1790107227661272300,4.293272216796875,1.71451420000121,8.988205372670292,-3.5274604249209163
1790107227671217200,4.303217041015625,1.7322031475573778,8.950534105923772,-3.6135575766623016
1790107227681162200,4.313162353515625,1.7552125594839452,8.91152194596231,-3.6978938562110066
1790107227691107300,4.323107421875,1.773823736451566,8.873602841934561,-3.7792999275267123
1790107227701052200,4.33305224609375,1.783292698803544,8.837728979998827,-3.8580826646015045
1790107227710996200,4.342996337890625,1.7955159282997248,8.800423623955249,-3.9368805992454288
1790107227720941300,4.35294140625,1.818588906981796,8.759262177005409,-4.017266679863631
1790107227730886100,4.36288623046875,1.8471369560740887,8.716306247854233,-4.096884406457841
1790107227740831200,4.372831298828125,1.8736971923500298,8.674641527557373,-4.172557194818556
1790107227750775000,4.382775146484375,1.8988352868683636,8.635247674801946,-4.242320759135485
1790107227760720100,4.39272021484375,1.9281212948463855,8.59676333810687,-4.3067830021739
1790107227770665200,4.402665283203125,1.9628363421358166,8.5575986179322,-4.3686566900238395
1790107227780610000,4.412610107421875,1.9993102157913147,8.516976100164651,-4.431054401747882
1790107227790554400,4.422554443359375,2.031261059064418,8.474931440639496,-4.496653832122683
1790107227800499200,4.432499267578125,2.0572569394558666,8.430101534309983,-4.568529566287994
1790107227810444000,4.442444091796875,2.0797258147649464,8.379856032672524,-4.650069200855493
1790107227820389400,4.452389404296875,2.0979425855875014,8.324200780946017,-4.74095826304853
1790107227830333200,4.462333251953125,2.1117586372330783,8.266542372703551,-4.834782209649682
1790107227840278300,4.4722783203125,2.125064547399431,8.207980293619633,-4.927831664746999
1790107227850223400,4.482223388671875,2.1446736493632197,8.147449544811249,-5.018946936911345
1790107227860168200,4.492168212890625,2.1706074243038893,8.086445333272218,-5.105706351953745
1790107227870112300,4.5021123046875,2.199744233069569,8.026529501491785,-5.187132589274644
1790107227880057000,4.51205712890625,2.230395391920954,7.966915867528319,-5.265355062118172
1790107227890002200,4.522002197265625,2.262524368239939,7.905620564088225,-5.343459461539983
1790107227899947300,4.531947265625,2.2923136495649814,7.841737582242488,-5.424283641314506
1790107227909891000,4.54189111328125,2.3127974885366855,7.775220744761824,-5.510652595734596
1790107227919836200,4.551836181640625,2.3260481613844632,7.705192684289813,-5.602665108999609
1790107227929781200,4.56178125,2.341008560759574,7.631017441010474,-5.697163009339571
1790107227939726000,4.57172607421875,2.3610430485285816,7.55157682454884,-5.793923009392619
1790107227949671200,4.581671142578125,2.3794366372227667,7.466141936108469,-5.896217847219109
1790107227959615200,4.591615234375,2.396888268891722,7.377326173058152,-6.000034195524454
1790107227969560000,4.60156005859375,2.423253713247925,7.284816816186905,-6.101611240470409
1790107227979505400,4.61150537109375,2.4699159495711327,7.1864604868531226,-6.198765208277106
1790107227989450200,4.6214501953125,2.5401915550634264,7.080743857884406,-6.291335355424881
1790107227999394300,4.631394287109375,2.625377729439735,6.969046400940418,-6.380450393682718
1790107228009339100,4.641339111328125,2.7171184400260446,6.854968186339735,-6.465064613389968
1790107228019284200,4.6512841796875,2.8140356764674186,6.740533997908234,-6.543454259493947
1790107228029229000,4.66122900390625,2.9158924151375887,6.626592561429739,-6.614847178578376
1790107228039173000,4.671173095703125,3.013885171855986,6.514358513391017,-6.682068364936113
1790107228049118200,4.6811181640625,3.1010195576906203,6.408577002492547,-6.744195443025231
1790107228059062500,4.6910625,3.1747964493021366,6.313541342014074,-6.799284293040633
1790107228069007600,4.701007568359375,3.2296526596054433,6.22902590650618,-6.851201527282595
1790107228078951700,4.71095166015625,3.2627836525738236,6.153237967333197,-6.903789792653918
1790107228088896500,4.720896484375,3.281951878902316,6.086655078878999,-6.953545464947819
1790107228098841300,4.73084130859375,3.297834215427935,6.028496319898963,-6.996565106984972
1790107228108786700,4.74078662109375,3.311228534530103,5.977565174084901,-7.033836560758948
1790107228118730500,4.75073046875,3.3116344849824904,5.935348080602288,-7.06930651806891
1790107228128675600,4.760675537109375,3.2926188188672065,5.9030900710761545,-7.105108483812213
1790107228138620700,4.77062060546875,3.25800723195225,5.878228017020225,-7.1415838187724345
1790107228148565500,4.7805654296875,3.2188796289175747,5.862224392202497,-7.172415010365843
1790107228158510300,4.79051025390625,3.182382666647434,5.854819084382057,-7.194715689501166
1790107228168454700,4.80045458984375,3.149578713676333,5.854333346691727,-7.209531565839052
1790107228178399500,4.8103994140625,3.1233015321254727,5.86154634681046,-7.215099136838316
1790107228188344600,4.820344482421875,3.0993592232629656,5.878454811513423,-7.2116668243020765
1790107228198289700,4.83028955078125,3.068397098766267,5.906379175749421,-7.202082418876886
1790107228208233500,4.8402333984375,3.027589287559688,5.945569614887237,-7.1870935240596525
1790107228218178600,4.850178466796875,2.975009497755766,5.9946799750149244,-7.168230418157577
1790107228228123400,4.860123291015625,2.90773044373095,6.052489774426817,-7.147226793095469
1790107228238068500,4.870068359375,2.8281930888965725,6.11798369860053,-7.123342644160986
1790107228248012500,4.880012451171875,2.74309722315222,6.190344585934281,-7.094041146352887
1790107228257957400,4.889957275390625,2.6552386146962643,6.269413446474075,-7.0579439970552915
1790107228267902700,4.89990283203125,2.5646096647441388,6.3547828684628005,-7.014978715553879
1790107228277847600,4.90984765625,2.47464853105098,6.445429938593507,-6.964404712614416
1790107228287791600,4.91979150390625,2.386709112443775,6.541430644711852,-6.905339360183477
1790107228297736700,4.92973681640625,2.300048335470259,6.643534928402304,-6.8369321789115665
1790107228307681500,4.939681640625,2.2150445319235326,6.751839235776663,-6.758449593827128
1790107228317626400,4.94962646484375,2.1356926166586576,6.866221986281872,-6.668147976133227
1790107228327570400,4.9595703125,2.0681198403842744,6.985667865395546,-6.564580634152889
1790107228337515500,4.969515625,2.01152526198104,7.107752860841154,-6.450118388670682
1790107228347460600,4.979460693359375,1.963265527333319,7.230923897957801,-6.326905850499868
1790107228357405400,4.989405517578125,1.9209828212685882,7.353928346335888,-6.1967661434143775
1790107228367350500,4.9993505859375,1.8853120806895196,7.475182151654362,-6.061158234050869
1790107228377294600,5.009294677734375,1.858836892348528,7.5928639437049625,-5.921445811977982
1790107228387239400,5.019239501953125,1.8378477342031896,7.705642766144871,-5.780637995883822
1790107228397184500,5.0291845703125,1.8151057410411535,7.814286680737137,-5.640273831903934
1790107228407129600,5.039129638671875,1.786148088234663,7.921217361670732,-5.498579296103119
1790107228417073400,5.049073486328125,1.7592735253125429,8.025749749290943,-5.353756399148702
1790107228427018800,5.059018798828125,1.741788722026348,8.12704271659851,-5.204587581944465
1790107228436963600,5.068963623046875,1.736356906235963,8.225136011081933,-5.050010768216848
1790107228446908400,5.078908447265625,1.740274518071115,8.320393789878487,-4.890082948850095
1790107228456852500,5.0888525390625,1.7589539379693566,8.410708851575851,-4.726143263493478
1790107228466797600,5.098797607421875,1.7986121407493947,8.492325643032789,-4.5624306648910045
1790107228476742400,5.108742431640625,1.8516101559653877,8.563228148251772,-4.406027512519061
1790107228486687500,5.1186875,1.8954454982995985,8.627038649383186,-4.260501727992296
1790107228496631600,5.128631591796875,1.9117855154648422,8.691030352300405,-4.120858864024282
1790107228506576600,5.13857666015625,1.893716920941323,8.758101316532493,-3.9849575246721503
1790107228516521500,5.148521484375,1.8409682043112814,8.82586084755063,-3.858162451839447
1790107228526466600,5.158466552734375,1.7578389624647794,8.892333845889567,-3.7425636035427448
1790107228536410600,5.16841064453125,1.666068002870679,8.952678716737031,-3.639255497020483
1790107228546355500,5.17835546875,1.5935146617047489,9.003944793593883,-3.544019345533848
1790107228556300500,5.188300537109375,1.5491880287222564,9.04703282469213,-3.4527629113331435
1790107228566245600,5.19824560546875,1.520302856630087,9.086322048029302,-3.3612168465360996
1790107228576190500,5.2081904296875,1.4949531651876866,9.124918028405308,-3.2667116396725175
1790107228586134500,5.218134521484375,1.4732804086923599,9.16161665072739,-3.172472682529688
1790107228596079600,5.22807958984375,1.4598349439248441,9.192265471491217,-3.088938659274578
1790107228606024400,5.2380244140625,1.4480585814133287,9.218277280104159,-3.0161019711226222
1790107228615969500,5.247969482421875,1.4347102934099734,9.241594442805647,-2.9504087249845266
1790107228625913600,5.25791357421875,1.4269059032693505,9.261354205286501,-2.89165492272079
1790107228635858400,5.2678583984375,1.4315407234631479,9.2753646104604,-2.844065196289122
1790107228645803500,5.277803466796875,1.4439048227347433,9.28265769007802,-2.813861488944292
1790107228655748600,5.28774853515625,1.458070126209408,9.284418854531646,-2.800712961296737
1790107228665692700,5.297692626953125,1.4677416253961622,9.281233210232854,-2.8062153581053018
1790107228675637500,5.307637451171875,1.472181507539749,9.274409501692652,-2.826375225819647
1790107228685582600,5.31758251953125,1.477251504280418,9.263970525264739,-2.8577935696512458
1790107228695527700,5.327527587890625,1.4945140431180595,9.24746421162188,-2.901936078238487
1790107228705471500,5.337471435546875,1.5248087897472082,9.224035405239462,-2.960160011409223
1790107228715416300,5.347416259765625,1.5591493046358227,9.19615897179842,-3.0282188176348805
1790107228725361700,5.357361572265625,1.582107717027515,9.167597478702664,-3.1020114913374184
1790107228735306500,5.367306396484375,1.5933679467104374,9.139568485048413,-3.1780235946550963
1790107228745250600,5.37725048828125,1.600175142507255,9.111267104193567,-3.2549431682065126
1790107228755195600,5.387195556640625,1.6129738338038324,9.081331984657048,-3.3313825570255515
1790107228765140500,5.397140380859375,1.630060285422206,9.050644000926614,-3.4057547841817137
1790107228775085600,5.40708544921875,1.648033164486289,9.019574908924103,-3.4787419867202636
1790107228785029400,5.417029296875,1.6654573236264287,8.98818900605738,-3.550930440096557
1790107228794974500,5.426974365234375,1.677102168712765,8.957171936503052,-3.623094928075373
1790107228804919600,5.43691943359375,1.6800163025937973,8.927081918665767,-3.6952918570190665
1790107228814864600,5.44686474609375,1.6762535890594124,8.896191105839609,-3.7707203152298927
1790107228824808700,5.45680859375,1.668548129248619,8.863136392977832,-3.851124223765731
1790107228834753500,5.46675341796875,1.6611977664858102,8.827901997989416,-3.934336175459623
1790107228844698400,5.476698486328125,1.6519157050080597,8.79094560151398,-4.020053680233657
1790107228854643500,5.4866435546875,1.6368050835072994,8.754837346300482,-4.104154689721763
1790107228864587500,5.49658740234375,1.6229446081981063,8.718944195142388,-4.185268500092626
1790107228874532400,5.506532470703125,1.6159263999991118,8.683478329485654,-4.261031012563407
1790107228884477700,5.516477783203125,1.6139160830900072,8.65073808940053,-4.327861446037888
1790107228894422500,5.526422607421875,1.6147928659245372,8.620675544092059,-4.387115599039197
1790107228904367400,5.536367431640625,1.6192396162003277,8.591069510379434,-4.4431966749623415
1790107228914311700,5.546311767578125,1.623853247475624,8.560509536942838,-4.500126768930256
1790107228924256500,5.556256591796875,1.6262055096901953,8.527671681702136,-4.561212229011953
1790107228934201600,5.56620166015625,1.6315144297532735,8.490694826960564,-4.627809730513394
1790107228944146700,5.576146728515625,1.6409057968243956,8.448902680891752,-4.700407933734357
1790107228954090500,5.586090576171875,1.6519313409686087,8.401246026703715,-4.781274491345882
1790107228964035600,5.59603564453125,1.6598438676588236,8.348210602086782,-4.87059411226511
1790107228973980400,5.60598046875,1.6636280623726545,8.292391099709272,-4.963763394349813
1790107228983925500,5.615925537109375,1.6727379821538924,8.233259696304797,-5.058239667379856
1790107228993869600,5.62586962890625,1.6932720900081097,8.17079651812911,-5.151825129050016
1790107229003814400,5.635814453125,1.7212372246459124,8.1034151727736,-5.248085362887382
1790107229013759500,5.645759521484375,1.745009729899466,8.031610165756941,-5.349636104348302
1790107229023704600,5.65570458984375,1.764037232583016,7.958015937235951,-5.452390376380086
1790107229033648400,5.6656484375,1.785245294176042,7.882309246605634,-5.554499920767546
1790107229043593700,5.67559375,1.8157763337790964,7.802235592937469,-5.656717017182707
1790107229053538600,5.68553857421875,1.855058250592649,7.7171566783279175,-5.759742507371306
1790107229063484000,5.69548388671875,1.899780897155404,7.62830233683288,-5.862613099259137
1790107229073428000,5.705427978515625,1.9500411579705774,7.537818348309397,-5.9623003849357366
1790107229083372800,5.715372802734375,2.0114120108649134,7.445567350113391,-6.057070672476291
1790107229093318000,5.72531787109375,2.0854386394537983,7.350071086385846,-6.14799188337326
1790107229103263000,5.735262939453125,2.1667316057838497,7.2500097066998475,-6.238031050738692
1790107229113206800,5.745206787109375,2.249340038626641,7.146816458728909,-6.327230844670534
1790107229123152100,5.755152099609375,2.32707984251976,7.044699315556883,-6.413056778255105
1790107229133097000,5.765096923828125,2.389613455583155,6.947656406909227,-6.4953983768552535
1790107229143041800,5.775041748046875,2.4344492071315647,6.855750276628136,-6.575904576721787
1790107229152985900,5.78498583984375,2.474015786105394,6.765303112983704,-6.654343907186389
1790107229162931000,5.794930908203125,2.5161212359070775,6.679053985551,-6.725307787203788
1790107229172875800,5.804875732421875,2.558656309297681,6.598758213564754,-6.788228646019101
1790107229182820900,5.81482080078125,2.599040634395182,6.521506047058105,-6.847286984187364
1790107229192765000,5.824764892578125,2.632181564235687,6.448175437909365,-6.903844153189659
1790107229202710000,5.8347099609375,2.6526231715008617,6.3817018550485365,-6.957576327899098
1790107229212654800,5.84465478515625,2.667808757933974,6.322820042490958,-7.005362161424755
1790107229222600000,5.854599853515625,2.686376972542703,6.270237622338533,-7.045415354871749
1790107229232545000,5.864544921875,2.7031363841637965,6.22427140545547,-7.079680612567067
1790107229242488800,5.87448876953125,2.7109590406134725,6.186618843409419,-7.109630345150828
1790107229252434000,5.884433837890625,2.7162890034645795,6.156698921442032,-7.133526769044995
1790107229262379000,5.89437890625,2.7302128993988037,6.132441263020039,-7.14909024887979
1790107229272323800,5.90432373046875,2.750124345310032,6.115812199780344,-7.155700022408366
1790107229282268000,5.914267822265625,2.7673504976600407,6.109843646764755,-7.154156884619593
1790107229292213000,5.924212890625,2.7766537480562925,6.115815122389793,-7.145444001331925
1790107229302157800,5.93415771484375,2.77810365460366,6.13269962169528,-7.130393731716275
1790107229312103000,5.94410302734375,2.770817296987772,6.159616854715347,-7.10999917846322
1790107229322047000,5.954046875,2.754870955315232,6.1961331062078475,-7.084419916048645
1790107229331991800,5.96399169921875,2.733229616871476,6.241900585648417,-7.052554705232382
1790107229341937000,5.97393701171875,2.7003827015414834,6.297548238590359,-7.015642732420563
1790107229351882000,5.983882080078125,2.645807354006171,6.363600381168723,-6.97672584952712
1790107229361826000,5.993825927734375,2.5674220918163657,6.4390796927839515,-6.936639922854304
1790107229371771000,6.00377099609375,2.476071257330477,6.520990498751401,-6.8931947488814584
1790107229381716000,6.013716064453125,2.3860692071050402,6.606788375285268,-6.843054461184144
1790107229391661000,6.0236611328125,2.302470155789703,6.6955959550291295,-6.785128926438093
1790107229401604900,6.03360498046875,2.217871133651584,6.789612209331989,-6.719570120334625
1790107229411549700,6.0435498046875,2.1256053762778637,6.890247004991769,-6.646553983962535
1790107229421495000,6.0534951171875,2.029374660795927,6.9957105359822505,-6.565979395034909
1790107229431440000,6.06343994140625,1.9391198048532008,7.104325809001923,-6.476014461949467
1790107229441384000,6.073384033203125,1.8571287732563913,7.215476153457164,-6.376389135593175
1790107229451329000,6.0833291015625,1.7793080130815504,7.329512867003679,-6.267590322700142
1790107229461273900,6.09327392578125,1.7060954773545265,7.446456407907605,-6.148977387279272
1790107229471219000,6.103218994140625,1.6410558728195725,7.565152345436811,-6.020448037999868
1790107229481162800,6.113162841796875,1.5915442384146152,7.6824354935586445,-5.883669331291317
1790107229491107800,6.12310791015625,1.557682008562237,7.794944266885518,-5.743073696643114
1790107229501053000,6.133052978515625,1.5306665758647025,7.902876233816146,-5.601072286850214
1790107229510998000,6.142998046875,1.5054465021513401,8.007788560664654,-5.45704375514388
1790107229520942000,6.152942138671875,1.4873828760638832,8.109512320604919,-5.309793338781595
1790107229530887000,6.162886962890625,1.4811527495026588,8.20606364634335,-5.161114935442805
1790107229540831700,6.172831787109375,1.4853107459649442,8.296729421174525,-5.0128334224671125
1790107229550776800,6.18277685546875,1.503062091232836,8.38185685110092,-4.863709905709326
1790107229560721000,6.192720947265625,1.5313513432584702,8.462770462724565,-4.712414597870409
1790107229570665700,6.202665771484375,1.5687290338858961,8.538453772479295,-4.561174235089123
1790107229580611000,6.212611083984375,1.6153765110313891,8.606783212339877,-4.41409479137957
1790107229590556000,6.222555908203125,1.6589926576569676,8.667845876067876,-4.276281480926275
1790107229600500000,6.2325,1.6886793553903698,8.725605991119146,-4.145182865680754
1790107229610445000,6.242445068359375,1.6975947755128145,8.783212376913427,-4.017926312816143
1790107229620390000,6.252389892578125,1.6794063540019093,8.840812917488813,-3.8974382311731572
1790107229630335000,6.2623349609375,1.6347564804144203,8.895847406968473,-3.7897041249021886
1790107229640278800,6.27227880859375,1.5734705293245612,8.946609625956416,-3.6949639402389525
1790107229650223900,6.282223876953125,1.5082355483479797,8.992639555725455,-3.6094390354275703
1790107229660169000,6.2921689453125,1.4465774029448628,9.035231327739357,-3.5273742079421875
1790107229670113800,6.30211376953125,1.394332544183731,9.075851507419348,-3.443130575112998
1790107229680058000,6.31205810546875,1.353640614441782,9.11460238609612,-3.3558988663837312
1790107229690003000,6.3220029296875,1.320690969389677,9.151539493349194,-3.2673391239210963
1790107229699947800,6.33194775390625,1.2922351286254823,9.187008866137266,-3.177955205594003
1790107229709892900,6.341892822265625,1.272419836565107,9.219366828906535,-3.0910528749495745
1790107229719837000,6.3518369140625,1.2617173868954181,9.247245015913247,-3.011126813058555
1790107229729781800,6.36178173828125,1.248620735565573,9.27124490018189,-2.9419974549919363
1790107229739727000,6.37172705078125,1.238779871161282,9.291417919638752,-2.8819071434274313
1790107229749672000,6.381671875,1.2401726406939326,9.306219182929397,-2.833130545298755
1790107229759616000,6.391615966796875,1.257641661889106,9.313435690179467,-2.8015456127285954
1790107229769560800,6.401560791015625,1.286178751195967,9.313889863687754,-2.7870380716875194
1790107229779506000,6.411505859375,1.3193211423411964,9.309051776006818,-2.7877126099482177
1790107229789451000,6.421450927734375,1.355915865897387,9.297646000373362,-2.808142819036543
1790107229799395800,6.431395751953125,1.3916091105692088,9.279923881199956,-2.849002068169415
1790107229809340000,6.44133984375,1.4181282841823994,9.25887700151801,-2.9038749373465773
1790107229819285000,6.451284912109375,1.4388587913915514,9.235131968793272,-2.9685660207048055
1790107229829229800,6.461229736328125,1.4647408361449836,9.207614431792496,-3.040518911759555
1790107229839175000,6.4711748046875,1.4967181290335951,9.176296333464979,-3.1186215576156973
1790107229849119000,6.481118896484375,1.5228468420244752,9.143196027895808,-3.2020775471985337
1790107229859063800,6.491063720703125,1.544302302507311,9.108283119946718,-3.2900878390848636
1790107229869009000,6.5010087890625,1.565685428406298,9.071495065775514,-3.3803798121675848
1790107229878954000,6.5109541015625,1.5877939459703863,9.03311886563003,-3.4716119887098666
1790107229888897800,6.520897705078125,1.6068132653474807,8.994502426987886,-3.561950139021873
1790107229898843000,6.5308427734375,1.6156971212878823,8.957402822649478,-3.6503210809141393
1790107229908788000,6.5407880859375,1.6210260612256824,8.921158373835683,-3.7357162218660114
1790107229918732800,6.55073291015625,1.6351210759431123,8.883412288287282,-3.818607271042466
1790107229928676900,6.5606767578125,1.6595160970091818,8.84475317954719,-3.897017375412583
1790107229938622000,6.5706220703125,1.68609123859331,8.805190399965644,-3.974435253874957
1790107229948567000,6.580567138671875,1.704206448737532,8.76415053356886,-4.056570516248047
1790107229958511900,6.590511962890625,1.7140291929632425,8.721567529383302,-4.143279662407934
1790107229968455700,6.60045556640625,1.718725095694512,8.675496098560094,-4.23699518019855
1790107229978401000,6.610401123046875,1.7176748559892177,8.624891700482367,-4.339493723903596
1790107229988345900,6.620345947265625,1.7145935488477348,8.566413792550563,-4.455012200440466
1790107229998291000,6.630291015625,1.7113707874089479,8.49817729167044,-4.585040556105971
1790107230008235000,6.640235107421875,1.7180084718577562,8.418983927968144,-4.726471472534537
1790107230018179800,6.650179931640625,1.740005930262804,8.334417054533958,-4.8662373783603305
1790107230028125000,6.660125,1.766557106449455,8.253498766735195,-4.992936881864071
1790107230038070000,6.670070068359375,1.7882444759920237,8.179775358876585,-5.105276728364825
1790107230048013800,6.680013916015625,1.806486965777725,8.111096374925971,-5.207407900062203
1790107230057959000,6.689958984375,1.823544629693031,8.04522368056774,-5.302777322539687
1790107230067904500,6.699904541015625,1.8355280590839682,7.980891201388835,-5.3950546242207285
1790107230077849600,6.709849609375,1.8415937888637184,7.917394588512182,-5.485780020284652
1790107230087793700,6.719793701171875,1.8458664977468549,7.851942749914526,-5.577647572121024
1790107230097738500,6.729738525390625,1.851022126944363,7.782906623089313,-5.671901142311095
1790107230107683300,6.739683349609375,1.8593844432286917,7.706753357735276,-5.772262966248393
1790107230117628700,6.749628662109375,1.8771708598099648,7.622723075395822,-5.877134376564622
1790107230127572500,6.759572509765625,1.9043534657679497,7.532593307137489,-5.983632511299848
1790107230137517600,6.769517578125,1.9367099672324954,7.438444366365671,-6.090078039065003
1790107230147462700,6.779462646484375,1.9746463146559894,7.341376323276758,-6.194782860642671
1790107230157407500,6.789407470703125,2.014591371553391,7.241078796747327,-6.299094298988581
1790107230167351600,6.7993515625,2.0579915373407305,7.137575167652964,-6.402351259845495
1790107230177296600,6.809296630859375,2.1103492088265714,7.033386478903889,-6.499868800267577
1790107230187241500,6.819241455078125,2.171759078557044,6.930640390178561,-6.589390081238746
1790107230197186600,6.8291865234375,2.2324309894017875,6.831514830037951,-6.672109280979633
1790107230207130400,6.83913037109375,2.2788718380592763,6.740965375062823,-6.74807549932897
1790107230217075700,6.84907568359375,2.3108975001342595,6.660206077218056,-6.817023947870731
1790107230227020500,6.8590205078125,2.3378728930823502,6.585290244704485,-6.880313055476546
1790107230236965400,6.86896533203125,2.371351092053205,6.510384933584928,-6.939882265776395
1790107230246909700,6.87890966796875,2.417256372529268,6.430574314767122,-6.99821053610444
1790107230256854500,6.8888544921875,2.4741420428335665,6.345912748786807,-7.055380868569016
1790107230266799400,6.89879931640625,2.538323423103988,6.259142812350392,-7.109884027650952
1790107230276744700,6.90874462890625,2.6021187266662715,6.176826932713389,-7.1586413365572685
1790107230286688500,6.9186884765625,2.650344705174863,6.105834411123395,-7.201725276002287
1790107230296633600,6.928633544921875,2.670936534565687,6.049444415381551,-7.241597852185368
1790107230306578700,6.93857861328125,2.6689921224996445,6.0064756267487995,-7.277986677905917
1790107230316523500,6.9485234375,2.6513471602156757,5.9756777529031035,-7.3097192022532225
1790107230326467600,6.958467529296875,2.6212317156761884,5.958367721661925,-7.334670103636384
1790107230336412400,6.968412353515625,2.5868051299393175,5.952599659654497,-7.35155577198565
1790107230346357500,6.978357421875,2.5516128205269575,5.954879879546165,-7.36199942458868
1790107230356302600,6.988302490234375,2.5125749416023493,5.964632627275586,-7.367530755230784
1790107230366246400,6.998246337890625,2.472544836769998,5.982895429196954,-7.366266434383392
1790107230376191700,7.008191650390625,2.4338144163593647,6.007998890793323,-7.358730193659663
1790107230386136600,7.018136474609375,2.3917379003912207,6.040643269288539,-7.345788294500112
1790107230396081400,7.028081298828125,2.345587412982434,6.082686175248027,-7.325949621564149
1790107230406025700,7.038025634765625,2.295279221372306,6.135445705533027,-7.297835287714004
1790107230415970600,7.047970458984375,2.2398272371329364,6.198371825045347,-7.261800097736716
1790107230425915400,7.057915283203125,2.17565944699645,6.26972090498805,-7.219935470953583
1790107230435860700,7.06786083984375,2.0988890726573763,6.348935896000266,-7.173285363459587
1790107230445804500,7.077804443359375,2.0123475381493567,6.434032346266508,-7.122081830444931
1790107230455749600,7.08774951171875,1.9240292032271622,6.522920005509257,-7.06540834158659
1790107230465694500,7.097694580078125,1.8391238916188477,6.614625644782185,-7.002478130421042
1790107230475639600,7.1076396484375,1.7560687379218638,6.709460229730606,-6.93323449832499
1790107230485583600,7.11758349609375,1.6712376605935393,6.807947491967678,-6.8577844128042456
1790107230495528400,7.127528564453125,1.5839125744923948,6.910165757426619,-6.775782421422004
1790107230505473500,7.1374736328125,1.4940360503427683,7.016371046695113,-6.686465138590336
1790107230515418600,7.147418701171875,1.4011905933849513,7.125022560071945,-6.59098699504137
1790107230525362400,7.157362548828125,1.3076185757182537,7.235466802084446,-6.489110674887895
1790107230535307500,7.1673076171875,1.2158138599850237,7.348375972905755,-6.379149247956276
1790107230545252600,7.177252685546875,1.1239710772637277,7.46412650463283,-6.260500072178244
1790107230555197400,7.187197509765625,1.0339515644468367,7.5804481142461295,-6.1349909475028515
1790107230565141500,7.1971416015625,0.954860272879526,7.695869560149312,-6.0026832487285136
1790107230575086600,7.207086669921875,0.8936141423434019,7.809559067693352,-5.863668745791911
1790107230585031400,7.217031494140625,0.8520476947892457,7.920372727540135,-5.719448490905761
1790107230594976500,7.2269765625,0.8307955017935484,8.028576497149468,-5.569750096869468
1790107230604920600,7.236920654296875,0.8275341619100421,8.135220177835226,-5.413293460744619
1790107230614865700,7.24686572265625,0.8408153760265559,8.237913075068592,-5.253589221000671
1790107230624810500,7.256810546875,0.869269609355554,8.33282832403779,-5.09693150934577
1790107230634755600,7.266755615234375,0.9134284114904702,8.417641865709424,-4.947658647245168
1790107230644699600,7.27669970703125,0.9708204238817095,8.493437988188862,-4.8051428581893445
1790107230654644500,7.28664453125,1.0392802851889282,8.561300979581475,-4.66844656906724
1790107230664589600,7.296589599609375,1.1176120636258273,8.622654150688648,-4.535542657965421
1790107230674534700,7.30653466796875,1.2020547261584549,8.678067994874715,-4.4064258641868825
1790107230684478500,7.316478515625,1.2850848184794186,8.730956119975447,-4.276605598314106
1790107230694423600,7.326423583984375,1.3607998385466635,8.782250253883003,-4.146165446977317
1790107230704368600,7.33636865234375,1.4220590477600692,8.83082460743785,-4.02053181913942
1790107230714313500,7.3463134765625,1.4594745861798524,8.876750492310524,-3.9043057788550852
1790107230724257500,7.356257568359375,1.4713222603619098,8.919780071219801,-3.800409643311798
1790107230734202600,7.36620263671875,1.46044416186437,8.961413227334617,-3.7054765664249656
1790107230744147500,7.3761474609375,1.431988905622065,9.003442689290642,-3.613558745706081
1790107230754092500,7.386092529296875,1.4004352449730038,9.045887746310234,-3.5186744763970372
1790107230764036400,7.396036376953125,1.3756333966717122,9.087058545610308,-3.421016066199541
1790107230773981700,7.405981689453125,1.3546759488388895,9.125389153048395,-3.3260335972130295
1790107230783926500,7.415926513671875,1.3301695763528347,9.16087080079615,-3.2372011752888556
1790107230793871600,7.42587158203125,1.2991194813117384,9.192830119636655,-3.1582486346051093
1790107230803815700,7.435815673828125,1.2718003894925116,9.219317144545911,-3.0914570718362926
1790107230813760500,7.445760498046875,1.2497365878529847,9.23970819066763,-3.0391338871419427
1790107230823705300,7.455705322265625,1.2290256621271372,9.254920957368611,-3.001052286028862
1790107230833650700,7.465650634765625,1.2098867349583655,9.26648747652173,-2.9730051721960304
1790107230843594500,7.475594482421875,1.1970539952617139,9.27374022412896,-2.9555405349150297
1790107230853539600,7.48553955078125,1.1928832123830915,9.275850932672618,-2.950594895206392
1790107230863484700,7.495484619140625,1.1901911968201397,9.272944105315208,-2.9607968480080364
1790107230873429500,7.505429443359375,1.1779275622483343,9.2660753885895,-2.9870877658233046
1790107230883373600,7.51537353515625,1.1704033042233437,9.253516351267695,-3.0286902345389124
1790107230893318400,7.525318359375,1.1745794208642095,9.234919202825427,-3.083350337748229
1790107230903263500,7.535263427734375,1.1834134463135153,9.212074333810806,-3.1476310867398976
1790107230913208600,7.54520849609375,1.1912979159530253,9.186748753896355,-3.21789032561928
1790107230923152400,7.55515234375,1.197764481618628,9.160028504753113,-3.290841580061614
1790107230933097700,7.56509765625,1.2084599900908768,9.131537738806008,-3.3652675832316277
1790107230943042600,7.57504248046875,1.223978461740166,9.101492144632338,-3.440216441231966
1790107230952986400,7.584986328125,1.2345432565048335,9.071927027451991,-3.5137522175639866
1790107230962931700,7.594931640625,1.2381184846431017,9.042951108336448,-3.5864319615885614
1790107230972876500,7.60487646484375,1.2423369791209697,9.012508039277792,-3.660833707100153
1790107230982821400,7.6148212890625,1.2601486762739718,8.978476005816459,-3.737565941385925
1790107230992765400,7.624765380859375,1.2896164705596864,8.942044509997963,-3.814071088917553
1790107231002710500,7.63471044921875,1.3159424596883356,8.906510839802026,-3.8875130494862793
1790107231012655600,7.644655517578125,1.332750971148163,8.872612661853433,-3.958646440851688
1790107231022600400,7.654600341796875,1.3502765448361636,8.836523695862292,-4.032736343935132
1790107231032544500,7.66454443359375,1.370427790852636,8.797273050969839,-4.1109982720062135
1790107231042489600,7.674489501953125,1.3881906804278492,8.756179408559202,-4.191975011993945
1790107231052434400,7.684434326171875,1.4092371217183768,8.712855230617523,-4.274410426357388
1790107231062379000,7.69437890625,1.442377759297937,8.664840849032998,-4.360098120515048
1790107231072322800,7.70432275390625,1.4845917840406297,8.61284002816081,-4.448070126217603
1790107231082267600,7.714267578125,1.5252422127284109,8.559348676469922,-4.536693289305269
1790107231092212700,7.724212646484375,1.5562842705935238,8.506036188477276,-4.62555026114881
1790107231102157800,7.73415771484375,1.5807541104614733,8.452398706313968,-4.714718490898609
1790107231112102000,7.744101806640625,1.6053326714009046,8.39787859609723,-4.803013737206161
1790107231122046700,7.754046630859375,1.6317105368472635,8.343098958161473,-4.88882388869971
1790107231131991800,7.76399169921875,1.6628937567487359,8.287084809994697,-4.972867907303572
1790107231141937000,7.77393701171875,1.7008271815627813,8.227535473439097,-5.058183553278446
1790107231151880700,7.783880615234375,1.743918427531421,8.161987188729643,-5.148894336295127
1790107231161825800,7.79382568359375,1.791516191139072,8.088727306729554,-5.247224362143874
1790107231171771000,7.80377099609375,1.8458971851460635,8.006511964857578,-5.353394580098986
1790107231181715700,7.8137158203125,1.9026308797590434,7.9166464004933825,-5.4659933697968714
1790107231191659800,7.82365966796875,1.9546974593438207,7.823601037049293,-5.5803965785682195
1790107231201604900,7.83360498046875,2.0034017228886483,7.72886348273456,-5.693984379303455
1790107231211549700,7.8435498046875,2.050159236279875,7.631530651229619,-5.807495607671141
1790107231221494800,7.853494873046875,2.0967456308878956,7.529768897366523,-5.922552896437049
1790107231231438800,7.86343896484375,2.1509382627159357,7.423795078766346,-6.035818625611067
1790107231241383700,7.8733837890625,2.2208580405078826,7.3151312904298305,-6.142232004672288
1790107231251328800,7.883328857421875,2.3076875981770453,7.205304303532839,-6.239276666885614
1790107231261273900,7.89327392578125,2.4058003280133007,7.094172079256176,-6.328920112931728
1790107231271218000,7.903218017578125,2.510991764064133,6.979643198278546,-6.41481911175251
1790107231281162800,7.913162841796875,2.6200302309319374,6.862241392213106,-6.497343665704131
1790107231291107800,7.92310791015625,2.7335768228739497,6.743482326319813,-6.574450286260247
1790107231301053000,7.933052978515625,2.85102568295151,6.626164106884598,-6.643491673782467
1790107231310996700,7.942996826171875,2.966457942509651,6.513164335170388,-6.704415221300721
1790107231320941600,7.952941650390625,3.079749975168705,6.40653760561943,-6.755870683249831
1790107231330887000,7.962886962890625,3.1898969878003,6.30836306259334,-6.797022777849436
1790107231340831700,7.972831787109375,3.2868872894778844,6.220684194618463,-6.831533534738421
1790107231350775800,7.98277587890625,3.3602366033270954,6.146292093718052,-6.8631111607849595
1790107231360721000,7.992720947265625,3.405967257888615,6.087224987721442,-6.8931474026083945
1790107231370665700,8.002665771484375,3.430948846670985,6.044074412781,-6.918682825881242
1790107231380610800,8.01261083984375,3.4385409092351793,6.01742255269885,-6.938117009669542
1790107231390554600,8.0225546875,3.4244551007375117,6.004754209783673,-6.9560355281978845
1790107231400499700,8.032499755859375,3.387688089354336,5.9997442726671695,-6.978323932373523
1790107231410444800,8.04244482421875,3.34444077604115,5.995954232734442,-7.0024009735316035
1790107231420390000,8.052389892578125,3.3117198251783844,5.995819792699813,-7.018052131649851
1790107231430334000,8.062333984375,3.2915865532100197,6.003662907415628,-7.020814582100511
1790107231440278800,8.07227880859375,3.2741365289762614,6.021811143046617,-7.013427978980541
1790107231450223600,8.0822236328125,3.2498163267120717,6.051462769466638,-6.999204807838797
1790107231460169000,8.0921689453125,3.2196465216368435,6.091786596548557,-6.978138054412603
1790107231470112800,8.10211279296875,3.1825086311146613,6.142156016826629,-6.950966554370522
1790107231480057600,8.1120576171875,3.1334517547398804,6.202532451856136,-6.919568961066007
1790107231490003000,8.1220029296875,3.069148793916404,6.272504398226737,-6.885229469090699
1790107231499947800,8.13194775390625,2.991627455079555,6.3503475163638585,-6.8478913798213
1790107231509891800,8.141891845703125,2.9118463546171784,6.434397672447562,-6.8036804821729655
1790107231519836700,8.151836669921876,2.838385397087037,6.524056900584697,-6.74911945542395
1790107231529781800,8.16178173828125,2.7693974933177232,6.619815030118823,-6.684225250709057
1790107231539725800,8.171725830078126,2.703338628737628,6.7203843593269585,-6.610505349981785
1790107231549670700,8.181670654296875,2.641931681616604,6.824152776837349,-6.528517387124896
1790107231559615700,8.19161572265625,2.5811241616934537,6.9300576218545435,-6.4406906351119275
1790107231569560800,8.201560791015625,2.5134081775560975,7.039869411182403,-6.3477089845538135
1790107231579504600,8.211504638671874,2.4347950979597863,7.155590132293105,-6.248174843612313
1790107231589450000,8.221449951171875,2.351291323712468,7.276309100082516,-6.139800393611193
1790107231599394800,8.231394775390624,2.270990729420632,7.399006089946627,-6.022269408208132
1790107231609339600,8.241339599609375,2.1965268784582612,7.520643926146626,-5.897928742790222
1790107231619283700,8.25128369140625,2.1235541428364813,7.639228219994902,-5.7708817410230635
1790107231629228800,8.261228759765626,2.0474100837022067,7.75622495239079,-5.640874135884642
1790107231639173600,8.271173583984375,1.9694348636180161,7.873524467125534,-5.504484136232733
1790107231649118700,8.28111865234375,1.9008065869413315,7.988047502884268,-5.361756750252843
1790107231659062800,8.291062744140625,1.8523988221250474,8.095620573374628,-5.215355059674382
1790107231669008000,8.3010078125,1.822613632453233,8.19601103888452,-5.066939106664061
1790107231678952700,8.31095263671875,1.8035330844081938,8.290427106159925,-4.9179760411649935
1790107231688897800,8.320897705078124,1.7893416235789656,8.377963350793719,-4.772668575564026
1790107231698841900,8.330841796875,1.7783114032596348,8.459080960556864,-4.631625781670213
1790107231708786700,8.34078662109375,1.7722358827382325,8.534532215121388,-4.4934778324350715
1790107231718731800,8.350731689453125,1.7778686279281972,8.603265559607744,-4.358140556706488
1790107231728676900,8.3606767578125,1.7913519404880702,8.670094531777501,-4.21792603033036
1790107231738620700,8.37062060546875,1.7974046646557746,8.738048708584904,-4.072615642119944
1790107231748565800,8.380565673828125,1.7811891506530344,8.809453318107128,-3.9231700538009404
1790107231758510800,8.3905107421875,1.7375014000959694,8.88183057205379,-3.7768461046338078
1790107231768455700,8.40045556640625,1.676176139909029,8.948699291712044,-3.6443943212136625
1790107231778399700,8.410399658203126,1.6160554332062602,9.005129619464277,-3.5307758330792187
1790107231788344800,8.4203447265625,1.567079659243673,9.05163827266097,-3.4325650496959685
1790107231798289700,8.43028955078125,1.5290160321786999,9.09130568166077,-3.343752501516044
1790107231808234800,8.44023486328125,1.4973838994659483,9.127873955601453,-3.257320710992813
1790107231818178800,8.4501787109375,1.4629333483316003,9.16389394800961,-3.1706901830270886
1790107231828124000,8.4601240234375,1.425010006520152,9.196650554707645,-3.092146807666123
1790107231838068700,8.47006884765625,1.3839647332958875,9.223166805711388,-3.0312080625787376
1790107231848013800,8.480013916015626,1.3451758606962858,9.242368349787592,-2.9898984393298624
1790107231857958000,8.4899580078125,1.320410252752155,9.253940714159608,-2.9650398924052714
1790107231867902700,8.49990283203125,1.3079745495490729,9.260888925862313,-2.9488126879647374
1790107231877847600,8.50984765625,1.3086563943333922,9.264261032643914,-2.9379055095031856
1790107231887793000,8.51979296875,1.322345896989852,9.263571296814083,-2.9339430356130003
1790107231897736700,8.52973681640625,1.3424533038645983,9.258760097140073,-2.9399940062150356
1790107231907681800,8.539681884765624,1.3582837640725076,9.249978824791311,-2.960291821095347
1790107231917627000,8.549626953125,1.364209939251095,9.237194746541977,-2.9972555240944025
1790107231927571000,8.559571044921874,1.3745936783604322,9.218861217471957,-3.048522477734089
1790107231937515800,8.569515869140625,1.3996366419412194,9.19494784244299,-3.1087513209864497
1790107231947460900,8.5794609375,1.4233577092684804,9.169626938703656,-3.1721281068757174
1790107231957405700,8.58940576171875,1.4397161388732491,9.14427271721661,-3.2372596274778247
1790107231967349800,8.599349853515625,1.457393980513513,9.117077251777053,-3.3053435681447385
1790107231977294600,8.609294677734376,1.4873241316139698,9.086067781007289,-3.3766251358091828
1790107231987240000,8.619239990234375,1.5171876472190022,9.053515756970643,-3.4499805871382354
1790107231997184800,8.629184814453126,1.5388452061451972,9.020904111701249,-3.525004848462343
1790107232007128800,8.63912890625,1.5546591536097227,8.987197656932473,-3.603288111582398
1790107232017074000,8.649073974609376,1.5711675130791962,8.950535274967551,-3.686424075430631
1790107232027018800,8.659018798828125,1.5893974356442688,8.911002306002377,-3.7733553399085995
1790107232036963600,8.668963623046874,1.6069772237375377,8.870691922923921,-3.859903450287878
1790107232046907600,8.67890771484375,1.6262075555168092,8.830793627777695,-3.9424493392884727
1790107232056852700,8.688852783203124,1.6505394482187925,8.791594420811533,-4.019197355665266
1790107232066797600,8.698797607421875,1.6788408290736376,8.753784037855267,-4.089392881658673
1790107232076742400,8.708742431640625,1.7113757558450102,8.717275969669222,-4.153392183360457
1790107232086686700,8.718686767578125,1.7464340636141598,8.681579802387953,-4.2131358734443785
1790107232096631600,8.728631591796875,1.7796061192452906,8.645716461846233,-4.272585256756842
1790107232106576400,8.738576416015626,1.8069015379279851,8.60689076436758,-4.339003894560038
1790107232116521500,8.748521484375,1.8271425080545245,8.562229784864186,-4.418162186948955
1790107232126465500,8.758465576171876,1.8436536440029738,8.511620126089452,-4.508175927612185
1790107232136410400,8.768410400390625,1.8605727762304245,8.457322134190797,-4.602427159714699
1790107232146355700,8.778355712890624,1.877344170550257,8.40100987986028,-4.697765602532029
1790107232156300500,8.788300537109375,1.8941512207053601,8.342814296001196,-4.7937502342984075
1790107232166244600,8.79824462890625,1.9122659924581646,8.282159628552199,-4.890756025806069
1790107232176189400,8.808189453125,1.9371691091768442,8.218145713803171,-4.987970199367403
1790107232186134500,8.818134521484374,1.9698969281718133,8.149502385687828,-5.086797653344274
1790107232196079600,8.82807958984375,2.0079450654067097,8.075910495254396,-5.188277667656541
1790107232206023400,8.8380234375,2.050727245426178,7.996459941920637,-5.293537200507521
1790107232215968500,8.847968505859376,2.0942679887279865,7.911731155923008,-5.4026785432279105
1790107232225913600,8.85791357421875,2.1358521911345423,7.823381256818771,-5.513910136225819
1790107232235857400,8.867857421875,2.1721536308325824,7.732176552805304,-5.627216781932115
1790107232245802800,8.877802734375,2.200148722217232,7.637306312021613,-5.744674117577076
1790107232255747600,8.88774755859375,2.231425465621054,7.53704911750257,-5.863786819213629
1790107232265692400,8.8976923828125,2.270678740862012,7.430621709915995,-5.983333236092329
1790107232275636500,8.907636474609374,2.3169809117011724,7.319225866267085,-6.101712362757325
1790107232285581600,8.91758154296875,2.377010725250095,7.203619126924872,-6.2151493568450205
1790107232295526400,8.9275263671875,2.4536788082584735,7.084741403087973,-6.321097456482052
1790107232305471500,8.937471435546875,2.539024264849722,6.9646338451951735,-6.420092668241262
1790107232315415600,8.94741552734375,2.62411019372195,6.845456846150755,-6.513380608269572
1790107232325360600,8.957360595703125,2.7094889680609104,6.728636054843664,-6.5995835584729905
1790107232335305500,8.967305419921875,2.798326358421147,6.6156082260787485,-6.676337127807736
1790107232345250600,8.97725048828125,2.8886957806542513,6.5062032639861105,-6.745009097495675
1790107232355194600,8.987194580078125,2.973362315070629,6.399867626336216,-6.809644359013438
1790107232365139500,8.997139404296876,3.0554180824667214,6.299274916252494,-6.866873143666982
1790107232375084500,9.00708447265625,3.1379256852835415,6.2080409861445425,-6.912599706575274
1790107232385029600,9.017029541015624,3.2177383499279615,6.127888422021269,-6.947336673435569
1790107232394973400,9.026973388671875,3.28629020036757,6.058667001757025,-6.975903427228332
1790107232404918500,9.03691845703125,3.337276583500206,6.001621756976842,-7.000963049682975
1790107232414863600,9.046863525390625,3.3764705297693607,5.958472351080179,-7.019003733286261
1790107232424808400,9.056808349609375,3.4209643360123034,5.9280701985538,-7.02320176949799
1790107232434752500,9.06675244140625,3.4753464990630745,5.909760050359368,-7.011924004158377
1790107232444697600,9.076697509765625,3.5229008619204163,5.904326334872842,-6.992744671913981
1790107232454642400,9.086642333984376,3.5478479639112948,5.91197480379939,-6.973643665602803
1790107232464586500,9.09658642578125,3.5518875946909185,5.927218550160527,-6.958632558953761
1790107232474531300,9.10653125,3.558927576330304,5.941672022926807,-6.942692062500119
1790107232484476700,9.1164765625,3.5843951950639483,5.9558314811825745,-6.917411490771174
1790107232494421500,9.12642138671875,3.6244460504233835,5.975473170241713,-6.879498231962323
1790107232504365600,9.136365478515625,3.65605494839102,6.007458208045363,-6.834772955051064
1790107232514310700,9.146310546875,3.6497166852802034,6.057299805057048,-6.794046976909041
1790107232524255500,9.15625537109375,3.5900621347844597,6.126583769163489,-6.763639563685655
1790107232534200300,9.166200439453124,3.485949433881044,6.209935421589017,-6.742051416733861
1790107232544144600,9.17614453125,3.3642458389684555,6.300072788631915,-6.720216601544618
1790107232554089500,9.18608935546875,3.2459108437061306,6.392174733746051,-6.691377460551261
1790107232564034600,9.19603466796875,3.132581986168027,6.485012007397413,-6.655967124474048
1790107232573979600,9.205979736328125,3.0134120013862846,6.581656856638193,-6.616003362876176
1790107232583923500,9.21592333984375,2.8825670686408875,6.68565499125123,-6.5698693882107735
1790107232593868500,9.22586865234375,2.74153070448786,6.79820818824172,-6.514504059341549
1790107232603813600,9.235813720703124,2.5976541484728455,6.9176417923957105,-6.447390425011515
1790107232613758500,9.245758544921875,2.459799336965382,7.041445866718888,-6.366929817852378
1790107232623702500,9.25570263671875,2.33018935284242,7.167903085899352,-6.273893806758522
1790107232633647400,9.2656474609375,2.2084503943555056,7.295975339061021,-6.169428639155626
1790107232643592700,9.2755927734375,2.0929789718307554,7.425918646791577,-6.053559449484944
1790107232653537500,9.28553759765625,1.9880241210147738,7.5560238670855755,-5.926603633132577
1790107232663481600,9.295481689453124,1.8974562536001205,7.683497569832205,-5.790846086165309
1790107232673426700,9.3054267578125,1.826876550594717,7.806217940571904,-5.6476434838891025
1790107232683371500,9.31537158203125,1.7785691774129866,7.9235852598458525,-5.497623602813482
1790107232693315600,9.325315673828126,1.7493332921870053,8.036383956030011,-5.341045386135578
1790107232703260400,9.335260498046875,1.7414391779363154,8.142780968478322,-5.1800470149278635
1790107232713205500,9.34520556640625,1.7643981748498976,8.241899514356255,-5.012822316551208
1790107232723150600,9.355150634765625,1.8084763860292732,8.332647706773876,-4.844253802350163
1790107232733094400,9.365094482421876,1.8551796850152313,8.414352761036158,-4.682665064033865
1790107232743039500,9.37503955078125,1.9052666350901126,8.487855804142356,-4.527322234369814
1790107232752984600,9.384984619140624,1.9575548946015535,8.557206403744221,-4.371792649962008
1790107232762929400,9.394929443359375,1.9916941878296435,8.627841782459615,-4.214719927765429
1790107232772873700,9.404873779296874,1.984966048618406,8.706008141201734,-4.054101203525066
1790107232782818600,9.414818603515625,1.931937930525094,8.791241954112053,-3.8925644876569505
1790107232792763400,9.424763427734375,1.854217854245752,8.873944787240028,-3.7397032456755634
1790107232802708700,9.434708740234376,1.7799949724324047,8.945230738818646,-3.603448855102062
1790107232812652500,9.444652587890625,1.7205499730341136,9.003061581018567,-3.4863963008657097
1790107232822597400,9.454597412109376,1.6738101414300501,9.051781480523942,-3.381423768262565
1790107232832542500,9.46454248046875,1.6355005767799913,9.094940823292731,-3.282921600717306
1790107232842487600,9.474487548828124,1.6013395101115107,9.132990860223769,-3.1928970463991164
1790107232852431600,9.484431640625,1.5687784259855746,9.164905755400657,-3.1167037412956353
1790107232862376400,9.49437646484375,1.5409157288089395,9.189346369174123,-3.0580867171540853
1790107232872321500,9.504321533203125,1.5188693166956304,9.206270615968108,-3.0179496448159218
1790107232882266600,9.5142666015625,1.500458630736172,9.216887871572375,-2.994664923079312
1790107232892210400,9.52421044921875,1.4758578579649329,9.222936504086851,-2.988252425688505
1790107232902155500,9.534155517578125,1.4450694825999437,9.228032950443028,-2.9875670737728477
1790107232912100600,9.5441005859375,1.4265294711723924,9.230879572045803,-2.987690700152516
1790107232922044400,9.55404443359375,1.431148801536113,9.228613965201378,-2.99247618086338
1790107232931989500,9.563989501953126,1.4451134678721427,9.222029910635948,-3.006024521483481
1790107232941934600,9.5739345703125,1.4706857160240412,9.20982918523252,-3.0309210623309015
1790107232951879400,9.58387939453125,1.5060517745681106,9.192534936082362,-3.06585501306802
1790107232961823500,9.593823486328125,1.546566448047012,9.171584502512216,-3.1081448795259
1790107232971768600,9.6037685546875,1.5914695657432079,9.147327428612112,-3.1565792400881647
1790107232981713400,9.61371337890625,1.6340579767562449,9.120994717481732,-3.210562466949224
1790107232991658500,9.623658447265624,1.6703214225314555,9.092991442790627,-3.2707720209792255
1790107233001602300,9.633602294921875,1.7013270939089358,9.06279095031619,-3.337915465925634
1790107233011547600,9.643547607421874,1.7233121312238275,9.031488049557804,-3.410689317974448
1790107233021492500,9.653492431640625,1.7404053048439323,8.9990470846802,-3.486907757519185
1790107233031437600,9.6634375,1.7565011379897593,8.965338291823864,-3.564796176102757
1790107233041381600,9.673381591796876,1.7699023252241313,8.93186739937663,-3.6413723430439826
1790107233051326500,9.683326416015625,1.7797484503254293,8.900005111169815,-3.713862994237244
1790107233061271600,9.693271484375,1.7962519874893128,8.868249790468811,-3.781269474034011
1790107233071216400,9.70321630859375,1.8230492473915219,8.835946188235283,-3.8435587569475174
1790107233081161200,9.7131611328125,1.8540987579107284,8.803948290950059,-3.901689751137793
1790107233091106300,9.723106201171875,1.8848602452687917,8.772752942219377,-3.9568274087309834
1790107233101051400,9.733051513671874,1.9158361060298978,8.740841554173826,-4.012189230468869
1790107233110995200,9.7429951171875,1.9458685484610496,8.706844592025876,-4.071220096108317
1790107233120940300,9.752940185546874,1.9734756634414194,8.670568579030036,-4.134852902585267
1790107233130885400,9.762885498046876,1.9979200766071676,8.631137901395558,-4.205014818570017
1790107233140830200,9.772830322265625,2.020457340977341,8.58644944936335,-4.284974198208749
1790107233150774300,9.782774169921876,2.0437661742419,8.53464210523665,-4.37644281385541
1790107233160719400,9.79271923828125,2.0668008667401967,8.476611941072344,-4.477250627994537
1790107233170664200,9.802664306640626,2.0876935787737367,8.41530085554123,-4.581992274451255
1790107233180609300,9.812609375,2.107122501865029,8.351352407243848,-4.688855150845646
1790107233190553000,9.822552978515626,2.127543066342175,8.28301478407681,-4.799543430747091
1790107233200498400,9.83249853515625,2.153201239211857,8.209229416897893,-4.913516139146686
1790107233210443300,9.842443359375,2.1898436013020572,8.129755482688546,-5.028125099623203
1790107233220388000,9.85238818359375,2.240777961986512,8.044287276500462,-5.1418619534403085
1790107233230332400,9.86233251953125,2.304511452358961,7.953867000862956,-5.253153167670965
1790107233240277200,9.87227734375,2.3758938500493763,7.8582012257874005,-5.364160888785124
1790107233250222000,9.88222216796875,2.4467628913901747,7.758350858503579,-5.476471509191393
1790107233260166100,9.892166259765625,2.5124571604415773,7.655221907940507,-5.590662536516786
1790107233270111200,9.902111328125,2.5754081221342084,7.54920951089561,-5.705008462142944
1790107233280056300,9.912056396484376,2.636161573782563,7.440359844598174,-5.819114149272441
1790107233290001400,9.92200146484375,2.6939158436149357,7.329278473725915,-5.932531269615888
1790107233299945500,9.931945556640626,2.7480364331200717,7.216451720491051,-6.044958209878206
1790107233309890300,9.941890380859375,2.801253936305642,7.101147178965807,-6.156060623538494
1790107233319835100,9.951835205078124,2.8615342174842953,6.981821711361408,-6.263879193222523
1790107233329780200,9.9617802734375,2.9355145227134227,6.858436739233135,-6.365140011826157
1790107233339724300,9.971724365234374,3.0298695074513553,6.731724668508767,-6.455555611288547
1790107233349669000,9.981669189453125,3.1421926950782537,6.604380729621648,-6.532932865479588
1790107233359614500,9.991614501953125,3.2573996214479206,6.481124936830997,-6.59960343221724
1790107233369559300,10.001559326171876,3.363103390935063,6.362649948576093,-6.661576196527481
1790107233379503400,10.01150341796875,3.4561537228152153,6.2484314487218855,-6.721794226124882
1790107233389448200,10.0214482421875,3.5443978234574196,6.140519940057397,-6.775077488023042
1790107233399393300,10.031393310546875,3.631860710594058,6.043586337003111,-6.81579352929294
1790107233409337300,10.04133740234375,3.710970195405185,5.960885257440805,-6.8459455064505335
1790107233419282200,10.0512822265625,3.7701428076028822,5.892217963927984,-6.873004193767905
1790107233429227300,10.061227294921874,3.8048295055806634,5.837041435629129,-6.900914529478549
1790107233439172400,10.07117236328125,3.8215491697132586,5.79390196660459,-6.9279743858397005
1790107233449116200,10.0811162109375,3.830429810783267,5.763345500299335,-6.9485261754810805
1790107233459061500,10.0910615234375,3.828398597216606,5.749636123898625,-6.960994027388096
1790107233469006300,10.10100634765625,3.803131177230179,5.752864438295364,-6.972170670440793
1790107233478951200,10.110951171875,3.7571170295521616,5.767037925076484,-6.985396647238731
1790107233488895200,10.120895263671875,3.704511228524148,5.789200657045841,-6.9951552401870485
1790107233498840300,10.13084033203125,3.6521789837405083,5.820592989653348,-6.996620052042603
1790107233508785200,10.14078515625,3.6003938514456153,5.861352870064973,-6.989431017321348
1790107233518730200,10.150730224609376,3.5512726776629684,5.911177515941858,-6.9725798357635735
1790107233528674300,10.16067431640625,3.5006764628916978,5.969193067058921,-6.9486956868290894
1790107233538619400,10.170619384765626,3.4429704161152244,6.034604573646187,-6.920973567166924
1790107233548564200,10.180564208984375,3.3783412920773026,6.106283323934674,-6.889883432376385
1790107233558508300,10.19050830078125,3.3121450648531314,6.183029294484854,-6.853481747174262
1790107233568453400,10.200453369140625,3.246162188118696,6.26323037392497,-6.81210168903768
1790107233578398200,10.210398193359374,3.180521548950672,6.347378729686141,-6.765014943692088
1790107233588343300,10.22034326171875,3.111238461627066,6.437494469419121,-6.71187664322257
1790107233598287400,10.230287353515624,3.034172757603228,6.534795736742019,-6.652865651327371
1790107233608232200,10.240232177734375,2.9495211284950376,6.638315732449293,-6.5881316056102515
1790107233618177300,10.25017724609375,2.8605452064469454,6.746618870779871,-6.51696548101902
1790107233628122400,10.260122314453126,2.7714573484569787,6.859051656261086,-6.4376102047532795
1790107233638066200,10.270066162109375,2.6840134582817554,6.975675463691354,-6.348733066904544
1790107233648011300,10.28001123046875,2.6026354440167543,7.095670793381333,-6.2488517199605695
1790107233657956400,10.289956298828125,2.5301757724836467,7.217782676833868,-6.137769764566421
1790107233667901200,10.299901123046874,2.4667004946559667,7.341320209175348,-6.015877076822519
1790107233677845200,10.30984521484375,2.4127241359271108,7.464976983982324,-5.8841503928065295
1790107233687790300,10.319790283203124,2.3722785821616648,7.584335769334435,-5.746348772791028
1790107233697735400,10.3297353515625,2.343511483491212,7.696773230990767,-5.606963682976365
1790107233707679200,10.33967919921875,2.325634758277982,7.803975714603066,-5.464408730953932
1790107233717624000,10.3496240234375,2.3153875050298867,7.909251029545068,-5.3153673395216465
1790107233727569400,10.3595693359375,2.3074735170349476,8.013170838224887,-5.1609161980003115
1790107233737514200,10.36951416015625,2.3040743761159477,8.114543300509453,-5.001583129656314
1790107233747458300,10.379458251953125,2.3020564604222775,8.21270264596641,-4.839674073344469
1790107233757403400,10.3894033203125,2.297415648879111,8.307216912919282,-4.677865554797649
1790107233767348200,10.39934814453125,2.2850777069620785,8.397327391955256,-4.520365254838764
1790107233777293300,10.409293212890624,2.2696119884133337,8.48197200680077,-4.367538499648869
1790107233787237000,10.419237060546875,2.2525632384568453,8.561775026834011,-4.218096126200258
1790107233797182200,10.42918212890625,2.209487482318282,8.643362592196464,-4.071955424645543
1790107233807127300,10.439127197265625,2.1355890101537107,8.72815216847062,-3.9279797921702264
1790107233817072400,10.449072265625,2.05290999629274,8.809876511955261,-3.7870857590973377
1790107233827016400,10.459016357421875,1.9810443451300261,8.883774691858887,-3.650258537071943
1790107233836961300,10.468961181640625,1.9197082712881266,8.950595480722189,-3.5173756687581537
1790107233846906000,10.478906005859375,1.8641512192390859,9.011957419657707,-3.38820363766104
1790107233856850400,10.488850341796875,1.8174686707802117,9.06680135500133,-3.2650109732344745
1790107233866795300,10.498795166015626,1.7801321889460087,9.112814918157458,-3.1556454663693905
1790107233876740000,10.508739990234375,1.7398051469936966,9.151277627542614,-3.0655478468149897
1790107233886685400,10.518685546875,1.6909208507068454,9.18306509694755,-2.9970863050073384
1790107233896629200,10.528629150390625,1.640996397717297,9.20811478253007,-2.9475682408615946
1790107233906574300,10.53857421875,1.6002020305141806,9.226656401392818,-2.9117922863423824
1790107233916519200,10.548519287109375,1.5733791977792977,9.240125539296866,-2.8835616326361895
1790107233926464300,10.55846435546875,1.560873205818981,9.249495425188542,-2.860221381320059
1790107233936408300,10.568408203125,1.5570269056543706,9.255207373094558,-2.843794562654197
1790107233946353200,10.578353271484374,1.5626313015326856,9.255835734125972,-2.838673566378653
1790107233956298200,10.58829833984375,1.5745140470281243,9.250605432257055,-2.8491353391602634
1790107233966243300,10.598243408203125,1.5875827874377368,9.239825679567456,-2.8767326633989807
1790107233976187100,10.608187255859375,1.6001326185397804,9.223794582220911,-2.9208848165974017
1790107233986132500,10.618132568359375,1.616347548020631,9.202582867366075,-2.9783012327775356
1790107233996077300,10.628077392578126,1.638779013928771,9.177124600982665,-3.0438749441891906
1790107234006021400,10.638021484375,1.658837174834311,9.150120274201035,-3.1135128362998366
1790107234015966200,10.64796630859375,1.673485731781274,9.122357238006591,-3.1862884419143196
1790107234025911300,10.657911376953125,1.6933021928854286,9.091229109293222,-3.263841929455101
1790107234035856100,10.667856201171874,1.7218926198147235,9.055545216971636,-3.3470267008811234
1790107234045800200,10.67780029296875,1.7513070764780043,9.016602615115046,-3.4357243905097246
1790107234055745300,10.687745361328124,1.7743223336234688,8.976019844835996,-3.5289132540777324
1790107234065689600,10.697689697265625,1.794509819997102,8.93332402792573,-3.62572089266479
1790107234075634400,10.707634521484374,1.8153455411463975,8.88828310919404,-3.724692431287467
1790107234085578800,10.717578857421875,1.8322294559299945,8.842960450911521,-3.8230063827842473
1790107234095523600,10.727523681640625,1.8439369909889995,8.798709805774688,-3.918283743064105
1790107234105468400,10.737468505859376,1.859534957615286,8.753806834208964,-4.010411699402332
1790107234115412500,10.74741259765625,1.88498986299783,8.70726778587401,-4.098868273751437
1790107234125357600,10.757357666015626,1.9189624213568865,8.66021143566668,-4.18195046158582
1790107234135302700,10.767302734375,1.9529054613605141,8.61617823267281,-4.256526979142428
1790107234145247500,10.77724755859375,1.979442024499923,8.57622966864407,-4.324403706799448
1790107234155191600,10.787191650390625,2.0009429315596816,8.536033851855994,-4.393484549549222
1790107234165136600,10.79713671875,2.0208228132888673,8.490755032715201,-4.471437850062549
1790107234175081500,10.80708154296875,2.038613175392896,8.438297115725279,-4.561751742716133
1790107234185026600,10.817026611328124,2.0550750653721392,8.37809019204378,-4.664189496144652
1790107234194970600,10.826970703125,2.071835353776067,8.31233089493215,-4.773156651341915
1790107234204915500,10.83691552734375,2.0914586303956804,8.243490582939982,-4.8827320015653966
1790107234214860800,10.84686083984375,2.116165201628953,8.17133486278951,-4.9921466082692145
1790107234224805600,10.8568056640625,2.147885451016575,8.094048794013261,-5.1032683111518615
1790107234234749400,10.86674951171875,2.1898713660918174,8.011591460078954,-5.21433331541121
1790107234244694500,10.876694580078125,2.2425936331063507,7.924680653867125,-5.323589224421978
1790107234254639600,10.8866396484375,2.297949463494867,7.835911068046093,-5.430313569128513
1790107234264583700,10.896583740234375,2.349395865354687,7.7474197146445505,-5.534278385993838
1790107234274528500,10.906528564453126,2.401077391144633,7.656601964122056,-5.6375248254567385
1790107234284473600,10.9164736328125,2.4523890607088803,7.560624638879299,-5.743962754437327
1790107234294418700,10.926418701171874,2.4996453174024817,7.460206116318703,-5.853841763782501
1790107234304362500,10.936362548828125,2.545557758271694,7.3551014817684885,-5.96598696449399
1790107234314307600,10.9463076171875,2.598418410843611,7.244580667388439,-6.077388653361797
1790107234324252700,10.956252685546875,2.662933845373988,7.129785828951,-6.184281924894452
1790107234334197500,10.966197509765625,2.7428148990795016,7.010667282095551,-6.2847355187684295
1790107234344141600,10.9761416015625,2.838468399195373,6.8873407621562475,-6.377935195991396
1790107234354086700,10.986086669921875,2.941901008880138,6.762180597048998,-6.464406441742182
1790107234364031500,10.996031494140626,3.0480566137880083,6.636628802275657,-6.544840745416283
1790107234373975600,11.0059755859375,3.15355696965754,6.512772705504298,-6.618854660654067
1790107234383920600,11.015920654296876,3.2530914028599858,6.391818175393342,-6.688230979219079
1790107234393865500,11.025865478515625,3.3467166120186445,6.275787073159218,-6.75161945554614
1790107234403810600,11.035810546875,3.438545293149352,6.167157771614193,-6.805362151649594
1790107234413754400,11.04575439453125,3.5297222323730586,6.066316055205464,-6.849180250588059
1790107234423699700,11.05569970703125,3.6101807937055823,5.974898000702262,-6.887493906891345
1790107234433644500,11.06564453125,3.670501699155569,5.896517706948519,-6.9230679090976714
1790107234443589600,11.075589599609375,3.710724111689627,5.831698905557394,-6.956451123261451
1790107234453533700,11.08553369140625,3.7344557004109022,5.776937387800216,-6.989363212782144
1790107234463478500,11.095478515625,3.7499642351880667,5.7315901795983315,-7.01833445572257
1790107234473423400,11.10542333984375,3.761248722529411,5.6996489809364075,-7.038282434251904
1790107234483367700,11.11536767578125,3.76057038487643,5.682426627978682,-7.052554705232382
1790107234493312500,11.1253125,3.738087919433415,5.680170373484492,-7.066312596949935
1790107234503257600,11.135257568359375,3.7004715977445244,5.689128171443939,-7.078893261581659
1790107234513202700,11.14520263671875,3.661609367647767,5.70635812318623,-7.085229478865862
1790107234523146800,11.155146728515625,3.6243922744095323,5.733174233919382,-7.082718957349657
1790107234533091600,11.165091552734374,3.5852766540735956,5.771110289081931,-7.07180476462543
1790107234543036400,11.175036376953125,3.5389115010008214,5.821524717545509,-7.053816687992215
1790107234552981500,11.1849814453125,3.4795091717004776,5.883098253405094,-7.0322501683503384
1790107234562925600,11.194925537109375,3.409698845632374,5.952965570357441,-7.0076055564373725
1790107234572870400,11.204870361328124,3.3353537987440824,6.02988222129941,-6.977557624176145
1790107234582815700,11.214815673828125,3.2555791280224917,6.114018302100897,-6.941927507868408
1790107234592759600,11.224759521484375,3.166037973307073,6.205718680676817,-6.9018602858960625
1790107234602704600,11.23470458984375,3.06386909994781,6.305467925673723,-6.857417917579412
1790107234612649700,11.244649658203125,2.953903289102018,6.4124652421027415,-6.806258223706483
1790107234622594600,11.254594482421876,2.8451939080581066,6.525258677589893,-6.745090930560231
1790107234632538600,11.26453857421875,2.7434733629882335,6.6419695787817234,-6.6729276116251945
1790107234642483500,11.2744833984375,2.647715817975998,6.761456374427675,-6.591106822028756
1790107234652428500,11.284428466796875,2.5570827763706445,6.882963277724385,-6.500501837474108
1790107234662373600,11.29437353515625,2.4700343152537942,7.007637120619416,-6.400181514590979
1790107234672317400,11.3043173828125,2.3848593929238615,7.135946689668297,-6.289761237975955
1790107234682262800,11.3142626953125,2.2999600726649163,7.2678539909482,-6.169186062571406
1790107234692207600,11.32420751953125,2.221540908205509,7.401094586658477,-6.038125733509659
1790107234702152400,11.33415234375,2.1530048398569224,7.532457698059082,-5.898901387214661
1790107234712096500,11.344096435546875,2.0945307313174006,7.659734416928887,-5.754284241965412
1790107234722041600,11.35404150390625,2.0495289755523203,7.781982493981719,-5.604514536258578
1790107234731986400,11.363986328125,2.015629336299002,7.899238169574737,-5.450654346367717
1790107234741930500,11.373930419921875,1.9895340871863065,8.012826554831863,-5.292139024147391
1790107234751875600,11.38387548828125,1.9774800767771898,8.12196965111792,-5.127725876060128
1790107234761820700,11.393820556640625,1.9856915864139795,8.226642908513545,-4.954772863164544
1790107234771765500,11.403765625,2.0127083342857657,8.32747585709393,-4.7720574579283594
1790107234781709600,11.41370947265625,2.051272458218783,8.420367491281032,-4.589125195071101
1790107234791654700,11.423654541015624,2.0992940001964566,8.504403034317493,-4.408908913174272
1790107234801599500,11.433599609375,2.147409357937425,8.581885502448678,-4.232053632143139
1790107234811544600,11.443544677734375,2.184086645210534,8.655703602853416,-4.059426490201056
1790107234821488600,11.453488525390625,2.1780605167888103,8.732693903553486,-3.8944165452644226
1790107234831433500,11.46343359375,2.1135306153416633,8.817726056411862,-3.735116210146248
1790107234841378800,11.47337890625,2.0212169271729885,8.903300061061978,-3.5799864387109874
1790107234851322600,11.483322509765625,1.9355000069208441,8.978337474128603,-3.4371064925178882
1790107234861267500,11.493267333984376,1.870775021293014,9.039994596618413,-3.3089360396787524
1790107234871212500,11.503212646484375,1.8285183264523743,9.09188611189723,-3.1881831696197387
1790107234881157600,11.51315771484375,1.7965186756014824,9.136353030133247,-3.077328300979733
1790107234891101700,11.523101806640625,1.76450514235571,9.174760794460774,-2.9800492454886434
1790107234901046500,11.533046630859374,1.7290069818645715,9.208099584960937,-2.896865350845456
1790107234910991600,11.54299169921875,1.68989589157328,9.235842162889242,-2.8308783824577928
1790107234920936700,11.552936767578124,1.6482405236266553,9.258181420469283,-2.7820450857058168
1790107234930880500,11.562880615234375,1.6121657322913407,9.275628229832648,-2.7448116258546706
1790107234940825300,11.572825439453124,1.593193466926366,9.287608005961776,-2.7152275117129085
1790107234950770700,11.582770751953126,1.5958528953939675,9.293132322341203,-2.694687120248377
1790107234960714500,11.592714599609375,1.6126704669430851,9.293032369098066,-2.685003930623829
1790107234970659600,11.60265966796875,1.625074898225069,9.2884736828804,-2.693287190322578
1790107234980604700,11.612604736328125,1.6238015172883866,9.279685980790854,-2.724161928796768
1790107234990549500,11.622549560546876,1.6176181524783373,9.266639452213049,-2.7718402102947235
1790107235000493600,11.63249365234375,1.6260316144280134,9.246148452848196,-2.834635396903753
1790107235010438700,11.642438720703124,1.648389138317108,9.217340291514992,-2.914420296758413
1790107235020383500,11.652383544921875,1.6685931374341247,9.183189015588164,-3.009185323601961
1790107235030328600,11.66232861328125,1.6876713473916052,9.144204328155517,-3.115395873567462
1790107235040272400,11.6722724609375,1.724054327893257,9.097064391317963,-3.231324684470892
1790107235050217700,11.6822177734375,1.7854760341919957,9.04011383908391,-3.355412544171512
1790107235060162600,11.69216259765625,1.8232183203481136,8.98341755387187,-3.4848896956950424
1790107235070107000,11.70210693359375,1.804824147132039,8.93610109142363,-3.613733810012042
1790107235080052000,11.712052001953126,1.7910760461561381,8.885956127551198,-3.7419507323414085
1790107235089997000,11.7219970703125,1.8304462257750331,8.82272664117813,-3.8703210916668174
1790107235099942000,11.73194189453125,1.9064923774927853,8.751880834582447,-3.992524452795088
1790107235109886000,11.741885986328125,1.9892606770724057,8.682508023148774,-4.10210886310786
1790107235119830800,11.751830810546876,2.0270812891617416,8.62994196960926,-4.19350324447453
1790107235129776000,11.761776123046875,2.034294581541419,8.591483351877331,-4.268307725568116
1790107235139721000,11.771720947265624,2.057298294379562,8.551372290763258,-4.337270787157118
1790107235149664800,11.781664794921875,2.0973305911689994,8.505729314485192,-4.407286864930391
1790107235159610000,11.791610107421874,2.154995575282723,8.45280436450541,-4.480682648269832
1790107235169555000,11.801554931640625,2.2209062635637817,8.392257833606005,-4.561575217105448
1790107235179499000,11.8114990234375,2.2711166938878593,8.325369824725389,-4.658390746738016
1790107235189444000,11.821444091796875,2.3001376211889086,8.25333860773742,-4.770967616865039
1790107235199389000,11.831388916015625,2.3311913694918154,8.17739752382934,-4.8852948377907275
1790107235209334000,11.841333984375,2.373366815789789,8.09979405966699,-4.993079505205154
1790107235219277800,11.85127783203125,2.4166389712832865,8.019510562640429,-5.100753113460541
1790107235229223000,11.861222900390626,2.466148121470213,7.930653298535942,-5.214711501073837
1790107235239168000,11.87116796875,2.532331489212811,7.832844081690907,-5.329564207178354
1790107235249112800,11.88111279296875,2.602524092596769,7.732448355484008,-5.441188598886132
1790107235259057200,11.89105712890625,2.6605878667697307,7.631793101558089,-5.55404399369359
1790107235269002000,11.901001953125,2.69854262663275,7.528246802365779,-5.675712809553742
1790107235278946800,11.91094677734375,2.7351921491160986,7.418387082242965,-5.801435869240761
1790107235288891000,11.920890869140624,2.795641941642761,7.3060033966004845,-5.914142210966348
1790107235298836000,11.9308359375,2.8784882748946545,7.194526888930797,-6.01028027972877
1790107235308780800,11.94078076171875,2.9646456323906776,7.085323002368211,-6.097493868279456
1790107235318726100,11.95072607421875,3.0391938006356356,6.985368590188026,-6.175621064054965
1790107235328670000,11.960669921875,3.124930886892974,6.889907397773862,-6.239742530831694
1790107235338615000,11.970614990234376,3.2353952949106692,6.788638395863771,-6.294200681728125
1790107235348560000,11.980559814453125,3.3594249946832653,6.680821579745412,-6.344388900220394
1790107235358505000,11.9905048828125,3.478264140075445,6.573864010804892,-6.39189708584845
1790107235368449000,12.000448974609375,3.5856440260812636,6.469945955690741,-6.438426781833171
1790107235378393900,12.010393798828124,3.676404201197624,6.368583430278301,-6.488108804368973
1790107235388339000,12.0203388671875,3.752280110915005,6.264514568516612,-6.545735063907504
1790107235398283000,12.030282958984374,3.833502934618294,6.154375446930527,-6.602898966631293
1790107235408227800,12.040227783203125,3.9280768228039142,6.042559916564822,-6.650421180784702
1790107235418173000,12.0501728515625,4.021249319759011,5.93692921231389,-6.689753074219823
1790107235428118000,12.060117919921876,4.097532641233504,5.845912139827012,-6.7235349323123685
1790107235438062000,12.07006201171875,4.148102552519738,5.772687913662195,-6.755718707558512
1790107235448007000,12.0800068359375,4.166355125308036,5.716812881705165,-6.7919000280082225
1790107235457952000,12.089951904296875,4.156104364928603,5.676354614588618,-6.8319964760750524
1790107235467896800,12.099896728515626,4.148425793124735,5.644250334319472,-6.863193578371405
1790107235477841000,12.1098408203125,4.159743305952847,5.617623608678579,-6.8781707827508445
1790107235487786000,12.119785888671874,4.158344545070827,5.610377875334024,-6.884929024839401
1790107235497731000,12.12973095703125,4.097947944036126,5.639532658147812,-6.897309782984852
1790107235507675000,12.1396748046875,3.9632966047450897,5.698959245106577,-6.927088835176825
1790107235517620000,12.149619873046875,3.7980896759316325,5.758183002969623,-6.970528748452663
1790107235527565000,12.15956494140625,3.688825291353464,5.790977019068598,-7.0019666737675665
1790107235537510000,12.169510009765625,3.6527810412868855,5.8176610278546805,-6.9987424510240555
1790107235547454000,12.179453857421874,3.631155192673206,5.860367366158962,-6.974326387169957
1790107235557399000,12.18939892578125,3.5796664129763838,5.918080719459057,-6.952171838507056
1790107235567343900,12.19934375,3.5005113354578614,5.983679857572913,-6.936308498942852
1790107235577288000,12.209287841796876,3.440501687914133,6.0468912237674,-6.91146865671873
1790107235587232800,12.219232666015625,3.429064055837691,6.105220078617334,-6.8657268962413065
1790107235597177900,12.229177734375,3.445511040508747,6.1657759618669745,-6.803093037673831
1790107235607123000,12.239123046875,3.448834631973505,6.236349965783953,-6.736750972238182
1790107235617066800,12.249066650390626,3.4107869331300256,6.322144335186481,-6.67588178525567
1790107235627012000,12.25901220703125,3.334721930581331,6.422424910581111,-6.618344373044371
1790107235636957000,12.26895703125,3.243258283370733,6.532697887679934,-6.55557081374526
1790107235646901800,12.27890185546875,3.1525343486115336,6.650986413452029,-6.480454490223527
1790107235656846000,12.28884619140625,3.0637378747835755,6.775684806266427,-6.393276557508111
1790107235666791000,12.298791015625,2.9758009403944015,6.90384064605832,-6.2969794987916945
1790107235676736000,12.308736083984375,2.888269371935725,7.032755195263028,-6.194241008850931
1790107235686681000,12.31868115234375,2.7961653809949754,7.1626271913230415,-6.0867573702096935
1790107235696625000,12.328625,2.699107859300077,7.292723059266805,-5.9750640049189325
1790107235706570000,12.338570068359376,2.6181971702858804,7.416579156038165,-5.857452940016985
1790107235716515000,12.34851513671875,2.558859138393402,7.535028425329923,-5.7311395132213825
1790107235726459100,12.358459228515626,2.501027419410646,7.654986930140852,-5.596107357919216
1790107235736404000,12.368404052734375,2.414363865958154,7.7789546705931425,-5.4616024413615465
1790107235746348800,12.378348876953124,2.2906321262188256,7.905558020246028,-5.331561518475413
1790107235756294000,12.3882939453125,2.1949299646556377,8.024647341006993,-5.192078813505172
1790107235766238000,12.398238037109374,2.1789203484885395,8.13170661675632,-5.029712661075592
1790107235776182800,12.408182861328125,2.1970817358620462,8.232121632185578,-4.85545031914711
1790107235786128100,12.418128173828125,2.184058880420774,8.333791616111993,-4.684890046606958
1790107235796072000,12.428072021484375,2.146351957838982,8.433976329916716,-4.5201331996485585
1790107235806017000,12.43801708984375,2.1288015419706703,8.523758892172575,-4.357080818520486
1790107235815961900,12.4479619140625,2.1151471106275914,8.610864344173669,-4.189219575805962
1790107235825907000,12.457906982421875,2.084408858014643,8.70146582159698,-4.013743766434491
1790107235835851000,12.46785107421875,2.048612883620709,8.79068548927307,-3.833727098762989
1790107235845795800,12.4777958984375,2.0100344389013944,8.87429550037384,-3.657465107449889
1790107235855741000,12.487740966796874,1.960085728253424,8.949113717731834,-3.498829958242178
1790107235865686000,12.49768603515625,1.8869465500235556,9.015405514284968,-3.366341057682037
1790107235875629800,12.5076298828125,1.8011732234090565,9.073821462896465,-3.2545272808820007
1790107235885575200,12.5175751953125,1.7355381371989844,9.12284531378448,-3.151503544259071
1790107235895520000,12.52752001953125,1.6942904732704163,9.16312822433412,-3.055629679390788
1790107235905463800,12.5374638671875,1.6612890980310737,9.19709011516869,-2.970531475558877
1790107235915409000,12.547408935546875,1.6303754888512194,9.226566385021805,-2.895297955398261
1790107235925354000,12.55735400390625,1.6064133062444625,9.25076383768916,-2.8307559251219034
1790107235935298800,12.567298828125,1.580843396180123,9.270201528608798,-2.7811358619064093
1790107235945243000,12.577242919921876,1.5472624674871562,9.28525062918067,-2.7496377308368682
1790107235955188000,12.58718798828125,1.5234773950129747,9.292931831333041,-2.7369419153928756
1790107235965133000,12.597133056640626,1.5413020977780223,9.29032427918315,-2.73580472805649
1790107235975078000,12.607077880859375,1.5675167354866861,9.284847893598675,-2.7395085510104895
1790107235985022000,12.61702197265625,1.5534357492946087,9.283844854035973,-2.7509014671623704
1790107235994967000,12.626967041015625,1.515199688272178,9.282762904018163,-2.7757597218260166
1790107236004911900,12.636911865234374,1.4997840924754737,9.274090937262773,-2.81287715408206
1790107236014856000,12.64685595703125,1.5387142732419072,9.254053526884316,-2.8574869879201055
1790107236024801000,12.656801025390624,1.587437972139567,9.230331290513277,-2.9071275094017386
1790107236034745900,12.666745849609375,1.6006429061494767,9.211261263862252,-2.959893177166581
1790107236044691000,12.67669091796875,1.5831211318537592,9.195326028105615,-3.018297435340285
1790107236054635000,12.686635009765626,1.5696763977386057,9.173580644765496,-3.090613022227585
1790107236064579800,12.696579833984375,1.5902338864684105,9.139897570872307,-3.1786507866427303
1790107236074525000,12.70652490234375,1.6193885231517255,9.100086954009532,-3.276642666578293
1790107236084468700,12.71646875,1.6050408488474786,9.066109281083941,-3.37637817531079
1790107236094414000,12.7264140625,1.5470936867915093,9.039324734532833,-3.473833171890676
1790107236104359000,12.73635888671875,1.4912263997495174,9.009909254956245,-3.5732559614121913
1790107236114303700,12.7463037109375,1.4807950221061705,8.970981850668787,-3.6741128753900525
1790107236124247800,12.756247802734375,1.516052944100648,8.923807427039742,-3.7732805211067197
1790107236134193000,12.76619287109375,1.554279068250954,8.874829168859124,-3.8719510309562084
1790107236144138000,12.776137939453125,1.565538859542459,8.829346936100722,-3.970148078075051
1790107236154083000,12.7860830078125,1.5789697112627326,8.784116047754884,-4.064054150001705
1790107236164027000,12.79602685546875,1.611275067061931,8.735375689983368,-4.155404399965703
1790107236173972000,12.805971923828125,1.6574255544707177,8.681717749553918,-4.24866019129008
1790107236183916800,12.815916748046876,1.7069287133082747,8.622029881310462,-4.349412475849688
1790107236193861000,12.825861083984375,1.7587673293560742,8.556398594492673,-4.45703815331012
1790107236203806000,12.835805908203126,1.8098872757405042,8.484203126853703,-4.573070716848969
1790107236213750800,12.845750732421875,1.8658393184565008,8.405410745167732,-4.694474744293093
1790107236223696000,12.85569580078125,1.9305669344328342,8.3240996586591,-4.811722528840601
1790107236233640000,12.865639892578125,1.991092422544211,8.246587379911542,-4.919321026033162
