time,seconds_elapsed,z,y,x
1790266727141971200,0.05397119140625,0.1899789422750473,-1.11650812625885,-0.9266818761825562
1790266727159223800,0.071223876953125,0.2724456787109375,-1.5722131729125977,-1.284037709236145
1790266727176476400,0.088476318359375,0.3799578845500946,-1.6033673286437988,-1.760512351989746
1790266727193729000,0.10572900390625,0.3488037884235382,-0.938746452331543,-2.1368050575256348
1790266727210981400,0.1229814453125,0.11362084746360779,0.08628465235233307,-2.321897029876709
1790266727228234000,0.14023388671875,-0.12767073512077332,1.5224277973175049,-2.307847023010254
1790266727245486600,0.157486572265625,0.033597562462091446,2.905425548553467,-1.9016220569610596
1790266727262739200,0.1747392578125,0.4043924808502197,3.735590934753418,-1.0867284536361694
1790266727279991600,0.191991455078125,0.9450078010559082,2.522413492202759,-0.12644900381565094
1790266727297244200,0.209244140625,1.2119556665420532,1.2676970958709717,0.7745765447616577
1790266727314496800,0.226496826171875,1.0781763792037964,1.1632392406463623,1.823431372642517
1790266727331749400,0.243749267578125,0.7525854110717773,0.2787070572376251,2.3377795219421387
1790266727349002000,0.261001953125,0.5619956254959106,-1.4072797298431396,2.0573925971984863
1790266727366254600,0.278254638671875,0.143553227186203,-2.4243695735931396,1.5302162170410156
1790266727383507000,0.2955068359375,-0.5296197533607483,-3.1647377014160156,1.173471212387085
1790266727400759600,0.312759521484375,-0.794124186038971,-3.3235626220703125,0.8545998334884644
1790266727418012200,0.33001220703125,-0.6511818766593933,-3.5135414600372314,0.500298261642456
1790266727435264800,0.3472646484375,-0.1844811588525772,-1.8434371948242188,-0.27366742491722107
1790266727452517400,0.364517333984375,0.30970844626426697,-0.9075923562049866,-0.42821621894836426
1790266727469769700,0.381769775390625,0.4618137776851654,-1.0780236721038818,-0.3298669755458832
1790266727487022300,0.399022216796875,0.7886264324188232,-1.1397209167480469,-0.0977383628487587
1790266727504275000,0.41627490234375,1.2626575231552124,-0.9607375860214233,0.14660754799842834
1790266727521527600,0.433527587890625,1.5589269399642944,-1.0273218154907227,0.49480047821998596
1790266727538780200,0.4507802734375,1.2773182392120361,-1.5825979709625244,0.9853248596191406
1790266727556032800,0.46803271484375,0.8881973624229431,-2.7615668773651123,1.4294235706329346
1790266727573285400,0.485285400390625,1.1227694749832153,-3.450622320175171,1.5638138055801392
1790266727590538000,0.5025380859375,1.646891474723816,-3.856236696243286,1.2986985445022583
1790266727607790300,0.519790283203125,1.8289291858673096,-4.239859580993652,1.0225876569747925
1790266727625043000,0.53704296875,1.922391414642334,-4.6589131355285645,0.7703005075454712
1790266727642295600,0.554295654296875,2.118479013442993,-4.841561317443848,0.4251618981361389
1790266727659548200,0.571548095703125,2.509432554244995,-5.459146022796631,0.1441640853881836
1790266727676800800,0.58880078125,2.8900012969970703,-6.475013732910156,-0.025045456364750862
1790266727694053400,0.606053466796875,3.2791221141815186,-7.568461894989014,0.13011419773101807
1790266727711306000,0.623305908203125,3.671908140182495,-8.579442977905273,0.7440332770347595
1790266727728558600,0.64055859375,3.341430425643921,-7.974076271057129,1.3836086988449097
1790266727745811000,0.65781103515625,3.4361143112182617,-6.658884048461914,1.700036644935608
1790266727763063600,0.6750634765625,4.045757293701172,-6.281980514526367,1.905287265777588
1790266727780316200,0.692316162109375,4.7824602127075195,-6.375442981719971,2.1172573566436768
1790266727797568800,0.70956884765625,5.386605739593506,-5.817723274230957,2.27424955368042
1790266727814821400,0.7268212890625,5.630951404571533,-4.316828727722168,2.2455389499664307
1790266727832074000,0.744073974609375,5.464796543121338,-2.6693263053894043,2.120922565460205
1790266727849326600,0.76132666015625,4.929068088531494,-1.7499748468399048,2.3035709857940674
1790266727866579200,0.7785791015625,4.575988292694092,-1.824500322341919,2.7513349056243896
1790266727883831800,0.795831787109375,4.199084281921387,-1.6992731094360352,3.116021156311035
1790266727901084200,0.813084228515625,3.526522397994995,-0.9039271473884583,3.0298893451690674
1790266727918336800,0.830336669921875,2.866177558898926,-0.1415679156780243,2.547916889190674
1790266727935589400,0.84758935546875,2.29624080657959,0.34956738352775574,1.7189735174179077
1790266727952842000,0.864842041015625,1.6914845705032349,0.19868376851081848,1.453247308731079
1790266727970094600,0.882094482421875,0.6206386089324951,0.2750418782234192,1.1545344591140747
1790266727987347200,0.89934716796875,-0.5351175665855408,0.1455385386943817,0.6554579138755798
1790266728004599800,0.916599853515625,-1.0091485977172852,-0.8691078424453735,0.1594357043504715
1790266728021852400,0.933852294921875,-1.5460987091064453,-1.6870558261871338,-0.2877173125743866
1790266728039105000,0.95110498046875,-2.8289148807525635,-1.3168717622756958,-1.1392627954483032
1790266728056357600,0.968357666015625,-3.2070400714874268,-1.274111270904541,-2.397644281387329
1790266728073610000,0.98560986328125,-2.828303813934326,-2.0157010555267334,-2.782489061355591
1790266728090862600,1.002862548828125,-3.44283390045166,-1.8147265911102295,-2.797149896621704
1790266728108115200,1.020115234375,-4.715265274047852,-0.8972076177597046,-2.911992311477661
1790266728125367800,1.037367919921875,-4.397615432739258,-1.440266489982605,-2.651763916015625
1790266728142620400,1.054620361328125,-3.265683174133301,-2.7096433639526367,-1.5460987091064453
1790266728159873000,1.071873046875,-2.7818782329559326,-4.360199928283691,-0.7055488228797913
1790266728177125600,1.089125732421875,-2.964526891708374,-5.165319919586182,-1.6139047145843506
1790266728194378200,1.106378173828125,-2.942535638809204,-4.784750938415527,-2.7012441158294678
1790266728211630800,1.123630859375,-2.8435754776000977,-3.0303473472595215,-2.6389358043670654
1790266728228883500,1.140883544921875,-2.9602506160736084,-1.9454516172409058,-2.34999680519104
1790266728246135800,1.1581357421875,-2.8686211109161377,-2.50317120552063,-2.0586142539978027
1790266728263388400,1.175388427734375,-2.408639907836914,-2.246608018875122,-1.415373682975769
1790266728280641000,1.19264111328125,-1.6071852445602417,-0.6821832656860352,-1.0439679622650146
1790266728297893600,1.2098935546875,-0.8069523572921753,0.5077813267707825,-0.5076286196708679
1790266728315146200,1.227146240234375,-0.5247328281402588,1.5596904754638672,-0.23212862014770508
1790266728332398800,1.24439892578125,-0.5723803043365479,2.000123977661133,0.11545344442129135
1790266728349651500,1.2616513671875,-0.5852084755897522,1.7319543361663818,0.22357651591300964
1790266728366904000,1.278904052734375,-0.04764745384454727,0.1614210158586502,0.03787361457943916
1790266728384156700,1.29615673828125,0.025045456364750862,0.17852523922920227,0.3787361681461334
1790266728401409300,1.3134091796875,-0.3280344009399414,0.1357647031545639,0.1588248461484909
1790266728418662000,1.330661865234375,-0.13744457066059113,-0.016340631991624832,0.12400554865598679
1790266728435914500,1.34791455078125,0.38728827238082886,-0.14767655730247498,0.6695078015327454
1790266728453166800,1.365166748046875,0.5259546041488647,-0.4598284661769867,0.7354812026023865
1790266728470419500,1.38241943359375,0.46975502371788025,-0.12812888622283936,0.4862483739852905
1790266728487844600,1.3998447265625,0.5320632457733154,0.31291547417640686,0.007330377586185932
1790266728505441000,1.41744091796875,0.3170388340950012,0.314748078584671,-0.4056142270565033
1790266728523038500,1.43503857421875,0.2107483446598053,0.6763800382614136,-0.5626064538955688
1790266728540636200,1.45263623046875,0.5852084755897522,0.366060733795166,-0.046425722539424896
1790266728558233900,1.47023388671875,0.1288924664258957,0.014202605932950974,0.5968148708343506
1790266728575658800,1.48765869140625,-0.4728093445301056,-0.19654574990272522,0.5986474752426147
1790266728593256000,1.505255859375,-0.574212908744812,-0.7872520089149475,0.14660754799842834
1790266728610853400,1.522853271484375,-0.1844811588525772,-1.3242021799087524,0.010384701192378998
1790266728628450600,1.540450439453125,1.2339468002319336,-1.6082541942596436,0.6420188546180725
1790266728646047700,1.5580478515625,2.783099889755249,-1.8642065525054932,1.598022222518921
1790266728663645200,1.575645263671875,4.103789806365967,-2.470184564590454,2.0555598735809326
1790266728681182700,1.5931826171875,5.3157453536987305,-2.6998696327209473,2.2424845695495605
1790266728698540800,1.610540771484375,6.109258651733398,-1.733481526374817,2.5717406272888184
1790266728715899000,1.62789892578125,6.555190086364746,-1.4701987504959106,2.9846854209899902
1790266728733257000,1.645257080078125,5.981587886810303,-0.32849252223968506,2.4404048919677734
1790266728750615000,1.662614990234375,4.1618218421936035,1.299462080001831,0.4465421438217163
1790266728767973400,1.679973388671875,2.3909246921539307,-0.6595812439918518,-0.19730933010578156
1790266728785278500,1.697278564453125,1.3457350730895996,-1.7707443237304688,-0.25411975383758545
1790266728802531000,1.714531005859375,1.4489712715148926,-2.8342597484588623,0.347582072019577
1790266728819783700,1.73178369140625,0.9107993841171265,-2.5581488609313965,0.6548470258712769
1790266728837036000,1.7490361328125,-0.23212862014770508,-1.271667718887329,0.6047561168670654
1790266728854288600,1.76628857421875,-1.1154390573501587,0.009926552884280682,0.5241219997406006
1790266728871541000,1.783541015625,-1.0311397314071655,0.14737112820148468,0.3585776388645172
1790266728888793900,1.8007939453125,-0.5595521330833435,0.14981459081172943,-0.3695732057094574
1790266728906046500,1.81804638671875,-0.1637117564678192,0.901178240776062,-1.4917317628860474
1790266728923299000,1.835299072265625,0.3237583339214325,3.0422592163085938,-2.196058988571167
1790266728940552000,1.852552001953125,0.6811142563819885,4.193739414215088,-1.8655810356140137
1790266728957804500,1.869804443359375,0.8680388331413269,2.078925609588623,0.009773836471140385
1790266728975057400,1.887057373046875,0.7464767694473267,-0.46776971220970154,1.2956441640853882
1790266728992309800,1.904309814453125,0.3023780584335327,-2.1354305744171143,0.4618137776851654
1790266729009562400,1.921562255859375,0.08063415437936783,-3.2123851776123047,-0.6035344004631042
1790266729026814700,1.938814697265625,0.29626941680908203,-3.8971645832061768,-0.9114102721214294
1790266729044067300,1.9560673828125,0.38667741417884827,-3.781100273132324,-1.388495683670044
1790266729061319700,1.973319580078125,-0.34086254239082336,-3.3345580101013184,-1.6988149881362915
1790266729078572300,1.990572265625,-1.3249657154083252,-1.7292054891586304,-1.700036644935608
1790266729095825200,2.0078251953125,-1.6865977048873901,0.4381427764892578,-1.7733404636383057
1790266729113077800,2.025077880859375,-1.4941751956939697,1.6323834657669067,-1.7421863079071045
1790266729130330400,2.042330322265625,-1.3274091482162476,1.7661627531051636,-1.4752384424209595
1790266729147583200,2.059583251953125,-1.1698060035705566,1.7576106786727905,-1.2693769931793213
1790266729164835800,2.0768359375,-0.7385355234146118,1.605505347251892,-1.2779290676116943
1790266729182088400,2.09408837890625,-0.7874047160148621,0.26771149039268494,-2.1135921478271484
1790266729199340500,2.111340576171875,-1.0305289030075073,-0.8403972387313843,-2.4636175632476807
1790266729216593000,2.128593017578125,-1.275485634803772,-1.096960425376892,-1.9956952333450317
1790266729233845200,2.14584521484375,-1.8063271045684814,-0.45738500356674194,-1.2095122337341309
1790266729251097600,2.16309765625,-2.084881544113159,-0.3620901107788086,-0.7476984858512878
1790266729268350000,2.180349853515625,-1.833205223083496,-1.3400845527648926,-1.0928370952606201
1790266729285602300,2.197602294921875,-1.693317174911499,-1.5441133975982666,-1.1801908016204834
1790266729302855200,2.214855224609375,-1.637117624282837,-0.9723440408706665,-0.9028581380844116
1790266729320108000,2.23210791015625,-1.3194679021835327,-0.3150535225868225,-0.6524035930633545
1790266729337361200,2.249361083984375,-0.9126319885253906,0.0850629210472107,-0.43493571877479553
1790266729354614000,2.266614013671875,-0.8637627959251404,0.3575085997581482,-0.5009090900421143
1790266729371867000,2.283866943359375,-0.729983389377594,0.7008146047592163,-0.4098902642726898
1790266729389119700,2.30111962890625,-0.22418737411499023,0.7111993432044983,-0.0873536616563797
1790266729406372400,2.318372314453125,0.5980366468429565,1.2322670221328735,0.3433060050010681
1790266729423625200,2.335625244140625,1.5668681859970093,2.1332924365997314,0.8784235715866089
1790266729440877800,2.3528779296875,1.9853105545043945,2.0935862064361572,1.0574069023132324
1790266729458130400,2.37013037109375,2.022573232650757,1.3886483907699585,1.2541054487228394
1790266729475383300,2.38738330078125,2.0751075744628906,1.430798053741455,1.3420698642730713
1790266729492635600,2.4046357421875,2.1783437728881836,1.4680607318878174,1.3597849607467651
1790266729509888300,2.42188818359375,2.3903138637542725,1.7759366035461426,1.6988149881362915
1790266729527140900,2.439140869140625,2.7983715534210205,2.000123977661133,2.1807873249053955
1790266729544393200,2.456393310546875,3.0335545539855957,2.14001202583313,2.503323793411255
1790266729561645800,2.473645751953125,2.744004487991333,1.4246894121170044,2.8350234031677246
1790266729578898200,2.490898193359375,2.736063241958618,0.5621483325958252,3.7311620712280273
1790266729596151000,2.508151123046875,2.6841397285461426,0.7435751557350159,4.791623115539551
1790266729613403600,2.525403564453125,2.324340581893921,0.490066260099411,4.982823848724365
1790266729630656500,2.542656494140625,2.0054690837860107,0.8150463104248047,4.797731876373291
1790266729647909000,2.5599091796875,1.935219645500183,0.9066760540008545,5.06956672668457
1790266729665161700,2.57716162109375,1.377500057220459,-0.14401137828826904,4.39333963394165
1790266729682414600,2.59441455078125,1.9046764373779297,0.32391104102134705,2.9639158248901367
1790266729699667000,2.6116669921875,2.995680809020996,1.4705042839050293,2.558912515640259
1790266729716919600,2.62891943359375,3.674351692199707,1.2212713956832886,2.545473575592041
1790266729734172000,2.646171875,3.813628911972046,2.5859432220458984,2.12580943107605
1790266729751424500,2.663424560546875,3.5894415378570557,3.350745916366577,1.0060943365097046
1790266729768676900,2.6806767578125,3.0836453437805176,3.162599563598633,0.5748237371444702
1790266729785929500,2.697929443359375,1.4831796884536743,1.3923135995864868,1.2773182392120361
1790266729803182300,2.715182373046875,0.7195987105369568,1.8125885725021362,0.2528980076313019
1790266729820435000,2.73243505859375,-0.08124501258134842,1.0636682510375977,-0.8625410795211792
1790266729837687800,2.749687744140625,-0.27366742491722107,0.4540252387523651,-2.067777395248413
1790266729854940400,2.7669404296875,-0.5882627964019775,-0.48731738328933716,-1.8637484312057495
1790266729872193000,2.784193115234375,-1.0781763792037964,0.02214384824037552,-1.7140865325927734
1790266729889445600,2.801445556640625,-1.5094468593597412,1.8584033250808716,-2.57112979888916
1790266729906698200,2.8186982421875,-1.5289945602416992,2.171166181564331,-2.7397284507751465
1790266729923950600,2.83595068359375,-0.9944878816604614,1.6562070846557617,-2.1581852436065674
1790266729941203200,2.853203125,-0.7617483735084534,0.6598866581916809,-1.4556907415390015
1790266729958455600,2.87045556640625,-0.9566142559051514,0.14370593428611755,-1.0030399560928345
1790266729975708200,2.887708251953125,-1.4227041006088257,-0.42012226581573486,-0.8625410795211792
1790266729992960800,2.904960693359375,-1.9688172340393066,-0.558788537979126,-1.3683371543884277
1790266730010213600,2.922213623046875,-2.417191982269287,-0.1568395346403122,-2.3536620140075684
1790266730027466200,2.93946630859375,-2.6468770503997803,0.09911280870437622,-2.855181932449341
1790266730044719000,2.956718994140625,-2.455676317214966,0.32757624983787537,-2.6090035438537598
1790266730061971700,2.9739716796875,-2.0433425903320312,0.33307403326034546,-2.307847023010254
1790266730079224300,2.991224365234375,-1.6694934368133545,-0.08659008145332336,-2.2895212173461914
1790266730096477000,3.008476806640625,-1.5143338441848755,-0.1611155867576599,-2.4880521297454834
1790266730113729800,3.025729736328125,-1.4734058380126953,0.09850194305181503,-2.894277334213257
1790266730130982400,3.042982421875,-1.33290696144104,-0.37858346104621887,-2.9022185802459717
1790266730148235300,3.0602353515625,-1.2486076354980469,-1.0877974033355713,-2.164904832839966
1790266730165487900,3.07748779296875,-1.1264346837997437,-1.4543163776397705,-1.7318016290664673
1790266730182740500,3.094740478515625,-1.1038326025009155,-1.0230457782745361,-1.8063271045684814
1790266730199993000,3.1119931640625,-0.833219587802887,-0.37980517745018005,-1.8723005056381226
1790266730217245400,3.129245361328125,-0.7116574645042419,-0.7524327039718628,-1.6774346828460693
1790266730234498000,3.146498046875,-1.1056652069091797,-1.0425934791564941,-0.8460476994514465
1790266730251750400,3.16375048828125,-1.0231984853744507,0.03252854943275452,-0.5277871489524841
1790266730269003000,3.1810029296875,-0.998153030872345,0.8938478827476501,-0.39217519760131836
1790266730286255600,3.198255615234375,-0.5571087002754211,1.3458877801895142,-0.03481929376721382
1790266730303508200,3.21550830078125,-0.25473061203956604,1.402698278427124,0.36651885509490967
1790266730320761000,3.232760986328125,0.026878049597144127,1.2829687595367432,0.7788525819778442
1790266730338013700,3.250013671875,0.3530798554420471,1.0019710063934326,1.3555089235305786
1790266730355266600,3.2672666015625,0.7947350740432739,0.7875574231147766,1.9083415269851685
1790266730372519200,3.284519287109375,1.2791508436203003,0.8009964227676392,2.2094979286193848
1790266730389771800,3.301771728515625,1.6707152128219604,0.9133955836296082,2.402531147003174
1790266730407024000,3.319024169921875,1.988364815711975,1.075885534286499,2.657261848449707
1790266730424276700,3.33627685546875,2.340833902359009,0.9158390164375305,2.855792760848999
1790266730441529000,3.353529052734375,2.526536703109741,0.6769908666610718,2.7788238525390625
1790266730458781700,3.37078173828125,2.134361505508423,0.9347758293151855,2.6560399532318115
1790266730476034300,3.388034423828125,1.7348560094833374,0.13698641955852509,2.6340489387512207
1790266730493287000,3.405286865234375,1.8631376028060913,-0.49892380833625793,2.623664140701294
1790266730510539500,3.42253955078125,1.7733404636383057,-0.06704241037368774,2.045786142349243
1790266730527792400,3.43979248046875,1.4434734582901,-0.5178605914115906,2.383594274520874
1790266730545045000,3.457044921875,1.361006736755371,-1.2234094142913818,2.5717406272888184
1790266730562297900,3.4742978515625,1.2993093729019165,-1.7053817510604858,2.8802273273468018
1790266730579550500,3.491550537109375,1.1099413633346558,-1.8770347833633423,3.0414958000183105
1790266730596803000,3.508802978515625,1.0702351331710815,-1.3333650827407837,2.973078966140747
1790266730614056000,3.526055908203125,1.0739002227783203,-0.7053961157798767,2.80814528465271
1790266730631308500,3.54330859375,0.9083559513092041,-0.14278964698314667,2.4434590339660645
1790266730648561400,3.5605615234375,0.7635809779167175,-0.3724747896194458,2.2565345764160156
1790266730665814000,3.57781396484375,0.8289434909820557,-0.817184329032898,2.1899502277374268
1790266730683066600,3.595066650390625,0.9474512934684753,0.014813470654189587,2.0977096557617188
1790266730700319200,3.6123193359375,0.7971785664558411,0.818711519241333,2.03723406791687
1790266730717571600,3.629571533203125,0.7574723362922668,1.0007492303848267,2.0024147033691406
1790266730734824200,3.64682421875,0.6633991599082947,0.5768090486526489,1.7104213237762451
1790266730752076500,3.66407666015625,0.5760455131530762,0.1357647031545639,0.8833104968070984
1790266730769329200,3.6813291015625,0.3481929302215576,0.03375028073787689,-0.023212861269712448
1790266730786581800,3.698581787109375,0.4013381600379944,-0.03711003437638283,-0.8833104968070984
1790266730803834400,3.71583447265625,0.40927940607070923,0.09422589093446732,-1.61085045337677
1790266730821087200,3.733087158203125,0.35613417625427246,0.17608177661895752,-2.3011276721954346
1790266730838339800,3.75033984375,0.07941242307424545,0.6647735834121704,-2.989572286605835
1790266730855592700,3.7675927734375,-0.27916520833969116,1.0251837968826294,-3.7507097721099854
1790266730872845300,3.78484521484375,-0.9297361969947815,1.3220640420913696,-4.751916885375977
1790266730890097700,3.80209765625,-1.544877052307129,1.1956150531768799,-5.374388217926025
1790266730907350300,3.819350341796875,-1.5039490461349487,1.521206021308899,-3.9907796382904053
1790266730924603100,3.83660302734375,-1.8191553354263306,1.6653701066970825,-2.8350234031677246
1790266730941855700,3.853855712890625,-2.2229368686676025,1.1669044494628906,-1.9553781747817993
1790266730959108400,3.8711083984375,-2.5271475315093994,0.8938478827476501,-1.7434080839157104
1790266730976361200,3.888361328125,-2.780656576156616,0.7215840220451355,-2.1813981533050537
1790266730993613800,3.90561376953125,-2.7165157794952393,0.6201804876327515,-2.3701553344726562
1790266731010866200,3.9228662109375,-2.7812674045562744,0.30314165353775024,-2.2204935550689697
1790266731028118800,3.940118896484375,-2.4129159450531006,-0.7658717036247253,-2.265697479248047
1790266731045371400,3.957371337890625,-1.9761475324630737,-1.3364194631576538,-2.084270715713501
1790266731062623700,3.974623779296875,-1.785557746887207,-1.2063052654266357,-2.0073015689849854
1790266731079876400,3.99187646484375,-1.5638138055801392,-1.6858340501785278,-1.8185445070266724
1790266731097129000,4.00912890625,-1.4550799131393433,-1.8122830390930176,-2.0970988273620605
1790266731114381600,4.026381591796875,-1.0958913564682007,-1.6913318634033203,-2.0213515758514404
1790266731131634400,4.043634521484375,-0.7031053900718689,-1.8617631196975708,-1.4587451219558716
1790266731148887000,4.060886962890625,-0.6407971382141113,-1.5490003824234009,-1.163697361946106
1790266731166139600,4.0781396484375,-0.665842592716217,-0.7799215912818909,-1.007315993309021
1790266731183392500,4.095392578125,-0.5088503360748291,-0.10674861818552017,-0.7086031436920166
1790266731200645000,4.11264501953125,-0.27916520833969116,0.24572035670280457,-0.45509424805641174
1790266731217898000,4.12989794921875,-0.07269290834665298,0.3672824501991272,-0.07391463965177536
1790266731235150600,4.147150634765625,0.03787361457943916,0.2695440948009491,0.40927940607070923
1790266731252403200,4.1644033203125,0.20647229254245758,0.4234820008277893,0.7330377101898193
1790266731269656000,4.181656005859375,0.4043924808502197,0.5676460862159729,1.0018181800842285
1790266731286908700,4.19890869140625,0.6896663308143616,0.9133955836296082,1.1392627954483032
1790266731304161300,4.216161376953125,0.8741474747657776,1.0636682510375977,1.433699607849121
1790266731321413600,4.23341357421875,1.135597586631775,1.215773582458496,1.7837251424789429
1790266731338666200,4.250666259765625,1.3487894535064697,1.4595086574554443,1.7580687999725342
1790266731355918600,4.267918701171875,1.1673625707626343,1.780212640762329,1.2919789552688599
1790266731373171200,4.285171142578125,1.0079269409179688,1.5548036098480225,1.156977891921997
1790266731390423800,4.302423828125,1.2791508436203003,1.2872447967529297,1.6646065711975098
1790266731407676400,4.319676513671875,1.398269534111023,0.790000855922699,1.9132285118103027
1790266731424929300,4.33692919921875,1.1691951751708984,0.9476040005683899,1.9541563987731934
1790266731442182000,4.354181884765625,1.3158026933670044,1.2738057374954224,1.858250617980957
1790266731459434500,4.3714345703125,1.7159191370010376,0.8975130915641785,1.9572107791900635
1790266731476687400,4.388687255859375,2.1520767211914062,0.18952079117298126,2.0751075744628906
1790266731493940000,4.40593994140625,2.4129159450531006,-0.018784092739224434,1.9401065111160278
1790266731511192300,4.4231923828125,2.3646576404571533,-0.024281874299049377,1.8350378274917603
1790266731528445000,4.44044482421875,2.12886381149292,0.03130681812763214,1.6395610570907593
1790266731545697300,4.457697265625,1.8649702072143555,-0.11102467030286789,1.5112794637680054
1790266731562950000,4.474949951171875,1.5577051639556885,-0.3407098352909088,1.6682716608047485
1790266731580202500,4.492202392578125,1.2095122337341309,-0.5923861265182495,1.758679747581482
1790266731597455000,4.509455078125,0.8772017955780029,-0.5068650245666504,1.5216641426086426
1790266731614707700,4.526707763671875,0.5271763205528259,-0.11407899856567383,0.9755510687828064
1790266731631960600,4.543960693359375,0.3634645342826843,0.13942988216876984,0.39767298102378845
1790266731649213200,4.561213134765625,0.37751442193984985,-0.12935061752796173,0.09101885557174683
1790266731666465800,4.5784658203125,0.2834412455558777,-0.10247256606817245,-0.23884813487529755
1790266731683718700,4.59571875,0.13744457066059113,0.11866047978401184,-0.6420188546180725
1790266731700971300,4.61297119140625,0.014660755172371864,0.19501857459545135,-0.8545998334884644
1790266731718224100,4.63022412109375,-0.2730565667152405,0.3935496211051941,-0.9456186890602112
1790266731735476700,4.647476806640625,-0.6004800796508789,0.7374665141105652,-1.1465932130813599
1790266731752729300,4.664729248046875,-0.6872228980064392,0.9188933372497559,-1.5008947849273682
1790266731769982200,4.681982177734375,-0.7122683525085449,0.28725916147232056,-1.5558725595474243
1790266731787234800,4.69923486328125,-0.7605266571044922,-0.5752819180488586,-1.3469568490982056
1790266731804487200,4.716487060546875,-0.7690787315368652,-0.49892380833625793,-1.2913681268692017
1790266731821739800,4.73373974609375,-0.880256175994873,0.05146535858511925,-1.3683371543884277
1790266731838992100,4.7509921875,-1.0250310897827148,0.3727802336215973,-1.4874557256698608
1790266731856244700,4.76824462890625,-1.202792763710022,0.41065385937690735,-1.5112794637680054
1790266731873497300,4.785497314453125,-1.2895355224609375,0.036193739622831345,-1.517388105392456
1790266731890749700,4.802749755859375,-1.4178171157836914,-0.5826122760772705,-1.6609413623809814
1790266731908002600,4.82000244140625,-1.6578869819641113,-0.8678861260414124,-1.9046764373779297
1790266731925255200,4.837255126953125,-1.3842196464538574,-1.2050834894180298,-2.0598361492156982
1790266731942508000,4.854508056640625,-1.0054833889007568,-1.9979859590530396,-1.7928881645202637
1790266731959760600,4.8717607421875,-1.0231984853744507,-2.3156356811523438,-1.3084723949432373
1790266731977013200,4.88901318359375,-1.1013891696929932,-2.0810635089874268,-0.9877683520317078
1790266731994266000,4.90626611328125,-1.153923511505127,-1.8886412382125854,-0.8460476994514465
1790266732011518700,4.923518798828125,-1.3915499448776245,-2.184910535812378,-0.7037162184715271
1790266732028771300,4.940771240234375,-1.4660754203796387,-2.716362953186035,-0.4404335021972656
1790266732046024200,4.958024169921875,-1.2614357471466064,-2.6021311283111572,-0.07574722915887833
1790266732063276800,4.97527685546875,-0.9260709881782532,-1.4341577291488647,-0.16798780858516693
1790266732080529700,4.99252978515625,-0.822834849357605,-0.5520690679550171,-0.4880809485912323
1790266732097782000,5.009781982421875,-0.9743293523788452,-0.4195113778114319,-0.7776308655738831
1790266732115034600,5.02703466796875,-1.0793980360031128,-0.44638943672180176,-0.7385355234146118
1790266732132287200,5.044287353515625,-0.9407317638397217,-0.18921536207199097,-0.4569268524646759
1790266732149539600,5.06153955078125,-0.7513636946678162,0.18646647036075592,-0.19669845700263977
1790266732166792200,5.078792236328125,-0.5882627964019775,0.33857181668281555,0.07513637095689774
1790266732184044500,5.09604443359375,-0.3341430425643921,0.28787001967430115,0.5308414697647095
1790266732201297400,5.11329736328125,-0.09651663154363632,0.233503058552742,0.9566142559051514
1790266732218550000,5.130550048828125,0.09712749719619751,0.2756527364253998,1.2547162771224976
1790266732235803000,5.147802978515625,0.2260199636220932,0.19440771639347076,1.79410982131958
1790266732253055500,5.165055419921875,0.4257727563381195,0.29214608669281006,2.1215333938598633
1790266732270308000,5.18230810546875,0.5943714380264282,0.5621483325958252,2.2149956226348877
1790266732287560700,5.199560791015625,0.6120865345001221,0.16264274716377258,3.330434799194336
1790266732304813300,5.216813232421875,0.8576541543006897,1.2359321117401123,3.322493553161621
1790266732322066000,5.23406591796875,0.9865466356277466,1.9017747640609741,2.733009099960327
1790266732339318300,5.251318359375,0.7226530313491821,1.6360485553741455,1.8209879398345947
1790266732356571000,5.26857080078125,0.3017672002315521,1.1125375032424927,1.3597849607467651
1790266732373823200,5.2858232421875,0.12400554865598679,1.3391683101654053,0.9065233469009399
1790266732391075800,5.303075927734375,0.13988803327083588,1.8877248764038086,0.7244856357574463
1790266732408328700,5.32032861328125,0.5473348498344421,2.065486431121826,0.8002328872680664
1790266732425581300,5.337581298828125,1.2284491062164307,1.336724877357483,1.2272273302078247
1790266732442834200,5.354834228515625,1.5968005657196045,0.2530507445335388,1.8014402389526367
1790266732460086800,5.372086669921875,1.5552617311477661,-0.4134027361869812,1.8839069604873657
1790266732477339400,5.38933935546875,1.3506220579147339,-0.5642863512039185,1.627343773841858
1790266732494592000,5.406592041015625,1.119104266166687,-0.5355756878852844,1.2809834480285645
1790266732511844600,5.4238447265625,0.7354812026023865,-0.11346813291311264,0.9621120095252991
1790266732529097000,5.441096923828125,0.22846342623233795,1.3067924976348877,0.3640754222869873
1790266732546349600,5.458349609375,0.3035998046398163,0.4766272306442261,0.5045742988586426
1790266732563602000,5.475601806640625,0.46059203147888184,-0.24236060678958893,0.554665207862854
1790266732580854500,5.4928544921875,0.22479823231697083,-0.1715002804994583,0.370184063911438
1790266732598107100,5.510107177734375,-0.03481929376721382,0.02825249545276165,0.08613193035125732
1790266732615360000,5.527360107421875,-0.19792018830776215,0.10277800261974335,-0.13988803327083588
1790266732632612600,5.544612548828125,-0.2974911332130432,0.01847865991294384,-0.31093016266822815
1790266732649865500,5.561865478515625,-0.35674503445625305,-0.0639880821108818,-0.41355544328689575
1790266732667118000,5.5791181640625,-0.36774060130119324,-0.0743727833032608,-0.5424479246139526
1790266732684370700,5.59637060546875,-0.37140578031539917,-0.11407899856567383,-0.7556397318840027
1790266732701623300,5.613623291015625,-0.3958403766155243,-0.04810560122132301,-1.0775654315948486
1790266732718876000,5.6308759765625,-0.47097674012184143,0.23716825246810913,-1.3475676774978638
1790266732736128800,5.648128662109375,-0.638353705406189,0.5138899683952332,-1.5289945602416992
1790266732753381400,5.66538134765625,-0.8271108865737915,0.3776671588420868,-1.5570943355560303
1790266732770634000,5.682634033203125,-0.924849271774292,0.026419902220368385,-1.5668681859970093
1790266732787886800,5.699886962890625,-1.0164790153503418,-0.31810784339904785,-1.6719368696212769
1790266732805139200,5.71713916015625,-1.0952805280685425,-0.577725350856781,-1.7666209936141968
1790266732822391800,5.734391845703125,-1.1337649822235107,-0.7402154207229614,-1.9730932712554932
1790266732839644400,5.75164453125,-1.2095122337341309,-0.661413848400116,-2.1166465282440186
1790266732856896800,5.768896728515625,-1.3060288429260254,-0.8587231636047363,-2.2119414806365967
1790266732874149400,5.7861494140625,-1.2889246940612793,-1.1641556024551392,-2.268751859664917
1790266732891402000,5.803402099609375,-1.2101231813430786,-1.1647664308547974,-2.4074180126190186
1790266732908654600,5.820654541015625,-1.221118688583374,-0.9589049816131592,-2.3487751483917236
1790266732925907200,5.8379072265625,-1.2822052240371704,-1.0694714784622192,-2.033568859100342
1790266732943160000,5.85516015625,-1.163697361946106,-0.8898772597312927,-2.120922565460205
1790266732960412700,5.87241259765625,-0.9767727851867676,-0.7597630620002747,-2.0744967460632324
1790266732977665500,5.88966552734375,-0.9065233469009399,-0.41034841537475586,-1.8417572975158691
1790266732994918100,5.906918212890625,-0.8222240209579468,-0.22708898782730103,-1.6859867572784424
1790266733012170800,5.924170654296875,-0.7538071274757385,-0.3675878942012787,-1.3530654907226562
1790266733029423600,5.941423583984375,-0.6291907429695129,-0.1879936307668686,-1.1331541538238525
1790266733046676200,5.95867626953125,-0.5039634704589844,0.07162389904260635,-1.0396918058395386
1790266733063928800,5.9759287109375,-0.4324922561645508,0.20540328323841095,-0.5925388336181641
1790266733081181700,5.993181640625,-0.2461785078048706,0.31291547417640686,-0.22724169492721558
1790266733098434300,6.010434326171875,-0.05192350596189499,0.3477347791194916,0.028099779039621353
1790266733115686700,6.027686767578125,0.1490510106086731,0.41676250100135803,0.36163195967674255
1790266733132939300,6.044939208984375,0.38179048895835876,0.471129447221756,0.7440332770347595
1790266733150191600,6.062191650390625,0.6261364221572876,0.6030762791633606,1.1514800786972046
1790266733167444200,6.0794443359375,0.8081740736961365,0.8400917649269104,1.524107575416565
1790266733184696800,6.09669677734375,0.9743293523788452,1.251814603805542,1.757457971572876
1790266733201949400,6.113949462890625,1.082452416419983,1.4808889627456665,1.9364413022994995
1790266733219202000,6.1312021484375,1.0958913564682007,1.5816816091537476,2.246149778366089
1790266733236455000,6.148454833984375,1.2095122337341309,1.4723368883132935,2.51737380027771
1790266733253707500,6.16570751953125,1.3023637533187866,1.4992148876190186,2.489884853363037
1790266733270960000,6.182960205078125,1.2724313735961914,1.634826898574829,2.469726324081421
1790266733288213000,6.200212890625,1.3848304748535156,1.519984245300293,2.4801111221313477
1790266733305465300,6.21746533203125,1.5778636932373047,1.0740530490875244,2.3127341270446777
1790266733322718000,6.234718017578125,1.620624303817749,0.6067414283752441,2.0207407474517822
1790266733339970300,6.25197021484375,1.4868448972702026,0.3630063831806183,1.9199479818344116
1790266733357223000,6.269222900390625,1.452636480331421,0.042913250625133514,1.8930699825286865
1790266733374475500,6.2864755859375,1.505781650543213,-0.27107125520706177,1.8503093719482422
1790266733391728000,6.30372802734375,1.5106686353683472,-0.39080074429512024,1.760512351989746
1790266733408980700,6.320980712890625,1.4196497201919556,-0.43233954906463623,1.6530001163482666
1790266733426233300,6.3382333984375,1.2577705383300781,-0.38041603565216064,1.5137228965759277
1790266733443486200,6.355486328125,1.0122029781341553,-0.22708898782730103,1.4062107801437378
1790266733460738800,6.37273876953125,0.8539889454841614,-0.26740604639053345,1.153923511505127
1790266733477991700,6.38999169921875,0.7470875978469849,-0.1055268943309784,0.8356630206108093
1790266733495244300,6.407244384765625,0.5766563415527344,0.13454297184944153,0.4373791813850403
1790266733512497000,6.424496826171875,0.32192572951316833,0.22006404399871826,0.04764745384454727
1790266733529749800,6.441749755859375,0.12705987691879272,0.01908952370285988,-0.24006985127925873
1790266733547002400,6.45900244140625,0.03237583488225937,-0.1977674663066864,-0.4098902642726898
1790266733564255000,6.4762548828125,-0.07452550530433655,-0.1409570425748825,-0.5259546041488647
1790266733581507800,6.4935078125,-0.16310089826583862,-0.2606865465641022,-0.6719512343406677
1790266733598760200,6.51076025390625,-0.2522871494293213,0.20906847715377808,-0.8833104968070984
1790266733616012800,6.5280126953125,-0.2981020212173462,0.15225805342197418,-1.0097594261169434
1790266733633265400,6.545265380859375,-0.31093016266822815,0.017867794260382652,-1.2327251434326172
1790266733650517800,6.562517822265625,-0.33597561717033386,-0.12140937149524689,-1.4581341743469238
1790266733667770400,6.579770263671875,-0.5045742988586426,0.14859285950660706,-1.5412118434906006
1790266733685023000,6.59702294921875,-0.6652317643165588,0.17486004531383514,-1.5705333948135376
1790266733702275600,6.614275634765625,-0.7739656567573547,-0.1672242283821106,-1.5955787897109985
1790266733719528200,6.631528076171875,-0.8912517428398132,-0.44577857851982117,-1.6713260412216187
1790266733736781000,6.648781005859375,-1.0067051649093628,-0.5917752385139465,-1.9199479818344116
1790266733754033700,6.66603369140625,-1.1282672882080078,-0.5300779342651367,-2.2876884937286377
1790266733771286300,6.683286376953125,-1.3206896781921387,-0.2539670467376709,-2.6138904094696045
1790266733788539000,6.700538818359375,-1.4581341743469238,-0.15745039284229279,-2.4092507362365723
1790266733805791500,6.71779150390625,-1.370169758796692,-0.660802960395813,-2.2247695922851562
1790266733823044000,6.735044189453125,-1.2736530303955078,-1.1012364625930786,-2.2950189113616943
1790266733840296400,6.75229638671875,-1.3225222826004028,-1.1305580139160156,-2.4440701007843018
1790266733857549000,6.769549072265625,-1.351232886314392,-1.3162609338760376,-2.3322818279266357
1790266733874801400,6.786801513671875,-1.2241730690002441,-1.5086833238601685,-2.171624183654785
1790266733892054300,6.80405419921875,-1.0329723358154297,-1.7933462858200073,-2.1056509017944336
1790266733909307000,6.821306884765625,-0.860708475112915,-1.1574360132217407,-2.0861032009124756
1790266733926559500,6.8385595703125,-0.6352993845939636,-0.7982475757598877,-1.8631376028060913
1790266733943812400,6.855812255859375,-0.46608981490135193,-0.6913462281227112,-1.546709656715393
1790266733961065000,6.87306494140625,-0.5051851868629456,-0.4970912039279938,-1.1856884956359863
1790266733978317800,6.89031787109375,-0.5112938284873962,-0.1562286615371704,-1.0225876569747925
1790266733995570400,6.9075703125,-0.5387827157974243,0.022754713892936707,-0.8405499458312988
1790266734012823000,6.924822998046875,-0.5314523577690125,0.1455385386943817,-0.5717694163322449
1790266734030076000,6.942075927734375,-0.31154105067253113,0.3165806829929352,-0.22479823231697083
1790266734047328500,6.95932861328125,-0.043371398001909256,0.4124864339828491,0.1490510106086731
1790266734064581000,6.9765810546875,0.21441353857517242,0.5871937870979309,0.6914989352226257
1790266734081834000,6.993833984375,0.5674933791160583,0.780837893486023,1.2235621213912964
1790266734099086300,7.01108642578125,0.8148936033248901,0.8492547869682312,1.6365067958831787
1790266734116339000,7.0283388671875,0.9456186890602112,0.9763146042823792,1.8545855283737183
1790266734133591300,7.04559130859375,0.9645555019378662,1.1589632034301758,1.9743149280548096
1790266734150844000,7.062843994140625,0.9706641435623169,1.2707514762878418,2.224158763885498
1790266734168096500,7.080096435546875,1.0665699243545532,1.2793035507202148,2.3713769912719727
1790266734185349000,7.09734912109375,1.2400555610656738,1.1326960325241089,2.413526773452759
1790266734202601700,7.114601806640625,1.380554437637329,1.177899956703186,2.358548879623413
1790266734219854300,7.131854248046875,1.4465278387069702,1.3684898614883423,2.375653028488159
1790266734237107200,7.149107177734375,1.4868448972702026,1.2658644914627075,2.537532329559326
1790266734254359800,7.16635986328125,1.601076602935791,1.042288064956665,2.6676464080810547
1790266734271612700,7.18361279296875,1.6407828330993652,0.8315396904945374,2.579071044921875
1790266734288865300,7.200865234375,1.535714030265808,0.5969675779342651,2.4104723930358887
1790266734306118000,7.218117919921875,1.3671153783798218,0.32757624983787537,2.2333216667175293
1790266734323370800,7.235370849609375,1.1600322723388672,-0.015729768201708794,2.0384557247161865
1790266734340623400,7.252623291015625,0.988990068435669,-0.3016144931316376,1.8014402389526367
1790266734357876000,7.2698759765625,0.8912517428398132,-0.5105302333831787,1.5955787897109985
1790266734375128800,7.28712890625,0.8265000581741333,-0.597273051738739,1.4648537635803223
1790266734392381200,7.304381103515625,0.7244856357574463,-0.4237874448299408,1.2895355224609375
1790266734409633800,7.3216337890625,0.6267472505569458,-0.2026543915271759,0.9779945015907288
1790266734426886100,7.33888623046875,0.47097674012184143,-0.2441931962966919,0.6071996092796326
1790266734444138800,7.356138671875,0.23029601573944092,-0.3559814393520355,0.33597561717033386
1790266734461391000,7.37339111328125,0.06047561392188072,-0.33826637268066406,0.06475166976451874
1790266734478643700,7.390643798828125,-0.07513637095689774,-0.29672756791114807,-0.19608759880065918
1790266734495896300,7.407896240234375,-0.21197007596492767,-0.20021092891693115,-0.36285367608070374
1790266734513149000,7.42514892578125,-0.28954991698265076,-0.016340631991624832,-0.4477638900279999
1790266734530401800,7.44240185546875,-0.34147340059280396,0.13209950923919678,-0.5748237371444702
1790266734547654400,7.459654296875,-0.3744601011276245,0.1363755613565445,-0.8668171167373657
1790266734564907300,7.4769072265625,-0.5039634704589844,0.12965604662895203,-1.193018913269043
1790266734582160000,7.494159912109375,-0.66645348072052,0.11866047978401184,-1.33290696144104
1790266734599412500,7.51141259765625,-0.7348703145980835,0.02458730712532997,-1.33290696144104
1790266734616665300,7.528665283203125,-0.8203914165496826,-0.019394956529140472,-1.515555500984192
1790266734633918000,7.54591796875,-1.072678565979004,0.2744309902191162,-1.8576397895812988
1790266734651170800,7.5631708984375,-1.3909391164779663,0.5945241451263428,-2.022573232650757
1790266734668423400,7.58042333984375,-1.5296053886413574,0.3520108163356781,-1.8057162761688232
1790266734685676000,7.597676025390625,-1.507614254951477,-0.33276858925819397,-1.616348147392273
1790266734702928600,7.6149287109375,-1.4398082494735718,-0.873994767665863,-1.7201951742172241
1790266734720181000,7.632180908203125,-1.3750566244125366,-1.2496765851974487,-1.9217805862426758
1790266734737433600,7.64943359375,-1.3897173404693604,-1.5007420778274536,-2.251647472381592
1790266734754686200,7.666686279296875,-1.4520255327224731,-1.4164427518844604,-2.5442519187927246
1790266734771938600,7.6839384765625,-1.441640853881836,-1.2508983612060547,-2.618166446685791
1790266734789191200,7.701191162109375,-1.3481786251068115,-1.2875502109527588,-2.5857906341552734
1790266734806443800,7.71844384765625,-1.266933560371399,-1.3785691261291504,-2.5387539863586426
1790266734823696600,7.735696533203125,-1.1722495555877686,-1.1409426927566528,-2.4287984371185303
1790266734840949200,7.75294921875,-0.9621120095252991,-0.893542468547821,-2.006690740585327
1790266734858202000,7.7702021484375,-0.6230821013450623,-0.8904881477355957,-1.7825034856796265
1790266734875454700,7.787454833984375,-0.43860089778900146,-0.20021092891693115,-1.6841541528701782
1790266734892707300,7.804707275390625,-0.44898560643196106,0.25182899832725525,-1.1691951751708984
1790266734909960200,7.821960205078125,-0.3237583339214325,0.5145008563995361,-0.6414080262184143
1790266734927212800,7.839212890625,-0.10629047453403473,0.9146173000335693,-0.38850998878479004
1790266734944465700,7.856465576171875,-0.11972949653863907,1.2982404232025146,-0.1441640853881836
1790266734961718300,7.87371826171875,-0.015271619893610477,0.4656316637992859,0.43432486057281494
1790266734978971000,7.890970947265625,0.2724456787109375,0.08811724185943604,0.9217949509620667
1790266734996223500,7.908223388671875,0.430659681558609,0.26710063219070435,1.1026109457015991
1790266735013476000,7.92547607421875,0.46486809849739075,0.5273290276527405,1.204014539718628
1790266735030728400,7.942728515625,0.5131264328956604,0.6323977708816528,1.5705333948135376
1790266735047981000,7.95998095703125,0.6988292932510376,0.7655662894248962,1.9590433835983276
1790266735065233400,7.9772333984375,0.861319363117218,1.0874919891357422,2.0854923725128174
1790266735082486000,7.994486083984375,0.9114102721214294,1.374598503112793,2.1557416915893555
1790266735099738600,8.011738525390625,0.8698714375495911,1.6757547855377197,2.3206753730773926
1790266735116991500,8.028991455078126,0.9101884961128235,1.7679953575134277,2.6285512447357178
1790266735134244000,8.046244140625,1.1056652069091797,1.5627448558807373,2.838688611984253
1790266735151497000,8.0634970703125,1.3188570737838745,1.319009780883789,2.838688611984253
1790266735168749600,8.08074951171875,1.5015056133270264,1.4081960916519165,2.6285512447357178
1790266735186002200,8.098002197265625,1.629176378250122,1.1546871662139893,2.358548879623413
1790266735203255000,8.115255126953125,1.6328415870666504,0.7741183638572693,2.1355831623077393
1790266735220507600,8.132507568359374,1.5296053886413574,0.4503600597381592,1.986532211303711
1790266735237760500,8.149760498046875,1.4184280633926392,0.19013166427612305,1.879020094871521
1790266735255013000,8.16701318359375,1.4343105554580688,-0.18310672044754028,1.674991250038147
1790266735272265700,8.184265625,1.453247308731079,-0.5105302333831787,1.5302162170410156
1790266735289518300,8.201518310546875,1.4019346237182617,-0.7762564420700073,1.4666863679885864
1790266735306771000,8.21877099609375,1.219896912574768,-0.7512109875679016,1.3646719455718994
1790266735324023300,8.236023193359374,0.9584468603134155,-0.596662163734436,1.1881320476531982
1790266735341276000,8.25327587890625,0.7324268817901611,-0.45066550374031067,0.9388991594314575
1790266735358528300,8.2705283203125,0.5149590373039246,-0.32971426844596863,0.593149721622467
1790266735375780900,8.28778076171875,0.33047783374786377,-0.1311832070350647,0.17592905461788177
1790266735393033500,8.305033447265625,0.12522727251052856,0.017867794260382652,-0.10629047453403473
1790266735410286000,8.3222861328125,-0.0030543238390237093,0.058795735239982605,-0.26450446248054504
1790266735427539000,8.3395390625,-0.10934479534626007,0.15592323243618011,-0.4373791813850403
1790266735444791600,8.35679150390625,-0.25045454502105713,0.2133445292711258,-0.6798924803733826
1790266735462044400,8.37404443359375,-0.3915643095970154,0.20357069373130798,-0.9645555019378662
1790266735479297000,8.391297119140624,-0.48502662777900696,0.1931859850883484,-1.1899645328521729
1790266735496549600,8.408549560546875,-0.500298261642456,0.23594652116298676,-1.3267983198165894
1790266735513802500,8.425802490234375,-0.5051851868629456,0.29275694489479065,-1.5070034265518188
1790266735531055000,8.44305517578125,-0.5558869242668152,0.35811948776245117,-1.61085045337677
1790266735548308000,8.460307861328126,-0.6108647584915161,0.2799287736415863,-1.5577051639556885
1790266735565560600,8.477560546875,-0.6554579138755798,0.06246092543005943,-1.6688826084136963
1790266735582813200,8.494813232421874,-0.8674280047416687,-0.07254019379615784,-2.0299036502838135
1790266735600065800,8.512065673828126,-1.2779290676116943,-0.20509785413742065,-2.2846343517303467
1790266735617318100,8.529318115234375,-1.5711442232131958,-0.4909825623035431,-2.2925755977630615
1790266735634570800,8.54657080078125,-1.5741984844207764,-0.7921388745307922,-2.2736387252807617
1790266735651823000,8.563822998046875,-1.4648537635803223,-1.1158971786499023,-2.313955783843994
1790266735669075700,8.58107568359375,-1.4972295761108398,-1.106123447418213,-2.433685302734375
1790266735686328300,8.598328369140624,-1.4758492708206177,-1.2227985858917236,-2.2980732917785645
1790266735703581000,8.615580810546875,-1.3793326616287231,-1.624747633934021,-2.2290456295013428
1790266735720833800,8.632833740234375,-1.3011419773101807,-1.9979859590530396,-2.2473714351654053
1790266735738086400,8.65008642578125,-1.2009601593017578,-1.7402009963989258,-2.4068071842193604
1790266735755339300,8.66733935546875,-1.0830632448196411,-1.124449372291565,-2.49843692779541
1790266735772591900,8.684591796875,-0.9572250843048096,-1.2496765851974487,-2.12580943107605
1790266735789844500,8.701844482421874,-0.8301652073860168,-1.2026400566101074,-1.848476767539978
1790266735807097300,8.719097412109376,-0.6646208763122559,-0.5270236134529114,-1.5741984844207764
1790266735824350000,8.736349853515625,-0.5229002237319946,-0.18127411603927612,-1.1447606086730957
1790266735841602800,8.753602783203124,-0.4410443603992462,0.24633121490478516,-0.6866120100021362
1790266735858855400,8.77085546875,-0.2663370370864868,0.30253079533576965,-0.17898337543010712
1790266735876108000,8.78810791015625,-0.021991131827235222,0.4631882309913635,0.24495677649974823
1790266735893360600,8.805360595703124,0.15821397304534912,0.6085740327835083,0.6212494969367981
1790266735910613000,8.822613037109376,0.3237583339214325,0.6488910913467407,0.9914335608482361
1790266735927865600,8.839865478515625,0.481361448764801,0.8797979950904846,1.3017528057098389
1790266735945118200,8.8571181640625,0.5962040424346924,1.0276272296905518,1.5332705974578857
1790266735962370600,8.87437060546875,0.7153226733207703,1.1204787492752075,1.8167119026184082
1790266735979623200,8.891623046875,0.8674280047416687,1.1479676961898804,2.03112530708313
1790266735996875800,8.908875732421874,0.9669989347457886,1.2383756637573242,2.1361942291259766
1790266736014128600,8.926128662109376,1.0299180746078491,1.380096197128296,2.249204158782959
1790266736031381200,8.94338134765625,1.1239912509918213,1.5633556842803955,2.364046812057495
1790266736048634000,8.960634033203124,1.2638791799545288,1.5890120267868042,2.44468092918396
1790266736065886700,8.97788671875,1.4190388917922974,1.530979871749878,2.450178623199463
1790266736083139300,8.995139404296875,1.6200133562088013,1.3599376678466797,2.417191982269287
1790266736100392200,9.01239208984375,1.75623619556427,1.0936006307601929,2.2895212173461914
1790266736117644800,9.029644775390626,1.8063271045684814,0.8877392411231995,2.145357131958008
1790266736134897700,9.046897705078125,1.8558071851730347,0.754570722579956,2.095266103744507
1790266736152150300,9.064150390625,1.9132285118103027,0.31902414560317993,1.8949025869369507
1790266736169403000,9.08140283203125,1.7733404636383057,-0.009621120058000088,1.7513493299484253
1790266736186655500,9.098655517578125,1.5796962976455688,0.036193739622831345,1.5595377683639526
1790266736203907800,9.115907958984375,1.4837905168533325,-0.003512472379952669,1.163697361946106
1790266736221160400,9.133160400390626,1.339626431465149,-0.3572031855583191,0.9676098227500916
1790266736238412800,9.150412841796875,1.1502584218978882,-0.5899426341056824,0.8167262077331543
1790266736255665400,9.16766552734375,0.8588758707046509,-0.6424770355224609,0.5009090900421143
1790266736272918000,9.18491796875,0.47586366534233093,-0.6772963404655457,0.2467893660068512
1790266736290170600,9.202170654296875,0.1484401375055313,-0.669965922832489,-0.020158538594841957
1790266736307423200,9.21942333984375,-0.18264856934547424,-0.5148062705993652,-0.18142683804035187
1790266736324675800,9.23667578125,-0.472198486328125,-0.28695371747016907,-0.19242240488529205
1790266736341928700,9.2539287109375,-0.6646208763122559,0.04718930274248123,-0.12583814561367035
1790266736359181300,9.271181396484375,-0.7886264324188232,0.33001968264579773,-0.07086031138896942
1790266736376434200,9.28843408203125,-0.8069523572921753,0.33490660786628723,-0.17531819641590118
1790266736393686800,9.305686767578125,-0.7831286191940308,-0.024281874299049377,-0.48563748598098755
1790266736410939400,9.322939453125,-0.9382883310317993,-0.2851211428642273,-0.6267472505569458
1790266736428192300,9.340192138671876,-1.074511170387268,-0.46838057041168213,-0.7263182401657104
1790266736445444900,9.35744482421875,-1.109330415725708,-0.5557342171669006,-1.0225876569747925
1790266736462697500,9.374697509765625,-1.1795798540115356,-0.26679518818855286,-1.249218463897705
1790266736479950300,9.391950439453124,-1.3310743570327759,-0.2393062710762024,-1.2119556665420532
1790266736497203000,9.409202880859375,-1.5442661046981812,-0.7426588535308838,-1.3695588111877441
1790266736514455800,9.426455810546875,-1.6878193616867065,-1.3907864093780518,-1.6914845705032349
1790266736531708400,9.44370849609375,-1.7971642017364502,-1.559385061264038,-1.99936044216156
1790266736548961000,9.4609609375,-1.803883671760559,-1.3877320289611816,-2.3787074089050293
1790266736566214000,9.4782138671875,-1.7024801969528198,-1.0273218154907227,-2.3762640953063965
1790266736583466500,9.495466552734374,-1.5509856939315796,-0.9112575054168701,-2.232100009918213
1790266736600719000,9.512718994140625,-1.4654645919799805,-0.8819360136985779,-2.238208532333374
1790266736617971500,9.529971435546875,-1.4587451219558716,-0.7334958910942078,-2.2339324951171875
1790266736635224000,9.54722412109375,-1.4117084741592407,-0.9992220401763916,-2.1392483711242676
1790266736652476400,9.564476318359375,-1.351232886314392,-1.2399027347564697,-2.1215333938598633
1790266736669729000,9.58172900390625,-1.293811559677124,-1.1769837141036987,-2.134972333908081
1790266736686981600,9.598981689453124,-1.1972949504852295,-0.9637919068336487,-1.944993495941162
1790266736704234200,9.616234130859375,-0.9865466356277466,-0.7951932549476624,-1.6597195863723755
1790266736721487000,9.633487060546875,-0.8179479241371155,-0.26740604639053345,-1.3921607732772827
1790266736738739700,9.65073974609375,-0.6976075768470764,-0.07498364895582199,-0.9285144805908203
1790266736755992300,9.667992431640625,-0.4819723069667816,0.15347976982593536,-0.4471530318260193
1790266736773245200,9.6852451171875,-0.2156352698802948,0.5865828990936279,-0.2883281707763672
1790266736790497800,9.702497802734374,-0.05558869615197182,0.6067414283752441,0.018325943499803543
1790266736807750700,9.719750732421875,0.09468404203653336,0.40515607595443726,0.5491674542427063
1790266736825003300,9.737003173828125,0.26389357447624207,0.5994110703468323,0.8741474747657776
1790266736842256000,9.754255859375,0.38240134716033936,0.838259220123291,1.164919137954712
1790266736859508700,9.7715087890625,0.526565432548523,0.8761327862739563,1.5509856939315796
1790266736876761300,9.78876123046875,0.6750055551528931,0.7704532146453857,1.9016220569610596
1790266736894014000,9.806013916015624,0.870482325553894,0.7777835726737976,2.064723014831543
1790266736911266300,9.823266357421875,1.0262528657913208,1.0569487810134888,2.254701852798462
1790266736928519000,9.840518798828125,1.1875211000442505,1.3678789138793945,2.5277583599090576
1790266736945771500,9.857771484375,1.3695588111877441,1.8199188709259033,2.764163017272949
1790266736963024000,9.87502392578125,1.5192207098007202,2.190103054046631,2.9235987663269043
1790266736980276500,9.8922763671875,1.6719368696212769,2.4045164585113525,3.0280566215515137
1790266736997529000,9.909529052734374,1.8368704319000244,2.4686572551727295,3.14900803565979
1790266737014782000,9.926781982421875,1.9639302492141724,2.2279765605926514,3.07326078414917
1790266737032034600,9.94403466796875,2.0781619548797607,1.8241949081420898,2.459341526031494
1790266737049287200,9.961287109375,1.9914191961288452,1.651320219039917,1.8949025869369507
1790266737066540000,9.9785400390625,1.858250617980957,0.8034399151802063,1.792277216911316
1790266737083792600,9.995792724609375,1.8154901266098022,-0.27840161323547363,1.6420044898986816
1790266737101045500,10.01304541015625,1.7318016290664673,-0.9900590777397156,1.324354887008667
1790266737118298000,10.030298095703126,1.451414704322815,-1.3443607091903687,1.1392627954483032
1790266737135550700,10.04755078125,1.0653481483459473,-1.3217586278915405,1.0793980360031128
1790266737152803600,10.064803466796874,0.8100066781044006,-0.7371610999107361,0.9266818761825562
1790266737170056200,10.08205615234375,0.6707295179367065,-0.2631300091743469,0.6084213256835938
1790266737187309000,10.09930908203125,0.49480047821998596,-0.005955931730568409,0.37323838472366333
1790266737204561700,10.116561767578125,0.38728827238082886,0.1461493968963623,0.17592905461788177
1790266737221814300,10.133814208984376,0.27855435013771057,0.19379685819149017,-0.13622283935546875
1790266737239067100,10.151067138671875,0.053145237267017365,0.21029019355773926,-0.5571087002754211
1790266737256319700,10.16831982421875,-0.20341797173023224,0.30375251173973083,-0.9407317638397217
1790266737273572600,10.185572509765626,-0.3909534513950348,0.46624255180358887,-1.2791508436203003
1790266737290825000,10.202824951171875,-0.5259546041488647,0.6165152788162231,-1.5460987091064453
1790266737308077600,10.22007763671875,-0.5998691916465759,0.7649554014205933,-1.6523892879486084
1790266737325330000,10.237329833984376,-0.6878337264060974,0.6268999576568604,-1.6279546022415161
1790266737342582500,10.25458251953125,-0.7171552777290344,0.39599308371543884,-1.5888593196868896
1790266737359835000,10.2718349609375,-0.759304940700531,0.2787070572376251,-1.6694934368133545
1790266737377087500,10.28908740234375,-0.9034690260887146,-0.060322895646095276,-1.8796309232711792
1790266737394340400,10.30634033203125,-1.0879502296447754,-0.1727220118045807,-2.0341796875
1790266737411593000,10.323593017578125,-1.1869102716445923,-0.268627792596817,-1.9559890031814575
1790266737428845600,10.340845458984376,-1.1630865335464478,-0.4812087416648865,-1.8112140893936157
1790266737446098400,10.358098388671875,-1.153923511505127,-0.5984947681427002,-1.932165265083313
1790266737463351000,10.37535107421875,-1.227838158607483,-0.9411898851394653,-2.1337506771087646
1790266737480604000,10.39260400390625,-1.2919789552688599,-1.4622576236724854,-2.1801764965057373
1790266737497856500,10.4098564453125,-1.2877029180526733,-1.8556544780731201,-2.2168283462524414
1790266737515109000,10.427109130859375,-1.2644901275634766,-2.0163118839263916,-2.3438880443573
1790266737532362000,10.444362060546876,-1.2993093729019165,-1.7121012210845947,-2.49538254737854
1790266737549614600,10.461614501953125,-1.4013237953186035,-1.3840668201446533,-2.5381431579589844
1790266737566867500,10.478867431640625,-1.490510106086731,-1.2282963991165161,-2.347553253173828
1790266737584119800,10.496119873046876,-1.4715732336044312,-0.7463240623474121,-2.1166465282440186
1790266737601372400,10.513372314453125,-1.3597849607467651,-0.3364337682723999,-1.8613049983978271
1790266737618624800,10.530624755859375,-1.284037709236145,-0.18432845175266266,-1.3096940517425537
1790266737635877400,10.54787744140625,-1.0793980360031128,-0.09269873052835464,-0.842382550239563
1790266737653130000,10.5651298828125,-0.7984002828598022,-0.047494735568761826,-0.4740310609340668
1790266737670382300,10.58238232421875,-0.535728394985199,0.12660172581672668,-0.19792018830776215
1790266737687635200,10.59963525390625,-0.35613417625427246,0.2689332067966461,0.16310089826583862
1790266737704887800,10.6168876953125,-0.12705987691879272,0.34956738352775574,0.5907062292098999
1790266737722140400,10.634140380859375,0.1802051067352295,0.4430296719074249,0.9920443892478943
1790266737739393300,10.651393310546876,0.46914416551589966,0.6464476585388184,1.2192860841751099
1790266737756646000,10.66864599609375,0.7250964641571045,0.8303179740905762,1.4758492708206177
1790266737773898800,10.685898681640625,0.9596685767173767,0.9463822841644287,1.728136420249939
1790266737791151400,10.7031513671875,1.1435388326644897,1.187673807144165,1.915671944618225
1790266737808404000,10.720404052734375,1.229670763015747,1.3098467588424683,2.059225082397461
1790266737825656800,10.73765673828125,1.2534945011138916,1.3984222412109375,2.1777329444885254
1790266737842909400,10.754909423828124,1.2815942764282227,1.7093523740768433,2.2650866508483887
1790266737860162300,10.772162353515625,1.3738348484039307,1.9384266138076782,2.3365578651428223
1790266737877414700,10.78941455078125,1.4691298007965088,1.9750785827636719,2.339001178741455
1790266737894667300,10.806667236328124,1.6065744161605835,1.946367859840393,2.3072361946105957
1790266737911919900,10.823919921875,1.7800599336624146,1.6110031604766846,2.1942262649536133
1790266737929172700,10.8411728515625,1.9339978694915771,1.0349576473236084,1.9596542119979858
1790266737946425300,10.85842529296875,1.9969170093536377,0.5761982202529907,1.7818925380706787
1790266737963678200,10.87567822265625,1.9083415269851685,-0.010842849500477314,1.7250821590423584
1790266737980930800,10.892930908203125,1.7629557847976685,-0.48792824149131775,1.6548327207565308
1790266737998183400,10.910183349609374,1.6340632438659668,-0.7029526233673096,1.5094468593597412
1790266738015436300,10.927436279296876,1.4660754203796387,-0.6314814686775208,1.3781108856201172
1790266738032689000,10.94468896484375,1.2461642026901245,-0.41584619879722595,1.2095122337341309
1790266738049941800,10.961941650390624,1.0671807527542114,-0.16050471365451813,1.0317505598068237
1790266738067194400,10.9791943359375,1.008537769317627,0.2078467458486557,0.6927206516265869
1790266738084447000,10.996447021484375,0.8118392825126648,0.633008599281311,0.2712239623069763
1790266738101699600,11.013699462890624,0.45509424805641174,0.6397281289100647,-0.004276053514331579
1790266738118952000,11.030951904296876,0.14782927930355072,0.2701549530029297,-0.23762640357017517
1790266738136204500,11.04820458984375,-0.014660755172371864,0.12904518842697144,-0.6133082509040833
1790266738153457200,11.06545703125,-0.16126830875873566,0.058795735239982605,-0.9138537049293518
1790266738170709500,11.08270947265625,-0.2834412455558777,-0.0694858655333519,-0.943175196647644
1790266738187962000,11.099962158203125,-0.3659079968929291,-0.041386090219020844,-0.9480621218681335
1790266738205214700,11.117214599609374,-0.3909534513950348,-0.0102319847792387,-1.1197150945663452
1790266738222467600,11.134467529296876,-0.430659681558609,0.10888664424419403,-1.4996730089187622
1790266738239720200,11.15172021484375,-0.6322450637817383,0.45097091794013977,-1.7006475925445557
1790266738256973000,11.16897314453125,-0.832608699798584,0.49800750613212585,-1.6743803024291992
1790266738274225700,11.1862255859375,-1.0109812021255493,0.1870773434638977,-1.7519601583480835
1790266738291478300,11.203478271484375,-1.2779290676116943,-0.19165882468223572,-1.8649702072143555
1790266738308731100,11.220731201171875,-1.470962405204773,-0.5447386503219604,-1.9010112285614014
1790266738325983700,11.237983642578126,-1.637117624282837,-0.5618428587913513,-2.0384557247161865
1790266738343236600,11.255236572265625,-1.7647883892059326,-0.5288561582565308,-2.207665205001831
1790266738360489200,11.2724892578125,-1.7880011796951294,-0.8703296184539795,-2.157574415206909
1790266738377741800,11.289741943359376,-1.6786564588546753,-1.2722786664962769,-2.061668634414673
1790266738394994700,11.30699462890625,-1.5974113941192627,-1.806174397468567,-2.1019856929779053
1790266738412247300,11.324247314453125,-1.5723659992218018,-2.16536283493042,-2.2033891677856445
1790266738429500200,11.341500244140626,-1.5112794637680054,-1.7951788902282715,-2.1948370933532715
1790266738446752800,11.358752685546875,-1.3176352977752686,-1.4756965637207031,-2.0531165599823
1790266738464005400,11.37600537109375,-1.026863694190979,-1.5233440399169922,-2.0470077991485596
1790266738481258200,11.39325830078125,-0.8875865340232849,-1.1507165431976318,-1.9932518005371094
1790266738498510600,11.410510498046875,-0.9663881063461304,-0.616209864616394,-1.6279546022415161
1790266738515763200,11.42776318359375,-0.9138537049293518,-0.300392746925354,-1.2797616720199585
1790266738533015600,11.445015625,-0.8588758707046509,-0.05299251899123192,-1.0091485977172852
1790266738550268200,11.46226806640625,-0.7470875978469849,0.3098611533641815,-0.7153226733207703
1790266738567520500,11.4795205078125,-0.5094612240791321,0.43020153045654297,-0.38728827238082886
1790266738584773000,11.496773193359376,-0.277332603931427,0.4436405599117279,-0.07086031138896942
1790266738602026000,11.51402587890625,0.0054977829568088055,0.449138343334198,0.3481929302215576
1790266738619278600,11.531278564453125,0.36285367608070374,0.5285507440567017,0.749531090259552
1790266738636531500,11.548531494140626,0.6719512343406677,0.7014254927635193,1.063515543937683
1790266738653784000,11.5657841796875,0.861319363117218,0.9176716208457947,1.3640609979629517
1790266738671036700,11.58303662109375,0.9914335608482361,1.2359321117401123,1.6798781156539917
1790266738688289500,11.60028955078125,1.1026109457015991,1.4314088821411133,1.858250617980957
1790266738705542100,11.617542236328125,1.1435388326644897,1.5627448558807373,1.9620976448059082
1790266738722795000,11.634794921875,1.2272273302078247,1.6507093906402588,2.078772783279419
1790266738740047600,11.652047607421874,1.3567306995391846,1.6494876146316528,2.171624183654785
1790266738757300200,11.66930029296875,1.507614254951477,1.5053235292434692,2.2895212173461914
1790266738774553000,11.686552978515625,1.663995623588562,1.3086251020431519,2.393979072570801
1790266738791805400,11.703805419921874,1.7983858585357666,1.0917680263519287,2.3255622386932373
1790266738809058300,11.721058349609375,1.904065489768982,0.9292780160903931,2.112370491027832
1790266738826311000,11.738310791015625,1.8894047737121582,0.9341649413108826,2.042120933532715
1790266738843563500,11.7555634765625,1.8698570728302002,0.7722858190536499,1.970038890838623
1790266738860816400,11.77281640625,1.8625266551971436,0.6073523163795471,1.8222095966339111
1790266738878069000,11.790069091796875,1.7739512920379639,0.305585116147995,1.5894701480865479
1790266738895321900,11.80732177734375,1.5320488214492798,-0.10613775253295898,1.284037709236145
1790266738912574500,11.824574462890626,1.2742639780044556,-0.41706791520118713,1.0012073516845703
1790266738929827000,11.8418271484375,1.1710277795791626,-0.5575668215751648,0.7806851863861084
1790266738947080000,11.859079833984374,1.1612539291381836,-0.6815723776817322,0.5998691916465759
1790266738964332500,11.87633251953125,1.0757328271865845,-0.9222530722618103,0.45875945687294006
1790266738981585400,11.89358544921875,0.7898481488227844,-1.093906044960022,0.2987128794193268
1790266738998837800,11.910837646484374,0.4508182108402252,-0.9503529071807861,0.07513637095689774
1790266739016090400,11.92809033203125,0.16676609218120575,-0.6217076182365417,-0.1997527778148651
1790266739033342700,11.9453427734375,-0.09712749719619751,-0.34865108132362366,-0.3964512348175049
1790266739050595300,11.96259521484375,-0.2834412455558777,-0.13790272176265717,-0.5137372612953186
1790266739067847700,11.97984765625,-0.4257727563381195,-0.002901607658714056,-0.6273581385612488
1790266739085100300,11.997100341796875,-0.5210676789283752,-0.037720900028944016,-0.7086031436920166
1790266739102353200,12.014353271484374,-0.6059778332710266,-0.20448698103427887,-0.8008437156677246
1790266739119605800,12.031605712890626,-0.7128791809082031,-0.3211621642112732,-0.9230166673660278
1790266739136858400,12.0488583984375,-0.8558215498924255,-0.35414886474609375,-1.0604612827301025
1790266739154111200,12.066111328125,-1.007315993309021,-0.35903576016426086,-1.1801908016204834
1790266739171363800,12.08336376953125,-1.1533126831054688,-0.3107774555683136,-1.3206896781921387
1790266739188616700,12.10061669921875,-1.3518437147140503,-0.34437501430511475,-1.4813470840454102
1790266739205869300,12.117869384765624,-1.571755051612854,-0.5795579552650452,-1.6346741914749146
1790266739223122000,12.135121826171876,-1.7153083086013794,-0.864831805229187,-1.7104213237762451
1790266739240374800,12.152374755859375,-1.8423681259155273,-1.126281976699829,-1.8784091472625732
1790266739257627400,12.16962744140625,-1.9535455703735352,-1.1470513343811035,-2.0555598735809326
1790266739274880300,12.18688037109375,-1.886350393295288,-1.187368392944336,-2.12886381149292
1790266739292132900,12.2041328125,-1.6756020784378052,-1.114675521850586,-2.1777329444885254
1790266739309385500,12.221385498046875,-1.571755051612854,-0.9088140726089478,-2.3518292903900146
1790266739326638300,12.238638427734376,-1.5332705974578857,-0.8135191798210144,-2.414137601852417
1790266739343891000,12.255890869140625,-1.4385865926742554,-1.0480912923812866,-2.288910388946533
1790266739361143800,12.273143798828125,-1.303585410118103,-0.985783040523529,-2.123365879058838
1790266739378396400,12.290396484375,-1.1685843467712402,-0.7273872494697571,-2.0018038749694824
1790266739395649000,12.30764892578125,-0.9779945015907288,-0.7286089658737183,-1.6743803024291992
1790266739412902000,12.32490185546875,-0.7800742983818054,-0.5948295593261719,-1.219896912574768
1790266739430154500,12.342154541015624,-0.6652317643165588,-0.35414886474609375,-0.850934624671936
1790266739447407400,12.359407470703125,-0.5094612240791321,-0.16478078067302704,-0.48441576957702637
1790266739464660000,12.376659912109375,-0.2211330533027649,-0.04260781779885292,0.14110976457595825
1790266739481912600,12.39391259765625,0.2461785078048706,0.3556760251522064,0.6805033683776855
1790266739499165200,12.411165283203125,0.5180133581161499,1.3245075941085815,0.48441576957702637
1790266739516417500,12.42841748046875,0.09285144507884979,1.8828380107879639,0.6780598759651184
1790266739533670100,12.445670166015624,0.2101374864578247,1.3923135995864868,1.9596542119979858
1790266739550922500,12.462922607421875,0.5754346251487732,1.2176061868667603,2.5405867099761963
1790266739568175000,12.480175048828125,0.6609556674957275,1.1174243688583374,2.2870776653289795
1790266739585427700,12.497427734375,0.5662716627120972,1.1614066362380981,1.879020094871521
1790266739602680300,12.514680419921875,0.5845975875854492,1.5914554595947266,2.014631986618042
1790266739619933200,12.53193310546875,0.9315688014030457,1.77043879032135,2.3072361946105957
1790266739637185800,12.549185791015624,1.3359612226486206,1.6452115774154663,2.4178028106689453
1790266739654438700,12.566438720703125,1.6450588703155518,1.7753257751464844,2.4941608905792236
1790266739671691300,12.583691162109375,1.8814635276794434,2.001345634460449,2.712850570678711
1790266739689116400,12.601116455078126,2.1838417053222656,1.7967060804367065,3.0726499557495117
1790266739706713900,12.6187138671875,2.3506076335906982,1.0618356466293335,2.9297075271606445
1790266739724311300,12.636311279296875,2.213163137435913,0.6262891292572021,2.332892656326294
1790266739741909000,12.653908935546875,1.8435899019241333,0.4338667094707489,1.7996076345443726
1790266739759506400,12.67150634765625,1.3768892288208008,0.3715584874153137,1.6548327207565308
1790266739777104000,12.689103759765626,1.3103049993515015,1.1418589353561401,1.5228859186172485
1790266739794701300,12.706701416015624,1.598022222518921,1.327561855316162,1.3384047746658325
1790266739812299000,12.724299072265625,1.9706497192382812,0.005650499369949102,0.9272927641868591
1790266739829896400,12.741896484375,1.275485634803772,-0.9851721525192261,1.01708984375
1790266739847494000,12.759493896484376,0.5564978122711182,-1.085353970527649,0.5039634704589844
1790266739865091300,12.77709130859375,0.2706131041049957,-0.7903063297271729,-0.04153880476951599
1790266739882689000,12.79468896484375,0.17287473380565643,-0.4231765866279602,-0.15088360011577606
1790266739900002000,12.812001953125,0.2003636509180069,-0.12263110280036926,-0.19730933010578156
1790266739917315000,12.829315185546875,0.1288924664258957,0.11377356201410294,-0.2510654330253601
1790266739934628400,12.84662841796875,0.07269290834665298,0.16814053058624268,-0.31581708788871765
1790266739951941400,12.86394140625,-0.08429934084415436,0.4027126133441925,-0.5186241865158081
1790266739969254400,12.88125439453125,-0.35063639283180237,0.7002037763595581,-0.8778126835823059
1790266739986552600,12.898552490234374,-0.6145299673080444,0.8865175247192383,-1.3322961330413818
1790266740003805200,12.91580517578125,-0.7855721116065979,0.8211549520492554,-1.6927063465118408
1790266740021058000,12.93305810546875,-0.8570432662963867,0.5517635941505432,-1.7806708812713623
1790266740038310700,12.950310546875,-0.8503237962722778,0.48273590207099915,-1.553429126739502
1790266740055563300,12.967563232421876,-0.934623122215271,0.48212501406669617,-1.4379756450653076
1790266740072816000,12.984816162109375,-1.2455532550811768,0.40088000893592834,-1.5894701480865479
1790266740090068700,13.00206884765625,-1.5949679613113403,0.0795651376247406,-1.9144501686096191
1790266740107321600,13.019321533203126,-1.7647883892059326,-0.36025750637054443,-2.1868958473205566
1790266740124574200,13.03657421875,-1.6713260412216187,-0.7689260244369507,-2.307847023010254
1790266740141826800,13.053826904296875,-1.4984513521194458,-1.1739293336868286,-2.340833902359009
1790266740159079700,13.07107958984375,-1.3359612226486206,-1.5514438152313232,-2.3316707611083984
1790266740176332300,13.088332275390625,-1.2553271055221558,-1.7524182796478271,-2.378096580505371
1790266740193585000,13.1055849609375,-1.2479966878890991,-2.117715358734131,-2.4856088161468506
1790266740210837500,13.12283740234375,-1.227838158607483,-1.8971933126449585,-2.5405867099761963
1790266740228089900,13.14008984375,-1.137430191040039,-1.8165591955184937,-2.4355177879333496
1790266740245342500,13.157342529296875,-1.0262528657913208,-1.4384338855743408,-2.381150960922241
1790266740262594800,13.1745947265625,-0.9358448386192322,-1.1103994846343994,-2.2870776653289795
1790266740279847400,13.191847412109375,-0.9217949509620667,-0.7231112122535706,-2.0628902912139893
1790266740297100000,13.20910009765625,-0.9199623465538025,-0.37369653582572937,-1.8106032609939575
1790266740314353000,13.226352783203126,-0.9004147052764893,-0.08292489498853683,-1.5381574630737305
1790266740331605500,13.24360546875,-0.8203914165496826,0.08261945843696594,-1.0952805280685425
1790266740348858000,13.260858154296875,-0.5528326034545898,0.3318522870540619,-0.7550288438796997
1790266740366111000,13.278111083984374,-0.28588470816612244,0.3605629503726959,-0.43860089778900146
1790266740383363600,13.295363525390625,-0.001221729558892548,0.06795870512723923,-0.026878049597144127
1790266740400616400,13.312616455078125,0.3640754222869873,-0.04932733252644539,0.3970620930194855
1790266740417869000,13.329869140625,0.685390293598175,0.04474584385752678,0.8197805285453796
1790266740435121700,13.34712158203125,1.0372483730316162,0.22250749170780182,1.2058470249176025
1790266740452374500,13.36437451171875,1.4007129669189453,0.5138899683952332,1.561981201171875
1790266740469627100,13.381627197265624,1.61085045337677,0.8840740323066711,1.7812817096710205
1790266740486880000,13.3988798828125,1.5601485967636108,1.3324488401412964,1.9608759880065918
1790266740504132600,13.416132568359375,1.463021159172058,1.51448655128479,2.1642940044403076
1790266740521385200,13.43338525390625,1.4275909662246704,1.5236494541168213,2.260199785232544
1790266740538638000,13.45063818359375,1.4837905168533325,1.632994294166565,2.377485752105713
1790266740555890700,13.467890625,1.6383392810821533,1.5657991170883179,2.3793182373046875
1790266740573143600,13.4851435546875,1.8277074098587036,1.437517523765564,2.313955783843994
1790266740590396200,13.502396240234376,1.9944734573364258,1.2286018133163452,2.3310599327087402
1790266740607648800,13.519648681640625,2.139859437942505,0.9909753799438477,2.2919647693634033
1790266740624901600,13.536901611328124,2.215606451034546,0.8358157277107239,2.1197006702423096
1790266740642154200,13.554154296875,2.159406900405884,0.5920807123184204,1.9724823236465454
1790266740659406800,13.57140673828125,1.9859213829040527,0.1870773434638977,1.9187263250350952
1790266740676659700,13.58865966796875,1.7531819343566895,-0.2790125012397766,1.8002184629440308
1790266740693912000,13.605912109375,1.433088779449463,-0.6094903349876404,1.6701042652130127
1790266740711164700,13.62316455078125,1.1319323778152466,-0.7157807946205139,1.5344923734664917
1790266740728417300,13.640417236328124,0.850934624671936,-0.5184714794158936,1.2901464700698853
1790266740745669600,13.657669677734376,0.5503891706466675,-0.24113887548446655,0.9352339506149292
1790266740762922200,13.674922119140625,0.3530798554420471,-0.27290382981300354,0.5070177912712097
1790266740780174800,13.6921748046875,0.11484257876873016,-0.38469210267066956,0.15577052533626556
1790266740797427500,13.709427490234376,-0.13500112295150757,-0.41462448239326477,-0.014049889519810677
1790266740814680000,13.72668017578125,-0.3139844834804535,-0.2838993966579437,-0.2626718580722809
1790266740831933000,13.743932861328124,-0.4831940531730652,-0.18066325783729553,-0.48563748598098755
1790266740849185500,13.761185546875,-0.5522217750549316,-0.17944152653217316,-0.6243038177490234
1790266740866438400,13.7784384765625,-0.5387827157974243,-0.1562286615371704,-0.7513636946678162
1790266740883691000,13.79569091796875,-0.5479456782341003,-0.050549060106277466,-0.8918625712394714
1790266740900943600,13.812943603515626,-0.6175842881202698,0.07895427197217941,-1.1533126831054688
1790266740918196500,13.830196533203125,-0.7556397318840027,0.24510949850082397,-1.3946043252944946
1790266740935449000,13.847448974609375,-0.8826996088027954,0.3513999581336975,-1.5613703727722168
1790266740952701700,13.86470166015625,-0.9120211005210876,0.19440771639347076,-1.7385212182998657
1790266740969954600,13.88195458984375,-1.0665699243545532,-0.02977965772151947,-1.9853105545043945
1790266740987207200,13.899207275390625,-1.5412118434906006,-0.041386090219020844,-2.065333843231201
1790266741004460000,13.9164599609375,-1.8093814849853516,-0.513584554195404,-1.8949025869369507
1790266741021712600,13.933712646484375,-1.6701042652130127,-1.1226167678833008,-1.897346019744873
1790266741038965200,13.95096533203125,-1.7037018537521362,-1.4695879220962524,-2.0573925971984863
1790266741056218000,13.968218017578126,-1.9230023622512817,-1.6864449977874756,-2.3561055660247803
1790266741073470700,13.985470703125,-2.001193046569824,-1.6846123933792114,-2.610225200653076
1790266741090723600,14.0027236328125,-1.8686354160308838,-1.5160136222839355,-2.646266222000122
1790266741107976200,14.01997607421875,-1.7061452865600586,-1.3064870834350586,-2.6969680786132812
1790266741125228800,14.037228759765625,-1.666439175605774,-1.3205369710922241,-2.640768527984619
1790266741142481700,14.054481689453125,-1.5766420364379883,-1.1494947671890259,-2.397644281387329
1790266741159734300,14.071734375,-1.3322961330413818,-1.178816318511963,-2.134972333908081
1790266741176987100,14.088987060546875,-1.0494656562805176,-1.308930516242981,-1.8417572975158691
1790266741194239700,14.10623974609375,-0.8167262077331543,-1.1562143564224243,-1.5699224472045898
1790266741211492400,14.123492431640624,-0.7128791809082031,-0.5923861265182495,-1.2547162771224976
1790266741228745200,14.1407451171875,-0.6359102129936218,-0.006566796451807022,-0.8197805285453796
1790266741245997800,14.157997802734375,-0.45998117327690125,0.6220130324363708,-0.46975502371788025
1790266741263250700,14.175250732421874,-0.35735589265823364,0.9579886794090271,-0.16187916696071625
1790266741280503300,14.19250341796875,-0.2406807243824005,0.819322407245636,0.3659079968929291
1790266741297755600,14.209755615234375,0.01893680728971958,0.5896372199058533,0.9358448386192322
1790266741315008300,14.22700830078125,0.3023780584335327,0.5780308246612549,1.362228512763977
1790266741332260600,14.244260498046875,0.5729911923408508,0.7338013052940369,1.6743803024291992
1790266741349513200,14.26151318359375,0.8741474747657776,0.8932369947433472,1.9804235696792603
1790266741366765600,14.278765625,1.1508692502975464,1.0209077596664429,2.229656457901001
1790266741384018200,14.29601806640625,1.3457350730895996,1.1186461448669434,2.4159700870513916
1790266741401270800,14.313270751953125,1.4911209344863892,1.2371538877487183,2.598007917404175
1790266741418523600,14.330523681640624,1.5735876560211182,1.3495529890060425,2.674365997314453
1790266741435776300,14.3477763671875,1.6035200357437134,1.4002548456192017,2.766606569290161
1790266741453029000,14.365029052734375,1.6224569082260132,1.2524255514144897,2.979187488555908
1790266741470281700,14.38228173828125,1.766010046005249,0.9573778510093689,3.0408849716186523
1790266741487534300,14.399534423828126,1.99936044216156,0.6910407543182373,2.775158643722534
1790266741504787200,14.416787109375,1.9547673463821411,0.3984365463256836,2.2699735164642334
1790266741522039800,14.434039794921874,1.5931353569030762,0.2701549530029297,1.9559890031814575
1790266741539292700,14.451292724609376,1.4617993831634521,0.20723587274551392,1.986532211303711
1790266741556545300,14.468545166015625,1.709810495376587,0.2444986253976822,1.932165265083313
1790266741573798000,14.4857978515625,1.737910270690918,0.2084576040506363,1.6927063465118408
1790266741591050800,14.50305078125,1.3432916402816772,-0.22525638341903687,1.499062180519104
1790266741608303400,14.520303466796875,0.9132428169250488,-0.5722275972366333,1.3121376037597656
1790266741625556000,14.537555908203124,0.6169734001159668,-0.44638943672180176,0.9107993841171265
1790266741642808800,14.554808837890626,0.5143481492996216,-0.34865108132362366,0.4459312856197357
1790266741660061400,14.5720615234375,0.4734202027320862,-0.2380845546722412,0.13622283935546875
1790266741677314300,14.589314208984375,0.3390299379825592,-0.057268574833869934,-0.08124501258134842
1790266741694567000,14.60656689453125,0.07086031138896942,-0.09453132748603821,-0.43371400237083435
1790266741711819500,14.623819580078125,-0.2522871494293213,-0.053603384643793106,-0.7440332770347595
1790266741729072400,14.641072265625,-0.4685332775115967,0.027030766010284424,-0.8943060636520386
1790266741746325000,14.658324951171876,-0.6212494969367981,0.2280052751302719,-0.9743293523788452
1790266741763577900,14.675577880859375,-0.7293725609779358,0.30802857875823975,-0.9816597104072571
1790266741780830500,14.69283056640625,-0.7843503952026367,0.29275694489479065,-0.9407317638397217
1790266741798083000,14.7100830078125,-0.8820887207984924,0.17424917221069336,-0.9841031432151794
1790266741815336000,14.7273359375,-1.0225876569747925,0.09178243577480316,-1.255937933921814
1790266741832588500,14.744588623046875,-1.2632683515548706,0.17547090351581573,-1.4721840620040894
1790266741849841400,14.76184130859375,-1.497840404510498,-0.12690715491771698,-1.4086542129516602
1790266741867094000,14.779093994140625,-1.528383731842041,-0.6931788325309753,-1.3781108856201172
1790266741884346600,14.7963466796875,-1.5033382177352905,-0.9466876983642578,-1.5082250833511353
1790266741901599500,14.813599609375,-1.616348147392273,-0.9644027948379517,-1.6994258165359497
1790266741918852000,14.83085205078125,-1.728136420249939,-1.0902409553527832,-1.887572169303894
1790266741936105000,14.84810498046875,-1.7208061218261719,-1.205694317817688,-2.0408992767333984
1790266741953357600,14.865357666015624,-1.8252639770507812,-1.0890191793441772,-2.296851634979248
1790266741970610200,14.882610107421876,-1.9675954580307007,-1.0627520084381104,-2.4349069595336914
1790266741987862800,14.89986279296875,-1.7800599336624146,-1.098182201385498,-2.210108757019043
1790266742005115400,14.917115478515624,-1.5845832824707031,-1.1305580139160156,-2.154520034790039
1790266742022367700,14.93436767578125,-1.4465278387069702,-1.1372774839401245,-2.1868958473205566
1790266742039620400,14.951620361328125,-1.3658936023712158,-1.0218240022659302,-2.160017967224121
1790266742056873000,14.968873046875,-1.2626575231552124,-0.7053961157798767,-2.0244059562683105
1790266742074125300,14.986125244140625,-1.1343759298324585,-0.15745039284229279,-1.7250821590423584
1790266742091378000,15.0033779296875,-1.0848958492279053,0.2536616027355194,-1.3158026933670044
1790266742108630800,15.020630859375,-0.9505056142807007,0.47784897685050964,-0.813060998916626
1790266742125883400,15.03788330078125,-0.6707295179367065,0.5157225728034973,-0.34208428859710693
1790266742143136300,15.05513623046875,-0.35124725103378296,0.4912880063056946,0.04276053607463837
1790266742160388900,15.072388916015624,-0.07941242307424545,0.43142324686050415,0.4166097939014435
1790266742177641500,15.089641357421876,0.18142683804035187,0.41492989659309387,0.6976075768470764
1790266742194894300,15.106894287109375,0.40805765986442566,0.5077813267707825,0.9321796298027039
1790266742212147000,15.12414697265625,0.6194168925285339,0.6556106209754944,1.1924080848693848
1790266742229399800,15.14139990234375,0.841160774230957,0.8315396904945374,1.525940179824829
1790266742246652400,15.15865234375,1.0610721111297607,1.0068578720092773,1.8558071851730347
1790266742263905000,15.175905029296874,1.255937933921814,1.152854561805725,2.123365879058838
1790266742281157600,15.19315771484375,1.4135410785675049,1.279914379119873,2.360992431640625
1790266742298410500,15.210410400390625,1.5894701480865479,1.4326306581497192,2.6059491634368896
1790266742315663000,15.2276630859375,1.7873903512954712,1.6103923320770264,2.7763805389404297
1790266742332916000,15.244916015625,2.0073015689849854,1.733786940574646,2.7696609497070312
1790266742350168600,15.26216845703125,2.081827163696289,1.7967060804367065,2.6529858112335205
1790266742367421200,15.279421142578125,2.0580034255981445,1.613446593284607,2.5973970890045166
1790266742384674000,15.296674072265626,2.0781619548797607,1.3183989524841309,2.430630922317505
1790266742401926700,15.3139267578125,2.0237951278686523,1.0679444074630737,2.112370491027832
1790266742419179500,15.331179443359375,1.8124357461929321,0.7136427760124207,1.8179335594177246
1790266742436432100,15.34843212890625,1.5705333948135376,0.36361727118492126,1.7275255918502808
1790266742453684700,15.365684814453125,1.4776818752288818,0.05696314200758934,1.6609413623809814
1790266742470937600,15.3829375,1.450192928314209,-0.15256348252296448,1.5296053886413574
1790266742488190200,15.400190185546874,1.3665045499801636,-0.2863428592681885,1.3390156030654907
1790266742505443000,15.417443115234375,1.1716386079788208,-0.2594648003578186,1.05496346950531
1790266742522695700,15.43469580078125,0.8967494964599609,-0.056657709181308746,0.7452550530433655
1790266742539948300,15.4519482421875,0.6615665555000305,0.09178243577480316,0.40927940607070923
1790266742557201200,15.469201171875,0.4880809485912323,0.13759729266166687,0.10567960888147354
1790266742574453800,15.486453857421875,0.3084867000579834,0.08384118974208832,-0.14538581669330597
1790266742591706600,15.50370654296875,0.10873392969369888,0.06979130208492279,-0.40927940607070923
1790266742608959200,15.520959228515625,-0.06536252796649933,0.11438442766666412,-0.5986474752426147
1790266742626211800,15.5382119140625,-0.20952661335468292,0.16325360536575317,-0.759304940700531
1790266742643464700,15.555464599609374,-0.3439168632030487,0.3312414288520813,-0.9755510687828064
1790266742660717300,15.57271728515625,-0.4673115611076355,0.4839576184749603,-1.1331541538238525
1790266742677970000,15.589969970703125,-0.5601630210876465,0.38438665866851807,-1.191797137260437
1790266742695222500,15.607222412109374,-0.6786707639694214,0.06123919412493706,-1.3695588111877441
1790266742712475100,15.62447509765625,-0.9126319885253906,-0.08109229803085327,-1.629176378250122
1790266742729727500,15.6417275390625,-1.1691951751708984,-0.030390523374080658,-1.7385212182998657
1790266742746980000,15.65897998046875,-1.3658936023712158,0.058795735239982605,-1.8979568481445312
1790266742764232400,15.676232421875,-1.6865977048873901,0.12171480804681778,-1.9755367040634155
1790266742781485000,15.693485107421875,-1.8521419763565063,-0.21120649576187134,-2.028681993484497
1790266742798738000,15.710738037109374,-1.748905897140503,-0.7469348907470703,-2.087324857711792
1790266742815990500,15.727990478515625,-1.7091996669769287,-1.195920467376709,-2.2033891677856445
1790266742833243100,15.7452431640625,-1.7360776662826538,-1.458592414855957,-2.3402230739593506
1790266742850496000,15.76249609375,-1.6939280033111572,-1.557552456855774,-2.503934621810913
1790266742867748600,15.77974853515625,-1.6591087579727173,-1.4549272060394287,-2.6230533123016357
1790266742885001500,15.79700146484375,-1.7055344581604004,-1.3266456127166748,-2.679252862930298
1790266742902254000,15.814254150390624,-1.6896519660949707,-1.4060579538345337,-2.6053383350372314
1790266742919506700,15.831506591796876,-1.5460987091064453,-1.2777763605117798,-2.4190244674682617
1790266742936759600,15.848759521484375,-1.3158026933670044,-0.939357340335846,-2.2730278968811035
1790266742954012200,15.86601220703125,-1.0103703737258911,-0.8611665964126587,-1.9358304738998413
1790266742971264800,15.8832646484375,-0.8900299668312073,-0.6155989766120911,-1.5167772769927979
1790266742988517600,15.900517578125,-0.7898481488227844,-0.12140937149524689,-1.1771364212036133
1790266743005770200,15.917770263671875,-0.5210676789283752,0.18585561215877533,-0.6414080262184143
1790266743023023000,15.935023193359376,-0.22296564280986786,0.3868301212787628,-0.1899789422750473
1790266743040275700,15.952275634765625,0.0720820426940918,0.3367392122745514,0.1905898153781891
1790266743057528300,15.9695283203125,0.2767217457294464,0.08200860023498535,0.5852084755897522
1790266743074781200,15.98678125,0.462424635887146,-0.22098033130168915,0.9095776677131653
1790266743092033800,16.00403369140625,0.7452550530433655,-0.31871870160102844,1.1514800786972046
1790266743109286700,16.02128662109375,0.9621120095252991,-0.17394374310970306,1.33290696144104
1790266743126539300,16.038539306640626,1.1624757051467896,0.3611738085746765,1.4679080247879028
1790266743143791900,16.0557919921875,1.2547162771224976,1.086881160736084,1.6224569082260132
1790266743161044700,16.073044677734377,1.2388337850570679,1.4943280220031738,1.8240422010421753
1790266743178297300,16.09029736328125,1.237612009048462,1.6287182569503784,2.1508548259735107
1790266743195550000,16.107550048828124,1.3151918649673462,1.539531946182251,2.489274024963379
1790266743212802800,16.124802734375,1.4001020193099976,1.5346450805664062,2.6523749828338623
1790266743230055400,16.142055419921874,1.4556907415390015,1.5615230798721313,2.6535966396331787
1790266743247308000,16.15930810546875,1.5210533142089844,1.7417281866073608,2.5277583599090576
1790266743264561000,16.176560791015625,1.6572761535644531,1.782656192779541,2.327394723892212
1790266743281813500,16.1938134765625,1.8661918640136719,1.4527891874313354,2.18261981010437
1790266743299066400,16.21106640625,2.05617094039917,0.9818124175071716,2.117868185043335
1790266743316319000,16.228319091796877,2.1667373180389404,0.5181660652160645,1.9938626289367676
1790266743333571600,16.245571533203126,1.9804235696792603,-0.009010255336761475,1.8087706565856934
1790266743350824400,16.262824462890624,1.6597195863723755,-0.3938550651073456,1.6884303092956543
1790266743368077000,16.2800771484375,1.4104868173599243,-0.6779071688652039,1.64566969871521
1790266743385329700,16.29732958984375,1.2327251434326172,-0.8526145219802856,1.6963714361190796
1790266743402582500,16.31458251953125,1.0244202613830566,-0.8153517842292786,1.6627739667892456
1790266743419835100,16.331835205078125,0.7544180154800415,-0.6320923566818237,1.2999202013015747
1790266743437088000,16.349087890625,0.5094612240791321,-0.41157013177871704,0.7599157691001892
1790266743454340600,16.366340576171876,0.235793799161911,-0.21914774179458618,0.29016077518463135
1790266743471593200,16.38359326171875,-0.11545344442129135,-0.13545925915241241,-0.01893680728971958
1790266743488845800,16.400845703125,-0.3707949221134186,-0.1721111536026001,-0.20341797173023224
1790266743506098400,16.418098388671876,-0.4263836145401001,-0.1818849891424179,-0.40805765986442566
1790266743523351000,16.43535107421875,-0.44959646463394165,-0.32849252223968506,-0.5766563415527344
1790266743540603400,16.452603271484374,-0.5106829404830933,-0.46227192878723145,-0.7220421433448792
1790266743557856000,16.46985595703125,-0.5913171172142029,-0.4696022868156433,-0.8619301915168762
1790266743575108400,16.4871083984375,-0.6505709886550903,-0.32360562682151794,-0.9883792400360107
1790266743592361000,16.50436083984375,-0.7250964641571045,-0.041386090219020844,-1.1985167264938354
1790266743609613800,16.52161376953125,-0.8277217745780945,0.37583455443382263,-1.4746276140213013
1790266743626866400,16.538866455078125,-0.9950987100601196,0.7612902522087097,-1.7684534788131714
1790266743644119300,16.556119384765626,-1.22234046459198,0.8345940113067627,-1.8814635276794434
1790266743661372000,16.573371826171876,-1.4617993831634521,0.40576693415641785,-1.8545855283737183
1790266743678624500,16.59062451171875,-1.6365067958831787,-0.1262962967157364,-1.6658282279968262
1790266743695877400,16.60787744140625,-1.617569923400879,-0.7939714789390564,-1.673769474029541
1790266743713130000,16.6251298828125,-1.5748094320297241,-1.2038617134094238,-1.8704679012298584
1790266743730382800,16.6423828125,-1.6817107200622559,-1.4341577291488647,-2.026238441467285
1790266743747635500,16.659635498046875,-1.7989968061447144,-1.4860812425613403,-2.193004608154297
1790266743764888000,16.67688818359375,-1.7928881645202637,-1.5172353982925415,-2.355494499206543
1790266743782141000,16.694140869140625,-1.6957606077194214,-1.7683007717132568,-2.3341143131256104
1790266743799393500,16.7113935546875,-1.5680898427963257,-1.8226678371429443,-2.263253927230835
1790266743816646400,16.728646484375,-1.398269534111023,-1.4433207511901855,-2.2003350257873535
1790266743833899000,16.74589892578125,-1.193018913269043,-1.326034665107727,-2.098320484161377
1790266743851151600,16.763151611328126,-1.1081087589263916,-1.3547453880310059,-1.9834779500961304
1790266743868404500,16.780404541015624,-1.0244202613830566,-0.8061888217926025,-1.7452406883239746
1790266743885657000,16.797656982421874,-0.8393282294273376,-0.13362666964530945,-1.459966778755188
1790266743902910000,16.814909912109375,-0.6585122346878052,0.1974620372056961,-1.0341941118240356
1790266743920162600,16.83216259765625,-0.5143481492996216,0.1663079410791397,-0.5925388336181641
1790266743937415200,16.849415283203125,-0.3488037884235382,0.10216713696718216,-0.24495677649974823
1790266743954668000,16.86666796875,-0.14172062277793884,0.08567378669977188,0.09040798991918564
1790266743971920600,16.883920654296876,0.0769689604640007,0.0795651376247406,0.536339282989502
1790266743989173200,16.90117333984375,0.33658650517463684,0.22250749170780182,0.9761618971824646
1790266744006425600,16.918425537109375,0.6365211009979248,0.4454731345176697,1.3530654907226562
1790266744023678200,16.93567822265625,0.916297197341919,0.7564033269882202,1.5021164417266846
1790266744040930800,16.952930908203125,1.099556565284729,1.068555235862732,1.601076602935791
1790266744058183200,16.97018310546875,1.2058470249176025,1.1797325611114502,1.8344268798828125
1790266744075435800,16.987435791015624,1.3041963577270508,1.3782637119293213,2.0995421409606934
1790266744092688400,17.0046884765625,1.4202606678009033,1.5004366636276245,2.2895212173461914
1790266744109941200,17.021941162109375,1.5460987091064453,1.5474731922149658,2.3927574157714844
1790266744127194400,17.0391943359375,1.6230677366256714,1.5749621391296387,2.5864014625549316
1790266744144447200,17.056447265625,1.7012584209442139,1.5364776849746704,2.6334381103515625
1790266744161700000,17.0737001953125,1.8026620149612427,1.5053235292434692,2.5295910835266113
1790266744178953000,17.090952880859376,1.832594394683838,1.3825397491455078,2.3707661628723145
1790266744196205800,17.108205810546874,1.8374812602996826,1.1339176893234253,2.145967960357666
1790266744213458400,17.12545849609375,1.92361319065094,0.8993456959724426,1.962708592414856
1790266744230711300,17.142711181640625,1.8839069604873657,0.47845983505249023,1.8277074098587036
1790266744247964000,17.1599638671875,1.6517783403396606,-0.16355904936790466,1.690262794494629
1790266744265216500,17.177216552734375,1.3634501695632935,-0.7921388745307922,1.4862339496612549
1790266744282469400,17.194469482421876,1.1441497802734375,-1.1635446548461914,1.3292417526245117
1790266744299721700,17.2117216796875,0.9822705388069153,-1.2118029594421387,1.1588104963302612
1790266744316974300,17.228974365234375,0.8356630206108093,-0.817184329032898,0.9737184643745422
1790266744334227000,17.24622705078125,0.6682860851287842,-0.42684176564216614,0.6163625717163086
1790266744351479300,17.263479248046874,0.430659681558609,-0.19654574990272522,0.30604326725006104
1790266744368732000,17.28073193359375,0.19730933010578156,-0.03649916872382164,0.03787361457943916
1790266744385984300,17.297984375,-0.053756099194288254,0.15347976982593536,-0.27855435013771057
1790266744403237000,17.315237060546874,-0.30054548382759094,0.22434009611606598,-0.5131264328956604
1790266744420489700,17.33248974609375,-0.4575377106666565,0.21090106666088104,-0.6621774435043335
1790266744437742600,17.34974267578125,-0.5937605500221252,0.2652680277824402,-0.7990111112594604
1790266744454995200,17.3669951171875,-0.6933315396308899,0.20357069373130798,-0.9144645929336548
1790266744472247800,17.384247802734375,-0.7409789562225342,0.1357647031545639,-1.0195332765579224
1790266744489500700,17.401500732421876,-0.7531962990760803,0.1516471803188324,-1.0708459615707397
1790266744506753300,17.418753173828126,-0.7373138070106506,0.18524473905563354,-1.1838558912277222
1790266744524006100,17.436006103515624,-0.7819069027900696,0.1974620372056961,-1.3567306995391846
1790266744541258800,17.4532587890625,-0.9578359723091125,0.1259908676147461,-1.422093152999878
1790266744558511400,17.470511474609374,-1.191797137260437,-0.20082180202007294,-1.4984513521194458
1790266744575764200,17.48776416015625,-1.4373648166656494,-0.36392268538475037,-1.6316198110580444
1790266744593016800,17.505016845703125,-1.591302752494812,-0.6235402226448059,-1.7385212182998657
1790266744610269700,17.522269775390626,-1.7635666131973267,-0.9521854519844055,-1.8967351913452148
1790266744627522300,17.539522216796875,-1.860694169998169,-1.0157153606414795,-2.095877170562744
1790266744644775000,17.55677490234375,-1.6682716608047485,-1.0138828754425049,-2.123976945877075
1790266744662027800,17.57402783203125,-1.4746276140213013,-1.1042908430099487,-2.157574415206909
1790266744679280400,17.5912802734375,-1.4245367050170898,-1.134223222732544,-2.2345433235168457
1790266744696533000,17.608532958984377,-1.4306453466415405,-1.0548107624053955,-2.3255622386932373
1790266744713785900,17.625785888671874,-1.3927717208862305,-1.0847431421279907,-2.232710838317871
1790266744731038500,17.64303857421875,-1.3726131916046143,-1.3040435314178467,-2.061668634414673
1790266744748291300,17.660291259765625,-1.3976585865020752,-1.1275036334991455,-1.8881829977035522
1790266744765544000,17.6775439453125,-1.334128737449646,-0.5569559335708618,-1.7250821590423584
1790266744782796500,17.694796630859376,-1.1099413633346558,-0.19410228729248047,-1.536935806274414
1790266744800049400,17.71204931640625,-0.8936951756477356,-0.027947064489126205,-1.2748748064041138
1790266744817302000,17.729302001953126,-0.685390293598175,0.22617268562316895,-0.8723149299621582
1790266744834555000,17.746554931640624,-0.4202749729156494,0.28725916147232056,-0.42332929372787476
1790266744851807500,17.763807373046873,-0.09529490768909454,0.3043633699417114,-0.04581485688686371
1790266744869060000,17.78106005859375,0.15638138353824615,0.3526217043399811,0.23884813487529755
1790266744886313000,17.79831298828125,0.4263836145401001,0.39538222551345825,0.6994401812553406
1790266744903565600,17.815565673828125,0.7849612236022949,0.6885973215103149,1.1172716617584229
1790266744920818200,17.832818115234375,1.0390809774398804,1.0398445129394531,1.334128737449646
1790266744938071000,17.850071044921876,1.110552191734314,1.2395973205566406,1.5748094320297241
1790266744955323600,17.86732373046875,1.2260055541992188,1.4772237539291382,1.905287265777588
1790266744972576500,17.884576416015626,1.4178171157836914,1.4527891874313354,2.140470266342163
1790266744989829000,17.9018291015625,1.518609881401062,1.4442371129989624,2.114813804626465
1790266745007081700,17.919081787109373,1.6242893934249878,1.5712969303131104,2.140470266342163
1790266745024334600,17.93633447265625,1.8784091472625732,1.78937566280365,2.2113304138183594
1790266745041587200,17.953587158203124,2.142913579940796,1.725234866142273,2.266308307647705
1790266745058840000,17.970840087890625,2.2473714351654053,1.3031272888183594,2.27730393409729
1790266745076092700,17.9880927734375,2.232100009918213,0.9726494550704956,2.235154151916504
1790266745093345300,18.00534521484375,2.252258539199829,0.6549997329711914,2.0836596488952637
1790266745110598100,18.02259814453125,2.3035709857940674,0.41615164279937744,1.99630606174469
1790266745127850800,18.039850830078127,2.2583670616149902,0.38072147965431213,1.9297218322753906
1790266745145103400,18.057103271484376,2.0977096557617188,0.2084576040506363,1.7012584209442139
1790266745162356200,18.074356201171874,1.8832961320877075,-0.29672756791114807,1.4465278387069702
1790266745179608800,18.09160888671875,1.6126830577850342,-0.5575668215751648,1.2822052240371704
1790266745196861400,18.108861328125,1.2815942764282227,-0.48304131627082825,1.0958913564682007
1790266745214113800,18.12611376953125,0.9810488224029541,-0.30833399295806885,0.8717040419578552
1790266745231366400,18.143366455078127,0.7562506198883057,-0.18310672044754028,0.5900954008102417
1790266745248619000,18.160618896484376,0.49418962001800537,-0.17333288490772247,0.31520622968673706
1790266745265871400,18.177871337890625,0.20463970303535461,-0.3199404180049896,0.027488915249705315
1790266745283124000,18.1951240234375,-0.014049889519810677,-0.44638943672180176,-0.16126830875873566
1790266745300376600,18.21237646484375,-0.1588248461484909,-0.47693267464637756,-0.3274235129356384
1790266745317629400,18.22962939453125,-0.2968802750110626,-0.38408124446868896,-0.4062250852584839
1790266745334882000,18.246882080078127,-0.47952884435653687,-0.13912445306777954,-0.38789913058280945
1790266745352135000,18.264135009765624,-0.5974257588386536,0.2328922003507614,-0.38301220536231995
1790266745369387500,18.281387451171874,-0.6371319890022278,0.5878046154975891,-0.5253437161445618
1790266745386640100,18.29864013671875,-0.685390293598175,0.7985529899597168,-0.9010255336761475
1790266745403893000,18.31589306640625,-0.8778126835823059,0.8565851449966431,-1.2999202013015747
1790266745421145600,18.3331455078125,-1.1062761545181274,0.5670352578163147,-1.4550799131393433
1790266745438398200,18.350398193359375,-1.1612539291381836,0.2029598206281662,-1.3671153783798218
1790266745455651000,18.367651123046876,-1.1264346837997437,-0.14706569910049438,-1.2541054487228394
1790266745472903700,18.384903564453126,-1.0708459615707397,-0.4017963111400604,-1.278540015220642
1790266745490156500,18.402156494140623,-1.094058871269226,-0.5178605914115906,-1.4734058380126953
1790266745507409200,18.4194091796875,-1.3292417526245117,-0.7029526233673096,-1.7947207689285278
1790266745524661800,18.436661865234374,-1.6817107200622559,-1.0835213661193848,-2.0744967460632324
1790266745541914600,18.45391455078125,-1.849698543548584,-0.9827287197113037,-2.2669191360473633
1790266745559167200,18.471167236328125,-1.7159191370010376,-0.6375901103019714,-2.405585527420044
1790266745576420000,18.488420166015626,-1.554650902748108,-0.7744238376617432,-2.486219644546509
1790266745593672700,18.505672607421875,-1.5833615064620972,-1.1653772592544556,-2.5692973136901855
1790266745610925300,18.52292529296875,-1.6957606077194214,-1.2954914569854736,-2.6395466327667236
1790266745628178200,18.54017822265625,-1.6297872066497803,-1.3333650827407837,-2.5222606658935547
1790266745645430800,18.5574306640625,-1.3927717208862305,-1.5654937028884888,-2.3713769912719727
1790266745662683600,18.57468359375,-1.2822052240371704,-1.5862630605697632,-2.2870776653289795
1790266745679936300,18.591936279296874,-1.1380411386489868,-1.206916093826294,-2.171013355255127
1790266745697188900,18.60918896484375,-0.8894191384315491,-0.7738129496574402,-1.9669846296310425
1790266745714441700,18.626441650390625,-0.6597339510917664,-0.567951500415802,-1.4538581371307373
1790266745731694300,18.6436943359375,-0.4373791813850403,-0.23686282336711884,-0.952949047088623
1790266745748947200,18.660947265625,-0.22479823231697083,0.10399972647428513,-0.536339282989502
1790266745766199800,18.67819970703125,-0.014660755172371864,0.09300415962934494,-0.13011419773101807
1790266745783452400,18.695452392578126,0.1178968995809555,-0.041386090219020844,0.3646862804889679
1790266745800705000,18.712705078125,0.33231043815612793,0.020922118797898293,0.7195987105369568
1790266745817958000,18.7299580078125,0.5027416944503784,0.30741769075393677,0.988990068435669
1790266745835210500,18.74721044921875,0.6847794055938721,0.5645917654037476,1.249218463897705
1790266745852463000,18.764463134765624,0.9065233469009399,0.698371171951294,1.61085045337677
1790266745869716000,18.781716064453125,1.0867284536361694,1.0661118030548096,1.8087706565856934
1790266745886968600,18.798968505859374,1.232114315032959,1.3709332942962646,2.03112530708313
1790266745904221400,18.816221435546876,1.414151906967163,1.6476550102233887,2.299294948577881
1790266745921474000,18.83347412109375,1.5491530895233154,1.4240784645080566,2.5503604412078857
1790266745938726700,18.8507265625,1.5485422611236572,1.1565197706222534,2.6328272819519043
1790266745955979500,18.8679794921875,1.4844014644622803,1.243262529373169,2.6132795810699463
1790266745973232000,18.885232177734373,1.4972295761108398,1.3978112936019897,2.5222606658935547
1790266745990485000,18.902485107421874,1.6407828330993652,1.2243257761001587,2.413526773452759
1790266746007737600,18.919737548828124,1.904065489768982,1.0019710063934326,2.1972806453704834
1790266746024990200,18.936990234375,2.224158763885498,0.6195695996284485,2.048229694366455
1790266746042243000,18.9542431640625,2.358548879623413,0.0844520553946495,2.039677381515503
1790266746059495700,18.97149560546875,2.25531268119812,-0.3681987524032593,1.9645410776138306
1790266746076748500,18.98874853515625,1.9828671216964722,-0.6571378111839294,1.7861685752868652
1790266746094001200,19.006001220703126,1.6908737421035767,-0.6137663722038269,1.5680898427963257
1790266746111253800,19.023253662109376,1.4587451219558716,-0.24541492760181427,1.2760965824127197
1790266746128506600,19.040506591796873,1.1728603839874268,-0.16600249707698822,0.9462295174598694
1790266746145759200,19.05775927734375,0.8539889454841614,-0.23136503994464874,0.5784889459609985
1790266746163012000,19.07501220703125,0.4978547990322113,-0.17027856409549713,0.18631376326084137
1790266746180264700,19.0922646484375,0.18875721096992493,-0.15989385545253754,-0.0769689604640007
1790266746197517300,19.109517333984375,-0.021380268037319183,-0.32421648502349854,-0.11239911615848541
1790266746214770200,19.126770263671876,-0.12767073512077332,-0.568562388420105,-0.1533270627260208
1790266746232022800,19.144022705078125,-0.2009745091199875,-0.6204859018325806,-0.21441353857517242
1790266746249275400,19.161275390625,-0.2968802750110626,-0.4598284661769867,-0.2565632164478302
1790266746266528300,19.1785283203125,-0.44470956921577454,-0.281455934047699,-0.25900667905807495
1790266746283780900,19.19578076171875,-0.6059778332710266,-0.11896591633558273,-0.29077163338661194
1790266746301033500,19.213033447265627,-0.7800742983818054,0.20479241013526917,-0.4221075773239136
1790266746318285800,19.230285888671876,-1.0024291276931763,0.523052990436554,-0.5907062292098999
1790266746335538400,19.247538330078125,-1.1233803033828735,0.3013090491294861,-0.6695078015327454
1790266746352790800,19.264790771484375,-0.9718858599662781,-0.4384481906890869,-0.5387827157974243
1790266746370043400,19.28204345703125,-0.7367029190063477,-0.7463240623474121,-0.5717694163322449
1790266746387296000,19.2992958984375,-0.8503237962722778,-0.6400335431098938,-0.9877683520317078
1790266746404548600,19.316548583984375,-1.4172062873840332,-0.1971566081047058,-1.5711442232131958
1790266746421801500,19.333801513671876,-1.916893720626831,0.09117157012224197,-1.535714030265808
1790266746439054000,19.35105419921875,-1.8442007303237915,-0.6589703559875488,-1.0946696996688843
1790266746456307000,19.368306884765627,-1.5864158868789673,-1.2936588525772095,-1.0103703737258911
1790266746473559600,19.3855595703125,-1.377500057220459,-0.45127636194229126,-1.0030399560928345
1790266746490812200,19.402812255859374,-1.008537769317627,0.05024362727999687,-1.0641264915466309
1790266746508065000,19.42006494140625,-0.972496747970581,-1.0450369119644165,-1.193018913269043
1790266746525317600,19.437317626953124,-1.5393792390823364,-1.2594504356384277,-1.2192860841751099
1790266746542570200,19.4545703125,-1.8435899019241333,-1.059086799621582,-1.7318016290664673
1790266746559823000,19.471822998046875,-1.813657522201538,-1.4335469007492065,-1.9101741313934326
1790266746577075700,19.48907568359375,-1.6731586456298828,-2.4683518409729004,-1.886350393295288
1790266746594328600,19.50632861328125,-1.464242935180664,-2.520275354385376,-1.9523237943649292
1790266746611581200,19.523581298828127,-1.1905754804611206,-2.749960422515869,-1.747684121131897
1790266746628833800,19.540833740234376,-1.0555742979049683,-2.3681700229644775,-1.452636480331421
1790266746646086700,19.558086669921874,-0.730594277381897,-1.333975911140442,-1.1630865335464478
1790266746663339300,19.57533935546875,-0.47036588191986084,-0.4182896614074707,-0.5601630210876465
1790266746680592000,19.592591796875,-0.3500255048274994,-0.05849030241370201,-0.039706211537122726
1790266746697844500,19.609844482421874,-0.05864302068948746,1.1534653902053833,0.08002328872680664
1790266746715097000,19.62709716796875,-0.20830489695072174,2.123518705368042,0.0513126403093338
1790266746732349400,19.644349365234376,-0.379347026348114,1.7539454698562622,0.07880155742168427
1790266746749602000,19.66160205078125,-0.09834922850131989,1.5224277973175049,0.328645259141922
1790266746766854400,19.6788544921875,0.3042106628417969,1.0960441827774048,0.685390293598175
1790266746784107000,19.69610693359375,0.66645348072052,0.7680097222328186,1.1239912509918213
1790266746801360000,19.71335986328125,0.8826996088027954,0.8810197114944458,1.4679080247879028
1790266746818612700,19.73061279296875,0.9352339506149292,1.03129243850708,1.85092031955719
1790266746835865600,19.747865478515624,0.9553925395011902,1.0789399147033691,2.2388193607330322
1790266746853118700,19.76511865234375,0.9847140312194824,1.5169299840927124,2.5491387844085693
1790266746870371600,19.78237158203125,1.135597586631775,1.5719077587127686,2.821584463119507
1790266746887624400,19.79962451171875,1.415373682975769,1.3611594438552856,2.866177558898926
1790266746904877000,19.816876953125,1.7544035911560059,1.3978112936019897,2.755610942840576
1790266746922130000,19.8341298828125,2.145967960357666,1.180343508720398,2.663370370864868
1790266746939382500,19.851382568359377,2.4514002799987793,0.7783944606781006,2.5014913082122803
1790266746956635100,19.86863525390625,2.4294092655181885,0.5114465355873108,2.5827362537384033
1790266746973888000,19.885887939453124,2.2314889430999756,-0.021227551624178886,2.4886631965637207
1790266746991140600,19.903140625,1.9901974201202393,-0.6119337677955627,2.316399335861206
1790266747008393500,19.9203935546875,1.8649702072143555,-0.8434515595436096,1.9737040996551514
1790266747025646000,19.93764599609375,1.832594394683838,-0.48181959986686707,1.6768238544464111
1790266747042898700,19.954898681640625,1.5986331701278687,0.19562944769859314,1.0787872076034546
1790266747060151600,19.972151611328126,1.094058871269226,0.5566505193710327,0.5375609993934631
1790266747077404200,19.989404052734375,0.6835576891899109,0.652556300163269,0.008552107028663158
1790266747094657000,20.006656982421877,0.4868592321872711,0.9928079843521118,-0.2816086709499359
1790266747111909600,20.02390966796875,0.03237583488225937,1.1711804866790771,-0.5070177912712097
1790266747129162200,20.041162353515624,-0.6389645338058472,0.6776017546653748,-0.9560033679008484
1790266747146415000,20.0584150390625,-1.0384701490402222,-0.125074565410614,-1.2712095975875854
1790266747163667700,20.075667724609374,-1.0012073516845703,-0.9100357890129089,-1.1423171758651733
1790266747180920600,20.092920654296876,-0.9401208758354187,-1.4372121095657349,-0.5619956254959106
1790266747198173200,20.110173095703125,-0.8558215498924255,-1.1537708044052124,-0.2919933497905731
1790266747215425800,20.12742578125,-0.7067705392837524,-0.34926193952560425,-0.4935787320137024
1790266747232678700,20.1446787109375,-0.7513636946678162,0.49373146891593933,-0.8747583627700806
1790266747249931300,20.16193115234375,-1.0836740732192993,0.9952514171600342,-1.2724313735961914
1790266747267184000,20.17918408203125,-1.7238603830337524,1.5126539468765259,-1.370169758796692
1790266747284436700,20.196436767578124,-2.1080944538116455,1.2292126417160034,-1.4123194217681885
1790266747301689300,20.213689453125,-2.020129919052124,0.01908952370285988,-1.3439024686813354
1790266747318942200,20.230942138671875,-1.7733404636383057,-1.0004438161849976,-1.1966841220855713
1790266747336194800,20.24819482421875,-1.693317174911499,-0.8910989761352539,-1.361006736755371
1790266747353447400,20.265447509765625,-1.7140865325927734,-0.5465712547302246,-1.7501275539398193
1790266747370700300,20.2827001953125,-1.7452406883239746,-0.8318451046943665,-2.4159700870513916
1790266747387953000,20.299952880859376,-1.99630606174469,-1.1672098636627197,-3.104414701461792
1790266747405205200,20.317205322265625,-2.378096580505371,-0.9173662066459656,-3.1734426021575928
1790266747422457900,20.334457763671875,-2.0641121864318848,-0.7524327039718628,-2.380540132522583
1790266747439710500,20.35171044921875,-1.4379756450653076,-0.884379506111145,-1.6426154375076294
1790266747456962800,20.368962890625,-1.1184934377670288,-0.6656898856163025,-1.4520255327224731
1790266747474215400,20.38621533203125,-1.2162318229675293,-0.6656898856163025,-1.6462805271148682
1790266747491468000,20.403468017578124,-1.3695588111877441,-1.251509189605713,-1.7684534788131714
1790266747508720600,20.420720703125,-1.4813470840454102,-0.9124792814254761,-1.7153083086013794
1790266747525973500,20.437973388671875,-1.099556565284729,0.37094762921333313,-1.1887428760528564
1790266747543226000,20.45522607421875,-0.6181951761245728,0.21090106666088104,-0.38667741417884827
1790266747560478700,20.472478759765625,-0.4214966893196106,0.0062613640911877155,-0.3127627670764923
1790266747577731600,20.489731689453127,-0.46914416551589966,-0.1519526094198227,-0.36774060130119324
1790266747594984200,20.506984130859376,-0.35185810923576355,-0.22769984602928162,0.1380554437637329
1790266747612236800,20.52423681640625,-0.17776164412498474,-0.04505127668380737,0.4972439408302307
1790266747629489700,20.54148974609375,-0.05497783049941063,0.2591593861579895,0.6792816519737244
1790266747646742300,20.5587421875,0.1637117564678192,0.5371028780937195,1.045189619064331
1790266747663995100,20.5759951171875,0.6035344004631042,0.6097957491874695,1.339626431465149
1790266747681247700,20.593247802734375,0.8271108865737915,0.9628756046295166,1.4605777263641357
1790266747698500400,20.610500244140624,0.8698714375495911,1.2603667974472046,1.915671944618225
1790266747715753200,20.627753173828125,1.1282672882080078,1.5260928869247437,2.27424955368042
1790266747733005800,20.645005859375,1.3836086988449097,1.5877902507781982,2.3157882690429688
1790266747750258700,20.6622587890625,1.5784746408462524,1.624442219734192,2.2950189113616943
1790266747767511300,20.67951123046875,1.7153083086013794,1.5896228551864624,2.363435745239258
1790266747784764000,20.696763916015627,1.7733404636383057,1.5303690433502197,2.316399335861206
1790266747802016800,20.714016845703124,1.877798318862915,1.2774709463119507,2.20155668258667
1790266747819269400,20.731269287109374,2.127031087875366,1.0795507431030273,2.0714423656463623
1790266747836522200,20.748522216796875,2.308458089828491,0.74540776014328,1.9480477571487427
1790266747853774800,20.76577490234375,2.164904832839966,0.3452913165092468,1.72141695022583
1790266747871027500,20.78302734375,1.8423681259155273,-0.03222311660647392,1.4898991584777832
1790266747888280300,20.8002802734375,1.5595377683639526,-0.35964664816856384,1.444695234298706
1790266747905533000,20.817532958984376,1.423925757408142,-0.3107774555683136,1.3109158277511597
1790266747922785800,20.834785888671874,1.3848304748535156,-0.2863428592681885,1.1991275548934937
1790266747940038400,20.852038330078123,1.3377938270568848,-0.2893971800804138,1.0641264915466309
1790266747957291000,20.869291015625,1.2180644273757935,-0.2026543915271759,0.8191696405410767
1790266747974544000,20.8865439453125,1.0213658809661865,-0.1672242283821106,0.5479456782341003
1790266747991796500,20.90379638671875,0.7128791809082031,-0.24785839021205902,0.19242240488529205
1790266748009049000,20.921049072265625,0.38667741417884827,-0.14217877388000488,-0.10567960888147354
1790266748026302000,20.938302001953126,0.12705987691879272,0.21456626057624817,-0.24312418699264526
1790266748043554600,20.955554443359375,-0.08368847519159317,0.49800750613212585,-0.45387253165245056
1790266748060807400,20.972807373046876,-0.2522871494293213,0.5108356475830078,-0.7391464114189148
1790266748078060000,20.99006005859375,-0.430659681558609,0.3923279047012329,-0.8943060636520386
1790266748095312600,21.007312744140624,-0.5943714380264282,0.5829176902770996,-0.9474512934684753
1790266748112565500,21.0245654296875,-0.7360920310020447,0.6776017546653748,-0.9657772183418274
1790266748129818000,21.041818115234374,-0.7195987105369568,0.5108356475830078,-1.0201442241668701
1790266748147071000,21.059071044921875,-0.7141009569168091,0.35323256254196167,-1.176525592803955
1790266748164323600,21.076323486328125,-0.8625410795211792,0.37522369623184204,-1.2980875968933105
1790266748181576200,21.093576171875,-1.0665699243545532,0.38011062145233154,-1.5198315382003784
1790266748198829000,21.1108291015625,-1.2919789552688599,0.1766926348209381,-1.784335970878601
1790266748216081700,21.12808154296875,-1.4752384424209595,-0.19837833940982819,-2.001193046569824
1790266748233334500,21.14533447265625,-1.7947207689285278,-0.4488328993320465,-2.0360124111175537
1790266748250587100,21.162587158203124,-1.849698543548584,-1.3321434259414673,-2.0799946784973145
1790266748267839700,21.17983984375,-1.7275255918502808,-1.4976876974105835,-2.252258539199829
1790266748285092600,21.197092529296874,-1.4734058380126953,-0.6974548697471619,-2.467282772064209
1790266748302345200,21.21434521484375,-1.2980875968933105,-0.8965967893600464,-2.5466952323913574
1790266748319598000,21.23159814453125,-1.1826342344284058,-0.9534072279930115,-2.626718521118164
1790266748336850700,21.2488505859375,-1.1850776672363281,-0.9033163189888,-2.51431941986084
1790266748354103300,21.266103271484376,-1.2089014053344727,-1.0664172172546387,-2.246149778366089
1790266748371356200,21.283356201171873,-1.1508692502975464,-1.2038617134094238,-2.1557416915893555
1790266748388781300,21.30078125,-0.8729257583618164,-1.0548107624053955,-2.0152428150177
1790266748406378800,21.318378662109374,-0.5412262082099915,-0.5099193453788757,-1.6462805271148682
1790266748423976200,21.33597607421875,-0.24373504519462585,-0.14828743040561676,-1.265711784362793
1790266748441573600,21.35357373046875,-0.13011419773101807,-0.14034618437290192,-0.9279035925865173
1790266748459171300,21.37117138671875,-0.08124501258134842,0.09911280870437622,-0.5497782826423645
1790266748476768800,21.388768798828124,0.056810423731803894,0.15286891162395477,-0.2987128794193268
1790266748494366200,21.4063662109375,0.1692095398902893,-0.004734201822429895,0.02260199747979641
1790266748511963600,21.423963623046873,0.37690356373786926,0.06856957077980042,0.38667741417884827
1790266748529561300,21.441561279296874,0.7018836140632629,0.388051837682724,0.6829468011856079
1790266748547158800,21.45915869140625,0.8979712128639221,0.6629409790039062,0.9608902931213379
1790266748564756200,21.476756103515626,1.0861176252365112,0.9127846956253052,1.3072506189346313
1790266748582353700,21.494353759765627,1.2583814859390259,0.9799798130989075,1.5558725595474243
1790266748599667000,21.5116669921875,1.3170244693756104,1.142469882965088,1.703091025352478
1790266748616980000,21.52897998046875,1.3854413032531738,1.3183989524841309,1.8832961320877075
1790266748634293000,21.54629296875,1.5021164417266846,1.4534000158309937,2.0494513511657715
1790266748651606300,21.563606201171876,1.6084070205688477,1.4216350317001343,2.0946552753448486
1790266748668919300,21.580919189453127,1.6536109447479248,1.4888302087783813,2.120311737060547
