time,seconds_elapsed,z,y,x
1791029826794636000,0.052635986328125,9.503719192582368,2.2994446704886853,-0.7498416312247514
1791029826804667000,0.0626669921875,9.522471823847294,2.2410915579803286,-0.6858753550097346
1791029826814698000,0.072697998046875,9.543452652555704,2.1698406777150927,-0.6202284322313965
1791029826824729000,0.08272900390625,9.564742108821868,2.0923874356783925,-0.554983806643635
1791029826834760200,0.09276025390625,9.584005612218379,2.0198722345657645,-0.487171924383752
1791029826844791300,0.102791259765625,9.598881694310903,1.9618430933147668,-0.4278179642697796
1791029826854823200,0.1128232421875,9.60881213669479,1.923476683910936,-0.3759678404472768
1791029826864854000,0.12285400390625,9.615323710545898,1.899192137482017,-0.330154293375276
1791029826874885000,0.132885009765625,9.621055532196163,1.877536624382436,-0.28378506691558286
1791029826884916000,0.142916015625,9.627510407423973,1.8508724893406032,-0.23600157147748393
1791029826894947000,0.152947021484375,9.635048401713371,1.8163057644806802,-0.1930386645962484
1791029826904978000,0.16297802734375,9.642665306457877,1.7787705452039837,-0.1592509612848051
1791029826915009000,0.173009033203125,9.64855319545269,1.7482146634206175,-0.13983334503881634
1791029826925040000,0.1830400390625,9.655947397357226,1.6995001707427202,-0.21158190916050224
1791029826935071000,0.193071044921875,9.66227893846631,1.646583842460811,-0.3154617876887321
1791029826945102300,0.203102294921875,9.665587332361936,1.6107750085853039,-0.3901410715000704
1791029826955133200,0.21313330078125,9.670052495077252,1.580558880150318,-0.4028741136819124
1791029826965164300,0.223164306640625,9.677855862304568,1.5429622860752046,-0.3588291106523946
1791029826975196200,0.233196044921875,9.687075526070593,1.49910078638643,-0.2892265273171477
1791029826985227000,0.24322705078125,9.694681909421085,1.4611150468632579,-0.22060254322309045
1791029826995258000,0.253258056640625,9.698903326508402,1.4401137598887086,-0.16653594892751425
1791029827005289000,0.2632890625,9.698438047084212,1.4445821374744177,-0.15447423013597725
1791029827015320000,0.273320068359375,9.695304425233601,1.462977625864744,-0.17651260507330296
1791029827025351200,0.28335107421875,9.690362877178192,1.4831839630693195,-0.25963919830499216
1791029827035382000,0.293382080078125,9.685950321432948,1.4847735703483222,-0.38496421685144305
1791029827045413000,0.3034130859375,9.68494085212946,1.4508882518813013,-0.5169418068885803
1791029827055444000,0.31344384765625,9.688103700074553,1.3847805797234176,-0.6272309314046055
1791029827065475000,0.32347509765625,9.691081254580617,1.306210900877416,-0.7396865863047539
1791029827075506200,0.333506103515625,9.684368020677566,1.2476998213283716,-0.9091991033576429
1791029827085537300,0.343537353515625,9.66546750537455,1.2160644006799906,-1.1270807337168602
1791029827095569200,0.353569091796875,9.640715341433882,1.228486002292484,-1.3106537056304515
1791029827105600000,0.36360009765625,9.613362055084108,1.3123803832925856,-1.4252410387970507
1791029827115631000,0.373631103515625,9.576459434622526,1.4889575780346989,-1.4982700346507132
1791029827125662200,0.383662109375,9.537456042489408,1.7194488799244165,-1.500271437601
1791029827135693000,0.393693115234375,9.521790271323919,1.9100586916722355,-1.362925890789926
1791029827145724200,0.40372412109375,9.531799039641022,2.0165992042444647,-1.1173695601068436
1791029827155754800,0.413754638671875,9.548839606291056,2.0685946182891723,-0.8431837856583296
1791029827165785900,0.423785888671875,9.56388110807836,2.092047682330012,-0.5708764088349416
1791029827175816700,0.433816650390625,9.573146364551782,2.1050288905866443,-0.3067631155895069
1791029827185847800,0.443847900390625,9.57309609566927,2.126158918507397,-0.0752350636637304
1791029827195878700,0.453878662109375,9.563747837087512,2.166034125038981,0.1157780955874361
1791029827205909800,0.46390966796875,9.548633854585885,2.2159690994225443,0.2888819699294865
1791029827215941600,0.473941650390625,9.533000232124328,2.2565578610509633,0.44748179209548977
1791029827225972700,0.48397265625,9.521834694987534,2.2762587329514323,0.5689429565543308
1791029827236003800,0.49400390625,9.516968550255894,2.2746575813651084,0.6508671699926257
1791029827246035000,0.504034912109375,9.520831655424832,2.2445544117853045,0.6972247973460703
1791029827256065800,0.514065673828125,9.53073988597691,2.2009834194757043,0.7007539213202894
1791029827266097000,0.524096923828125,9.531462355032563,2.1870478331036862,0.7337757548257708
1791029827276127700,0.534127685546875,9.518158052301406,2.2029789772070942,0.8496686906982213
1791029827286158800,0.544158935546875,9.487779280650615,2.2484882441028953,1.0472483414586633
1791029827296189700,0.554189697265625,9.440309088945389,2.3138274161063133,1.302746147376299
1791029827306220800,0.564220703125,9.386490989518165,2.3873536939576265,1.5377626716054975
1791029827316251600,0.574251708984375,9.343507587838172,2.4574486821860075,1.6823180036649108
1791029827326282800,0.58428271484375,9.31956323314905,2.4911601053908465,1.7635881736412644
1791029827336313600,0.594313720703125,9.310200946041942,2.4818249985516068,1.8251270765788852
1791029827346344700,0.6043447265625,9.304398397243022,2.4557848406270146,1.8888282721169292
1791029827356376600,0.61437646484375,9.292389979541301,2.4367646444670856,1.9707991377085445
1791029827366408000,0.624407958984375,9.272442585533856,2.431036329948157,2.069361511008441
1791029827376438800,0.634438720703125,9.251893133980035,2.4254370486363768,2.1656674836836753
1791029827386470000,0.644469970703125,9.233698136597871,2.409742343637347,2.258836181246489
1791029827396500700,0.654500732421875,9.214427034416794,2.3830641800701615,2.3634143077045677
1791029827406531800,0.66453173828125,9.189597713586688,2.347732754448056,2.491952132551372
1791029827416562700,0.674562744140625,9.156296332487463,2.3054290055952964,2.6490783385008574
1791029827426593800,0.68459375,9.111576900795102,2.257388466656208,2.8379133956611153
1791029827436624600,0.694624755859375,9.053046385893225,2.2032143933981656,3.0591797730877994
1791029827446655700,0.70465576171875,8.9805989893198,2.141195013467222,3.306737360590696
1791029827456686800,0.714686767578125,8.897487575390935,2.067979847391695,3.5677106022447345
1791029827466717700,0.7247177734375,8.81189311247468,1.9853762368544936,3.8182723399996754
1791029827476748800,0.734748779296875,8.734389601555467,1.8940004140578208,4.036531060042977
1791029827486779600,0.744779541015625,8.681709566247463,1.7826234212398528,4.197685498595238
1791029827496811800,0.754811767578125,8.656104000347852,1.6451003259047865,4.305333387887478
1791029827506843000,0.7648427734375,8.646994811218976,1.4799574022382498,4.3828746004685755
1791029827516873700,0.774873779296875,8.646468156996368,1.2834966725051402,4.445403245095909
1791029827526904800,0.78490478515625,8.65049434377253,1.0478430194161832,4.499039265954494
1791029827536935700,0.794935791015625,8.650259950494766,0.7639568119473755,4.556287924352288
1791029827546966800,0.804966796875,8.631566355940699,0.4417166161648929,4.633717493252456
1791029827556998000,0.814997802734375,8.574427003136277,0.11595757120703347,4.757745731720328
1791029827567028700,0.82502880859375,8.472482293921708,-0.19905827194564044,4.9343496683388945
1791029827577059800,0.835059814453125,8.338519229155779,-0.5098922171706334,5.136097398564219
1791029827587090700,0.845090576171875,8.179215386906266,-0.8229982720460742,5.34728866443932
1791029827597121800,0.855121826171875,8.003570650708674,-1.137567860135436,5.5515024925172325
1791029827607152600,0.865152587890625,7.8299898613035674,-1.459055776245892,5.721258170676231
1791029827617183700,0.875183837890625,7.693771711087226,-1.7490780022516845,5.823830071878433
1791029827627214600,0.885214599609375,7.613879843726754,-1.8054577688604592,5.910967088061571
1791029827637245700,0.89524560546875,7.4201353872150175,-1.9617635983377695,6.104380705183744
1791029827647276800,0.90527685546875,7.209966450124979,-2.248086823695153,6.255627497705817
1791029827657308000,0.915307861328125,7.006113856574893,-2.5356720318123696,6.376136622136831
1791029827667339800,0.92533984375,6.7763043994694945,-2.799351902076602,6.512734711581468
1791029827677371000,0.935370849609375,6.491988276150822,-3.038454672706127,6.692701987153291
1791029827687401700,0.945401611328125,6.154919636809826,-3.2432538994565605,6.9114873614192005
1791029827697432800,0.955432861328125,5.795374377244711,-3.423343047842383,7.131953236117958
1791029827707463700,0.965463623046875,5.435754883399605,-3.582663841226697,7.333994980853795
1791029827717494800,0.975494873046875,5.092998846071958,-3.719321551904082,7.509885800766944
1791029827727525600,0.985525634765625,4.781860766801238,-3.827607446838915,7.658564788627624
1791029827737556700,0.995556640625,4.504490517097711,-3.9002018506675955,7.788989742395281
1791029827747587600,1.005587646484375,4.259653878991306,-3.936099093478918,7.907771604642272
1791029827757618700,1.01561865234375,4.050727927699685,-3.9361894021108745,8.016758049061893
1791029827767649500,1.0256494140625,3.8890775223240253,-3.8935610974788664,8.116997707924247
1791029827777681000,1.035680908203125,3.77092051397711,-3.8051898633256553,8.214078025972842
1791029827787711700,1.045711669921875,3.694397830788791,-3.684359836377203,8.303452007427811
1791029827797742800,1.055742919921875,3.6573172234117983,-3.5506750040307637,8.37777630378902
1791029827807774000,1.06577392578125,3.6539784343779087,-3.417936804884672,8.43424813259542
1791029827817804800,1.0758046875,3.675391517023742,-3.2908547318041323,8.475386198669671
1791029827827836000,1.0858359375,3.7195746498823166,-3.1680674333080647,8.502851713222265
1791029827837867800,1.09586767578125,3.7845135705217716,-3.053146922664344,8.516227912145853
1791029827847898600,1.105898681640625,3.864690100042522,-2.948227289292216,8.517190035176277
1791029827857929700,1.1159296875,3.954726929320395,-2.853882825948298,8.50798907611072
1791029827867960600,1.125960693359375,4.054695077764988,-2.7752696002215145,8.48691413937807
1791029827877991700,1.13599169921875,4.164304330258071,-2.7222143018603324,8.450947338461875
1791029827888022800,1.146022705078125,4.276690938510001,-2.6978315557539463,8.402500995200873
1791029827898054000,1.156053955078125,4.385424284951388,-2.6923960867017507,8.348020632472634
1791029827908085000,1.1660849609375,4.487598126746714,-2.6954347237452865,8.292555350360274
1791029827918115800,1.17611572265625,4.5743753697067495,-2.6968276394084096,8.244549736604094
1791029827928147000,1.18614697265625,4.6256645351782435,-2.6882033111870287,8.21870860838294
1791029827938177800,1.196177734375,4.629193293826281,-2.6653046661585567,8.224177395182847
1791029827948209000,1.206208984375,4.591349300861358,-2.630333306020498,8.2565873804003
1791029827958239700,1.21623974609375,4.52507357866019,-2.588855924989283,8.306136716467142
1791029827968270800,1.226270751953125,4.443165987563133,-2.5442975290775296,8.363923719525337
1791029827978301700,1.2363017578125,4.358002317279577,-2.492983521425724,8.423968730643391
1791029827988332800,1.246332763671875,4.279532007154822,-2.43015370189473,8.482354284116624
1791029827998363600,1.25636376953125,4.219597762934863,-2.3513202575460075,8.534439860662818
1791029828008394800,1.266394775390625,4.185274637572467,-2.257120024978369,8.576669813627005
1791029828018425600,1.276425537109375,4.1758161966145035,-2.1519984392933544,8.608242178976536
1791029828028456700,1.286456787109375,4.207194500696659,-2.042222159670293,8.619699392536281
1791029828038487600,1.296487548828125,4.289593966963887,-1.9407685949735343,8.602510357326269
1791029828048520000,1.30652001953125,4.415427209027111,-1.855781596431136,8.557479375466704
1791029828058550800,1.31655078125,4.570320249097049,-1.7910308918401598,8.489685942178964
1791029828068582000,1.326581787109375,4.736557105480134,-1.7495549721136687,8.40681184413731
1791029828078612700,1.33661279296875,4.895165658941865,-1.731155245939642,8.31930541011989
1791029828088643800,1.346643798828125,5.026598912969232,-1.7296804972119628,8.240867248699068
1791029828098674700,1.3566748046875,5.1039177149713035,-1.7536217831611631,8.188114148154854
1791029828108705800,1.366705810546875,5.070502352103591,-1.8252783216178416,8.193212932598591
1791029828118736600,1.376736572265625,5.054976866191625,-1.9663873126156628,8.1701225643903
1791029828128767700,1.386767822265625,5.0634910120368,-2.147674146353453,8.119047626191378
1791029828138798600,1.396798583984375,5.0468490893155336,-2.3386498688042163,8.076534180110693
1791029828148830500,1.40683056640625,4.989325121107697,-2.525126964661479,8.056101048412918
1791029828158861300,1.416861328125,4.911852005326748,-2.6968945671647786,8.048034061813354
1791029828168892400,1.426892333984375,4.807626783959567,-2.8598072475612164,8.054726252928376
1791029828178923300,1.43692333984375,4.675665122143924,-3.032426790718734,8.069258636149764
1791029828188954400,1.446954345703125,4.53222608076334,-3.201461461126804,8.085787746146321
1791029828198985200,1.456985107421875,4.3902769856795665,-3.3465789571136235,8.105323052221536
1791029828209016300,1.467016357421875,4.269207012495398,-3.47514893066436,8.115885947290062
1791029828219047400,1.47704736328125,4.194176905952394,-3.593818272447586,8.103316388574243
1791029828229078300,1.487078369140625,4.169302576936781,-3.7064617780700324,8.065323634788394
1791029828239109400,1.497109375,4.187573854425549,-3.80736253118962,8.008658329236507
1791029828249140200,1.50714013671875,4.233965018722415,-3.8945439710363745,7.942069595563411
1791029828259171300,1.51717138671875,4.3046009819597,-3.9765830795586106,7.86305158842802
1791029828269202200,1.5272021484375,4.382849173766374,-4.061082148453593,7.7761583178728815
1791029828279233500,1.537233642578125,4.446164584857225,-4.151960104730725,7.691765047439932
1791029828289265400,1.547265380859375,4.481811067777872,-4.2486598990291355,7.617917136418819
1791029828299296300,1.557296142578125,4.480825563871861,-4.3477667544692755,7.56237528193891
1791029828309327400,1.567327392578125,4.4388916712448,-4.44927920974642,7.527983767515421
1791029828319358500,1.5773583984375,4.347197722409665,-4.5676656429350375,7.510572029465436
1791029828329389300,1.587389404296875,4.187904986076057,-4.704749762330949,7.516459918460249
1791029828339420400,1.59742041015625,3.9197511852681632,-4.849712067756056,7.5687670288026325
1791029828349451300,1.607451171875,3.611020167139172,-4.998174782517552,7.6255591756045815
1791029828359482400,1.617482421875,3.3547684010490775,-5.163803736135363,7.632236169150471
1791029828369513200,1.62751318359375,3.1084508767351506,-5.373628389832377,7.591577411025762
1791029828379544300,1.63754443359375,2.815427715347707,-5.64496345102489,7.508537893289327
1791029828389575200,1.6475751953125,2.435924101989716,-5.989271393969655,7.37328303514719
1791029828399606500,1.6576064453125,1.931794430401176,-6.416715300762653,7.159910918101668
1791029828409637400,1.667637451171875,1.3078496079951525,-6.905895240500569,6.838751211032271
1791029828419668500,1.67766845703125,0.6582115414060652,-7.358078451752662,6.449481844332814
1791029828429699300,1.68769921875,0.09991736810542642,-7.683442624774575,6.093036304348707
1791029828439730400,1.69773046875,-0.28769299760693684,-7.9016160046219825,5.801040732443332
1791029828449761300,1.70776123046875,-0.4807955577522516,-8.078170841401814,5.539164988991618
1791029828459792400,1.71779248046875,-0.5690503624515607,-8.23993493628502,5.286779542940855
1791029828469823500,1.727823486328125,-0.6435844656385481,-8.390331833979486,5.0357232996672385
1791029828479854300,1.737854248046875,-0.7698547108795494,-8.523211195161938,4.788796995805203
1791029828489885400,1.747885498046875,-0.9649938366200774,-8.632724878326059,4.551400152310729
1791029828499916300,1.757916259765625,-1.1997511253912,-8.724201969540118,4.315005763857067
1791029828509948200,1.7679482421875,-1.4360107084840534,-8.799778311789035,4.083154279530048
1791029828519979300,1.777979248046875,-1.647398227583617,-8.859283809202909,3.8690477107301353
1791029828530010400,1.78801025390625,-1.826509178587049,-8.90038855752945,3.69016647682935
1791029828540041500,1.79804150390625,-1.9847136812925337,-8.92730052985251,3.5404257049560544
1791029828550072300,1.808072265625,-2.141942470833659,-8.949298426648975,3.390061832748353
1791029828560103400,1.818103515625,-2.2902301212891936,-8.966813625073433,3.24368352304548
1791029828570134500,1.828134521484375,-2.3474280724130567,-8.990737521496415,3.1347420868113636
1791029828580165400,1.838165283203125,-2.333292433424294,-9.03227715410888,3.023922289484739
1791029828590196500,1.848196533203125,-2.293459312468767,-9.075663875892758,2.922796495437622
1791029828600227300,1.858227294921875,-2.2601270978398618,-9.111519617649913,2.835914330798387
1791029828610258400,1.868258544921875,-2.2306861915610727,-9.139352796471119,2.7688714236170053
1791029828620289300,1.878289306640625,-2.19687496124357,-9.162579358279704,2.7186858354732393
1791029828630320400,1.8883203125,-2.162381155489385,-9.186075384679436,2.66655700430721
1791029828640351200,1.898351318359375,-2.1237764072850345,-9.208661895018816,2.6192601233422756
1791029828650382300,1.90838232421875,-2.078279853740334,-9.22642902237773,2.5930957545161246
1791029828660413200,1.9184130859375,-2.0284715744763613,-9.237741859030724,2.592262810823321
1791029828670444300,1.9284443359375,-1.9755137451402842,-9.24345322241485,2.612718154352903
1791029828680475100,1.93847509765625,-1.9199470484800636,-9.243000217950344,2.6553961433455346
1791029828690506500,1.948506591796875,-1.866437576610595,-9.232381208780408,2.729456820334494
1791029828700537300,1.958537353515625,-1.8200258079171179,-9.209702343982457,2.8353607885688543
1791029828710569500,1.968569580078125,-1.7798830364905296,-9.17469065183401,2.9711013844013214
1791029828720600300,1.978600341796875,-1.7340889613039792,-9.128041713383793,3.137227181625366
1791029828730631400,1.98863134765625,-1.6713050267413259,-9.082330348044634,3.299758169227838
1791029828740662300,1.998662353515625,-1.5771702606253326,-9.04087664014995,3.456221819615364
1791029828750693400,2.008693359375,-1.5082691583566368,-8.993985125115513,3.6060698512554166
1791029828760724200,2.01872412109375,-1.4750120547905563,-8.949111379644274,3.7293615921422836
1791029828770755300,2.02875537109375,-1.446430834081024,-8.932672286018729,3.779632812742889
1791029828780786200,2.0387861328125,-1.3898103905841708,-8.939166324213147,3.7855136874750253
1791029828790817300,2.0488173828125,-1.2785318897046147,-8.9682550560534,3.7558114999115464
1791029828800848100,2.05884814453125,-1.141242530060187,-9.002064971196651,3.7189720078140494
1791029828810879200,2.068879150390625,-0.9580057312984019,-9.032399319183826,3.6970764023482796
1791029828820910300,2.078910400390625,-0.7549335475362837,-9.062993779411912,3.66914706967622
1791029828830941400,2.08894140625,-0.5741548094511032,-9.08897577740848,3.6374803040415045
1791029828840972500,2.09897265625,-0.40776966717112806,-9.11258637009859,3.6006779290840027
1791029828851003400,2.10900341796875,-0.23740453361058605,-9.13575155710876,3.556976150001585
1791029828861034500,2.119034423828125,-0.08285774056189693,-9.152224553003906,3.521408869796991
1791029828871065300,2.1290654296875,0.044259495163569224,-9.161456491729616,3.4980189341202377
1791029828881096400,2.139096435546875,0.1428450484096538,-9.163950646632909,3.4888378487989304
1791029828891127300,2.149127197265625,0.20443183647645635,-9.163021256828307,3.488212702637911
1791029828901159200,2.1591591796875,0.237137991628889,-9.157657099446654,3.500207676336169
1791029828911190300,2.169190185546875,0.25424192410502583,-9.147131613779067,3.5264313741341233
1791029828921221400,2.179221435546875,0.25819886330356817,-9.138106595802306,3.5494676740676163
1791029828931252200,2.189252197265625,0.25608992659188806,-9.132529087930918,3.563948327101767
1791029828941283600,2.19928369140625,0.2530789630065672,-9.127216368475557,3.5777442127421497
1791029828951314400,2.209314453125,0.25551813631961123,-9.121322049739957,3.5925714872568846
1791029828961345500,2.219345458984375,0.268242081879545,-9.11454451842904,3.608810674396157
1791029828971376400,2.22937646484375,0.29081489248713477,-9.107897920021415,3.6238118441730736
1791029828981407500,2.239407470703125,0.3233046832088381,-9.103422820433973,3.632292672270536
1791029828991438300,2.249438232421875,0.3505837718112394,-9.106480454438925,3.622080782596767
1791029829001469400,2.259469482421875,0.369141136232391,-9.114031892731786,3.601183248257637
1791029829011500300,2.269500244140625,0.42823301134407515,-9.118985131224989,3.5820512622863054
1791029829021531400,2.279531494140625,0.5141836672868579,-9.120306150695681,3.567352290326357
1791029829031562200,2.289562255859375,0.6035557125130668,-9.11945274873674,3.555514260755479
1791029829041593300,2.29959326171875,0.6925421924877911,-9.115790134575963,3.5486814921259877
1791029829051624200,2.309624267578125,0.7805784955982118,-9.109531074181199,3.5464790136456488
1791029829061655300,2.3196552734375,0.8652820740893483,-9.100589642834663,3.5497786397129296
1791029829071686100,2.32968603515625,0.9475894781589508,-9.087808487194776,3.5614909970775246
1791029829081717200,2.33971728515625,1.0197335078716276,-9.071496234819293,3.583085281509161
1791029829091748400,2.349748291015625,1.0780638240262865,-9.053942457950114,3.6103058813899755
1791029829101780500,2.359780517578125,1.1291286792226134,-9.039344023755191,3.631213060340285
1791029829111811300,2.369811279296875,1.1681737185403704,-9.026258332210778,3.651357438224554
1791029829121842400,2.379842529296875,1.1895666351810097,-9.010694267854094,3.682756492833793
1791029829131873300,2.389873291015625,1.2040649700023234,-8.992831863427162,3.7215035721182823
1791029829141904400,2.399904296875,1.217829291460663,-8.976522533661127,3.756238200891018
1791029829151935200,2.409935302734375,1.22318066242598,-8.96444923402965,3.783233175322413
1791029829161966300,2.41996630859375,1.1939259994342923,-8.962878623712061,3.7962770735517144
1791029829171997200,2.4299970703125,1.1423953533571214,-8.972143295663594,3.790248022520542
1791029829182028300,2.4400283203125,1.1052630157928913,-8.9907100489676,3.757117614074051
1791029829192059400,2.450059326171875,1.0714432368427513,-9.01592281615734,3.7061513969466087
1791029829202090200,2.46009033203125,1.0339384857695548,-9.043874068400264,3.64825011985898
1791029829212121300,2.470121337890625,0.9937856313403696,-9.07336553582251,3.585639934428036
1791029829222152200,2.480152099609375,0.9567908025506884,-9.101125649407505,3.5248353371143337
1791029829232183300,2.490183349609375,0.9144996939837932,-9.124399557489156,3.4755423138961192
1791029829242214100,2.500214111328125,0.862946763009578,-9.140556327041983,3.446147000324726
1791029829252245200,2.510245361328125,0.8085358122557401,-9.151808373418449,3.4294396111518144
1791029829262276000,2.520276123046875,0.7547747767779975,-9.160355837011338,3.4188553810343145
1791029829272307200,2.53030712890625,0.702831165985763,-9.165543468782305,3.416023080217838
1791029829282338000,2.540338134765625,0.655649289702624,-9.165490861812234,3.4255320823192594
1791029829292370400,2.550370361328125,0.6223084533758461,-9.159205497932433,3.448487425971031
1791029829302401300,2.5604013671875,0.6062305577455088,-9.142886231294273,3.4943560276985166
1791029829312432400,2.570432373046875,0.6170373080398887,-9.110627052724361,3.575768236494064
1791029829322463200,2.580463134765625,0.6637587272044271,-9.06200535289645,3.689155253960192
1791029829332494300,2.590494384765625,0.7510583866033702,-9.00165697491765,3.8179146126031873
1791029829342525200,2.600525146484375,0.8751922774028033,-8.938513997784256,3.937943844562769
1791029829352556300,2.610556396484375,1.0239574822422117,-8.87940539073348,4.034606521721184
1791029829362587100,2.620587158203125,1.1711665436808019,-8.825129610666632,4.112887739014625
1791029829372618200,2.6306181640625,1.2997760455243288,-8.775195659196376,4.180536503134667
1791029829382649000,2.640649169921875,1.3993524181723593,-8.731440104100107,4.2395957180857655
1791029829392680200,2.65068017578125,1.341558400851488,-8.725070569068192,4.271270374765992
1791029829402711000,2.6607109375,1.102473385074362,-8.750373352628946,4.287878687478601
1791029829412742100,2.6707421875,0.7781030453953891,-8.775791287001967,4.307019149017334
1791029829422773200,2.680773193359375,0.3621335955578834,-8.801446537262201,4.309730453802645
1791029829432804000,2.69080419921875,-0.11979335911078377,-8.809854884645341,4.306097650258243
1791029829442835500,2.70083544921875,-0.6242816531449557,-8.800532345026731,4.2815073988810175
1791029829452866300,2.7108662109375,-1.1043631443437187,-8.777948172774911,4.230646395693719
1791029829462897400,2.7208974609375,-1.5022612962439654,-8.74658039008677,4.1726416582316155
1791029829472929300,2.73092919921875,-1.7767349477231502,-8.716723011961578,4.127028784830868
1791029829482960100,2.740960205078125,-1.9131598725579677,-8.694300752273202,4.113311809645593
1791029829492991200,2.7509912109375,-1.926303285638988,-8.675590206584333,4.146546847510337
1791029829503022000,2.76102197265625,-1.8333787720955907,-8.654827989062666,4.231199645662308
1791029829513053200,2.77105322265625,-1.6527040789067744,-8.6267148242563,4.3610500144124025
1791029829523084300,2.781084228515625,-1.4100380628377198,-8.587538998165726,4.5206616074368355
1791029829533115100,2.791115234375,-1.1339135754115879,-8.535287417402863,4.6939843304276465
1791029829543146200,2.801146240234375,-0.8509151105627417,-8.471221480205655,4.866695643521845
1791029829553177000,2.811177001953125,-0.5816520698713138,-8.396330197611451,5.0332601244241
1791029829563208400,2.82120849609375,-0.33282658132445064,-8.314013148930668,5.19006922724843
1791029829573239300,2.8312392578125,-0.09549157841927372,-8.228291844764351,5.334463669657707
1791029829583270400,2.8412705078125,0.14299823881052434,-8.143438555604218,5.462084671920538
1791029829593301200,2.85130126953125,0.3899964023323729,-8.061755713173747,5.570133543229103
1791029829603332400,2.861332275390625,0.6507098605390638,-7.9833204743623725,5.6580538187444205
1791029829613363200,2.87136328125,0.929179011395201,-7.908550772321224,5.7237955801993605
1791029829623394300,2.881394287109375,1.2191616360429673,-7.838931292650103,5.764998528203368
1791029829633425200,2.891425048828125,1.5107029613748193,-7.776447656208276,5.7805713603883975
1791029829643456300,2.901456298828125,1.7940730360150337,-7.722115177518129,5.772400328892469
1791029829653487000,2.911487060546875,2.0586508780322967,-7.67382723968923,5.7484542206376785
1791029829663518200,2.921518310546875,2.296333698861301,-7.628121719568967,5.719177857270837
1791029829673550000,2.931550048828125,2.5091224630609155,-7.583128147110343,5.689539674854278
1791029829683581200,2.941581298828125,2.705031404130161,-7.535491951188445,5.662999458453059
1791029829693612300,2.9516123046875,2.8795293083801865,-7.484634455132484,5.644371914872527
1791029829703643400,2.961643310546875,3.0224577698901296,-7.436392694532871,5.633400439003109
1791029829713674200,2.97167431640625,3.1302611420050264,-7.3993556340366595,5.62329171744287
1791029829723705300,2.981705322265625,3.1275597740918397,-7.39691116349399,5.628006471005082
1791029829733736200,2.991736083984375,2.982500145772099,-7.4327511231601235,5.659442642754316
1791029829743767300,3.001767333984375,2.806304205432534,-7.466070039916038,5.705509981924295
1791029829753798100,3.011798095703125,2.626329915598035,-7.498938290295005,5.74793048902452
1791029829763829200,3.021829345703125,2.4644196902424094,-7.531646381676197,5.7767930108934635
1791029829773860000,3.031860107421875,2.316888264981657,-7.565541052493453,5.793532548770308
1791029829783891200,3.04189111328125,2.1904951970785853,-7.599083841133117,5.798794999343157
1791029829793922300,3.05192236328125,2.0923915273316203,-7.63276106980741,5.790788218498229
1791029829803953200,3.061953125,2.01452853545025,-7.674227637183666,5.7635302092164755
1791029829813984300,3.071984375,1.9503762351438403,-7.721253007730841,5.722646410164237
1791029829824015000,3.08201513671875,1.8856572408653796,-7.7719433305263514,5.675525762549042
1791029829834046200,3.092046142578125,1.8124439744859933,-7.828632601475715,5.621203805252909
1791029829844077000,3.1020771484375,1.7229374526925385,-7.89231275422573,5.559971045655012
1791029829854108400,3.1121083984375,1.6135172930307686,-7.959723325675726,5.496338823699951
1791029829864140300,3.122140380859375,1.4917692744545639,-8.022731278252602,5.438824792364239
1791029829874171100,3.132171142578125,1.380536512412876,-8.069774768978357,5.398447773790359
1791029829884202200,3.1422021484375,1.3032638876400888,-8.093491160130501,5.38212733810842
1791029829894233300,3.1522333984375,1.2798460410431027,-8.091189312928915,5.391200871402025
1791029829904264200,3.16226416015625,1.3300902275063096,-8.06421128963232,5.419385347878933
1791029829914295300,3.17229541015625,1.4536051096245646,-8.012072521594167,5.464805036795139
1791029829924326100,3.182326171875,1.6270746937401592,-7.937974435204267,5.523728934928775
1791029829934357200,3.192357177734375,1.8187616332001983,-7.846303282722831,5.594463682365417
1791029829944388000,3.20238818359375,2.00964134793058,-7.7414295343190425,5.674679959374666
1791029829954419200,3.212419189453125,2.187268490117043,-7.629494761487841,5.759952935251594
1791029829964450000,3.222449951171875,2.3400556439489124,-7.517962139716744,5.845918569567799
1791029829974481200,3.232481201171875,2.4552406507477165,-7.415588975957036,5.928847028145194
1791029829984512300,3.24251220703125,2.52026695740968,-7.330981770512461,6.0062768893063065
1791029829994543400,3.25254345703125,2.5321152161136267,-7.267271222624182,6.078283556374907
1791029830004574200,3.26257421875,2.4981468955382704,-7.224256256762146,6.143270115548372
1791029830014605300,3.272605224609375,2.4266741892158983,-7.199429274019598,6.200794668278098
1791029830024636200,3.28263623046875,2.33519300634861,-7.190093874919414,6.246583775028586
1791029830034667300,3.292667236328125,2.239337261658907,-7.196241291633248,6.274542041534185
1791029830044698000,3.302697998046875,2.1594788581766187,-7.216973698538541,6.278719619479775
1791029830054729200,3.312729248046875,2.1190341811940074,-7.243899114865064,6.261469209471344
1791029830064760300,3.32276025390625,2.130358708284795,-7.265344053953886,6.232713655108213
1791029830074792200,3.332792236328125,2.206087172355503,-7.273721421676874,6.196494925257563
1791029830084823000,3.342822998046875,2.348500670080632,-7.259289576220512,6.1609776216745376
1791029830094854100,3.352854248046875,2.547334704816341,-7.215677228987216,6.133145027375221
1791029830104885200,3.36288525390625,2.7935248033583164,-7.140595392256975,6.113795599260926
1791029830114916400,3.372916259765625,3.0684266171216965,-7.040947269546985,6.097557581165432
1791029830124947200,3.382947265625,3.3518393618598576,-6.924107773539424,6.082127956843376
1791029830134978300,3.392978271484375,3.626123043724894,-6.795575501650571,6.0697431070446966
1791029830145009200,3.403009033203125,3.896492767016589,-6.662568130174279,6.049622694557905
1791029830155040000,3.4130400390625,4.155455837891996,-6.535529896235466,6.01576309505403
1791029830165071000,3.423071044921875,4.305621849440038,-6.428529072675109,6.025447453722357
1791029830175102000,3.43310205078125,4.253427844083309,-6.35713440002501,6.137229081818461
1791029830185133000,3.443133056640625,4.049807305723428,-6.333643049800395,6.297175898146629
1791029830195164000,3.453163818359375,3.842025848291814,-6.334243938302993,6.4254644244074814
1791029830205195000,3.463195068359375,3.6636186616435644,-6.353813146647811,6.5097893057793375
1791029830215225900,3.473225830078125,3.4771398122206327,-6.3883975532948964,6.577862140530347
1791029830225257000,3.483257080078125,3.31081498529315,-6.418085420072078,6.634535629388689
1791029830235287800,3.493287841796875,3.2151296287342905,-6.422156615033745,6.677517277503013
1791029830245319000,3.50331884765625,3.1692075432538984,-6.398568818697333,6.721965491038561
1791029830255349800,3.513349853515625,3.171873547592759,-6.3514604460418225,6.765246998882294
1791029830265380900,3.523380859375,3.2407638362064954,-6.277071852272749,6.801926916503906
1791029830275412000,3.533411865234375,3.4092285977721213,-6.168267778682709,6.819093155360221
1791029830285443000,3.543443115234375,3.4962414030537006,-6.06076485081911,6.871230754354595
1791029830295475000,3.553474853515625,3.516262446819246,-5.971074643021821,6.93920305134058
1791029830305506000,3.563506103515625,3.502429151777923,-5.902901855027675,7.004222343739867
1791029830315537000,3.573536865234375,3.415176400260627,-5.876499001270532,7.069208902913331
1791029830325568000,3.583568115234375,3.2777938824400303,-5.8920379311859605,7.1211185383707285
1791029830335598800,3.593598876953125,3.1609830280050635,-5.916536412626504,7.153540798547864
1791029830345630000,3.6036298828125,3.051512891721725,-5.951293253231048,7.172222118142247
1791029830355660800,3.613660888671875,2.918309705412388,-6.010231764411926,7.1785080665439365
1791029830365692000,3.62369189453125,2.778269951081276,-6.093201724043488,7.164113045966625
1791029830375723000,3.633722900390625,2.6480904965072867,-6.190240541037917,7.130142971825599
1791029830385753900,3.64375390625,2.508402916614711,-6.297288126349449,7.086781384482979
1791029830395785000,3.653784912109375,2.3514354083582756,-6.411892410650849,7.037668686267733
1791029830405816000,3.663816162109375,2.1780254454754293,-6.533039832985401,6.981832232755422
1791029830415847200,3.67384716796875,1.9949588887140153,-6.6628346721559755,6.913549554646015
1791029830425878000,3.6838779296875,1.8101947342544793,-6.8006520742625,6.829693459829688
1791029830435909000,3.6939091796875,1.6219881842561066,-6.951631740280986,6.724163877865672
1791029830445940000,3.70393994140625,1.4404147886618972,-7.120243509101868,6.5876961368024345
1791029830455971000,3.71397119140625,1.266275488591194,-7.305064654445648,6.418952266034483
1791029830466002000,3.724001953125,1.0959220637347549,-7.5019859874278305,6.220090904900431
1791029830476033000,3.734032958984375,0.9296102424193173,-7.697070168110728,6.0051066764831535
1791029830486063900,3.74406396484375,0.7451678672600537,-7.886972562241554,5.780205449685454
1791029830496095000,3.754094970703125,0.5224595839293673,-8.071589709445833,5.544986242491007
1791029830506125800,3.764125732421875,0.2578687910989858,-8.24397748967409,5.3047839861869805
1791029830516157000,3.774156982421875,-0.016997764121345245,-8.42376590154767,5.020982826653123
1791029830526189000,3.78418896484375,-0.25696250817533584,-8.57988409949839,4.74235643940866
1791029830536220200,3.79422021484375,-0.47385249714870004,-8.720740430909395,4.46032988833189
1791029830546251000,3.8042509765625,-0.7093025539569556,-8.85512318239212,4.153803686770797
1791029830556282000,3.8142822265625,-0.9203356335956603,-8.969023702338337,3.857458979745209
1791029830566313000,3.82431298828125,-1.1147543361071497,-9.059611735758185,3.584852583442628
1791029830576344000,3.834343994140625,-1.2933086030758916,-9.117740099599956,3.3711335526555777
1791029830586375000,3.844375,-1.5086832921154796,-9.158107765823603,3.1659628622442484
1791029830596406000,3.854406005859375,-1.7343655862882732,-9.191841108599304,2.9448963913038373
1791029830606436900,3.864436767578125,-1.8670751438617705,-9.241658740213513,2.697430865998566
1791029830616468000,3.874468017578125,-1.865955199921131,-9.312633726146817,2.4420135049059986
1791029830626498800,3.884498779296875,-1.8434851555682719,-9.366094098177552,2.2468261561095715
1791029830636530000,3.894530029296875,-1.7915772736765443,-9.408745491424202,2.1062150316312906
1791029830646561000,3.90456103515625,-1.7277635576747357,-9.442472988981008,2.006223648441583
1791029830656592000,3.914591796875,-1.692477140238136,-9.456852227467298,1.9682117515638469
1791029830666623000,3.924623046875,-1.6787839843198655,-9.443837263071536,2.041085264594853
1791029830676653800,3.93465380859375,-1.661805961512029,-9.426282317158579,2.134010947182029
1791029830686685200,3.944685302734375,-1.6397893600150941,-9.427173713040352,2.1470669742405413
1791029830696716000,3.954716064453125,-1.648893434577435,-9.428122392067312,2.1359023138865827
1791029830706747100,3.9647470703125,-1.6436664937093852,-9.424680727180839,2.1550261165514586
1791029830716778000,3.974778076171875,-1.5897143926389514,-9.422146240267157,2.2059859039381147
1791029830726809000,3.98480908203125,-1.4940325432114303,-9.41917628454566,2.2841605921171606
1791029830736840000,3.99483984375,-1.4205162022322415,-9.417100647315383,2.338960980580002
1791029830746871000,4.00487109375,-1.3925349932424724,-9.425633497861027,2.3213484592609106
1791029830756902000,4.01490185546875,-1.4333356440559029,-9.43523310085535,2.2566106141515077
1791029830766933000,4.02493310546875,-1.5026643240869044,-9.443995083981752,2.1733200442634524
1791029830776964900,4.03496484375,-1.57642426456362,-9.452896183317899,2.080391731327772
1791029830786996000,4.044995849609375,-1.6380222042120993,-9.460928683125973,1.9945142136864362
1791029830797026800,4.05502685546875,-1.6898973528780041,-9.470110937491059,1.9056852988936006
1791029830807058000,4.065057861328125,-1.7368489275366066,-9.486460599267483,1.7778638056226073
1791029830817089000,4.075089111328125,-1.7808103804685174,-9.510193357032536,1.5985336589105426
1791029830827120000,4.0851201171875,-1.8390135631121693,-9.526630112570524,1.425382931485772
1791029830846555000,4.104554931640625,-2.05636042900756,-9.516972057387232,1.170058582438901
1791029830856586000,4.1145859375,-2.207017146681994,-9.495302077370882,1.0670979011148214
1791029830866617900,4.124617919921875,-2.3634812354609367,-9.46797977068126,0.9704169576473534
1791029830876649000,4.13464892578125,-2.5142832068249583,-9.436266535556316,0.8975696750361472
1791029830886679800,4.1446796875,-2.646610779343545,-9.403049325609206,0.8651396699439734
1791029830896711000,4.1547109375,-2.7168486831739544,-9.384549792322517,0.8481354897815734
1791029830906741800,4.16474169921875,-2.7329771034151316,-9.378973453494906,0.8579514389403163
1791029830916773000,4.174773193359375,-2.7055937141880393,-9.382200014325976,0.9079954266563057
1791029830926804000,4.184803955078125,-2.656316473060846,-9.387589306148886,0.9937527519840746
1791029830936835000,4.1948349609375,-2.600267545841634,-9.391562301433085,1.0988812788665294
1791029830946866000,4.204865966796875,-2.536454414361715,-9.395126715916394,1.2117724025744945
1791029830956897000,4.21489697265625,-2.4609546444803474,-9.399400155451893,1.3286622405298054
1791029830966928100,4.22492822265625,-2.373315670124441,-9.405815283191204,1.4381990123085677
1791029830976959000,4.234958984375,-2.2706674888156355,-9.416610817971826,1.530333398387581
1791029830986990000,4.244989990234375,-2.1434967145383355,-9.433997421580553,1.6048406501002608
1791029830997021000,4.25502099609375,-1.9804625997193157,-9.45809725909233,1.6710994211666286
1791029831007052000,4.265052001953125,-1.7998498658508062,-9.487055058029293,1.710768875993043
1791029831017083000,4.275082763671875,-1.5998755750387905,-9.517645426604151,1.7393071343436837
1791029831027114000,4.285114013671875,-1.3947852563872933,-9.547384731307625,1.752833263131976
1791029831037144800,4.295144775390625,-1.1939433158952741,-9.570832242390512,1.7731538743659854
1791029831047176000,4.305176025390625,-0.9820552999276667,-9.589704116120934,1.8009828154034913
1791029831057206800,4.315206787109375,-0.7783402882173657,-9.603189036116003,1.8284785789638756
1791029831067238100,4.325238037109375,-0.5968139831678941,-9.610013913699984,1.8606033174991607
1791029831077269000,4.33526904296875,-0.4463564047947526,-9.610291561597585,1.9009161847956477
1791029831087300000,4.345300048828125,-0.322420557318069,-9.610838089564442,1.9230762864165007
1791029831097331000,4.3553310546875,-0.21646759884282946,-9.61321066391468,1.9260637777946887
1791029831107362000,4.365362060546875,-0.16433642958924174,-9.611799043551088,1.9382211024478078
1791029831117393000,4.375392822265625,-0.17603841169029474,-9.613896892613171,1.9267514677979052
1791029831127425000,4.385425048828125,-0.23360174379413945,-9.62078256047368,1.8858311361275613
1791029831137455900,4.395455810546875,-0.3191916583994403,-9.632726680767536,1.8108255795039236
1791029831147487500,4.405487548828125,-0.4212473171751946,-9.651254271104932,1.6870801035001872
1791029831157518300,4.415518310546875,-0.5123760333430022,-9.677242114320396,1.5029386109836398
1791029831167549400,4.425549560546875,-0.569083716731891,-9.705448218107223,1.2848420957647264
1791029831177580300,4.435580322265625,-0.6015399887764826,-9.730582074841857,1.060335859633982
1791029831187611400,4.445611328125,-0.59014729182031,-9.750285723221301,0.8683557093810289
1791029831197642200,4.455642333984375,-0.5403878566667437,-9.76571476302147,0.7135819848418236
1791029831207673300,4.46567333984375,-0.44771717175394293,-9.778752523770928,0.5881811428464949
1791029831217704200,4.4757041015625,-0.3319403000092134,-9.788923204651475,0.4870198756271973
1791029831227735300,4.4857353515625,-0.20224409890752285,-9.795506674695014,0.4213227204989642
1791029831237766400,4.495766357421875,-0.08100545462556183,-9.798768306839465,0.3846743670593947
1791029831247797500,4.505797607421875,0.02650927099039545,-9.799280932536721,0.37919114987533536
1791029831257828400,4.515828369140625,0.1371553854006808,-9.797377144742011,0.40370289265625176
1791029831267859500,4.525859375,0.25268448379626496,-9.794424140155314,0.4192416033759713
1791029831277890600,4.535890625,0.3698690851807594,-9.790821731749176,0.4164133942127228
1791029831287921400,4.54592138671875,0.4775577083421871,-9.78697440867126,0.3968165672086179
1791029831297952500,4.555952392578125,0.5703241452470421,-9.783528652131556,0.35729981872588396
1791029831307983400,4.5659833984375,0.6547342206843197,-9.779991710177063,0.3057213149189949
1791029831318014500,4.576014404296875,0.7359921157009899,-9.77579951918423,0.2498536625508219
1791029831328045300,4.58604541015625,0.8164112948711961,-9.770621824285387,0.19697766627930102
1791029831338076400,4.596076416015625,0.8940377745829522,-9.764792972001432,0.14098550161547027
1791029831348107300,4.606107177734375,0.9533478955551982,-9.760038470950722,0.056247299335524435
1791029831358138400,4.616138427734375,0.9982329661380499,-9.755431269416212,-0.07398003580106888
1791029831368169200,4.626169189453125,1.0444289731889962,-9.748186705115437,-0.2289097317866981
1791029831378200300,4.636200439453125,1.0788796704538166,-9.739370945975184,-0.3886699029689655
1791029831388231200,4.646231201171875,1.0863977909989655,-9.731559979963302,-0.5356255011031403
1791029831398262500,4.656262451171875,1.0684617368139326,-9.725998254182935,-0.6586079933777451
1791029831408294400,4.66629443359375,1.0183384002514182,-9.724435827171803,-0.754148315442726
1791029831418325500,4.676325439453125,0.9271005246207118,-9.727737206804752,-0.8258355412986129
1791029831428356400,4.6863564453125,0.8009342512108385,-9.734988200846313,-0.8711597339510917
1791029831438387500,4.696387451171875,0.6496642239436506,-9.744670221427082,-0.8886710599180311
1791029831448418300,4.706418212890625,0.4878507369607687,-9.755014505308866,-0.8786722284730524
1791029831458449400,4.716449462890625,0.3257864170219749,-9.764952546477318,-0.8425790977634489
1791029831468480300,4.726480224609375,0.17807030111039057,-9.773760706833004,-0.7824797991748899
1791029831478511400,4.736511474609375,0.05537091379321646,-9.780964939123391,-0.70712411393933
1791029831488542200,4.746542236328125,-0.04194137268061749,-9.786863349512219,-0.6212145206592977
1791029831498573300,4.7565732421875,-0.13207862099250778,-9.7910923653841,-0.5361371769523248
1791029831508604400,4.7666044921875,-0.22350500493263825,-9.792871650016307,-0.4691529046230018
1791029831518635300,4.77663525390625,-0.3153988785203546,-9.792124046519397,-0.4303976054994389
1791029831528666600,4.78666650390625,-0.41077341556437313,-9.789325940233468,-0.41321624213922764
1791029831538697500,4.796697509765625,-0.497888256448321,-9.787672912329434,-0.352103346061334
1791029831548728600,4.806728515625,-0.5881299971811473,-9.785490892115234,-0.26207796975923703
1791029831558759400,4.816759521484375,-0.6867914469413459,-9.781698514094948,-0.13067822527582756
1791029831568790500,4.82679052734375,-0.7983897543597966,-9.774071087956427,0.022063621259725184
1791029831578821400,4.8368212890625,-0.9074478027109056,-9.763179691585897,0.1651300641849637
1791029831588852500,4.8468525390625,-0.9958648487672209,-9.75176281003654,0.28595230968575924
1791029831598883300,4.85688330078125,-1.0662122043214737,-9.741199330446124,0.3776742790389806
1791029831608914400,4.86691455078125,-1.142472217985615,-9.730057174184918,0.43718872694429006
1791029831618945300,4.8769453125,-1.244686464856565,-9.716751117888093,0.45374863393791015
1791029831628976400,4.886976318359375,-1.3667626924738288,-9.701324416175485,0.43203295161630956
1791029831639007200,4.89700732421875,-1.4961998042479157,-9.683803957054018,0.39460327507331966
1791029831649038300,4.907038330078125,-1.6178205431826411,-9.666361239343882,0.33837164823096244
1791029831659069200,4.917069091796875,-1.7165835536211729,-9.651595631888508,0.265416137738619
1791029831669100300,4.927100341796875,-1.7999343292638659,-9.63833283021152,0.18209352874448523
1791029831679131400,4.93713134765625,-1.8706322518214582,-9.626157239249348,0.09065214816462248
1791029831689163500,4.94716357421875,-1.9233600717939436,-9.616161914935708,-0.02259183268517954
1791029831699194400,4.9571943359375,-1.9469336934745312,-9.610010991090535,-0.1659519932934083
1791029831709225500,4.9672255859375,-1.9308045425809919,-9.608779987990856,-0.3372158292593434
1791029831719256300,4.97725634765625,-1.8595047086074947,-9.614423546835779,-0.5248891856964677
1791029831729287400,4.987287353515625,-1.7183312740713357,-9.630153030887245,-0.691285835751146
1791029831739318300,4.997318359375,-1.4876182922549546,-9.659702950498462,-0.8046780408490448
1791029831749349400,5.007349365234375,-1.234291765961796,-9.694745037785172,-0.8116938378952443
1791029831759380200,5.017380126953125,-1.0605481141451745,-9.72001917977333,-0.7528956850331276
1791029831769411300,5.027411376953125,-0.9050595924001187,-9.742023506310582,-0.6665256346344948
1791029831779442400,5.0374423828125,-0.6923153979945927,-9.763706930330395,-0.6009423516768961
1791029831789473300,5.047473388671875,-0.42242976842541247,-9.78145243037939,-0.5613727404957637
1791029831799504400,5.05750439453125,-0.12901461204569786,-9.789484930187463,-0.565441268576309
1791029831809535500,5.067535400390625,0.14361559439073315,-9.790321381011605,-0.5471451489072293
1791029831819566600,5.077566650390625,0.34796471188664435,-9.786576349264383,-0.5217608245428651
1791029831829597400,5.087597412109375,0.5624909308707341,-9.778107211604715,-0.49255190038904545
1791029831839628500,5.097628662109375,0.8044608179017901,-9.762501646193861,-0.4655966003809124
1791029831849659400,5.107659423828125,1.047985350496322,-9.7412232958436,-0.42507213616035877
1791029831859690500,5.1176904296875,1.189776770800352,-9.726492759701609,-0.38750286848358806
1791029831869721300,5.127721435546875,1.3044501748152078,-9.713087334683538,-0.3531486538631841
1791029831879752400,5.13775244140625,1.4283467497274278,-9.6964834058851,-0.3292685235166922
1791029831889783300,5.147783203125,1.5413795469284057,-9.680267015099524,-0.2948902704335749
1791029831899814400,5.157814453125,1.6365496474415062,-9.666017540472746,-0.2453186677359976
1791029831909845200,5.16784521484375,1.72384390001297,-9.651814827597141,-0.20304021772127598
1791029831919876400,5.17787646484375,1.8095305712573229,-9.636534840878843,-0.18220930061126125
1791029831929907200,5.1879072265625,1.901325203987956,-9.618924949908257,-0.1778605308172293
1791029831939938300,5.197938232421875,1.9960976834855972,-9.599719314178824,-0.1771365821905434
1791029831949969400,5.207969482421875,2.0863462558180093,-9.58010860477984,-0.19763081469209864
1791029831960000300,5.218000244140625,2.16868010950312,-9.560850946602224,-0.23944663389744236
1791029831970031600,5.228031494140625,2.23974598859027,-9.543121813166142,-0.2876731969279237
1791029831980062500,5.2380625,2.2919527072981,-9.52930137760639,-0.3312972528653219
1791029831990093600,5.248093505859375,2.316645542266965,-9.52202992529869,-0.366720704152435
1791029832000125400,5.25812548828125,2.3149871075354516,-9.521258940926193,-0.39605135498978195
1791029832010156300,5.26815625,2.2929430335097014,-9.525897122120856,-0.412405035354197
1791029832020187400,5.2781875,2.2524761446952817,-9.535558099913597,-0.4121237707274034
1791029832030218200,5.28821826171875,2.1963640891119836,-9.548990997460484,-0.403896004075557
1791029832040249300,5.298249267578125,2.131589272993058,-9.564261631828545,-0.38936891808379437
1791029832050280400,5.308280517578125,2.056979729949683,-9.581433715903758,-0.3678912092365324
1791029832060311300,5.318311279296875,1.9730372720241545,-9.600197453084588,-0.33722865220829845
1791029832070342400,5.32834228515625,1.887197894436121,-9.618720367246866,-0.29849123580129816
1791029832080373200,5.338373291015625,1.8009489131338894,-9.636497431477904,-0.2547376717327162
1791029832090404400,5.348404296875,1.7114416606880722,-9.653958853888511,-0.20598728575753047
1791029832100435500,5.358435546875,1.6240204207360744,-9.670066523602605,-0.15080410852218046
1791029832110466600,5.368466552734375,1.534696708163619,-9.685455815914272,-0.08394310637949966
1791029832120497400,5.378497314453125,1.4404030982241034,-9.700289227908849,0.0005043733213184169
1791029832130528500,5.388528564453125,1.34051517540887,-9.714033091101049,0.1047550813270267
1791029832140559400,5.398559326171875,1.2310022228971123,-9.726357735145092,0.2301758244660683
1791029832150590200,5.408590087890625,1.0990653301965445,-9.736875037506222,0.3946028732145205
1791029832160621000,5.41862109375,0.9273810220625252,-9.742246209150553,0.631656127435714
1791029832170652200,5.428652099609375,0.7166431259781122,-9.729884155705571,0.9930639660023153
1791029832180683000,5.43868310546875,0.5043082064932212,-9.678128834027051,1.4999660249136388
1791029832190714000,5.448714111328125,0.23189141447860745,-9.576120996448397,2.10107372322008
1791029832200745200,5.4587451171875,-0.11572248380952514,-9.40738998516202,2.767306950779259
1791029832210776000,5.468776123046875,-0.4942927892396226,-9.166824156242608,3.448966733920574
1791029832220807200,5.47880712890625,-0.8040410581197589,-8.937389377668499,3.9556247549429533
1791029832230838000,5.488838134765625,-1.138504629528895,-8.77824569441676,4.220969635809958
1791029832240869000,5.498869140625,-1.5043438016064463,-8.632856395751237,4.402400261932611
1791029832250900000,5.50889990234375,-1.8516988571621475,-8.486558165547251,4.551913947051763
1791029832260931000,5.51893115234375,-2.148342254873365,-8.353781095695496,4.665765367159247
1791029832270962000,5.5289619140625,-2.3775972929663953,-8.251164186307788,4.736634262369573
1791029832280993000,5.538992919921875,-2.5302996911242603,-8.190952001929283,4.761961595849693
1791029832291024100,5.549024169921875,-2.600235981659591,-8.18121912794411,4.740970245747268
1791029832301055200,5.55905517578125,-2.612806709419191,-8.217933532357215,4.670028577561676
1791029832311086000,5.569086181640625,-2.597111419898271,-8.29071644449532,4.548561129492521
1791029832321118200,5.5791181640625,-2.560045425568521,-8.391849252805113,4.381025757731497
1791029832331149000,5.589149169921875,-2.495449034756422,-8.518181384301185,4.169377687999606
1791029832341180200,5.59918017578125,-2.3808315987125037,-8.669550926420092,3.916752880235016
1791029832351211000,5.6092109375,-2.207092988397181,-8.839685374763608,3.627549861657619
1791029832361242000,5.6192421875,-2.00887679329887,-9.015677901485562,3.294287336601317
1791029832371273000,5.62927294921875,-1.836927404487878,-9.157184221237898,2.9903292319625616
1791029832381304000,5.639303955078125,-1.6923029527150093,-9.251460003259778,2.77794495691061
1791029832391335000,5.6493349609375,-1.5678177642598747,-9.314323578929901,2.63737007278949
1791029832401366000,5.659365966796875,-1.4997712329939006,-9.36264775711596,2.502386725065112
1791029832411396900,5.66939697265625,-1.489798412773013,-9.408092580473422,2.3321019084654746
1791029832421428200,5.67942822265625,-1.5002610623374582,-9.455067097616196,2.126334859596193
1791029832431459000,5.689458984375,-1.5113563107170163,-9.497405771651863,1.9197516720384358
1791029832441490200,5.699490234375,-1.5025195087887346,-9.534753797793387,1.7324164980471133
1791029832451521300,5.709521240234375,-1.4587055015034973,-9.56992272633016,1.56816686995849
1791029832461552000,5.71955224609375,-1.3815782765507698,-9.601417350268363,1.4402809331491588
1791029832471583200,5.729583251953125,-1.2729556970074771,-9.627741293570399,1.362557495868951
1791029832481614000,5.739614013671875,-1.152661092109978,-9.649514149439334,1.3147745849527417
1791029832491645200,5.749645263671875,-1.027201870990917,-9.670271106263995,1.2653523823969066
1791029832501676000,5.759676025390625,-0.8941746257703751,-9.689127782425285,1.221320640707761
1791029832511707100,5.76970703125,-0.7487316972214728,-9.706358903211354,1.1816893989998847
1791029832521738000,5.779738037109375,-0.6011108766442165,-9.723239895385504,1.1258969307597726
1791029832531769000,5.78976904296875,-0.46785585054978723,-9.740973704996705,1.0319523534536361
1791029832541800000,5.799800048828125,-0.3406112803839147,-9.757795075938105,0.9164256205450743
1791029832551831000,5.8098310546875,-0.1952747713515535,-9.769076932930945,0.8351093464046716
1791029832561862000,5.81986181640625,-0.07676172524173744,-9.771510882079602,0.8258758733090013
1791029832571893200,5.829893310546875,-0.023908146298001517,-9.76448142183423,0.9081482791304588
1791029832581924000,5.839924072265625,0.07917638516803271,-9.753826756829023,1.0133985326964408
1791029832591955200,5.849955078125,0.18109545761784537,-9.739622874909639,1.1301881982129067
1791029832601986000,5.859986083984375,0.25097570711700246,-9.720171739986538,1.2750164289295673
1791029832612017200,5.87001708984375,0.2737270343629643,-9.695808867624402,1.4445556878589092
1791029832622048300,5.88004833984375,0.26916887786826116,-9.66447907885909,1.641885017120093
1791029832632079000,5.8900791015625,0.2592572680490091,-9.62566799442768,1.8573374475710094
1791029832642110200,5.900110107421875,0.2486342585573904,-9.57997533378899,2.0815040764838457
1791029832652142000,5.91014208984375,0.21853116204282266,-9.529256953942776,2.3056213132970034
1791029832662173000,5.9201728515625,0.18914447016930205,-9.477483512085676,2.5123542845889926
1791029832672204000,5.9302041015625,0.18344448669571428,-9.426193469831347,2.6988185209646818
1791029832682235000,5.94023486328125,0.1920775827454403,-9.366527228897809,2.8985581262379885
1791029832692266000,5.950265869140625,0.1996828153184615,-9.2892955206573,3.136794343166053
1791029832702297000,5.960297119140625,0.19868828785577788,-9.196416161429882,3.3995316718831656
1791029832712328200,5.970328125,0.18930802670056,-9.091869160762428,3.670486793847382
1791029832722359300,5.980359375,0.16344603835446758,-8.985872545808553,3.923999198101461
1791029832732390100,5.99039013671875,0.1047676942134276,-8.882291759824753,4.155035566653311
1791029832742421200,6.000421142578125,0.00036505429132503193,-8.778665965655446,4.370972273489833
1791029832752452000,6.0104521484375,-0.13077942062797956,-8.682555953943728,4.557028221325576
1791029832762483200,6.020483154296875,-0.26632037483565507,-8.596345989477634,4.711931782789528
1791029832772514000,6.03051416015625,-0.4060768187133595,-8.52811241120696,4.824601299636066
1791029832782545200,6.040545166015625,-0.5211094479620456,-8.508676473852992,4.847810618048906
1791029832792576000,6.050575927734375,-0.5645399358224124,-8.558073249706625,4.755109245736897
1791029832802607000,6.060607177734375,-0.5666327068505809,-8.645288007301092,4.594375955206155
1791029832812638000,6.070637939453125,-0.5767324048541486,-8.740411346063018,4.409418908523023
1791029832822669000,6.0806689453125,-0.6096932288873941,-8.836704897648096,4.208482494680584
1791029832832700000,6.090699951171875,-0.6435101582933217,-8.941607872146367,3.9754143280401824
1791029832842731000,6.10073095703125,-0.6723830554258078,-9.048023589295148,3.7217657301858065
1791029832852761900,6.110761962890625,-0.6996683180406689,-9.145907040420173,3.468896007749438
1791029832862793200,6.120793212890625,-0.7326280460953712,-9.22901845434904,3.2340129006415603
1791029832872824300,6.13082421875,-0.773183416910842,-9.30153073285222,3.0090026605114337
1791029832882855200,6.140855224609375,-0.8200438792198896,-9.365758582612871,2.789351609326899
1791029832892886300,6.15088623046875,-0.8682964534744619,-9.429753208139537,2.5487679524898526
1791029832902917000,6.160917236328125,-0.9043418725848198,-9.497596325787901,2.268969598856568
1791029832912948200,6.1709482421875,-0.9252571617763489,-9.572095394194125,1.9207554422535
1791029832922979000,6.18097900390625,-0.9514813710309564,-9.652944123888016,1.4442153499886392
1791029832933010200,6.19101025390625,-0.9827730197429656,-9.71751859512925,0.8799838225282728
1791029832943041000,6.201041015625,-0.9968132355332374,-9.750506087973713,0.3230771580632776
1791029832953072000,6.211072021484375,-0.9887358736701309,-9.756525494393706,-0.054805429964140055
1791029832963103000,6.22110302734375,-0.989278967570886,-9.749454533094168,-0.3739702003566548
1791029832973134000,6.231134033203125,-1.0186608371388166,-9.721799633449315,-0.786961328503117
1791029832983165000,6.2411650390625,-1.1030042770806698,-9.653640289458632,-1.3270163730189204
1791029832993196000,6.251196044921875,-1.1852308709990234,-9.546534251958132,-1.9050668747343122
1791029833003227000,6.261226806640625,-1.1900936547297984,-9.441569902661442,-2.3687192822448906
1791029833013259300,6.27125927734375,-1.1469340197000653,-9.387192415785789,-2.5952964794307944
1791029833023290000,6.2812900390625,-1.1205067621540277,-9.38396468591094,-2.618408474949002
1791029833033321200,6.2913212890625,-1.1229026443146168,-9.399542778792977,-2.5608716472595927
1791029833043352000,6.30135205078125,-1.160782293114811,-9.41542716114521,-2.4844965558484193
1791029833053383200,6.311383056640625,-1.2346436481393872,-9.433906236165761,-2.376439208972454
1791029833063414000,6.3214140625,-1.3425813141584395,-9.450520101836323,-2.2484565337903795
1791029833073445000,6.331445068359375,-1.456862650115788,-9.454239999142288,-2.159921925769001
1791029833083476000,6.34147607421875,-1.5383042311362922,-9.452087205022574,-2.1123511962987482
1791029833093507000,6.351507080078125,-1.5929676953464746,-9.448671843621135,-2.086972132631391
1791029833103538000,6.361537841796875,-1.6286169547460971,-9.453252741670608,-2.038146726924926
1791029833113569000,6.371569091796875,-1.649435724760592,-9.474857255235314,-1.9175055005468427
1791029833123600100,6.38160009765625,-1.663870054434985,-9.504863101920485,-1.749141276746243
1791029833133631000,6.391630859375,-1.6679279515236616,-9.538263851740956,-1.5523929622434078
1791029833143662300,6.401662353515625,-1.6592434175476432,-9.575226677957177,-1.3161749532699585
1791029833153693000,6.41169287109375,-1.6349197081521152,-9.601708442169427,-1.1422017304811627
1791029833163724000,6.42172412109375,-1.6037475941665469,-9.619363925847411,-1.0325718005262314
1791029833173755000,6.4317548828125,-1.5782872819565235,-9.634569093763828,-0.9243643776550888
1791029833183786000,6.441785888671875,-1.556993003384769,-9.646453592824935,-0.8319374383702873
1791029833193816800,6.45181689453125,-1.5471952474698423,-9.653133508980273,-0.7704522383812814
1791029833203848000,6.461847900390625,-1.5477525890916586,-9.655463413232564,-0.739509476172179
1791029833213878800,6.471878662109375,-1.5537999064318835,-9.655104516792298,-0.7314691583838313
1791029833223910000,6.481909912109375,-1.5694440502874552,-9.65206149583459,-0.7382032889444381
1791029833233941000,6.49194091796875,-1.577399100945145,-9.651437226456403,-0.729370578669384
1791029833243972000,6.50197216796875,-1.5798193138293921,-9.65315805889964,-0.7007789826963097
1791029833254003000,6.5120029296875,-1.5889048298217354,-9.654971830323339,-0.6536624997995794
1791029833264034000,6.522033935546875,-1.610332817775756,-9.655605452051757,-0.5886312247015536
1791029833274065000,6.53206494140625,-1.6438286985337733,-9.654487846198677,-0.5089774038806557
1791029833284096000,6.542095947265625,-1.6809050681270659,-9.652875734826921,-0.4085517939921468
1791029833294127000,6.552127197265625,-1.7417070350922643,-9.646402739420532,-0.28938295998787505
1791029833304158000,6.562157958984375,-1.835262832276523,-9.632312254747747,-0.14410696723740546
1791029833314189000,6.57218896484375,-1.9666876107364892,-9.60735609266758,-0.035157484694151205
1791029833324221000,6.582220947265625,-2.1210284237511456,-9.574480828025937,0.03097301121689379
1791029833334251000,6.5922509765625,-2.236153370925784,-9.547977436503768,0.078518861974217
1791029833344283000,6.602282958984375,-2.3068967400602993,-9.53051484504938,0.1338489825327415
1791029833354314000,6.61231396484375,-2.356661472443491,-9.517031678619981,0.2064195031623356
1791029833364345000,6.622344970703125,-2.407683219150454,-9.502775189730524,0.26589915374889966
1791029833374376000,6.6323759765625,-2.448110506606847,-9.490338317483664,0.3326106370188296
1791029833384407000,6.642406982421875,-2.4670830642327664,-9.483245728874206,0.389788823996298
1791029833394438100,6.652438232421875,-2.4796377176404,-9.478207734706997,0.4305137792250141
1791029833404469000,6.662468994140625,-2.490196813316643,-9.473085569387674,0.4795184139559045
1791029833414500000,6.6725,-2.4920640684932467,-9.469247014138102,0.5416157179612666
1791029833424531000,6.682531005859375,-2.478195702138543,-9.468370231303572,0.615574176684767
1791029833434562000,6.69256201171875,-2.4548463907331226,-9.469719307824969,0.6844803204547614
1791029833444593000,6.702593017578125,-2.4284279010154304,-9.472409862083197,0.739298756030947
1791029833454624000,6.7126240234375,-2.401548661918193,-9.47475262581706,0.7950126791421324
1791029833464654800,6.72265478515625,-2.386150601778179,-9.472751807388663,0.8623502584211528
1791029833474686000,6.73268603515625,-2.4025375268250704,-9.462176637360454,0.9302608152825385
1791029833484716800,6.742716796875,-2.4299714771956205,-9.448562538027764,0.9951374112755059
1791029833494748000,6.752747802734375,-2.4261627325624224,-9.441402729400991,1.0695859185382723
1791029833504778800,6.76277880859375,-2.4193198809303342,-9.4357007183671,1.1334999531093983
1791029833514810000,6.77281005859375,-2.4328945250354708,-9.426989004123211,1.1761268695019185
1791029833524841000,6.782841064453125,-2.4436690170280633,-9.420755662691592,1.2034217767279594
1791029833534872000,6.7928720703125,-2.4451275452733037,-9.417709719124435,1.2241314603447913
1791029833544903000,6.80290283203125,-2.438637306471169,-9.418339833721518,1.2322105757735669
1791029833554934000,6.81293408203125,-2.4268738034412265,-9.422081942859291,1.2268028715111314
1791029833564965000,6.822965087890625,-2.411603315203637,-9.427420965799689,1.215842063166201
1791029833574996000,6.832995849609375,-2.3978505380526185,-9.433242219299077,1.1977760259259491
1791029833585027000,6.843027099609375,-2.388062865140289,-9.438710421577095,1.1740030822809784
1791029833595058000,6.853057861328125,-2.374662408558279,-9.444301373451948,1.1560912857543677
1791029833605089000,6.863089111328125,-2.363610122537613,-9.448864735844731,1.1413571694158018
1791029833615120000,6.873119873046875,-2.3552725023031233,-9.452079606238007,1.1319348957497626
1791029833625151000,6.88315087890625,-2.34205047102794,-9.455885428261757,1.1275819612372666
1791029833635181800,6.893181884765625,-2.3188437829636035,-9.461266536778211,1.1303875201772897
1791029833645213000,6.903212890625,-2.278017413187027,-9.469861931166053,1.1413747781377286
1791029833655243800,6.913243896484375,-2.212859296838939,-9.484899925822019,1.1446892364479602
1791029833665275000,6.92327490234375,-2.08985104906857,-9.516088844811916,1.1166731753405184
1791029833675306000,6.933305908203125,-1.912860889611393,-9.560981879505514,1.0483251769099384
1791029833685338000,6.943338134765625,-1.7324176670908926,-9.605530630806088,0.9502181461621075
1791029833695369000,6.953368896484375,-1.5818427824810146,-9.641142626935244,0.8464837039865553
1791029833705400000,6.963400146484375,-1.5204427034921943,-9.656918872737885,0.7762608515948056
1791029833715431000,6.973430908203125,-1.5420888642415402,-9.654902272218465,0.7584428708314895
1791029833725462000,6.9834619140625,-1.5700604286201296,-9.650639938598871,0.7552809727344661
1791029833735492900,6.993492919921875,-1.5809787129975854,-9.648910338327289,0.7545952554926276
1791029833745524000,7.00352392578125,-1.5817494051091372,-9.6485526109308,0.7575415380775928
1791029833755554800,7.013554931640625,-1.5766702021487056,-9.648822075521945,0.7646615992158651
1791029833765586000,7.0235859375,-1.565876713194698,-9.649527008920908,0.7778267126720398
1791029833775616800,7.03361669921875,-1.559985317068547,-9.649068159237503,0.795170938443765
1791029833785647900,7.04364794921875,-1.55626352006644,-9.648822660043836,0.8053756677243858
1791029833795679000,7.053678955078125,-1.5452492279686032,-9.650483286732435,0.8067088160242885
1791029833805710000,7.0637099609375,-1.53455013929978,-9.653315879809856,0.7931243811774998
1791029833815741200,7.0737412109375,-1.5280170842692256,-9.656524904984234,0.7662034948956221
1791029833825772000,7.08377197265625,-1.52332264284268,-9.65953519271612,0.7370365832526237
1791029833835803100,7.09380322265625,-1.5099363609164953,-9.663521047481893,0.7119081333454698
1791029833845834000,7.103833984375,-1.4841395102284847,-9.669192663377522,0.688792265369743
1791029833855865000,7.113864990234375,-1.4534424664087593,-9.675459907078743,0.6658546765703708
1791029833865896000,7.12389599609375,-1.4182032491147518,-9.682429746091366,0.6400265539612621
1791029833875927000,7.133927001953125,-1.3759477233178912,-9.690395610404014,0.6110502695195377
1791029833885958000,7.1439580078125,-1.3245770170427857,-9.699392571330069,0.581087239062786
1791029833895989000,7.153989013671875,-1.2730293467655778,-9.70864087666869,0.5404230741105973
1791029833906019800,7.164019775390625,-1.2229610283259302,-9.718128835982084,0.4824138796690851
1791029833916051000,7.174051025390625,-1.193583834933117,-9.724148242402077,0.4320806632155552
1791029833926081800,7.184081787109375,-1.1777907841261475,-9.727066175675391,0.40911136410366744
1791029833936113000,7.19411279296875,-1.1540253662005067,-9.730272278240323,0.4005068000286817
1791029833946143700,7.204143798828125,-1.121817187165469,-9.733887546128035,0.4041502345649525
1791029833956175000,7.214175048828125,-1.0977292592871934,-9.735805362448096,0.42366504584141074
1791029833966206000,7.2242060546875,-1.0884583037253468,-9.735288060575723,0.4580260555287823
1791029833976237000,7.234237060546875,-1.088174810608849,-9.732839498379827,0.5080352276597172
1791029833986268200,7.24426806640625,-1.102720126377046,-9.727653035652637,0.5719947088077664
1791029833996299000,7.254299072265625,-1.132231686739251,-9.72026234087944,0.636336905663088
1791029834006330000,7.264330078125,-1.1637250685684382,-9.712823130789399,0.6907817586865276
1791029834016361000,7.27436083984375,-1.185884731797874,-9.706544196650386,0.7396464734900743
1791029834026392000,7.28439208984375,-1.1952586362775415,-9.701766314724088,0.7858150810774416
1791029834036423000,7.2944228515625,-1.1949321077369153,-9.69792132973373,0.8323580749351531
1791029834046454000,7.3044541015625,-1.1936616494096814,-9.694166945636272,0.8767432331718504
1791029834056484900,7.31448486328125,-1.1936935789179057,-9.69006827814579,0.9209019622415303
1791029834066516000,7.324515869140625,-1.1994034079320728,-9.68407926686406,0.97489001140818
1791029834076547800,7.3345478515625,-1.2196610369324683,-9.67473860706687,1.040315765716508
1791029834086579200,7.3445791015625,-1.257562313042581,-9.662029347619415,1.1109119084000587
1791029834096610000,7.354610107421875,-1.3083210248991846,-9.646769234645365,1.1825900011014192
1791029834106641200,7.36464111328125,-1.3608002769380807,-9.630512511849403,1.2537236116625368
1791029834116672000,7.374672119140625,-1.405145614621043,-9.615350598552823,1.3194661037698387
1791029834126703000,7.384703125,-1.4410688686564563,-9.602366029295325,1.374156894378364
1791029834136734000,7.39473388671875,-1.4678082608915866,-9.593052842026948,1.410421070805937
1791029834146765000,7.40476513671875,-1.4877546319857238,-9.587307576373219,1.428470522237569
1791029834156796000,7.4147958984375,-1.5071625122889876,-9.584977672120928,1.4237424708023667
1791029834166827000,7.424826904296875,-1.5212443752638996,-9.5877336928308,1.3898064450614154
1791029834176857900,7.43485791015625,-1.5164944042578339,-9.596415596458316,1.3339580088503658
1791029834186889000,7.444888916015625,-1.4932641891874372,-9.609541620013117,1.2638313103094696
1791029834196919800,7.454919921875,-1.46360978628844,-9.623885202664136,1.1870447885531932
1791029834206951000,7.464950927734375,-1.4334680382639169,-9.638580667492747,1.1015222948946057
1791029834216982000,7.47498193359375,-1.397736215147376,-9.654610011273622,1.0026158573973922
1791029834227013000,7.48501318359375,-1.3594883175566792,-9.670679102542996,0.8945121140964328
1791029834237044000,7.4950439453125,-1.3197931437671184,-9.686081254336237,0.7799872517067938
1791029834247075000,7.505074951171875,-1.2815225959531962,-9.699476157960294,0.6695221130367368
1791029834257106200,7.515106201171875,-1.253954497808963,-9.7097058755517,0.5653502658246085
1791029834267137000,7.525136962890625,-1.2315280003368854,-9.717516257041693,0.4728894242702052
1791029834277168000,7.535168212890625,-1.2110205612938851,-9.723754859170317,0.3903806158769876
1791029834287199000,7.545198974609375,-1.1948344195161014,-9.728550276753305,0.3131306047948077
1791029834297230000,7.55522998046875,-1.1873352228671312,-9.731798464894295,0.22958823383646085
1791029834307261000,7.565260986328125,-1.193115340638533,-9.732771109318733,0.14144695424791426
1791029834317292000,7.5752919921875,-1.213200827942416,-9.731158413425087,0.05559204573060851
1791029834327323000,7.585322998046875,-1.2500795560717581,-9.726624861648679,-0.020988194597535766
1791029834337354000,7.59535400390625,-1.3024620697379112,-9.719404847267269,-0.08465889909919351
1791029834347384800,7.605384765625,-1.350504069981724,-9.712252052903175,-0.13675582815646192
1791029834357416000,7.615416015625,-1.389298933930695,-9.706098790970444,-0.17859560362612828
1791029834367446800,7.62544677734375,-1.4529592129364608,-9.696196990159153,-0.2075154269065708
1791029834377478100,7.63547802734375,-1.5171240804634987,-9.686342535620927,-0.20861445592334493
1791029834387509000,7.645509033203125,-1.5763398011505603,-9.677077279147506,-0.19923121735975144
1791029834397540000,7.6555400390625,-1.6720694352425634,-9.66153308853507,-0.17120987728899345
1791029834407571200,7.6655712890625,-1.756231088876724,-9.64726549372971,-0.1277003237098921
1791029834417602000,7.67560205078125,-1.8257890476189553,-9.634797057300805,-0.0869900728599634
1791029834427633200,7.685633056640625,-1.9014529220208525,-9.620414311683177,-0.04993975558995735
1791029834437664000,7.6956640625,-1.9662550645381212,-9.607507483837008,-0.006276959665169124
1791029834447695000,7.705695068359375,-2.0174746719047425,-9.59681774751842,0.035774881373555396
1791029834457726000,7.715725830078125,-2.055242092502117,-9.588533903297781,0.07994070233772509
1791029834467757000,7.725757080078125,-2.0808660708412527,-9.582292378559709,0.14173997324458323
1791029834477788000,7.735787841796875,-2.088736073563993,-9.578846037498115,0.230872684156429
1791029834487819000,7.745819091796875,-2.0852042461760343,-9.576423778787255,0.33831016383469104
1791029834497851100,7.75585107421875,-2.0801218283452094,-9.57234673860669,0.462244075082615
1791029834507882200,7.76588232421875,-2.073342835729569,-9.566160743448137,0.600166325803101
1791029834517913000,7.7759130859375,-2.0620057414181527,-9.559007949084043,0.7374832310415804
1791029834527944200,7.785944091796875,-2.0482761990122498,-9.551678044587373,0.8604691939149052
1791029834537975000,7.79597509765625,-2.0402610887303947,-9.543784076467157,0.9612154140599072
1791029834548006100,7.806006103515625,-2.039583627860248,-9.53566448289752,1.0399996124394237
1791029834558037000,7.816037109375,-2.0447199678353964,-9.527090131297706,1.1063743380356579
1791029834568068000,7.826068115234375,-2.047925339747965,-9.519868363350628,1.161241069732979
1791029834578099000,7.836098876953125,-2.040385591892898,-9.515302078348398,1.2108765497133136
1791029834588130000,7.846130126953125,-2.0326199263274667,-9.512656532275676,1.2442704314015804
1791029834598161000,7.856160888671875,-2.0283466329224407,-9.511094105264544,1.2630495122820138
1791029834608192000,7.86619189453125,-2.020680628339201,-9.511066632735728,1.2754827312670647
1791029834618222800,7.876222900390625,-1.9989535113081336,-9.516008765313028,1.27285267502442
1791029834628254000,7.88625390625,-1.9469453839123247,-9.533068036663531,1.2248993759773672
1791029834638284800,7.896284912109375,-1.8582462329789995,-9.561119826671481,1.1411813744574784
1791029834648316000,7.90631591796875,-1.7771048039488493,-9.587637246719002,1.0437959359824658
1791029834658347000,7.916346923828125,-1.7259416029445827,-9.606547698894143,0.9517248974632472
1791029834668378000,7.926378173828125,-1.7023057296827435,-9.617951136440038,0.8761176486194133
1791029834678409200,7.9364091796875,-1.6885691730141639,-9.622813189518451,0.8488803898647427
1791029834688440000,7.946440185546875,-1.678893289913237,-9.622760582548379,0.8684306743133813
1791029834698471200,7.95647119140625,-1.6750611644044517,-9.621817164218426,0.8861031821914017
1791029834708502000,7.966501953125,-1.6712350302450358,-9.622458969253302,0.886358691322431
1791029834718533000,7.976533203125,-1.6719382100783287,-9.623861821788548,0.8696361776456236
1791029834728564000,7.98656396484375,-1.68005809590891,-9.624673138171433,0.8446615300606936
1791029834738595000,7.996594970703125,-1.6942559864789246,-9.6255931756258,0.8048628228314221
1791029834748626000,8.0066259765625,-1.6840695235073566,-9.630413143128155,0.7677573732741176
1791029834758657000,8.016656982421875,-1.6558641503728926,-9.635986559346318,0.7591030152406543
1791029834768687900,8.02668798828125,-1.623991925293952,-9.642392334735392,0.7465108063016086
1791029834778719000,8.036718994140625,-1.5748399179816246,-9.652381813830136,0.7223536125794052
1791029834788749800,8.046749755859375,-1.4951985182508825,-9.668139939454198,0.6795787390835583
1791029834798781000,8.056781005859374,-1.393125798742473,-9.689085112327337,0.5926251531759277
1791029834808811800,8.066811767578125,-1.279107205374539,-9.712418057119846,0.4507741847043857
1791029834818843100,8.076843017578126,-1.1845882622465491,-9.730008658868075,0.3067016311932355
1791029834828874000,8.0868740234375,-1.113329710131511,-9.741648827779292,0.17655624328562988
1791029834838905000,8.096905029296876,-1.044519354886189,-9.750675599321722,0.06069304039773996
1791029834848936200,8.106936279296875,-0.9890207550261169,-9.756561150228977,-0.041699102057074194
1791029834858967000,8.116967041015625,-0.9615694151293486,-9.758408239400387,-0.13864262828375212
1791029834868998100,8.126998046875,-0.9553275250650942,-9.75668506886959,-0.2546040536819957
1791029834879029000,8.137029052734375,-0.9475284686867147,-9.752984460785985,-0.38971674514077603
1791029834889060000,8.14706005859375,-0.9337933002576232,-9.74814403501749,-0.5216317548030988
1791029834899091000,8.157091064453125,-0.9199162391398101,-9.743217100009321,-0.6275782835375517
1791029834909122000,8.1671220703125,-0.9179806679673492,-9.73893255455792,-0.6934597457241266
1791029834919153000,8.17715283203125,-0.9397888143453746,-9.734522921422123,-0.7254081047791987
1791029834929184000,8.18718408203125,-0.9761109315052628,-9.730283384156227,-0.7343018975917249
1791029834939214800,8.19721484375,-1.0150540448185055,-9.726452427691221,-0.7322276486009359
1791029834949246000,8.207245849609375,-1.04993524245508,-9.723009593760967,-0.728757122946158
1791029834959276800,8.21727685546875,-1.079435039314255,-9.720659231242538,-0.7169342178791761
1791029834969308000,8.227307861328125,-1.10244430511035,-9.720079970049857,-0.6892371595930308
1791029834979340000,8.237340087890624,-1.1218507971741258,-9.720748663091658,-0.6471896505236625
1791029834989371100,8.24737109375,-1.1352809913072734,-9.721895495039224,-0.6052080462973565
1791029834999402000,8.257402099609376,-1.150858499667421,-9.722643683058022,-0.5622186898006126
1791029835009433000,8.26743310546875,-1.1800124787636102,-9.722153269192576,-0.5076347936326637
1791029835019464000,8.2774638671875,-1.2228253461822867,-9.720147190067172,-0.44023532809857274
1791029835029495000,8.2874951171875,-1.2660619919709861,-9.717814363205433,-0.3627109205218032
1791029835039526000,8.29752587890625,-1.300470311398804,-9.716013451263308,-0.2797174338841811
1791029835049557000,8.307556884765624,-1.325242495214194,-9.714775433900952,-0.19304213519496843
1791029835059587800,8.317587890625,-1.3461299465507268,-9.713237556809187,-0.10651020876551047
1791029835069619000,8.327618896484376,-1.369020700533688,-9.710585580995678,-0.026288828606170135
1791029835079650000,8.337650146484375,-1.3922466778203844,-9.707238024133444,0.039373453854792746
1791029835089681000,8.347680908203126,-1.4165372155986726,-9.703539169615507,0.07149624702816364
1791029835099712300,8.357712158203125,-1.447492764224112,-9.699045949849486,0.060547649710834955
1791029835109743000,8.3677431640625,-1.4788225529894232,-9.694496615982056,0.014368568678514566
1791029835119774200,8.377774169921874,-1.4902346122331915,-9.692653033941983,-0.04537692748671397
1791029835129805000,8.38780517578125,-1.4663653686068951,-9.695734633344411,-0.11344230958363041
1791029835139836200,8.397836181640624,-1.4172316276036203,-9.701989602085947,-0.1823394480632618
1791029835149867000,8.407866943359375,-1.363190386945009,-9.708225866127014,-0.24990963052175938
1791029835159898000,8.417898193359376,-1.3128171672746538,-9.713571318808198,-0.3056702605851926
1791029835169929000,8.427928955078125,-1.2639112436778843,-9.718446815890074,-0.3531367076970637
1791029835179960000,8.4379599609375,-1.2172268685881047,-9.722935944002867,-0.3914839740090072
1791029835189991000,8.447990966796874,-1.1724085796311496,-9.72695511651635,-0.4268322777006775
1791029835200022000,8.45802197265625,-1.129164554253593,-9.730290982940792,-0.4656527144823223
1791029835210052900,8.468052978515624,-1.0998772311013192,-9.731664024859667,-0.5053592499161139
1791029835220084000,8.478083984375,-1.0962566294513643,-9.730056005141138,-0.5427906069595366
1791029835230114800,8.48811474609375,-1.1136414064291864,-9.72529916600287,-0.5905328205391764
1791029835240146000,8.49814599609375,-1.1423784022223205,-9.718902742964028,-0.638962212665379
1791029835250177000,8.508177001953126,-1.180528465461731,-9.711140292268992,-0.6859131297368556
1791029835260208000,8.5182080078125,-1.218949381531775,-9.70254314431548,-0.7383778417937457
1791029835270239200,8.5282392578125,-1.2522395105846225,-9.693613987928629,-0.7975806299339979
1791029835280270000,8.53827001953125,-1.2832051422126591,-9.684926823604107,-0.8520528093557804
1791029835290301200,8.54830126953125,-1.3170505670607089,-9.676760468283295,-0.8922411734897643
1791029835300332000,8.55833203125,-1.3664968811444937,-9.66830185201764,-0.9094089467160403
1791029835310363100,8.568363037109375,-1.4291836389429866,-9.659594229426979,-0.905560162333399
1791029835320394000,8.57839404296875,-1.486536196106672,-9.65190952014327,-0.8951262274067848
1791029835330425000,8.588425048828125,-1.5504717849224805,-9.642973349493742,-0.8829081855423748
1791029835340456000,8.5984560546875,-1.6664159395255147,-9.625759179842472,-0.8591859491713345
1791029835350487000,8.608487060546874,-1.7649318433351813,-9.612321606120467,-0.8115733533207327
1791029835360518000,8.618517822265625,-1.8209902690351008,-9.607045127022266,-0.7477190130475908
1791029835370549000,8.628549072265624,-1.8711719116561114,-9.601952187797426,-0.686754768192768
1791029835380579800,8.638579833984375,-1.9141516600742936,-9.596737668019532,-0.6395665352340787
1791029835390611000,8.64861083984375,-1.9557973834097384,-9.59036521037817,-0.6083886125622316
1791029835400641800,8.658641845703125,-2.005891347747296,-9.581343115010856,-0.5870400099873543
1791029835410673000,8.6686728515625,-2.057190450090915,-9.571786182114481,-0.5650200474895537
1791029835420704000,8.6787041015625,-2.0925554857216775,-9.566552957636118,-0.522191580642946
1791029835430735000,8.688735107421875,-2.103393252208829,-9.567920154336095,-0.44835393528752027
1791029835440766200,8.69876611328125,-2.083852977697551,-9.57708604208827,-0.32771632563862946
1791029835450797000,8.708797119140625,-2.0388051908336577,-9.591082418736814,-0.15752004583897067
1791029835460828200,8.718828125,-1.9960478529945014,-9.601304537543655,0.034023411763459445
1791029835470859000,8.72885888671875,-1.9778733138784765,-9.602627895101904,0.2190420524407178
1791029835480890000,8.73889013671875,-1.988325734309852,-9.595396774804591,0.38116694346033037
1791029835490921000,8.7489208984375,-2.0177010280065235,-9.582291209515928,0.5281729566074908
1791029835500952000,8.7589521484375,-2.06360587009117,-9.563382510906457,0.6734990538436919
1791029835510983000,8.76898291015625,-2.1114732444204387,-9.54082990283668,0.8274130197484045
1791029835521014000,8.779013916015625,-2.1533846329547464,-9.515757420900464,0.991821783921495
1791029835531046000,8.7890458984375,-2.185187738320231,-9.48984088935554,1.1568221573121844
1791029835541076000,8.799075927734375,-2.203319607338309,-9.466530156394839,1.3040640981070697
1791029835551108000,8.809108154296876,-2.213494672133028,-9.448537403586506,1.4127826853707433
1791029835561139200,8.81913916015625,-2.2141883534856137,-9.438831417608261,1.4752026089265942
1791029835571170000,8.829170166015626,-2.2038630665652454,-9.438227021974324,1.494408829177916
1791029835581201200,8.839201171875,-2.197123236916214,-9.441960947805642,1.4806762180320918
1791029835591232000,8.84923193359375,-2.1907392349675296,-9.44817675358057,1.4501678286522626
1791029835601263000,8.85926318359375,-2.179242127788812,-9.457242103567719,1.4077828312568366
1791029835611294000,8.8692939453125,-2.169027023244649,-9.468117133325338,1.349249101484567
1791029835621325000,8.879324951171874,-2.1599587506480513,-9.479959546810388,1.2788067611232399
1791029835631356000,8.88935595703125,-2.1537132803872225,-9.492335044258832,1.1947677109554409
1791029835641387000,8.899386962890626,-2.152108767800033,-9.504417696240544,1.097656413246691
1791029835651417900,8.90941796875,-2.1538550269454717,-9.516773904466628,0.9809737883012741
1791029835661449000,8.919448974609375,-2.1537876607976854,-9.530174068787693,0.841068766265735
1791029835671480000,8.92947998046875,-2.143044586856663,-9.546562309008836,0.6640001347448676
1791029835681511000,8.939510986328125,-2.1092529380224643,-9.566781505694985,0.44514461785219606
1791029835691542000,8.9495419921875,-2.073923265966028,-9.582938275247812,0.19110910303946582
1791029835701573000,8.959572998046875,-2.063846108587831,-9.586830021989345,-0.05994418565866071
1791029835711604200,8.969604248046876,-2.0700983008503915,-9.58211936008036,-0.2608717175083235
1791029835721635000,8.979635009765625,-2.062481834497303,-9.579850830626487,-0.37816619074176994
1791029835731666200,8.989666259765626,-2.024029500375688,-9.587078443792462,-0.40198575000744313
1791029835741697000,8.999697021484375,-1.9946657509863375,-9.594396657851338,-0.37315212543942033
1791029835751728000,9.00972802734375,-1.9904430187247693,-9.596516718745232,-0.3396667660754174
1791029835761759000,9.019759033203124,-2.002202868492901,-9.594705869930982,-0.3212220682485029
1791029835771790000,9.0297900390625,-2.0180238302201032,-9.591618425309658,-0.3143666493957862
1791029835781821000,9.039821044921876,-2.0380203240662813,-9.587319266811013,-0.3165096527738496
1791029835791852000,9.04985205078125,-2.0665099209696054,-9.580921674728392,-0.32537582692708816
1791029835801883000,9.0598828125,-2.1059518506504595,-9.571883212748169,-0.33821386385336516
1791029835811914000,9.0699140625,-2.1550848610013724,-9.560345335167646,-0.35468474085666235
1791029835821944800,9.07994482421875,-2.21127714221403,-9.54681599150896,-0.37272907772175967
1791029835831976000,9.089975830078124,-2.2732238953001795,-9.531572245147824,-0.3898234569182619
1791029835842007000,9.100007080078125,-2.340448588789254,-9.514576102161406,-0.406855036544241
1791029835852038000,9.110037841796874,-2.411622750556469,-9.49599590485394,-0.4248544382890686
1791029835862069200,9.1200693359375,-2.4854420200049874,-9.476082413116098,-0.4436476207600906
1791029835872100000,9.13010009765625,-2.559998079295456,-9.455434177362918,-0.45997021186649795
1791029835882131200,9.140131103515625,-2.635950269119441,-9.434057627335191,-0.4697741417938843
1791029835892162000,9.150162109375,-2.713231369459629,-9.411912431022524,-0.4739681228850037
1791029835902193200,9.160193115234375,-2.79022663859576,-9.389408338269591,-0.4733337705042213
1791029835912224000,9.17022412109375,-2.866846060156822,-9.36664062614441,-0.46651598024815316
1791029835922255000,9.180255126953124,-2.9400854838907717,-9.34451881070733,-0.4541895461058244
1791029835932286000,9.190285888671875,-3.0071383279442787,-9.323879927304386,-0.43907402923423794
1791029835942317000,9.200317138671876,-3.066795216527581,-9.305096900901198,-0.42465931757576764
1791029835952348000,9.210347900390625,-3.1128955811843273,-9.290337138664722,-0.41222456422075626
1791029835962379000,9.22037890625,-3.140583798576891,-9.281790844115614,-0.394339984494634
1791029835972409900,9.230409912109375,-3.151741152407229,-9.278793415865302,-0.3754261347860098
1791029835982441000,9.24044091796875,-3.1445541635125873,-9.28217195238769,-0.3513951247267425
1791029835992471800,9.250471923828124,-3.120750678598881,-9.291019275709987,-0.3290111146895215
1791029836002503000,9.2605029296875,-3.0820252266243098,-9.304446912559866,-0.3142985160630196
1791029836012534000,9.270533935546876,-3.0324890422999857,-9.320919323933124,-0.30797183379214255
1791029836022565000,9.280565185546875,-2.975480914659798,-9.339172773504256,-0.31101777735929936
1791029836032596200,9.29059619140625,-2.9138650009632108,-9.358193115794657,-0.32245858777351677
1791029836042627000,9.300626953125,-2.8493752853959795,-9.377498704767227,-0.33763325095381586
1791029836052658200,9.310658203125,-2.7826901056110858,-9.396840534096956,-0.35549017548803236
1791029836062689000,9.32068896484375,-2.7150562467992305,-9.415838080033659,-0.37525790207963433
1791029836072720100,9.33072021484375,-2.6508886027932164,-9.43327261443734,-0.3956876727765426
1791029836082751000,9.3407509765625,-2.5966923177033663,-9.447469482094048,-0.4158115558620542
1791029836092782000,9.350781982421875,-2.559388130703568,-9.456697913688421,-0.436773168413341
1791029836102813000,9.36081298828125,-2.5480051514238116,-9.458587672957778,-0.4616986796269193
1791029836112844000,9.370843994140625,-2.568300920477509,-9.451773316767811,-0.488077166127786
1791029836122875000,9.380875,-2.617274794743955,-9.437495785090327,-0.5038996622249484
1791029836132906000,9.390906005859375,-2.6794994879886507,-9.41997649501264,-0.5046588830944151
1791029836142936800,9.400936767578125,-2.7359163717374204,-9.404946683663129,-0.4818225627124309
1791029836152968400,9.410968505859374,-2.7767323662504553,-9.395306164136528,-0.43399194019697607
1791029836162999300,9.420999267578125,-2.803349739541113,-9.389919794923067,-0.3755354769119993
1791029836173030400,9.431030517578124,-2.8210078535676,-9.386587435629963,-0.3229111903792247
1791029836183061200,9.441061279296875,-2.8335753664568064,-9.384072237938643,-0.2835901653979905
1791029836193092400,9.45109228515625,-2.8419939429730174,-9.38222982494235,-0.25922511934507636
1791029836203123500,9.46112353515625,-2.848257679542899,-9.380613621917366,-0.24875118120163678
1791029836213154300,9.471154296875,-2.851327588507533,-9.379778340137005,-0.24506377965947612
1791029836223185400,9.481185302734374,-2.846736169064045,-9.381287575656176,-0.24065783631810916
1791029836233216300,9.49121630859375,-2.8313088828295467,-9.386187622657419,-0.23137849652040748
1791029836243247600,9.50124755859375,-2.8046812804058194,-9.394563821336627,-0.21521173529652876
1791029836253278500,9.511278564453125,-2.767583137372136,-9.406059613341093,-0.19213086556894704
1791029836263310300,9.521310302734374,-2.721964711013436,-9.419887063163518,-0.1643214512158185
1791029836273340400,9.53134033203125,-2.672633693872392,-9.434469715267419,-0.13495786622324957
1791029836283372300,9.541372314453126,-2.6231448558211325,-9.448715098240971,-0.10629337854390032
1791029836293403400,9.5514033203125,-2.5750910190090535,-9.462186574232577,-0.07973005526172929
1791029836303434500,9.5614345703125,-2.5277482530757784,-9.475103338950872,-0.05719760406399146
1791029836313465300,9.57146533203125,-2.478487086300552,-9.488203059020638,-0.038835611517890355
1791029836323496400,9.581496337890625,-2.427523207260668,-9.501418514424563,-0.024218422390148042
1791029836333527300,9.59152734375,-2.3755511740915476,-9.514565580767393,-0.012674933627812425
1791029836343558400,9.601558349609375,-2.321821045208722,-9.527828382444381,-0.003608463687589392
1791029836353589200,9.61158935546875,-2.264700104843825,-9.541566984939575,0.0032309167749568586
1791029836363620400,9.621620361328125,-2.2011928244426846,-9.556415009981393,0.00965340412434889
1791029836373651500,9.6316513671875,-2.131074747599661,-9.572284779286385,0.017065018387988674
1791029836383682600,9.6416826171875,-2.0572579623691736,-9.588402970394492,0.02502282040847931
1791029836393713400,9.65171337890625,-1.983747905000299,-9.603861236289143,0.03157231055060401
1791029836403744500,9.66174462890625,-1.9137291968785226,-9.618046998029946,0.034587502786470575
1791029836413775400,9.671775390625,-1.8493895573064685,-9.63063000074923,0.03315899978673551
1791029836423806500,9.681806396484374,-1.7925407118812202,-9.641388126128911,0.0283633675746154
1791029836433837300,9.69183740234375,-1.7423527856498955,-9.6506042827636,0.020996893927222118
1791029836443868400,9.701868408203126,-1.6978163093090057,-9.658551442375778,0.013362447817804058
1791029836453899300,9.711899169921875,-1.6556760804548858,-9.665869656434655,0.008099174119404052
1791029836463930400,9.721930419921875,-1.6098017796389759,-9.67361632503867,0.0061365368435042904
1791029836473961500,9.73196142578125,-1.557957902894169,-9.68210241383314,0.006063162792506046
1791029836483992300,9.741992431640625,-1.5016069239884613,-9.691004097691177,0.00566882514609897
1791029836494023400,9.7520234375,-1.4410837739646434,-9.700187521100045,0.005027991650535841
1791029836504054300,9.76205419921875,-1.3765725772179662,-9.709553315338491,0.0028727204480659563
1791029836514085400,9.77208544921875,-1.3101084928378461,-9.718744337531923,-0.00376735403311759
1791029836524116200,9.7821162109375,-1.243343233554065,-9.727499890917539,-0.015651437821105355
1791029836534147600,9.792147705078126,-1.177344209402427,-9.735680859285592,-0.02829901765111135
1791029836544178400,9.802178466796875,-1.1094131942749024,-9.743621004635095,-0.03767800701456144
1791029836554209500,9.81220947265625,-1.0381844527762383,-9.751443661084771,-0.04379745800923556
1791029836564240400,9.822240478515624,-0.9653020988516509,-9.758907421094179,-0.04795509827849455
1791029836574271500,9.832271484375,-0.8937661180347204,-9.765706579715014,-0.05052718638936057
1791029836584302300,9.84230224609375,-0.8254672925081104,-9.771710204043984,-0.051875363295036364
1791029836594333400,9.85233349609375,-0.7618579399719834,-9.77686568711102,-0.053397421763162124
1791029836604364300,9.8623642578125,-0.7045704108685255,-9.781141464734077,-0.05690909227908123
1791029836614395400,9.8723955078125,-0.6535615967083722,-9.7846427508533,-0.06338671362823807
1791029836624426200,9.88242626953125,-0.6073750516055152,-9.787546655601263,-0.07363148265830241
1791029836634457300,9.892457275390624,-0.565314390793629,-9.789951963177323,-0.08738400408099405
1791029836644488400,9.902488525390625,-0.527843797718361,-9.791883223500847,-0.10375121064726263
1791029836654519300,9.912519287109374,-0.49510085421949623,-9.793391874498129,-0.12131718941088765
1791029836664550400,9.92255029296875,-0.4658875096188858,-9.794598912200332,-0.13838607797310687
1791029836674581200,9.932581298828126,-0.44047045202869917,-9.795537654355167,-0.15426551928874105
1791029836684612400,9.9426123046875,-0.4197636544886976,-9.7962045938313,-0.16899408266935498
1791029836694643500,9.9526435546875,-0.4050885017957538,-9.796582779493928,-0.1823616598950699
1791029836704674600,9.962674560546875,-0.39685868931729346,-9.796697930306197,-0.1938300159033388
1791029836714705400,9.972705322265625,-0.39398956362176685,-9.796631294810771,-0.20293622762383892
1791029836724736500,9.982736572265624,-0.39613150755390525,-9.796388133704662,-0.21030542295128105
1791029836734767400,9.992767333984375,-0.40388296193089335,-9.795914670974016,-0.21754858074625952
1791029836744798500,10.002798583984376,-0.4162036239195615,-9.795226104187964,-0.22524143680380657
1791029836754829300,10.012829345703125,-0.4316982397692278,-9.794355751094221,-0.23374330768929794
1791029836764860400,10.0228603515625,-0.4480586421353742,-9.79338836736679,-0.24328106096116825
1791029836774891300,10.032891357421875,-0.4624251307379454,-9.792497556006907,-0.2520530722912401
1791029836784922400,10.04292236328125,-0.4722785988954827,-9.791864518800377,-0.258331531506218
1791029836794953500,10.052953369140624,-0.476052162617445,-9.791565243592858,-0.2627146602275781
1791029836804984300,10.062984375,-0.474584099358879,-9.791498608097433,-0.2677850588270463
1791029836815015400,10.073015380859376,-0.47013281903844323,-9.791490424790977,-0.2758286645510234
1791029836825046300,10.08304638671875,-0.4650938384905457,-9.791367090672255,-0.28839615917392075
1791029836835077400,10.093077392578126,-0.4616514064190909,-9.79105729407072,-0.3040765981855802
1791029836845108500,10.1031083984375,-0.46262441616971045,-9.790486800706386,-0.3204951422134414
1791029836855139600,10.1131396484375,-0.46839598530847576,-9.7895451359421,-0.3402616266960278
1791029836865170400,10.12317041015625,-0.47869759909231213,-9.788208918902278,-0.36356852373182774
1791029836875201500,10.133201416015625,-0.4906423769732937,-9.786669872766733,-0.38827757918313144
1791029836885232400,10.143232421875,-0.5014616214230656,-9.785195708560943,-0.4109529368497431
1791029836895263500,10.153263427734375,-0.5110194311022758,-9.783912683013082,-0.4293413379121572
1791029836905294300,10.16329443359375,-0.5189077731993049,-9.78290672084093,-0.44253732143063096
1791029836915325400,10.173325439453125,-0.5232862440118566,-9.782251471802592,-0.45177470351643856
1791029836925356300,10.183356201171875,-0.5242284932980313,-9.781787945944071,-0.46062378040440377
1791029836935387400,10.193387451171875,-0.5235609327673911,-9.781258953633904,-0.4724825605023652
1791029836945418200,10.203418212890625,-0.5228490947036072,-9.780494983524083,-0.4887875428868457
1791029836955449300,10.213449462890624,-0.5242157068816945,-9.779370947930216,-0.5094114479163662
1791029836965480400,10.22348046875,-0.53009756799452,-9.777768773430585,-0.5335004352405667
1791029836975511300,10.23351123046875,-0.5425694384895264,-9.775606042438746,-0.5599242221878841
1791029836985542400,10.24354248046875,-0.5661121170425787,-9.77268694012165,-0.586932129166089
1791029836995573200,10.2535732421875,-0.6024530485007912,-9.768967627337574,-0.6121564406631514
1791029837005604600,10.2636044921875,-0.6458465653516352,-9.764624629697202,-0.6366832348827273
1791029837015635500,10.273635498046875,-0.6880504340264946,-9.759954299798608,-0.6635135202717035
1791029837025666600,10.28366650390625,-0.7256924016132951,-9.755214996317028,-0.6924919966705143
1791029837035697400,10.293697509765625,-0.7594730906620621,-9.750546419984103,-0.7214117286194115
1791029837045728500,10.303728515625,-0.7922203450098634,-9.745993578985333,-0.7472481806654483
1791029837055759400,10.31375927734375,-0.8261153080880641,-9.741643567082285,-0.767005093602091
1791029837065790500,10.32379052734375,-0.8593873900275677,-9.737637254050373,-0.781195093126595
1791029837075821300,10.3338212890625,-0.8881722435504198,-9.734225399780273,-0.7914452689841389
1791029837085852400,10.343852294921875,-0.9097320411905646,-9.731460611242055,-0.8009147427927702
1791029837095883300,10.35388330078125,-0.9245604847490787,-9.729169869956374,-0.8116725028462708
1791029837105914400,10.363914306640625,-0.9354569226209074,-9.727067929241061,-0.8242720183089375
1791029837115945200,10.3739453125,-0.9455031734041869,-9.72483154849112,-0.8390691168811172
1791029837125976300,10.383976318359375,-0.9566642535615711,-9.722205876162647,-0.8566636641521006
1791029837136007400,10.39400732421875,-0.9709866472940891,-9.718973470112681,-0.8769843484513461
1791029837146038300,10.404038330078125,-0.9889607684671878,-9.715053081798553,-0.9000513357840478
1791029837156068900,10.41406884765625,-1.0092690316762774,-9.710532974025606,-0.9259170139245688
1791029837166099700,10.424099609375,-1.0315289404097945,-9.705396195659041,-0.9547910801008344
1791029837176130800,10.434130859375,-1.0551023428946733,-9.69980173665285,-0.9853995688542723
1791029837186161700,10.44416162109375,-1.0774842705726624,-9.694242348960042,-1.0154173251729457
1791029837196192800,10.45419287109375,-1.0997813695114105,-9.688810971561074,-1.0429841812081635
1791029837206224000,10.464223876953126,-1.1228855470493435,-9.683525724634528,-1.0671640982188284
1791029837216255000,10.4742548828125,-1.1490163789320735,-9.677985041642188,-1.0893867436818778
1791029837226285800,10.484285888671875,-1.1779353071633725,-9.67214274535477,-1.1101774566456675
1791029837236317000,10.49431689453125,-1.210473594935611,-9.665715342655778,-1.1309637126300482
1791029837246348000,10.50434814453125,-1.2479993887968361,-9.658369656068086,-1.1527225399736314
1791029837256379000,10.51437890625,-1.2903821942351759,-9.650019176352023,-1.1757664386916904
1791029837266410000,10.524409912109375,-1.3382846398778259,-9.640207391911744,-1.2024025897480546
1791029837276440800,10.53444091796875,-1.385530375177413,-9.630027358680962,-1.2301489670686423
1791029837286472000,10.544471923828125,-1.4169783834949135,-9.621749359679221,-1.258773588528484
1791029837296502800,10.554502685546876,-1.4354935527421533,-9.614971828368306,-1.2891991219304502
1791029837306534000,10.564533935546875,-1.4470070265337824,-9.609320086216925,-1.318163058347255
1791029837316564700,10.574564697265625,-1.451568781491369,-9.604925066128372,-1.344893828884512
1791029837326595800,10.584595947265624,-1.445074451036006,-9.602540801340341,-1.3687024283647535
1791029837336626700,10.594626708984375,-1.4244041495814919,-9.602349078160524,-1.3915335611149668
1791029837346657800,10.60465771484375,-1.3902768390521407,-9.603394203299283,-1.418569013687223
1791029837356688600,10.614688720703125,-1.3462369140565396,-9.604953123179078,-1.4501403561234474
1791029837366720000,10.624719970703126,-1.297245796394348,-9.606338440057634,-1.4851944261088967
1791029837376750800,10.634750732421875,-1.245389352428913,-9.60712929817438,-1.5239590410500763
1791029837386782000,10.644781982421875,-1.191936944508925,-9.607388825893402,-1.5645216453239321
1791029837396812800,10.654812744140624,-1.1348884117931126,-9.60701765449345,-1.6086036558955907
1791029837406844000,10.664843994140625,-1.06770397724919,-9.606437224256991,-1.6573380223177372
1791029837416875000,10.674875,-0.9865070186395197,-9.606256606993078,-1.7079226927816866
1791029837426905900,10.68490576171875,-0.8867286936786025,-9.606969139176607,-1.7579099818743764
1791029837436937000,10.69493701171875,-0.7625281673837453,-9.608308863347768,-1.8081284493744372
1791029837446967800,10.7049677734375,-0.61670851447694,-9.608020109534262,-1.8644060707829893
1791029837456999000,10.7149990234375,-0.45825179057605564,-9.604083939129113,-1.9292444536574185
1791029837467029800,10.72502978515625,-0.28827050523394715,-9.59625952911377,-1.9997762258678673
1791029837477060900,10.735060791015625,-0.10341171302720904,-9.583850129395723,-2.0759359209626913
1791029837487091700,10.745091796875,0.09687400008784607,-9.567231003028153,-2.1515398818708955
1791029837497122800,10.755122802734375,0.3093351580346003,-9.545974279987812,-2.2246526104852555
1791029837507153700,10.765153564453126,0.5274953496068716,-9.519182719174028,-2.297232985788584
1791029837517184800,10.775184814453125,0.7398989138811827,-9.48762029069662,-2.3681192705251277
1791029837527215900,10.7852158203125,0.9403658105157315,-9.45270621370375,-2.4356628207050264
1791029837537247000,10.7952470703125,1.1298394578404725,-9.416050846001506,-2.496364396035671
1791029837547277800,10.80527783203125,1.3152436637692153,-9.379311307147145,-2.5434327289417387
1791029837557309000,10.815308837890624,1.4971423457950352,-9.344969477084279,-2.569144677825272
1791029837567339800,10.82533984375,1.6613199315607547,-9.317167277923225,-2.5692031300142406
1791029837577371000,10.835370849609374,1.789019113626331,-9.301244901648163,-2.5409920577913523
1791029837587402000,10.845402099609375,1.866006491716951,-9.301244317126274,-2.485008012501895
1791029837597432800,10.855432861328126,1.8856028803296385,-9.317770504513382,-2.4070834996916353
1791029837607464000,10.8654638671875,1.8466624704301355,-9.347918390017748,-2.3187574198544025
1791029837617494800,10.875494873046875,1.747852990501374,-9.388000809559225,-2.2317791013643142
1791029837627526000,10.88552587890625,1.5917960212185978,-9.434252273124455,-2.1520774958789346
1791029837637556700,10.895556640625,1.3855891196273267,-9.48424818391502,-2.0735402579978106
1791029837647587800,10.905587890625,1.15039862707071,-9.532728429445624,-1.9935072286009787
1791029837657618700,10.91561865234375,0.9065333182144909,-9.57434521894753,-1.918458709618449
1791029837667649800,10.92564990234375,0.6651666943062097,-9.607720249804855,-1.8492298367001114
1791029837677680600,10.9356806640625,0.4334580159833655,-9.63536696614325,-1.7726251743167638
1791029837687712000,10.9457119140625,0.2079183268853463,-9.660326050832866,-1.674893845013529
1791029837697742800,10.955742919921875,-0.023223666598601266,-9.682038700947166,-1.558195657172799
1791029837707774000,10.96577392578125,-0.26566901652114466,-9.697809686052798,-1.432579418861121
1791029837717804800,10.9758046875,-0.5213084776654839,-9.704824533250928,-1.309583007659018
1791029837727836000,10.9858359375,-0.7907081138160079,-9.700421329855919,-1.2029133888144046
1791029837737866800,10.99586669921875,-1.062852591695264,-9.684410690775513,-1.1193358186785132
1791029837747897900,11.00589794921875,-1.3216118836268782,-9.6597631562531,-1.05483784673959
1791029837757929000,11.015928955078126,-1.5675276952721178,-9.628629766842723,-1.001378497622162
1791029837767959800,11.025959716796875,-1.8134065359078346,-9.590509002763032,-0.950841100366041
1791029837777991000,11.035990966796875,-2.070236248016357,-9.543040564623475,-0.9027177785143256
1791029837788021800,11.046021728515624,-2.3402071812488137,-9.485430671697854,-0.8487745183374732
1791029837798052900,11.056052978515625,-2.6192899339586493,-9.418915587782859,-0.7705391129471362
1791029837808083700,11.066083740234374,-2.908487399578094,-9.341846376627682,-0.6640590983904898
1791029837818114800,11.07611474609375,-3.214287040430307,-9.24949717875421,-0.5343635914085433
1791029837828145700,11.086145751953126,-3.5325741146728395,-9.140110336840152,-0.38684045905210074
1791029837838177000,11.096177001953125,-3.857139538532495,-9.013109512302279,-0.23823013424715025
1791029837848208000,11.106207763671875,-4.177243891330063,-8.871913573673368,-0.10090934741799719
1791029837858239000,11.116239013671875,-4.487715031124651,-8.719525794422626,0.02511967522894265
1791029837868269800,11.126269775390625,-4.797508710049092,-8.551987207791209,0.13353178807604127
1791029837878301000,11.136301025390624,-5.1113265299230815,-8.366391570943593,0.21959904700266197
1791029837888331800,11.146331787109375,-5.425502953976393,-8.163919618096948,0.2911472297140397
1791029837898363000,11.15636279296875,-5.7340071776121855,-7.947453626689314,0.3598793138250708
1791029837908394000,11.16639404296875,-6.035954819211363,-7.7167936902344225,0.4343641710428521
1791029837918424800,11.1764248046875,-6.333613239184022,-7.469250423517823,0.5157795947087929
1791029837928456000,11.1864560546875,-6.628845308792591,-7.201741058093309,0.6030765872266143
1791029837938486800,11.19648681640625,-6.921583223497867,-6.912941067358851,0.6879646554391831
1791029837948518000,11.206517822265624,-7.193100070998073,-6.61741381419599,0.7997229757249354
1791029837958548700,11.216548828125,-7.4358444130003445,-6.323481721270084,0.9445607049223035
1791029837968579800,11.226579833984376,-7.6526196164876215,-6.030902796518802,1.111745875006169
1791029837978610700,11.236610595703125,-7.84072752841711,-5.742960883918404,1.3083300849884747
1791029837988641800,11.246641845703126,-7.999147573569417,-5.464214669686555,1.5252594561241566
1791029837998673000,11.2566728515625,-8.143475380483268,-5.18361610558629,1.7275160126544533
1791029838008704000,11.2667041015625,-8.270598370096087,-4.9103673197269435,1.9120244387872516
1791029838018734800,11.27673486328125,-8.369147007131575,-4.6676001813709735,2.083568023276329
1791029838028766000,11.286765869140625,-8.439185588997603,-4.464108530087769,2.241051518230885
1791029838038796800,11.296796875,-8.493614513799548,-4.287558369483054,2.376080604793131
1791029838048828000,11.306827880859375,-8.54111276255548,-4.130386570826173,2.481875559695065
1791029838058858800,11.316858642578126,-8.587838273373245,-3.990027083021402,2.5493381535932422
1791029838068889900,11.326889892578125,-8.635978911685942,-3.865087282666564,2.579025435848534
1791029838078921000,11.3369208984375,-8.684031287193298,-3.753661920662224,2.5822517044186593
1791029838088951800,11.346951904296875,-8.72960704345405,-3.6551644292920824,2.5698548719212413
1791029838098983000,11.35698291015625,-8.769318291595578,-3.576300443674624,2.54549053825438
1791029838109013800,11.367013671875,-8.801291638961434,-3.521291673158109,2.5116148643985388
1791029838119044900,11.377044921875,-8.824010835769773,-3.487863450808823,2.4783108529508113
1791029838129075700,11.38707568359375,-8.840704196417331,-3.4647605153799055,2.45107476323992
1791029838139106800,11.39710693359375,-8.851526034682989,-3.4455206851199267,2.4391050701133907
1791029838149137700,11.4071376953125,-8.857976818257569,-3.4246848178401588,2.4450379672937093
1791029838159169000,11.4171689453125,-8.86114726498723,-3.4046851091235872,2.4614301530376075
1791029838169199900,11.427199951171875,-8.856839923182129,-3.389325919689238,2.497843528677523
1791029838179231000,11.43723095703125,-8.843364940059185,-3.3760306770473716,2.5627599452242253
1791029838189261800,11.44726171875,-8.822468867024778,-3.358988064570725,2.6554937585011125
1791029838199293000,11.45729296875,-8.800770829957724,-3.3322672309055923,2.759124813367426
1791029838209323800,11.46732373046875,-8.785169940721989,-3.287311652369797,2.8609073177576065
1791029838219355000,11.47735498046875,-8.777225119197368,-3.2164424648985266,2.96397898517549
1791029838229386000,11.487385986328125,-8.770633465847373,-3.1368978035405277,3.06695508326441
1791029838239417000,11.4974169921875,-8.754948989981413,-3.09374693633914,3.1543598104730246
1791029838249448000,11.507447998046874,-8.733311158668995,-3.1031042550101873,3.2047523193657397
1791029838259479000,11.51747900390625,-8.720969563490153,-3.1202751700416207,3.2216438329339026
1791029838269510100,11.52751025390625,-8.721233767384291,-3.1098925999760625,3.2309546821147204
1791029838279541000,11.537541015625,-8.728726753488182,-3.0510598872572183,3.266607887037098
1791029838289572000,11.547572021484376,-8.734553267684579,-2.9825796407490968,3.3139427619248627
1791029838299603000,11.55760302734375,-8.739123644340038,-2.938539423492551,3.341114554227888
1791029838309634000,11.567634033203126,-8.743156845378875,-2.9171532288536426,3.349300198771059
1791029838319665000,11.577664794921875,-8.751586235550045,-2.9058631885543464,3.33707346214354
1791029838329696000,11.587696044921875,-8.764003818574547,-2.901802222725749,3.307892083583772
1791029838339726800,11.597726806640624,-8.775665030273794,-2.915314030727744,3.2648113590091463
1791029838349758000,11.607758056640625,-8.780477983513475,-2.9573242034614085,3.213698134626448
1791029838359788800,11.617788818359376,-8.77673528985381,-3.0131907598510383,3.171744952777028
1791029838369820000,11.62781982421875,-8.764321798482536,-3.0597946901157496,3.161441877688467
1791029838379850800,11.637850830078126,-8.744217752608657,-3.0949393609941005,3.182839178243279
1791029838389882000,11.647882080078125,-8.719561450257897,-3.1250211955249307,3.2208512212514875
1791029838399913000,11.657912841796875,-8.693867621552943,-3.1556711853325363,3.260179899816215
1791029838409944000,11.667944091796874,-8.66362328993678,-3.188074740809202,3.3088013073831797
1791029838419975200,11.67797509765625,-8.628098972091077,-3.222004775200784,3.368238123475015
1791029838430006000,11.688006103515624,-8.59275410246551,-3.2503055715337394,3.430818498289585
1791029838440037000,11.698037109375,-8.557975634551047,-3.2798268495723604,3.4891435537472364
1791029838450068000,11.70806787109375,-8.525289755001664,-3.3163840175971386,3.5343308952122925
1791029838460099000,11.71809912109375,-8.497643038663268,-3.35165786781311,3.567473286357522
1791029838470130000,11.7281298828125,-8.477495153647661,-3.3860125573575495,3.5829219076409933
1791029838480161000,11.7381611328125,-8.464918580669163,-3.419494263459742,3.5808652673721313
1791029838490192000,11.74819189453125,-8.456544720077515,-3.4532036408379674,3.568275250390172
1791029838500223000,11.758222900390624,-8.449450962424278,-3.4890856860801573,3.550138120675087
1791029838510253800,11.76825390625,-8.44189367891252,-3.5251474718034266,3.532446396639943
1791029838520285000,11.778284912109376,-8.4303499561131,-3.5613717546120283,3.523671554031968
1791029838530315800,11.788315673828125,-8.411369945833087,-3.6008763742655514,3.528874091111123
1791029838540347000,11.798346923828126,-8.384238777801395,-3.646743222427368,3.546293427945673
1791029838550378000,11.8083779296875,-8.350667347589134,-3.696169224375486,3.5742303594022986
1791029838560409000,11.8184091796875,-8.310162318721414,-3.7493826359078284,3.612990590429306
1791029838570440000,11.82843994140625,-8.266883148965238,-3.804390237380564,3.654533145651221
1791029838580471000,11.838470947265625,-8.223112980821728,-3.861568168629706,3.693118604633212
1791029838590502100,11.848502197265624,-8.180374493813515,-3.922159415453672,3.7240509185135364
1791029838600533000,11.858532958984375,-8.138537339559196,-3.982388843227923,3.7516917896330355
1791029838610564000,11.868564208984376,-8.097138576722145,-4.03938791077882,3.780225225678086
1791029838620595000,11.878594970703125,-8.058567146265506,-4.093776211309433,3.804066119992733
1791029838630626000,11.8886259765625,-8.026981336912513,-4.153164512084424,3.806462367479503
1791029838640657000,11.898656982421874,-8.002733030840753,-4.219565906491876,3.7844314451962706
1791029838650688000,11.90868798828125,-7.9858964623302215,-4.287800653806329,3.7430759369790554
1791029838660718800,11.91871875,-7.972121619477868,-4.353182349777222,3.6966795119851827
1791029838670750000,11.92875,-7.959550307196379,-4.413066325114667,3.652502224345505
1791029838680780800,11.93878076171875,-7.948484723302721,-4.469484377907216,3.6077258017688987
1791029838690812000,11.94881201171875,-7.9372911291152235,-4.5244551545009015,3.563578909267485
1791029838700842800,11.9588427734375,-7.920448130863904,-4.5804152343928815,3.529403960204124
1791029838710874000,11.9688740234375,-7.89561471838057,-4.639605382247269,3.5076682214751838
1791029838720905000,11.978905029296875,-7.861853903076052,-4.701897003248334,3.500544945466518
1791029838730936000,11.98893603515625,-7.817289369684457,-4.768463232828676,3.5102921402379867
1791029838740967000,11.998966796875,-7.763828413131833,-4.837932198113203,3.5338086249038576
1791029838750998000,12.008998046875,-7.704956537446379,-4.909601011529564,3.563689091643691
1791029838761029000,12.019029052734375,-7.642293452784418,-4.985474875420332,3.5931583472341297
1791029838771060000,12.02906005859375,-7.577606168818473,-5.067061271739005,3.615964930064976
1791029838781091000,12.039091064453125,-7.509796953439712,-5.15519431322217,3.632809974142909
1791029838791122000,12.049121826171875,-7.4373063022464505,-5.247458755421638,3.6498052403464913
1791029838801153000,12.059153076171874,-7.360828627243637,-5.338103487464785,3.673312080401182
1791029838811183900,12.069183837890625,-7.282097035834193,-5.422786680755019,3.7060537817910313
1791029838821215000,12.079215087890624,-7.2032251591712235,-5.499273123586177,3.747252053619921
1791029838831245800,12.089245849609375,-7.125816340798139,-5.566932116839289,3.795053961497545
1791029838841277000,12.09927685546875,-7.046715331554412,-5.632496768161654,3.84566975775212
1791029838851307800,12.109307861328125,-6.966768519136309,-5.70018557203114,3.891327347077429
1791029838861339100,12.119339111328125,-6.8905433575898405,-5.766757354569434,3.9287773722887036
1791029838871370000,12.129369873046874,-6.81857409992218,-5.831823408719897,3.9581875911682842
1791029838881401000,12.139401123046875,-6.752502083599567,-5.897775598055124,3.9737095699489116
1791029838891432000,12.149431884765624,-6.694004301923513,-5.963938799792528,3.9739334418326613
1791029838901463000,12.159463134765625,-6.6409507571279995,-6.027742871183157,3.9666745567455886
1791029838911494100,12.169494140625,-6.591657441648841,-6.086314302617311,3.9594425596654412
1791029838921525000,12.17952490234375,-6.545567306125164,-6.143567052668333,3.9474706745818255
1791029838931556000,12.18955615234375,-6.502001720643043,-6.201643394061922,3.9286084454625843
1791029838941587000,12.1995869140625,-6.462380488872528,-6.256802386704087,3.9064591574966907
1791029838951618000,12.2096181640625,-6.427972607836127,-6.307931685438752,3.8809234419628975
1791029838961649000,12.21964892578125,-6.393098862853646,-6.360056424951553,3.853352128948271
1791029838971680000,12.229679931640625,-6.353189461791515,-6.417853949403763,3.823417593933642
1791029838981710800,12.2397109375,-6.306338278767466,-6.482187597626448,3.792323367489874
1791029838991742000,12.249741943359375,-6.252846927076578,-6.552426085978746,3.760051913960278
1791029839001772800,12.259772705078126,-6.191963127046823,-6.626779023912548,3.730382751883566
1791029839011804000,12.269803955078125,-6.124894500902295,-6.703351975983381,3.7042023087054488
1791029839021835000,12.2798349609375,-6.05836071228683,-6.77933280737996,3.675223759241402
1791029839031866000,12.2898662109375,-5.991623510053754,-6.8559355700671665,3.6423832736521957
1791029839041897000,12.29989697265625,-5.9183729804039,-6.9367176642656325,3.6090447754129764
1791029839051927000,12.309927001953126,-5.837000519096851,-7.022732398420572,3.5750530739620325
1791029839061959000,12.319958984375,-5.748611457026004,-7.113343812716007,3.5389600163176653
1791029839071989000,12.329989013671875,-5.656485546514392,-7.207561727070808,3.4965213890388607
1791029839082020000,12.34002001953125,-5.568658209979533,-7.300478495699167,3.444339074119925
1791029839092051000,12.350051025390625,-5.494182522448897,-7.384718036875128,3.3838267377510665
1791029839102082000,12.36008203125,-5.432947424763441,-7.456172915279865,3.325494083508849
1791029839112113000,12.37011279296875,-5.379270779633521,-7.514360900354385,3.281500335742533
1791029839122144000,12.38014404296875,-5.331000961983204,-7.559352134725451,3.2568402339994904
1791029839132174800,12.3901748046875,-5.28695548402965,-7.593530883181095,3.2491189920976757
1791029839142206000,12.4002060546875,-5.244475355696678,-7.624110730361938,3.246352157732844
1791029839152237000,12.410237060546875,-5.204906146374345,-7.65571992059052,3.2356331953197714
1791029839162268200,12.42026806640625,-5.171225410568714,-7.688623242282867,3.2115245899796485
1791029839172299300,12.43029931640625,-5.142888958400488,-7.722114592996239,3.1764746116474267
1791029839182330000,12.440330078125,-5.1193134370237585,-7.753716184440255,3.1373361949577925
1791029839192361200,12.450361328125,-5.100966463950276,-7.780434680017828,3.1008684587821365
1791029839202392000,12.46039208984375,-5.089086641064286,-7.800144173616171,3.070726418496668
1791029839212423200,12.470423095703126,-5.08294273148179,-7.81269561215341,3.0489217061847445
1791029839222454000,12.4804541015625,-5.077120893460512,-7.822691520988941,3.0329388318940995
1791029839232485000,12.490485107421875,-5.064369548436999,-7.838830754885077,3.0125185596778987
1791029839242516000,12.500515869140624,-5.043555308467149,-7.865709993982315,2.9771716442257166
1791029839252547000,12.510547119140625,-5.018413268426061,-7.899982850462198,2.928513119518757
1791029839262578000,12.520577880859374,-4.995051097539067,-7.934150493001938,2.87560599745661
1791029839272609000,12.530609130859375,-4.9793601919323205,-7.961502610307932,2.826802511321008
1791029839282640000,12.540639892578126,-4.972773799279332,-7.981868521988392,2.780584073242545
1791029839292671200,12.550671142578125,-4.971029585960507,-7.999488349831104,2.7326673068135974
1791029839302702000,12.5607021484375,-4.965107794696093,-8.019726251217723,2.683670928454399
1791029839312733200,12.570733154296875,-4.951653854361176,-8.044000276252627,2.6354487493380905
1791029839322764000,12.580763916015625,-4.933357150170207,-8.07055101404786,2.5881609284624454
1791029839332795100,12.590795166015624,-4.910581839260459,-8.098966961193085,2.542299633258581
1791029839342826200,12.600826171875,-4.886317166575789,-8.127199952986835,2.4985870405212043
1791029839352857000,12.610857177734376,-4.8655426740944385,-8.152868647250532,2.4551152708023785
1791029839362888200,12.62088818359375,-4.849339727312326,-8.174946623545885,2.4133985280573365
1791029839372919000,12.6309189453125,-4.838688861699402,-8.192848190939426,2.3737539154112337
1791029839382950100,12.6409501953125,-4.828408290703594,-8.20925045968592,2.337744590527564
1791029839392981000,12.65098095703125,-4.809351123534142,-8.228472462028265,2.3092823200225827
1791029839403012000,12.66101220703125,-4.778808393493295,-8.251556400495767,2.2902350897252557
1791029839413043000,12.67104296875,-4.742611583213508,-8.275469775524735,2.279173012962937
1791029839423074000,12.681073974609374,-4.710276416797936,-8.296005198553203,2.27155844630599
1791029839433105000,12.69110498046875,-4.687175234934688,-8.310833934372663,2.2651232986919583
1791029839443136300,12.70113623046875,-4.670706622953713,-8.32230751454532,2.2570067738622424
1791029839453167000,12.7111669921875,-4.655107487283646,-8.334479013854265,2.2442888927169142
1791029839463198200,12.7211982421875,-4.638468487171829,-8.348857083296775,2.2252084908023475
1791029839473229000,12.73122900390625,-4.620646707016229,-8.365957855701446,2.197904012030363
1791029839483260200,12.74126025390625,-4.599847080093622,-8.386459960982203,2.1631137075476348
1791029839493291300,12.751291259765624,-4.57639927674979,-8.410567981800437,2.118800080177188
1791029839503322000,12.761322021484375,-4.550430430495739,-8.4379785512954,2.065066005771607
1791029839513353200,12.771353271484376,-4.52000957326889,-8.468543785429,2.005903914967924
1791029839523384000,12.781384033203125,-4.484699482695758,-8.500533499407767,1.9490527314551174
