time,seconds_elapsed,z,y,x
1788965151858014500,0.046014404296875,7.589469625091552,2.647538123321533,-2.51555775680542
1788965151868042500,0.05604248046875,7.939322342681884,2.701856573486328,-2.4287679466247556
1788965151878071600,0.066071533203125,8.468590547180176,2.837877155303955,-2.232443410491943
1788965151888100600,0.0761005859375,8.982446078491211,2.958485063934326,-2.051681185150146
1788965151898128400,0.08612841796875,9.42327845916748,3.0180408302307127,-1.9083283607482908
1788965151908157700,0.09615771484375,9.721805478668212,2.983324906158447,-1.7413327949523925
1788965151918185500,0.106185546875,9.850493817901611,2.962974192047119,-1.6259622024536131
1788965151928214500,0.116214599609375,9.823259774017334,3.027318361663818,-1.5360300025939941
1788965151938243600,0.12624365234375,9.777171392059326,3.089417967224121,-1.4062942001342773
1788965151948271600,0.136271728515625,9.655964933013916,3.0796915229797364,-1.2319663917541503
1788965151958300700,0.14630078125,9.572317512512207,3.0547020431518552,-1.1149497856140136
1788965151968328400,0.156328369140625,9.624092123413085,3.0789433349609374,-1.1061211669921875
1788965151978357500,0.166357421875,9.790339501190186,3.0156466285705563,-1.1532570121765136
1788965151988386600,0.176386474609375,10.039635749053954,2.8636148231506344,-1.237951895904541
1788965151998414600,0.18641455078125,10.311826550292968,2.710834829711914,-1.319055477142334
1788965152008443600,0.196443603515625,10.514585503387451,2.633921101379394,-1.2820949890136717
1788965152018471400,0.206471435546875,10.611550670623778,2.5406968742370606,-1.203984159851074
1788965152028500500,0.21650048828125,10.702530333709715,2.5118168167114256,-1.219995383453369
1788965152038529500,0.226529541015625,10.680234330749512,2.526182026672363,-1.1730091758728027
1788965152048557600,0.2365576171875,10.388740278625487,2.5011925468444822,-1.1327566604614256
1788965152058586600,0.246586669921875,9.896731837463378,2.4501661239624024,-1.2000935821533203
1788965152068614400,0.256614501953125,9.366565807342528,2.47710089263916,-1.2927192588806151
1788965152078643500,0.2666435546875,8.90613090057373,2.5623943267822265,-1.43008657913208
1788965152088672500,0.276672607421875,8.569595929718018,2.680608033752441,-1.4481927291870116
1788965152098700500,0.286700439453125,8.409782968902588,2.7852047187805176,-1.4305354919433593
1788965152108729600,0.2967294921875,8.384494213867187,2.905962265014648,-1.4185644836425781
1788965152118757400,0.30675732421875,8.365340600585936,3.06427884979248,-1.5052046562194823
1788965152128786700,0.31678662109375,8.40140326309204,3.110965782165527,-1.5294459480285643
1788965152138815700,0.326815673828125,8.624812205505371,2.9575872383117674,-1.3127706977844238
1788965152148843500,0.336843505859375,8.933065669250487,2.89848038482666,-1.1239280418395996
1788965152158872600,0.34687255859375,9.198971691131591,2.814982601928711,-1.0365396812438965
1788965152168900600,0.356900634765625,9.331700245666504,2.7611130645751953,-0.9762357269287109
1788965152178929700,0.3669296875,9.277381795501709,2.7262475028991697,-0.960224503326416
1788965152188958700,0.376958740234375,9.140912300872802,2.683151873016357,-1.070058504486084
1788965152198986500,0.386986572265625,9.095272831726074,2.7186159851074216,-1.2458826889038086
1788965152209015600,0.397015625,9.017461277770996,2.7232547508239744,-1.3548188644409178
1788965152219043600,0.407043701171875,8.998008389282226,2.6509797882080077,-1.3866916740417479
1788965152229072600,0.41707275390625,8.984241729736327,2.5397990486145017,-1.2802993377685545
1788965152239101700,0.427101806640625,8.975113835906981,2.4730606773376462,-1.1870751106262207
1788965152249129500,0.43712939453125,9.008483021545409,2.410661796569824,-1.0723030685424804
1788965152259158500,0.447158447265625,9.101557611083983,2.3611317497253417,-0.9283516937255859
1788965152269186600,0.4571865234375,9.26975027770996,2.345719076538086,-0.8310872512817382
1788965152279215600,0.467215576171875,9.470115029144287,2.340032847595215,-0.809539436340332
1788965152289244700,0.47724462890625,9.6273841506958,2.300378882598877,-0.8294412376403808
1788965152299272400,0.4872724609375,9.602544308471678,2.230049208831787,-0.8098387115478515
1788965152309301500,0.497301513671875,9.503933127593994,2.120215207672119,-0.7769184387207031
1788965152319329500,0.50732958984375,9.366116894531249,1.9107225624084472,-0.8047510330200195
1788965152329358600,0.517358642578125,9.273640855407715,1.758840394592285,-0.7644985176086425
1788965152339387600,0.5273876953125,9.332149158477783,1.727566135406494,-0.719457598876953
1788965152349415400,0.53741552734375,9.401431369018555,1.8185457984924316,-0.7413046890258789
1788965152359444700,0.54744482421875,9.516353048706055,2.0596119781494138,-0.9139864837646484
1788965152369472500,0.557472412109375,9.609577275848388,2.21538472366333,-1.128117894744873
1788965152379501600,0.56750146484375,9.679308399200439,2.192340532684326,-1.262193187713623
1788965152389530600,0.577530517578125,9.747842421722412,1.898601916503906,-1.3034931663513183
1788965152399558700,0.58755859375,9.646088851165771,1.4809633644104003,-1.271769994354248
1788965152409587700,0.597587646484375,9.166201055908203,1.2333131301879883,-1.2982558502197266
1788965152419615500,0.607615478515625,8.36444277496338,1.4751274978637694,-1.2415431983947753
1788965152429644500,0.61764453125,7.735964839172363,1.8185457984924316,-1.1966519172668457
1788965152439673600,0.627673583984375,7.228543724822997,1.9865888275146484,-2.192340532684326
1788965152449701600,0.63770166015625,6.9989996406555175,2.7617116149902343,-3.863194016265869
1788965152459730700,0.647730712890625,7.369203072357177,3.4886510940551756,-5.531354022979736
1788965152469759500,0.657759521484375,7.495946122741699,3.2775124351501463,-7.056011567687988
1788965152479787500,0.66778759765625,6.748955204772948,2.565835991668701,-6.279691679382323
1788965152489815800,0.67781591796875,6.604106004333496,1.8037316757202146,-4.660313531494141
1788965152499843800,0.68784375,6.998251452636718,1.4299369415283203,-3.639635436248779
1788965152509873000,0.697872802734375,7.375936764526367,1.5984288833618163,-3.4907460205078125
1788965152519901700,0.707901611328125,7.655459808349609,2.0781670410156248,-3.9653964996337887
1788965152529930000,0.717929931640625,7.972841165924072,2.6228479187011717,-4.573523721313476
1788965152539958800,0.727958740234375,8.288127597045898,2.877980033111572,-4.944774616241455
1788965152549986800,0.73798681640625,8.441206865692138,2.833388027191162,-5.0106151618957515
1788965152560016000,0.748015869140625,8.430732233428955,2.5905261962890624,-4.956446349334716
1788965152570044700,0.758044677734375,8.393322832489012,2.311751340484619,-4.958242000579833
1788965152580073000,0.768072998046875,8.514230016326904,1.9720739799499512,-5.080495922851562
1788965152590101800,0.778101806640625,8.822333842468261,1.6259622024536131,-5.333832386016845
1788965152600129800,0.7881298828125,9.21199016265869,1.5017629913330077,-5.616048906707763
1788965152610158800,0.798158935546875,9.343072703552245,1.6434698020935057,-5.704185455322265
1788965152620187600,0.808187744140625,8.992771073150633,1.949777976989746,-5.532102210998535
1788965152630216000,0.8182158203125,8.256105149841309,2.289305699920654,-5.282955600738525
1788965152640244700,0.82824462890625,7.4494088279724116,2.61132582321167,-4.892700730133057
1788965152650273800,0.838273681640625,7.012167749786377,2.830544912719726,-4.432415460968017
1788965152660301800,0.8483017578125,7.232284664916992,2.8151322395324705,-4.294150315093994
1788965152670331000,0.858330810546875,8.136544704437256,2.2610241928100585,-4.468178848266601
1788965152680359000,0.86835888671875,9.300725261688232,1.9891326667785643,-5.022436532592773
1788965152690387700,0.8783876953125,10.19645595779419,2.536656658935547,-5.579387693786621
1788965152700416800,0.888416748046875,10.524910498046875,2.8528409156799315,-5.033210440063476
1788965152710444800,0.89844482421875,9.96601404800415,2.7448025657653807,-4.091391361999512
1788965152720473900,0.908473876953125,9.552116436004638,2.404526654815674,-3.5715503265380857
1788965152730502000,0.918501953125,10.38754317779541,0.4079121078491211,-3.8645407546997066
1788965152740530700,0.92853076171875,10.005518375396727,-1.017685343170166,-6.698976245117187
1788965152750559700,0.938559814453125,5.428702626800537,-0.7730278610229492,-10.434080472564697
1788965152760588000,0.948588134765625,3.7104140228271483,-0.38037878875732417,-11.739219652557372
1788965152770616800,0.958616943359375,1.4963760375976562,-0.2888005752563476,-11.485733551788329
1788965152780644900,0.968644775390625,0.24031799163818357,0.2759317413330078,-10.75744733428955
1788965152790673700,0.978673583984375,-0.08274959487915039,1.4315829551696777,-9.011924686431884
1788965152800702700,0.98870263671875,1.6558897232055663,1.813757395172119,-7.543680518341064
1788965152810731000,0.99873095703125,5.089025266265869,1.4475941787719726,-7.28450818862915
1788965152820759800,1.008759765625,8.927977990722656,1.2951134605407715,-6.93315909500122
1788965152830787800,1.018787841796875,11.787402960968016,1.7558476425170897,-5.344905568695068
1788965152840816600,1.028816650390625,13.341239838409424,2.4069208564758298,-3.339612040710449
1788965152850845700,1.038845703125,13.976750741577147,2.3822306518554686,-2.0477906074523924
1788965152860873700,1.048873779296875,13.83564248123169,2.4453777206420897,-2.0910358749389646
1788965152870902800,1.05890283203125,12.622979340362548,2.3774422485351563,-2.571671858215332
1788965152880931800,1.068931884765625,10.849324822998046,1.9647417373657226,-3.0398879203796385
1788965152890959600,1.078959716796875,9.452008879089355,2.174384020233154,-3.3264439315795897
1788965152900989000,1.088989013671875,8.797045087432862,2.9058126274108886,-3.331232334899902
1788965152911016700,1.0990166015625,8.907477639007567,3.489548919677734,-2.866009024810791
1788965152921045800,1.109045654296875,9.406369409942627,3.5109470970153804,-1.778742195892334
1788965152931074800,1.11907470703125,10.105925207519531,3.2493805656433103,-1.268627604675293
1788965152941102800,1.129102783203125,10.358214207458495,2.901622774505615,-1.4267945518493652
1788965152951132000,1.1391318359375,9.676465284729003,2.3220763351440428,-2.0739771881103515
1788965152961159700,1.14915966796875,8.158840707397461,2.195482922363281,-2.870498152923584
1788965152971188700,1.159188720703125,6.102820031738281,1.97910694732666,-3.172317199707031
1788965152981217800,1.1692177734375,3.9920319931030273,1.3606547309875487,-3.8275802665710446
1788965152991245800,1.179245849609375,2.41320563583374,1.5429133323669433,-4.359691585540771
1788965153001275000,1.18927490234375,2.724152576446533,2.851194902038574,-4.198082973480225
1788965153011304000,1.199303955078125,3.817105634307861,1.4897919830322264,-1.3985130447387695
1788965153021331700,1.209331787109375,5.111470906829834,2.0228011276245117,0.7927800247192383
1788965153031360800,1.21936083984375,8.635586112976073,3.387496073913574,0.7203554244995117
1788965153041388800,1.229388916015625,12.100145552825927,3.1420904037475585,0.9497498710632324
1788965153051417900,1.23941796875,13.000066101837158,3.641730362701416,0.7543231605529784
1788965153061447000,1.249447021484375,12.349292163085936,3.846434604644775,0.8262988479614257
1788965153071474700,1.259474609375,10.91651210708618,3.09630129699707,0.31917700881958005
1788965153081503700,1.269503662109375,10.191966829681396,2.6728268783569336,-1.5272013839721679
1788965153091531800,1.27953173828125,10.967239254760742,2.38118318862915,-3.211971164703369
1788965153101560800,1.289560791015625,10.427496417999267,2.035370686340332,-3.3487399345397946
1788965153111590000,1.29958984375,7.177068389129638,2.0214543891906738,-2.443432431793213
1788965153121618000,1.309617919921875,3.9821559112548828,1.476623873901367,-2.6364649406433105
1788965153131647000,1.31964697265625,3.1952117530822752,1.150413897705078,-3.820547299194336
1788965153141674800,1.3296748046875,4.496310717773437,0.5647323165893554,-4.740369649505615
1788965153151703800,1.339703857421875,5.360617517089843,0.33848025970458984,-4.903325
1788965153161732900,1.34973291015625,4.972457572937011,0.39279870986938475,-4.344727825164795
1788965153171761000,1.359760986328125,4.869955814361572,0.08933364944458007,-4.061314203643799
1788965153181790000,1.3697900390625,5.093514394378662,-0.5392939239501953,-4.720018935394287
1788965153191818800,1.37981884765625,5.082590849304199,-1.16837041015625,-5.852775595855713
1788965153201846800,1.3898466796875,5.333682748413086,-1.9665373886108397,-6.873752966308594
1788965153211875800,1.399875732421875,4.791695347595215,-2.0911855125427246,-7.132476383209228
1788965153221904000,1.40990380859375,3.3378163894653317,-1.9304747261047361,-6.4861915725708
1788965153231933000,1.419932861328125,3.228431301116943,-2.871096703338623,-7.0196496299743645
1788965153241961700,1.429961669921875,5.753416226959228,-5.211279188537597,-9.696067810821532
1788965153251989800,1.43998974609375,9.11038622970581,-7.39942986831665,-11.87479132156372
1788965153262018800,1.450018798828125,9.817274269866942,-7.670573206329346,-12.939762147521972
1788965153272046800,1.460046875,8.744971201324462,-8.004863613128661,-12.506561284637451
1788965153282076000,1.470075927734375,7.697507975006103,-8.828468984222411,-11.537657800292967
1788965153292104700,1.480104736328125,7.716212675476074,-8.31865366821289,-11.237484767150878
1788965153302132700,1.4901328125,6.530484303283691,-6.638073740386963,-9.239822756958008
1788965153312162000,1.500162109375,5.0017865432739255,-5.693261910247802,-5.600486595916748
1788965153322190800,1.51019091796875,3.8991070411682127,-5.435436318969726,-3.2276831130981445
1788965153332219000,1.520218994140625,2.958485063934326,-5.272181693267822,-1.9430442848205565
1788965153342247700,1.53024755859375,2.1164742675781247,-5.839158573913574,-1.0167875175476073
1788965153352276000,1.54027587890625,1.1736077262878417,-6.286275733947754,-0.7234978141784667
1788965153362305000,1.550304931640625,0.12165537185668944,-6.419902114105224,-1.470937644958496
1788965153372333800,1.560333740234375,-0.841412245941162,-6.43546442489624,-3.4772786361694332
1788965153382361900,1.57036181640625,-1.3998597831726074,-7.4585367218017575,-3.7223850311279296
1788965153392390700,1.580390625,-2.798372827911377,-8.100033129119872,-2.1273978126525876
1788965153402419700,1.590419677734375,-5.622034410858154,-7.8076412513732905,-3.7669770370483397
1788965153412448000,1.600447998046875,-6.776787799072265,-8.524704648590088,-5.498882662963867
1788965153422476800,1.610476806640625,-6.12900661239624,-9.264961874389648,-5.8271875656127925
1788965153432504800,1.6205048828125,-5.079149184417724,-9.362226316833496,-7.712920648193359
1788965153442533600,1.63053369140625,-3.681982878112793,-9.485976615142821,-10.774805296325683
1788965153452562700,1.640562744140625,-2.9522002845764157,-9.413851290130614,-12.036250296020507
1788965153462591000,1.650591064453125,-2.5005939964294432,-9.081506172180175,-11.863119588470457
1788965153472619800,1.660619873046875,-1.1239280418395996,-9.179219527435302,-12.719944507598877
1788965153482648800,1.67064892578125,-0.0282815071105957,-9.782109432983399,-16.25962202453613
1788965153492676900,1.6806767578125,2.2423194923400875,-10.662876368713379,-20.631284618377684
1788965153502706200,1.6907060546875,4.1760862457275385,-10.660182891845702,-22.699425939941406
1788965153512734200,1.700734130859375,6.423343778991699,-10.047117629241942,-22.338051126861572
1788965153522763000,1.710762939453125,18.08699644165039,-8.77834038696289,-21.89123324203491
1788965153532792000,1.7207919921875,25.329456463623046,-5.3968298171997064,-18.679710990142823
1788965153542820000,1.730820068359375,12.891129926300048,-4.363582163238525,-12.788478530120848
1788965153552849200,1.74084912109375,9.53146644668579,-6.482151357269287,-10.616787986755371
1788965153562878200,1.750878173828125,10.209624066925048,-8.354716330718993,-8.895057717895508
1788965153572906000,1.760906005859375,6.557269434356689,-9.29533830795288,-8.13983673171997
1788965153582935000,1.77093505859375,1.3826514587402343,-11.002853004455567,-5.645677152252197
1788965153592963000,1.780963134765625,1.9330185653686522,-10.727968726348877,-6.968922482299805
1788965153602992000,1.7909921875,0.30840310134887694,-8.240542839050292,-16.206201399993894
1788965153613021200,1.801021240234375,-2.242020217132568,-11.809100413513184,-13.665803800964355
1788965153623049000,1.811049072265625,-5.3001639251708985,-11.775132677459716,-15.848118614196776
1788965153633078000,1.821078125,-4.384681065368652,-11.946018820953368,-15.586851358032225
1788965153643733000,1.83173291015625,1.1510124481201172,-8.525901749420166,-21.219659676361083
1788965153653762000,1.841761962890625,2.674323254394531,-8.333767066192626,-12.660388741302489
1788965153663790000,1.8517900390625,-3.9236476081848144,-6.006303777313232,5.199308180236816
1788965153673819100,1.861819091796875,-5.890484272003174,-3.5633202583312986,21.628020697021483
1788965153683848200,1.87184814453125,-8.17754540786743,-7.898471276855468,18.96267569885254
1788965153693876000,1.8818759765625,-1.9270330612182616,-8.673145151519774,11.31350066986084
1788965153703905000,1.891905029296875,6.833500450897216,-4.657171141815185,5.815216557312011
1788965153713934000,1.90193408203125,7.4108023262023925,-4.588936394500732,0.4129997863769531
1788965153723962000,1.911962158203125,6.217592073822021,-5.592256527709961,-2.2758383155822752
1788965153733991200,1.9219912109375,5.409549013519287,-3.9133226135253905,-2.5279776779174803
1788965153744019000,1.93201904296875,2.5438392639160154,-1.7311574378967285,-1.831713907623291
1788965153754048000,1.942048095703125,1.5939397552490233,-1.8619407035827635,-1.0729016189575196
1788965153764077000,1.9520771484375,-2.291550263977051,-6.204723239898681,-0.03007715835571289
1788965153774105000,1.96210498046875,-2.8259061470031734,-9.919327115631104,-0.531812043762207
1788965153784134100,1.972134033203125,-0.8473977500915527,-3.1289222946166992,0.9802759422302245
1788965153794163000,1.982162841796875,-0.22221184158325194,-3.4874539932250976,-4.062511304473877
1788965153804191200,1.992191162109375,2.8482021499633787,-15.961244642639159,-19.386898305511473
1788965153814220000,2.002219970703125,7.974636817169189,-19.64921302490234,-29.13758384170532
1788965153824248000,2.012248046875,6.0233624641418455,-10.593294882965088,-22.34478481903076
1788965153834277000,2.022277099609375,4.582501977539062,-3.1606454666137695,-13.752144698333739
1788965153844306000,2.032305908203125,3.8610990898132322,-3.127725193786621,-10.49603044052124
1788965153854334200,2.042334228515625,4.108150773620605,-3.7434839332580565,-10.475081175994873
1788965153864363000,2.052363037109375,4.906168114471435,-3.9950247451782226,-11.578508866119384
1788965153874392000,2.06239208984375,5.210231725311279,-3.6755484611511227,-10.875661041259765
1788965153884420000,2.072420166015625,6.045209554290771,-5.410746114349365,-9.810540577697754
1788965153894449000,2.082448974609375,7.157765138244629,-7.737311577606201,-8.15345375366211
1788965153904478000,2.09247802734375,4.352359342956543,-9.943568407440186,-6.844872908782959
1788965153914506000,2.102506103515625,0.007032967376708984,-8.250568558502197,-7.317877374267578
1788965153924535000,2.11253515625,-1.00870708694458,-6.071994685363769,-7.007977896881103
1788965153934563000,2.12256298828125,2.2282535575866698,-7.969998051452636,-5.244648374176025
1788965153944592000,2.132591796875,-2.667589562225342,-4.507982450866699,5.641038386535644
1788965153954621200,2.14262109375,0.900818374633789,-3.6119524795532225,-0.09217676391601562
1788965153964649000,2.15264892578125,4.771194995880126,-8.316409104156493,-14.15362238922119
1788965153974678000,2.162677978515625,5.628019915008545,-10.594641621398925,-17.133355992889403
1788965153984707000,2.17270703125,4.71807364654541,-6.299743118286132,-10.002076710510254
1788965153994735000,2.182735107421875,1.2725181823730467,-2.8733412673950194,-7.199663667297363
1788965154004764200,2.19276416015625,0.9744400756835937,-5.089474179077148,-6.579565437316894
1788965154014792000,2.2027919921875,3.043628860473633,-7.214777065277099,-5.786785412597656
1788965154024821000,2.212821044921875,3.2392052085876464,-6.791452284240722,-5.960963583374023
1788965154034850000,2.22285009765625,2.386570142364502,-5.079149184417724,-6.137835231018066
1788965154044878000,2.232878173828125,1.7407342445373535,-3.970334540557861,-6.555773058319091
1788965154054907100,2.2429072265625,1.865382368469238,-3.9770682327270506,-6.643311056518554
1788965154064936200,2.252936279296875,2.3677158042907713,-5.525368518829345,-7.707982607269287
1788965154074964000,2.2629638671875,2.701706935882568,-7.88440534210205,-9.62094973373413
1788965154084993000,2.272992919921875,2.8393735313415527,-11.575665751647948,-12.277765388488769
1788965154095022000,2.28302197265625,1.3256395317077636,-8.526201024627685,-13.020716091156006
1788965154105050000,2.293050048828125,1.8692729461669921,-3.7484219741821287,-12.397026558685303
1788965154115079200,2.3030791015625,3.0439281356811523,-1.2173019065856934,-9.619303720092773
1788965154125107000,2.31310693359375,1.8798972160339353,-2.4205378784179685,-7.7605054061889645
1788965154135136000,2.323135986328125,-3.0069676475524902,-4.831349312591552,-1.881393592071533
1788965154145165000,2.3331650390625,-2.803909419250488,-6.269815597534179,0.05626373901367187
1788965154155193000,2.343193115234375,1.4520833068847656,-9.613916766357422,1.074547632598877
1788965154165222100,2.35322216796875,0.7022492744445801,-10.826130994415282,1.4493898300170898
1788965154175251000,2.3632509765625,-0.6317699630737305,-8.966584492492675,-3.552845626068115
1788965154185279200,2.373279296875,0.509516040802002,-7.457638896179199,-4.92232897567749
1788965154195308000,2.38330810546875,0.6769605194091797,-7.792677490997314,-5.26739328994751
1788965154205337000,2.393337158203125,2.3183353950500485,-7.565078695678711,-5.633556506347656
1788965154215365000,2.403365234375,2.5813983024597165,-7.445667887878417,-7.157765138244629
1788965154225394000,2.413393798828125,2.8101941986083983,-6.985232981109618,-8.725219037628174
1788965154235422200,2.423422119140625,2.309207501220703,-5.242703085327149,-7.7319246238708494
1788965154245451000,2.433450927734375,0.39803602600097654,-4.499153832244873,-4.378246648406982
1788965154255480000,2.44347998046875,-1.993771432495117,-6.561908200073241,-3.621828561401367
1788965154265508000,2.453508056640625,-2.0784663162231443,-10.16398459777832,-3.8845921936035155
1788965154275537000,2.463536865234375,1.1698667861938477,-12.683283294677734,-5.692663359832763
1788965154285566200,2.473566162109375,4.217086949157714,-11.482740799713135,-9.221118056488036
1788965154295594000,2.483593994140625,5.450250441741943,-7.419481307220458,-11.540949827575682
1788965154305623000,2.493623046875,5.267243652343749,-4.064007680511474,-9.275735781860352
1788965154315652000,2.503652099609375,3.4733880584716794,-3.3412580543518065,-4.901230073547363
1788965154325680000,2.51368017578125,2.249651734924316,-5.148880307769775,-3.495983336639404
1788965154335709200,2.523709228515625,1.3238438804626464,-3.0256723480224608,-5.467309128570556
1788965154345738200,2.53373828125,1.7974468963623045,0.32022447204589843,-6.235548586273193
1788965154355766000,2.54376611328125,-0.027682956695556638,-3.045873424530029,-4.521599472808838
1788965154365795000,2.553795166015625,-1.0410288093566893,-8.13983673171997,-1.9960159965515136
1788965154375824000,2.563823974609375,-0.4707599014282226,-13.31774673461914,-1.351526837158203
1788965154385852200,2.57385205078125,0.9445125549316405,-14.712219564056396,-4.769997895050048
1788965154395881200,2.583881103515625,0.7164648468017578,-10.073304209899902,-7.899967652893066
1788965154405910000,2.593909912109375,0.9186252494812012,-9.86964743118286,-6.658125179290771
1788965154415938000,2.60393798828125,1.27042325592041,-10.813561435699462,-5.7326166000366205
1788965154425967000,2.613967041015625,0.9668085578918456,-10.543615198516845,-5.799354971313476
1788965154435996200,2.62399609375,0.8393173194885254,-10.643872393035888,-5.36316135635376
1788965154446024200,2.634024169921875,1.2457330513000489,-8.98319426651001,-5.680991626739502
1788965154456053000,2.644052978515625,1.7025766555786133,-7.2243538719177245,-5.6301148414611815
1788965154466081000,2.6540810546875,1.7829320487976072,-6.845471459197998,-4.477306742095947
1788965154476110000,2.664110107421875,1.8656816436767576,-6.9630866157531734,-4.054879786682129
1788965154486139600,2.6741396484375,1.9557634811401365,-8.814103774261474,-3.03255567779541
1788965154496167700,2.684167724609375,1.0344447547912596,-11.576713214874268,-3.1293712074279783
1788965154506196500,2.694196533203125,1.0298059890747069,-10.875661041259765,-3.698443014526367
1788965154516225500,2.7042255859375,0.6479308242797851,-11.375450637817382,-2.6976667205810547
1788965154526253600,2.714253662109375,-0.17223288192749023,-11.137975760650635,-4.12446127243042
1788965154536282600,2.72428271484375,0.04773439559936523,-11.33834051208496,-4.944774616241455
1788965154546311700,2.734311767578125,0.4337994132995605,-12.25187808303833,-4.632780212402343
1788965154556339500,2.74433935546875,0.1393126091003418,-8.326584461212157,-8.145074047851562
1788965154566368500,2.754368408203125,0.5924152732849121,-6.07798018951416,-11.104157662200928
1788965154576397600,2.7643974609375,2.0967221038818358,-5.060294846343994,-11.259182219696044
1788965154586425600,2.774425537109375,2.2111948707580567,-1.4630068519592285,-10.602871689605712
1788965154596454700,2.78445458984375,0.4421791191101074,2.016217073059082,-10.992079096984863
1788965154606483500,2.7944833984375,1.160140341949463,-0.26665420989990235,-6.227318518066406
1788965154616511500,2.804511474609375,-0.5677250686645507,-4.615122975158691,1.0793360359191895
1788965154626540500,2.81454052734375,-0.5128080680847168,-5.4053591606140134,2.635267839813232
1788965154636569600,2.824569580078125,-0.5919663604736328,-2.518101596069336,-0.15786767196655271
1788965154646597600,2.83459765625,-0.36631285400390623,-2.5103204406738278,0.5352537086486816
1788965154656626400,2.84462646484375,0.948702407836914,-5.040542682647705,2.775777549743652
1788965154666655500,2.854655517578125,0.4879682258605957,-7.401075881958008,1.583914035797119
1788965154676683800,2.864683837890625,0.24001871643066405,-18.62793637924194,-0.49380409240722656
1788965154686712600,2.874712646484375,0.6916250045776366,-27.410915531921386,2.541594699859619
1788965154696741600,2.88474169921875,-2.085948196411133,-27.275643138122557,2.047640969848633
1788965154706769400,2.894769287109375,-2.97509483795166,-18.23828005905151,2.6132711120605467
1788965154716798500,2.904798583984375,-0.044891281127929686,-13.577667252349853,2.659060218811035
1788965154726827500,2.91482763671875,1.396867031097412,-10.337115305328368,3.5776854682922363
1788965154736855600,2.92485546875,1.6539444343566894,-8.125621159362792,4.064456593322753
1788965154746884600,2.934884521484375,2.231096672058105,-8.137891442871092,3.5793314819335937
1788965154756913700,2.94491357421875,1.8671780197143553,-9.090185153198242,3.395726142120361
1788965154766941400,2.95494140625,0.754622435760498,-9.432855265808104,3.243694336700439
1788965154776970800,2.964970703125,0.728435855102539,-8.142829483795165,1.3736732025146483
1788965154786999600,2.97499951171875,1.731456713104248,-7.999775934600829,-0.7215525253295898
1788965154797027600,2.985027587890625,1.6199766983032227,-6.844872908782959,-5.175515801239014
1788965154807056600,2.995056640625,0.7447463539123534,-5.979369008636474,-7.493103008270263
1788965154817085400,3.00508544921875,-0.07676409072875977,-7.9001172904968255,-3.727323072052002
1788965154827113700,3.01511376953125,-0.5545569595336913,-11.956044540405273,1.5171756645202636
1788965154837142500,3.025142578125,-1.119139638519287,-12.99273385925293,3.3686417358398435
1788965154847171600,3.035171630859375,-1.049558152770996,-11.69612402267456,4.017919298553466
1788965154857199600,3.04519970703125,0.2150292366027832,-10.229525868225098,4.517708895111084
1788965154867228400,3.055228515625,0.787841983795166,-10.52775361251831,5.312134933471679
1788965154877257500,3.065257568359375,1.2078747375488281,-10.857105978393554,6.3980550239562985
1788965154887285500,3.075285400390625,1.2862848419189452,-10.315417852783202,5.144391179656982
1788965154897314600,3.085314453125,1.2725181823730467,-8.563610425567626,1.9620482604980467
1788965154907343600,3.095343505859375,1.1323077476501464,-9.729885909271239,4.34158543548584
1788965154917371400,3.105371337890625,1.6271593032836913,-10.351929428100584,4.900631523132324
1788965154927400700,3.115400634765625,2.007089179229736,-9.343371978759764,2.259378179168701
1788965154937429800,3.1254296875,0.8901941047668457,-9.413103102111815,1.9698294158935545
1788965154947457500,3.13545751953125,-0.06209960556030273,-9.33349589691162,2.6212019050598143
1788965154957486600,3.145486572265625,-0.05581482620239257,-9.019406566619873,2.7814637786865233
1788965154967515400,3.155515380859375,0.2166752502441406,-9.042600395202637,2.7627590782165528
1788965154977543700,3.165543701171875,0.3751414726257324,-9.475202707672118,3.4663550910949703
1788965154987572700,3.17557275390625,0.3229179489135742,-9.394847314453125,3.547907585144043
1788965154997601500,3.1856015625,0.3151367935180664,-9.24984847640991,3.3322797981262204
1788965155007629600,3.195629638671875,-0.12629413757324218,-10.076596237182617,4.433612561798095
1788965155017658400,3.205658447265625,-0.4128501487731933,-10.15156467666626,4.590881683349609
1788965155027687400,3.2156875,0.03067570877075195,-9.513958847045897,3.319111688995361
1788965155037715700,3.2257158203125,0.5660790550231933,-9.251943402862548,2.3425766868591307
1788965155047744500,3.23574462890625,1.0749965454101562,-9.345167630004882,2.0307319206237793
1788965155057773600,3.245773681640625,1.168968960571289,-9.336787924194335,2.0000562118530274
1788965155067801600,3.255801513671875,0.8521861534118652,-9.271246653747559,1.8947113388061523
1788965155077830700,3.26583056640625,0.5436334144592285,-9.083601098632812,1.5554828910827636
1788965155087859700,3.275859619140625,0.5723638343811035,-9.061005820465088,1.1710638870239256
1788965155097887500,3.285887451171875,0.46372693405151366,-9.0788126953125,1.668758557128906
1788965155107916500,3.29591650390625,0.05386953735351562,-8.627206407165527,2.176329309082031
1788965155117945600,3.305945556640625,0.6235398948669433,-8.647407483673096,2.0986673927307127
1788965155127973600,3.3159736328125,1.2181997322082518,-9.150938020324707,2.2252608055114744
1788965155138002700,3.326002685546875,0.9669581954956055,-9.695618898010252,2.408117957305908
1788965155148031500,3.336031494140625,0.3215712104797363,-10.090213259124756,2.392106733703613
1788965155158059500,3.3460595703125,0.6364087287902832,-10.107870496368408,2.2099977699279783
1788965155168088600,3.356088623046875,0.5984007774353027,-10.192565380096434,2.888305027770996
1788965155178117600,3.36611767578125,0.6637924102783203,-10.602871689605712,3.0092122116088866
1788965155188145700,3.376145751953125,1.317708738708496,-8.910620028686523,3.0814871742248533
1788965155198174500,3.386174560546875,0.9662100074768066,-8.048108880615233,2.597708801269531
1788965155208203500,3.39620361328125,1.3082815696716308,-8.024466139221191,2.318185757446289
1788965155218231600,3.4062314453125,1.3771148674011229,-8.647108208465575,2.4583961921691895
1788965155228260600,3.416260498046875,1.1893196746826171,-8.966135579681396,3.1857845840454098
1788965155238289700,3.42628955078125,1.3009493270874022,-9.285911138916015,3.1616929298400875
1788965155248317400,3.4363173828125,1.4847043045043944,-9.80679963760376,3.094356008148193
1788965155258346500,3.446346435546875,1.254561669921875,-10.3038957572937,2.931101382446289
1788965155268375600,3.45637548828125,0.9798270294189453,-10.38095912322998,3.011307138061523
1788965155278403600,3.466403564453125,0.8447042732238769,-10.271274759674071,3.161393654632568
1788965155288432600,3.4764326171875,0.618003303527832,-10.428394243621826,3.40949280166626
1788965155298461700,3.486461669921875,1.6129437309265136,-9.695768535614013,0.7106289802551269
1788965155308489500,3.496489501953125,5.3013610260009765,-8.01877991027832,-5.7797524452209466
1788965155318518500,3.5065185546875,-1.2394482719421387,-11.036671102905272,-6.275501826477051
1788965155328547600,3.516547607421875,3.3551743515014647,-13.084312072753905,-8.554183256530761
1788965155338575600,3.52657568359375,3.662679627227783,-14.507216046905517,-2.726546778106689
1788965155348604700,3.536604736328125,1.753752716064453,-14.77327170639038,-0.7600093894958496
1788965155358633500,3.546633544921875,-0.1441010124206543,-14.233828144836425,3.484161965942383
1788965155368661800,3.556661865234375,-0.8928875816345214,-12.791172006988525,5.2837037887573235
1788965155378690600,3.566690673828125,-2.126499987030029,-11.723657341766357,6.337601432037353
1788965155388719600,3.5767197265625,-1.7006313667297361,-10.634594861602782,5.5452703201293945
1788965155398748700,3.586748779296875,-2.3159411933898926,-11.34477492904663,8.846724771881103
1788965155408776400,3.5967763671875,-2.429815409851074,-7.841908262634277,3.506308331298828
1788965155418805500,3.606805419921875,-3.4715924072265625,-5.29926609954834,3.5811271331787107
1788965155428834600,3.61683447265625,-3.6278140655517577,-4.90362427520752,6.094739601135253
1788965155438862600,3.626862548828125,-2.0121768577575683,-5.162646967315673,4.856937342834472
1788965155448891600,3.6368916015625,-0.2811690574645996,-5.098751710510253,3.9140708015441894
1788965155458920400,3.64692041015625,1.3497311859130858,-5.078550634002685,3.5679590240478514
1788965155468948500,3.656948486328125,2.1179706436157226,-5.188983185577392,4.1748891448974605
1788965155478977800,3.666977783203125,1.4258967262268065,-6.238541338348388,4.317493781280517
1788965155489005800,3.677005859375,0.795473501586914,-7.727734770965576,3.7659295738220213
1788965155499033600,3.68703369140625,0.45594577865600583,-8.494028939819335,3.9255928970336913
1788965155509062700,3.697062744140625,-0.07077858657836913,-8.927678715515135,5.1791071037292475
1788965155519091700,3.707091796875,-0.30316578521728516,-9.64010334701538,7.007977896881103
1788965155529119700,3.71711962890625,0.04219780426025391,-10.02332525024414,7.7772648178100585
1788965155539148800,3.727148681640625,0.5853823059082031,-9.46846901550293,4.352209705352783
1788965155549177600,3.737177490234375,0.19632453613281248,-8.333168515777587,-0.12090718383789062
1788965155559206000,3.747205810546875,-1.63449154586792,-10.137199466705322,3.8148610702514647
1788965155569234700,3.757234619140625,-2.06200617980957,-11.992556115722655,3.418171782684326
1788965155579263700,3.767263671875,-2.2423194923400875,-11.353304272460937,3.1865327720642087
1788965155589291500,3.77729150390625,-1.3063362808227539,-9.211690887451171,2.5686791061401366
1788965155599320600,3.787320556640625,0.7636006919860839,-9.185653944396972,4.131643877410888
1788965155609349600,3.797349609375,2.136824981689453,-9.11053586730957,5.248389314270019
1788965155619377700,3.807377685546875,2.7494413314819335,-8.801833490753173,5.279065023040771
1788965155629406700,3.81740673828125,3.577984743499756,-8.49013836212158,4.224718466949462
1788965155639435800,3.827435791015625,4.0167221977233885,-8.434173898315429,2.734028658294678
1788965155649464600,3.837464599609375,3.220350870513916,-8.903287786102295,1.922992845916748
1788965155659492600,3.84749267578125,2.8794764091491696,-10.3552214553833,2.159869172668457
1788965155669522000,3.85752197265625,1.7254712089538573,-11.00734213256836,3.471891682434082
1788965155679550700,3.86755078125,1.57688106842041,-10.374075793457031,4.302380383300781
1788965155689578800,3.877578857421875,1.322197866821289,-9.520842176818848,3.5673604736328124
1788965155699607600,3.887607666015625,1.0311527275085448,-8.941445375061035,2.6960207069396973
1788965155709636600,3.89763671875,1.1020809516906738,-9.063998572540283,1.437119546508789
1788965155719664600,3.90766455078125,1.195155541229248,-9.409062886810302,1.1125555839538575
1788965155729693700,3.917693603515625,0.63206923828125,-9.719860189819336,0.960224503326416
1788965155739722800,3.92772265625,-0.18510171585083007,-9.491812481689452,1.3952210174560546
1788965155749750500,3.93775048828125,0.008678981018066407,-8.8995468460083,2.180968074798584
1788965155759779600,3.947779541015625,1.232714579772949,-9.670479780578614,2.1250036109924317
1788965155769809000,3.957808837890625,1.0529998176574706,-10.641328553771972,1.9475334129333495
1788965155779836700,3.967836669921875,1.6531962463378904,-10.813112522888183,1.938255881500244
1788965155789865700,3.97786572265625,2.2200234893798827,-11.035174726867675,2.3523031311035156
1788965155799894500,3.98789453125,2.49625450592041,-11.233294914245604,2.5700258445739745
1788965155809922800,3.9979228515625,2.335842994689941,-10.899154145050048,2.7328315574645994
1788965155819951900,4.007951904296875,2.026990980529785,-10.299107353973389,3.5516485252380368
1788965155829980700,4.017980712890625,1.4124293418884277,-9.65327145614624,4.843170683288574
1788965155840008700,4.0280087890625,0.9057564155578612,-9.219920955657958,5.325901593017578
1788965155850037500,4.03803759765625,0.5804442649841308,-8.648305309295655,5.807136126708984
1788965155860066600,4.048066650390625,0.7143699203491211,-7.99917738418579,5.87986000213623
1788965155870094800,4.0580947265625,0.9696516723632812,-7.492504457855224,5.68832386932373
1788965155880123600,4.06812353515625,1.1647791076660157,-6.758532011413574,5.527762720489502
1788965155890152700,4.078152587890625,1.5113397979736327,-5.9208607055664055,5.7700260009765625
1788965155900181800,4.088181640625,1.9250877723693847,-5.472396807098388,5.368249034881591
1788965155910209500,4.09820947265625,2.1903952438354493,-5.925649108886718,5.309740731811523
1788965155920238800,4.10823876953125,2.3274632888793945,-6.329371363830566,4.8886605148315425
1788965155930267600,4.118267578125,2.2535423126220704,-7.341071202850341,5.204096583557129
1788965155940295700,4.128295654296875,2.32387198638916,-8.511386901855468,4.948515556335449
1788965155950324700,4.13832470703125,2.2405238410949706,-9.71731635055542,4.4482770469665525
1788965155960353500,4.148353515625,1.7730559669494628,-10.890475164031981,3.9255928970336913
1788965155970381800,4.1583818359375,1.4303858543395995,-11.79877541885376,3.612999942779541
1788965155980410600,4.16841064453125,1.9541174674987791,-12.311882762145995,3.121141139221191
1788965155990439700,4.178439697265625,2.122310134124756,-12.046425653076172,2.212092696380615
1788965156000467700,4.1884677734375,1.6778864509582518,-11.232247451019287,1.5218144302368164
1788965156010496500,4.19849658203125,1.1807903312683106,-10.468048208618164,1.4911387214660643
1788965156020525600,4.208525634765625,0.5232827003479004,-9.992050991058349,1.379658706665039
1788965156030553600,4.2185537109375,0.12868833923339842,-9.906757556915283,2.0847510955810544
1788965156040582700,4.228582763671875,0.469862075805664,-9.703250415802001,3.141791128540039
1788965156050611700,4.23861181640625,1.1022305892944335,-9.62723451309204,3.950582376861572
1788965156060639700,4.2486396484375,1.418714121246338,-9.637709145355224,4.253299249267578
1788965156070668800,4.258668701171875,1.5720926651000975,-9.692177233123779,4.359242672729492
1788965156080697900,4.26869775390625,1.801636749267578,-9.770587337493897,4.519504546356201
1788965156090725600,4.2787255859375,2.235286524963379,-9.958232892608642,4.822520693969726
1788965156100754700,4.288754638671875,2.8761843818664548,-10.197952333831786,5.153818348693847
1788965156110783500,4.298783447265625,3.5034652168273923,-10.501118119049071,5.428403351593017
1788965156120812500,4.3088125,4.058920001983642,-10.661230355072021,5.980865384674072
1788965156130840800,4.3188408203125,4.698022207641602,-11.201422104644776,5.434987406158447
1788965156140869600,4.32886962890625,5.38874938659668,-11.744905881500243,5.1714755859374995
1788965156150898700,4.338898681640625,6.107159522247314,-12.119598441314697,5.06268904800415
1788965156160926500,4.348926513671875,6.44833325881958,-12.185139711761474,4.695328730773926
1788965156170955800,4.358955810546875,5.7709238265991205,-12.070068394470214,3.929333837127685
1788965156180984800,4.36898486328125,4.982184017181396,-11.923273905181883,2.620902629852295
1788965156191012600,4.3790126953125,5.372588525390625,-11.285967350769042,2.775777549743652
1788965156201041700,4.389041748046875,5.200505281066894,-10.060734651184081,3.077746234130859
1788965156211070700,4.39907080078125,4.631882386779785,-8.708908538818358,3.571400688934326
1788965156221098800,4.4090986328125,3.893869725036621,-7.595904042053222,3.6502597061157225
1788965156231127800,4.4191279296875,4.010587055969238,-6.711396166229248,3.905990370941162
1788965156241156600,4.429156494140625,4.387075267028808,-6.109254448699951,4.418349526214599
1788965156251184600,4.4391845703125,4.677671493530273,-5.578340230560302,4.36687419052124
1788965156261213700,4.449213623046875,5.156062912750244,-5.604077898406982,4.375104258728027
1788965156271242500,4.459242431640625,5.619340933990478,-5.674257934570313,4.393808959197997
1788965156281270800,4.469270751953125,6.084863519287109,-5.908141509246826,4.288314448547363
1788965156291299600,4.479299560546875,6.675483141326904,-6.115539228057861,4.159476471710205
1788965156301328600,4.48932861328125,7.033266651916503,-6.308272461700439,4.162169948577881
1788965156311356700,4.499356689453125,7.421276958465576,-6.793846485900879,4.472219063568115
1788965156321385700,4.5093857421875,7.282263624572754,-6.947823580169677,4.8650177734375
1788965156331414800,4.519414794921875,7.101651036834716,-6.666055972290039,5.17776036529541
1788965156341443800,4.52944384765625,7.040898169708251,-6.0245595649719235,5.39473489074707
1788965156351471600,4.5394716796875,7.030722812652588,-5.218761068725586,5.506065267944336
1788965156361500700,4.549500732421875,7.04808077468872,-4.271704674530029,5.57340218963623
1788965156371529500,4.559529541015625,7.155969486999512,-3.787178113555908,5.530456197357178
1788965156381557800,4.569557861328125,7.125892328643799,-3.9845501129150387,6.044760641479492
1788965156391586800,4.5795869140625,7.208193010711669,-4.07313557434082,6.2852282707214355
1788965156401615600,4.58961572265625,7.2717889923095695,-3.8111201301574704,6.440552103424072
1788965156411643600,4.5996435546875,7.681796026611328,-3.4521395187377926,6.463297019195556
1788965156421672700,4.609672607421875,8.141333107757568,-3.250278391265869,6.623259617614746
1788965156431701800,4.61970166015625,8.474426413726807,-3.445106551361084,6.415113710784912
1788965156441729800,4.629729736328125,8.522160809326172,-3.3858500602722166,6.204423964691162
1788965156451758600,4.639758544921875,8.826074782562255,-3.224690361022949,6.00765051574707
1788965156461787600,4.64978759765625,8.787617918395995,-3.3541268882751463,6.812551186370849
1788965156471815700,4.659815673828125,8.533383629608155,-2.7632079910278318,7.04224490814209
1788965156481844700,4.6698447265625,8.419958325958252,-2.361580662536621,7.032817739105224
1788965156491874000,4.6798740234375,7.840561524200439,-1.8930653251647949,7.121403200531005
1788965156501901800,4.68990185546875,7.319074475097656,-1.4049474617004394,6.527940464019775
1788965156511931000,4.699930908203125,7.183652443695068,-1.0102034629821777,7.009324635314941
1788965156521960000,4.7099599609375,7.242160746765136,-0.25692776565551756,6.583456015014648
1788965156531988000,4.719988037109375,7.11885936126709,-0.22685060729980466,6.532130316925048
1788965156542017000,4.73001708984375,6.974459073638916,0.06120177993774414,6.067655194854736
1788965156552045800,4.7400458984375,6.696432405853271,0.3827729904174804,7.100453936004638
1788965156562073900,4.750073974609375,6.728305215454101,0.6081272216796875,6.507290474700928
1788965156572103000,4.76010302734375,6.179135209655762,0.7484872940063476,6.161777247619629
1788965156582132000,4.770132080078125,6.508637213134765,0.8143278396606445,5.9588686569213865
1788965156592161000,4.7801611328125,6.747309191131591,0.5967547637939453,6.112995388793945
1788965156602188800,4.790188720703125,5.616348181915283,1.227028350830078,6.061220777893066
1788965156612217900,4.8002177734375,5.943156708526611,1.4438532386779783,5.7968111320495606
1788965156622247000,4.810246826171875,5.421669659423828,1.6475100173950195,5.618443108367919
1788965156632275000,4.82027490234375,5.149628495788574,1.8751088127136228,4.796034838104248
1788965156642304000,4.830303955078125,4.127005111694336,2.1062989105224608,4.1754876953124995
1788965156652333000,4.8403330078125,3.5428199066162107,2.242020217132568,4.210802169799805
1788965156662360800,4.85036083984375,3.5399767921447753,2.5899276458740235,4.383035051727295
1788965156672390000,4.860389892578125,3.7515643638610836,2.0528782859802246,3.7593455192565917
1788965156682419000,4.8704189453125,3.489698557281494,3.734206401824951,4.525340412902832
1788965156692447000,4.880447021484375,3.7741596420288084,3.0533553047180173,4.42463430557251
1788965156702476000,4.89047607421875,3.8147114326477047,3.003226707458496,4.90931050415039
1788965156712504800,4.9005048828125,3.5850177108764645,4.173692044067383,5.327397969055175
1788965156722532900,4.910532958984375,3.3433529808044433,4.201674275970459,4.370764768218994
1788965156732562000,4.92056201171875,3.543867369842529,4.9534535972595215,5.647323165893554
1788965156742591000,4.930591064453125,3.864989667510986,4.818779753875732,5.925349833679199
1788965156752619000,4.940618896484375,4.060266740417481,4.892401454925537,5.546317783355713
1788965156762647800,4.950647705078125,3.6079122642517087,4.711938504791259,4.939537300109863
1788965156772676900,4.9606767578125,3.5091514457702635,5.197512528991699,5.273827706909179
1788965156782705000,4.970704833984375,2.935590510559082,5.253028079986572,5.2733787940979004
1788965156792734000,4.98073388671875,3.4011130958557128,5.599289495086669,5.957372280883789
1788965156802763000,4.990762939453125,3.548356497955322,5.086331789398193,5.518485189056396
1788965156812790800,5.000790771484375,4.281730393981934,5.550058723449706,5.5181859138488765
1788965156822819800,5.01081982421875,4.524592224884033,5.4044613349914545,4.755333409881591
1788965156832849200,5.02084912109375,5.193921226501464,5.653907220458984,4.404582866668701
1788965156842878000,5.0308779296875,5.142445890808105,5.831676693725585,4.492270502471923
1788965156852906000,5.040906005859375,4.088398609924316,5.138405675506592,4.4196962646484375
1788965156862934800,5.050934814453125,4.026448641967773,5.093813669586181,3.980809172821045
1788965156872963800,5.0609638671875,3.8926726242065426,5.307496167755127,4.142567422485351
1788965156882992000,5.0709921875,3.4606688621520996,5.053411516571044,4.50109912109375
1788965156893021000,5.08102099609375,3.418770333099365,5.2533273551940916,4.544643663787841
1788965156903050000,5.091050048828125,3.7325603881835936,5.855020159912109,4.536862508392334
1788965156913077800,5.101077880859375,3.7008372161865233,5.914725563812255,4.622006304931641
1788965156923106800,5.11110693359375,3.593696691894531,5.6389434600830075,4.934599259185791
1788965156933136000,5.121135986328125,3.911676599884033,5.24823967666626,5.094112944793701
1788965156943164000,5.131163818359375,4.186560877990723,4.907065940093994,5.227440049743652
1788965156953193000,5.14119287109375,4.262726418304443,4.902576811981201,5.254823731231689
1788965156963222000,5.151221923828125,4.444386469268799,5.008819510650635,5.304054502868652
1788965156973249800,5.161249755859375,4.4644379081726075,4.812494974517822,5.229235700988769
1788965156983279000,5.171279052734375,4.677222580718994,4.68006569519043,5.093215119171142
1788965156993308000,5.181307861328125,5.064035786437988,4.691438153076172,5.167435370635986
1788965157003336000,5.1913359375,5.350292522430419,4.199878624725342,5.353734187316895
1788965157013365000,5.201364990234375,5.512649322509765,3.7804444213867185,5.73336478805542
1788965157023393800,5.211393798828125,5.683984378814697,3.58801046295166,5.954978079223633
1788965157033422000,5.221422119140625,5.660341637420654,3.4663550910949703,5.9688943763732905
1788965157043451000,5.231450927734375,5.4141877792358395,3.188328423309326,5.734561888885498
1788965157053480000,5.24147998046875,5.555744952392578,3.068169427490234,5.793968017578124
1788965157063509000,5.251509033203125,5.775263317108154,3.238905933380127,5.970690027618408
1788965157073536800,5.261536865234375,5.793668742370605,2.9822774429321286,6.469881073760986
1788965157083565800,5.27156591796875,5.7980082328796385,2.5246856506347655,6.907122151947021
1788965157093595100,5.28159521484375,5.717054289245605,2.1902456062316893,7.027281147766113
1788965157103623000,5.291622802734375,5.9293900489807125,1.970876879119873,7.2337810409545895
1788965157113652000,5.30165185546875,6.293458338928223,1.6750433364868162,7.107636540985107
1788965157123680800,5.3116806640625,6.364536200714111,1.4694412689208984,6.938695686340331
1788965157133709000,5.321708984375,6.396558647918701,1.3260884445190428,6.871059489440918
1788965157143738000,5.331738037109375,6.366780764770508,1.3352163383483886,6.9621887901306145
1788965157153767000,5.341766845703125,6.609044045257568,1.2042834350585936,6.877493906402587
1788965157163795000,5.351794921875,6.855347541046142,1.0972925483703613,6.784718592071533
1788965157173823700,5.36182373046875,7.347655257415771,0.8837596878051758,6.888866364288329
1788965157183852800,5.371852783203125,7.525275093078613,0.37184944534301756,6.636727001953124
1788965157193881000,5.381881103515625,7.09312169342041,-0.10729016189575195,6.26338118057251
1788965157203910000,5.391909912109375,6.781576202392578,-0.35464112091064454,6.113444301605225
1788965157213939000,5.40193896484375,6.553827769470215,-0.3356371452331543,6.225223591613769
1788965157223966700,5.411966796875,6.494571278381347,-0.4445733207702636,6.2578445892333985
1788965157233996000,5.42199609375,6.150554427337646,-0.6428431457519531,6.351368091583252
1788965157244025000,5.432025146484375,5.494692810058593,-0.8276455863952636,6.297348916625976
1788965157254052900,5.442052978515625,5.16504116897583,-0.7818564796447753,6.610241146087646
1788965157264082000,5.45208203125,5.556942053222656,-0.9775824653625488,7.378480603790282
1788965157274111000,5.462111083984375,5.683385828399658,-1.3986626823425292,7.6559087211608885
1788965157284139800,5.472139892578125,5.302707764434814,-2.1345804176330567,7.237222705841064
1788965157294168000,5.48216796875,5.33098927154541,-2.8248586837768555,6.814496475219726
1788965157304196900,5.49219677734375,5.471947894287109,-3.296965323638916,6.928221054077148
1788965157314226000,5.502225830078125,5.504568891906738,-3.8762124877929685,7.122749938964843
1788965157324254000,5.51225390625,5.517288088226318,-4.806060557556152,7.136516598510742
1788965157334282800,5.52228271484375,5.677400324249267,-5.257666845703125,7.228843000030517
1788965157344312000,5.53231201171875,5.879411089324951,-5.705382556152343,7.0853405380249015
1788965157354339800,5.54233984375,5.461622899627685,-6.163572898864746,6.8493620368957515
1788965157364369000,5.552368896484375,4.604797980499267,-6.445340506744384,6.835894652557372
1788965157374398000,5.56239794921875,3.8902784225463867,-6.286575009155273,7.18888975982666
1788965157384426000,5.572426025390625,3.684377079772949,-5.824194813537598,7.612962728881835
1788965157394455000,5.582455078125,3.9809588104248044,-5.607968476104736,7.959373781585693
1788965157404484000,5.592484130859375,4.26482134475708,-5.5844753723144525,7.77621735458374
1788965157414511900,5.602511962890625,4.542249462127685,-5.65615178451538,7.528866395568847
1788965157424541000,5.612541015625,4.9723079353332515,-6.209810918426514,7.151480358886718
1788965157434569700,5.62256982421875,5.067327813720703,-6.640767217254639,7.181856792449951
1788965157444598000,5.632597900390625,4.534468306732178,-7.178265489959716,7.614608742523193
1788965157454627000,5.642626953125,3.6501100685119625,-7.310694769287109,7.958027043151855
1788965157464656000,5.65265576171875,2.871695253753662,-6.813149736785888,7.770231850433349
1788965157474684000,5.662683837890625,2.5733178718566894,-6.085910982513427,7.8347256576538085
1788965157484713000,5.672712890625,2.429965047454834,-5.487510205078125,7.723844193267822
1788965157494742300,5.6827421875,2.273444113922119,-4.823268881988525,7.6930188468933105
1788965157504771000,5.69277099609375,2.4984990699768064,-4.788702595520019,7.695562686157226
1788965157514799000,5.702799072265625,2.6191069786071774,-5.1900306488037105,7.385962483978271
1788965157524828000,5.712827880859375,3.0629321113586423,-5.822997712707519,7.295581371307373
1788965157534857000,5.72285693359375,3.6091093650817867,-6.6051534675598145,7.191583236694336
1788965157544885200,5.73288525390625,3.9405566574096675,-7.69286920928955,6.89530078125
1788965157554914000,5.7429140625,3.909581673431396,-8.786570455169677,7.268646602630615
1788965157564943000,5.752943115234375,3.9200563056945796,-9.804405435943602,8.214356258392334
1788965157574971000,5.762970947265625,3.891026610565185,-10.710161851501464,9.066991324615477
1788965157585000000,5.773,3.251475492095947,-11.081113471221924,9.619303720092773
1788965157595029000,5.783029052734375,2.4148516494750973,-11.07737253112793,9.748740247344971
1788965157605057000,5.79305712890625,2.0150199722290036,-10.68098251876831,9.647136314392089
1788965157615086000,5.803086181640625,2.071134073638916,-10.23386535873413,9.119663761138915
1788965157625115100,5.813115234375,2.0382138008117674,-10.094103836822509,8.175001568603514
1788965157635143200,5.82314306640625,2.357091534423828,-10.633248123168945,7.257423782348632
1788965157645172200,5.833172119140625,3.3892917251586914,-11.213093837738036,7.709179708099365
1788965157655201000,5.843200927734375,5.049371301269531,-12.579584435272215,8.333767066192626
1788965157665229000,5.85322900390625,6.09040011062622,-14.056058671569824,8.623914379882812
1788965157675258000,5.863258056640625,5.228038600158691,-15.164274765014648,7.170783609771728
1788965157685287000,5.873286865234375,3.8512230079650878,-14.957475596618652,4.733785594940185
1788965157695316000,5.88331591796875,3.057395520019531,-13.370119895935058,2.2819734573364254
1788965157705344000,5.893343994140625,1.6632219657897949,-11.078419994354247,0.448164623260498
1788965157715373000,5.903373046875,-0.21428104858398436,-8.671349500274658,-0.7088333290100097
1788965157725402000,5.913402099609375,-1.8412907142639159,-7.0850412628173824,-1.0324994659423827
1788965157735430000,5.923429931640625,-2.5092729774475098,-6.412719509124756,-1.0998363876342774
1788965157745459200,5.933459228515625,-2.1384709953308105,-6.387131478881836,-0.4860229370117187
1788965157755488300,5.94348828125,-0.8020575561523438,-7.630320690917968,0.14290391159057617
1788965157765516000,5.95351611328125,0.8637082489013671,-9.143456140136719,1.0749965454101562
1788965157775545000,5.963545166015625,2.000355487060547,-10.088716883087157,1.7340005523681639
1788965157785574000,5.973573974609375,2.201917339324951,-10.494384426879883,2.0094833808898924
1788965157795602200,5.983602294921875,1.975366007232666,-10.641029278564453,2.779668127441406
1788965157805631200,5.99363134765625,1.587206063079834,-10.270825846862792,3.6917093223571773
1788965157815660000,6.003659912109375,1.2523171058654785,-9.70414824142456,4.3920133079528805
1788965157825688000,6.01368798828125,1.02142628326416,-9.062651834106445,4.757727611541748
1788965157835716900,6.023716796875,0.9376292251586914,-8.703371947479248,4.763264202880859
1788965157845746000,6.033745849609375,1.089212117767334,-8.47173293685913,4.69248561630249
1788965157855775200,6.043775146484375,1.4872481437683105,-8.528295951080322,4.492120864868164
1788965157865803000,6.053802978515625,1.8798972160339353,-8.462605043029784,4.381837950897217
1788965157875832000,6.06383203125,2.416946575927734,-8.57378578262329,3.897760302734375
1788965157885861000,6.073861083984375,2.848651062774658,-8.624363292694092,4.150348577880859
1788965157895889200,6.08388916015625,2.7889456588745114,-8.506448860931396,4.276642715454101
1788965157905918200,6.093918212890625,2.367266891479492,-8.335861992645263,4.46219334411621
1788965157915947000,6.103947021484375,2.2424691299438475,-8.821286379241943,4.007743941497803
1788965157925975000,6.11397509765625,1.9387047943115234,-9.411606726074218,3.8986581283569333
1788965157936004000,6.124004150390625,1.6180314094543455,-9.696367086029053,3.8690298828125
1788965157946033000,6.134032958984375,1.4036007232666015,-9.76160908126831,3.5016695655822754
1788965157956061200,6.144061279296875,0.8387187690734863,-10.08063645248413,2.701258023071289
1788965157966090000,6.154090087890625,0.6640916854858399,-9.903764804840087,2.2774843292236326
1788965157976119000,6.164119140625,0.8231564582824706,-9.663895726013182,1.849520782470703
1788965157986147000,6.17414697265625,1.1510124481201172,-9.394996952056884,1.6136919189453125
1788965157996176100,6.184176025390625,1.4332289688110351,-9.2565821685791,1.3569137908935547
1788965158006205200,6.194205078125,1.7087117973327637,-9.677512747955321,0.9632172554016113
1788965158016233000,6.20423291015625,1.9283797996520995,-9.839719910430908,1.1996446693420408
1788965158026262000,6.214261962890625,1.931821464538574,-9.830891291809081,1.3093290328979492
1788965158036291000,6.224291015625,1.6964415138244628,-9.732579386138916,1.3676876983642576
1788965158046319900,6.23431982421875,1.61533793258667,-9.487622628784179,1.6225205375671385
1788965158056348200,6.24434814453125,1.5958850440979002,-9.024643882751464,2.1857564781188965
1788965158066377200,6.254377197265625,1.586457875061035,-8.63169553527832,2.710685192108154
1788965158076406000,6.264406005859375,1.5578770927429197,-8.474276776123046,2.9345430473327636
1788965158086434000,6.27443408203125,1.8191443489074706,-8.731354179382324,2.8356325912475584
1788965158096462800,6.284462890625,2.070385885620117,-9.358186101531983,2.567033092498779
1788965158106492200,6.2944921875,2.0172645362854005,-9.928903922271727,2.834734765625
1788965158116520200,6.304520263671875,1.9428946472167967,-10.02946039199829,3.032106764984131
1788965158126549000,6.314549072265625,1.6654665298461913,-9.546879119873047,3.199700881195068
1788965158136578000,6.324578125,1.4767735115051268,-9.063400022125244,3.214963916778564
1788965158146606000,6.334606201171875,1.119738188934326,-8.717288244628906,3.1856349464416502
1788965158156635100,6.34463525390625,1.2921207084655761,-8.338106556701659,3.466055815887451
1788965158166664200,6.354664306640625,1.3868413116455078,-8.092102336120606,3.15391177444458
1788965158176692000,6.36469189453125,1.3928268157958983,-8.732252005004883,2.0982184799194337
1788965158186721000,6.374720947265625,1.5668553489685058,-9.074622842407226,1.25126964263916
1788965158196750000,6.38475,1.8130092071533201,-9.49345849533081,0.4387374542236328
1788965158206779000,6.39477880859375,1.8944120635986328,-9.524882392120361,0.5693710823059082
1788965158216807200,6.40480712890625,1.9596540588378906,-8.815300875091552,1.2018892333984375
1788965158226836000,6.4148359375,1.7992425476074219,-8.800935665130615,1.1278186195373534
1788965158236865000,6.424864990234375,1.5580267303466795,-9.131934044647217,1.1347019493103028
1788965158246893000,6.43489306640625,1.495178936767578,-9.328707493591308,1.216254443359375
1788965158256922000,6.444922119140625,1.6436194396972654,-9.447819026184082,1.4176666580200195
1788965158266951200,6.454951171875,1.6897078216552734,-9.623044660186768,1.4507365684509277
1788965158276979000,6.46497900390625,1.7841291496276854,-9.859771349334716,1.6557400856018065
1788965158287008000,6.475008056640625,1.7265186721801757,-10.091709635162353,1.737142942047119
1788965158297037000,6.485037109375,1.58960026473999,-9.870395619201659,1.7874211769104003
1788965158307065000,6.495065185546875,1.53857384185791,-9.516652323913574,2.111386589050293
1788965158317094100,6.50509423828125,1.6256629272460936,-9.401880281829833,2.2958897544860837
1788965158327123200,6.515123291015625,1.852663172149658,-9.607631986999511,2.2786814300537106
1788965158337151000,6.52515087890625,1.9460370368957518,-10.165929886627197,1.7975965339660644
1788965158347180000,6.535179931640625,1.6651672546386718,-10.43153663330078,1.0646715507507323
1788965158357209000,6.545208984375,1.119738188934326,-10.06208138961792,0.6183025787353515
1788965158367238100,6.555238037109375,0.704194563293457,-9.804555073547363,0.6699275520324707
1788965158377266200,6.56526611328125,0.5582978996276855,-9.792584065246581,0.9400234268188477
1788965158387295000,6.575294921875,0.5966051261901855,-9.809044201660155,1.2931681716918944
1788965158397324000,6.585323974609375,0.7077858657836914,-9.85692823486328,1.7022773803710936
1788965158407352000,6.59535205078125,0.8360252922058105,-9.79961703262329,2.048838070678711
1788965158417381000,6.605381103515625,0.9540893615722655,-9.605686698150635,2.2099977699279783
1788965158427410200,6.61541015625,0.9671078330993652,-9.389759635925293,2.0720318992614746
1788965158437438000,6.62543798828125,0.8661024505615234,-9.21213980026245,1.9666870262145995
1788965158447467000,6.635467041015625,0.9900023864746094,-8.960748625946044,2.0305822830200193
1788965158457496000,6.64549609375,1.0209773704528808,-8.606406780242919,1.9794062225341795
1788965158467524000,6.655524169921875,1.1480196960449218,-9.462932424163817,1.0690110412597655
1788965158477553200,6.66555322265625,1.4312836799621582,-9.993098454284667,0.89378540725708
1788965158487582000,6.67558203125,1.668758557128906,-9.792135152435302,1.8376994117736816
1788965158497610800,6.68561083984375,1.650353131866455,-8.6566850151062,3.2230443473815917
1788965158507639000,6.69563916015625,1.6335937202453612,-8.687061448669432,3.4702456687927246
1788965158517667800,6.705667724609375,1.5860089622497557,-9.064597122955321,3.6655227416992187
1788965158527697000,6.71569677734375,1.5198691413879393,-9.551517885589599,3.7120600364685057
1788965158537725000,6.725724853515625,1.3537714012145996,-10.026617277526855,3.577835105895996
1788965158547753700,6.735753662109375,1.3175591011047363,-10.390984842681885,3.5922003158569336
1788965158557782800,6.74578271484375,1.3682862487792968,-10.627112981414795,3.5440170074462887
1788965158567810800,6.755810791015625,1.5171756645202636,-10.818050563812255,3.508253620147705
1788965158577839900,6.76583984375,1.5876549758911132,-10.868328798675536,3.3616087684631344
1788965158587869000,6.775868896484375,1.5951368560791015,-10.637138700866698,3.1477766326904293
1788965158597896700,6.785896728515625,1.5219640678405761,-10.364498986816406,3.037493718719482
1788965158607926000,6.795926025390625,1.5023615417480467,-10.018836122131347,3.041683571624756
1788965158617955000,6.805955078125,1.4516343940734862,-9.627683425903319,2.934692684936523
1788965158627982800,6.81598291015625,1.468992356109619,-9.529970070648194,2.7359739471435547
1788965158638012000,6.826011962890625,1.5234604438781738,-9.756521402740479,2.5800515640258785
1788965158648040700,6.836040771484375,1.5714941146850585,-10.053851321411132,2.408566870117187
1788965158658069800,6.84606982421875,1.6160861206054686,-10.181342559814453,2.25369195022583
1788965158668098000,6.85609814453125,1.78113639755249,-10.113706362915039,2.287958961486816
1788965158678126800,6.866126953125,1.9117700256347656,-10.140341856384277,2.348861466217041
1788965158688156000,6.876156005859375,2.002749688720703,-10.137498741912841,2.368015079498291
1788965158698183700,6.88618359375,2.1767782218933105,-9.938331091308592,2.3599346488952637
1788965158708212700,6.896212646484375,2.348262915802002,-9.701005851745604,2.249651734924316
1788965158718242000,6.906241943359375,2.393603109741211,-9.56917512283325,1.9858406394958494
1788965158728269800,6.916269775390625,2.43250888671875,-9.428515775299072,1.8109142807006835
1788965158738299000,6.926298828125,2.4967034187316894,-9.261220934295654,1.776647269439697
1788965158748328000,6.936327880859375,2.2756886779785157,-8.732700917816162,2.211494145965576
1788965158758356000,6.94635595703125,2.359036823272705,-9.266458250427245,1.4118307914733885
1788965158768385000,6.956385009765625,2.4850316856384276,-9.913790524291992,1.1716624374389648
1788965158778413800,6.966413818359375,2.4161983879089353,-10.148272649383545,0.9503484214782715
1788965158788443000,6.97644287109375,2.4274212081909177,-10.261548315429687,0.7299322311401367
1788965158798471000,6.986470947265625,2.5585037490844726,-10.200645810699463,0.7915829238891601
1788965158808499700,6.996499755859375,2.8507459892272946,-10.255113898468016,0.8680477394104004
1788965158818528800,7.00652880859375,3.2227450721740722,-10.25960302658081,0.9847650703430175
1788965158828556800,7.016556884765625,3.290979819488525,-10.068066893768309,1.1691185981750487
1788965158838585900,7.0265859375,3.034052053833008,-9.759364517211914,1.4362217208862305
1788965158848615000,7.036614990234375,2.756025386047363,-9.60808089981079,1.5420155067443846
1788965158858643000,7.046642822265625,2.374449496459961,-9.785700735473633,1.3545195892333983
1788965158868672000,7.056672119140625,1.8599954147338866,-9.642497548675536,1.2876315803527831
1788965158878701000,7.066701171875,1.4258967262268065,-9.386617246246338,1.3380594528198242
1788965158888728800,7.076728759765625,1.4092869522094726,-9.458293658447266,1.6932991241455078
1788965158898758000,7.0867578125,1.8173486976623534,-10.148571924591064,2.2143372604370115
1788965158908786700,7.09678662109375,2.491765377807617,-11.130194605255125,2.9227216766357422
1788965158918815700,7.106815673828125,3.0386908195495606,-12.127828509521484,3.7764042060852048
1788965158928844000,7.116843994140625,3.623773850250244,-12.961309962463378,4.9534535972595215
1788965158938872800,7.126872802734375,3.9852983009338376,-12.861501680755614,6.196942084503173
1788965158948902000,7.13690185546875,3.8289270050048825,-12.413785970306396,5.961113220977783
1788965158958929700,7.1469296875,3.471891682434082,-11.042506969451903,5.7974096824645995
1788965158968959000,7.156958984375,3.2363620941162106,-9.581595043945311,5.433790305328369
1788965158978988000,7.166988037109375,2.834136215209961,-8.984690642547607,5.096207871246338
1788965158989015800,7.177015869140625,1.8598457771301269,-9.217826029205321,4.468029210662841
1788965158999044900,7.187044921875,1.7688661140441893,-9.504531678009032,3.5556887405395505
1788965159009074000,7.197073974609375,1.9771616584777831,-9.573364975738524,2.880074959564209
1788965159019102000,7.20710205078125,2.2233155166625975,-9.589376199340819,2.4871266120910644
1788965159029131000,7.217131103515625,3.022380320739746,-9.526827680969237,2.4247277313232423
1788965159039159800,7.227159912109375,3.6960488128662106,-9.749338797760009,2.2656629585266113
1788965159049188900,7.23718896484375,3.4331355430603026,-9.967959336853026,2.3282114768981934
1788965159059217000,7.247216796875,2.9417256523132322,-9.902866979217528,2.4389433036804196
1788965159069245700,7.25724560546875,2.4889222633361814,-9.62753378829956,2.2987328689575195
1788965159079275000,7.26727490234375,2.1829133636474607,-9.176376412963867,2.2854151222229
1788965159089302800,7.277302734375,1.8870798210144042,-8.718934258270263,2.2252608055114744
1788965159099331800,7.287331787109375,1.8403928886413574,-8.207024015808106,2.2572832527160642
1788965159109361000,7.29736083984375,2.120813758087158,-8.029104904937745,2.344222700500488
1788965159119389000,7.307388916015625,2.553116795349121,-8.075043649291992,2.452261050415039
1788965159129418000,7.31741796875,2.830095999908447,-8.355015605926512,2.6487352241516113
1788965159139447000,7.327447021484375,2.972999911499023,-8.738686421966552,3.0952538337707516
1788965159149474800,7.337474853515625,3.1370027252197263,-8.879345769500732,3.4392706848144527
1788965159159504000,7.34750390625,3.324349005126953,-8.802132765960692,3.5275568710327145
1788965159169532700,7.35753271484375,3.380014193725586,-8.72087954711914,3.478775012207031
1788965159179561700,7.367561767578125,3.1664813331604003,-8.678532105255126,3.4573768348693847
1788965159189589800,7.37758984375,2.8434137466430665,-8.617031050109862,3.4862568923950192
1788965159199618800,7.387618896484375,2.6906337532043456,-8.396465222167969,3.493439497375488
1788965159209647900,7.39764794921875,2.7802666778564453,-8.173505192565917,3.4741362464904784
1788965159219676000,7.407676025390625,3.0743045692443847,-7.992742967224121,3.4879029060363766
1788965159229705000,7.417705078125,3.432088079833984,-7.9463553100585935,3.390937738800049
1788965159239734000,7.427734130859375,3.8001965850830075,-8.03778388595581,3.3219548034667965
1788965159249761800,7.43776171875,4.038270012664794,-8.07579183731079,3.1931168266296384
1788965159259790800,7.447790771484375,3.901501242828369,-8.19116242980957,2.7826608795166012
1788965159269820000,7.45781982421875,3.545214108276367,-8.466794895935058,2.3241712615966796
1788965159279848700,7.4678486328125,3.473836971282959,-8.627954595184326,1.8655320060729979
1788965159289877000,7.477876953125,3.4597710365295407,-8.610147720336913,1.6247651016235352
1788965159299905800,7.48790576171875,3.4888007316589356,-8.614337573242187,1.7776947326660155
1788965159309934800,7.497934814453125,3.522319554901123,-8.630049521636963,1.8070237030029295
1788965159319962600,7.507962646484375,3.4126351913452146,-8.533982180023193,1.8803461288452148
1788965159329992000,7.517991943359375,3.277811710357666,-8.479364454650879,1.9777602088928221
1788965159340021000,7.52802099609375,3.286041778564453,-8.355913431549071,1.9681834022521971
1788965159350048800,7.538048828125,3.5078047073364256,-8.232761683654784,2.2746412147521973
1788965159360077800,7.548077880859375,3.8744168365478515,-8.131457025909423,2.5368062965393063
1788965159370107000,7.55810693359375,4.151695316314697,-7.83367819442749,2.9129952323913573
1788965159380135000,7.568135009765625,4.463839357757568,-7.556698989868163,3.288585617828369
1788965159390164000,7.5781640625,4.44363828125,-7.069179676818847,3.920505218505859
1788965159400193000,7.588193115234375,4.683956272888183,-7.017105790710449,4.523245486450195
1788965159410221800,7.598221923828125,4.9157449211120605,-7.030722812652588,4.806359832763672
1788965159420249900,7.608249755859375,5.1788078285217285,-7.222109307861328,4.854692778778076
1788965159430278700,7.618278564453125,5.325901593017578,-7.247248425292969,4.893149642944335
1788965159440308000,7.628307861328125,5.316624061584473,-7.057657581329345,4.672883090209961
1788965159450335700,7.638335693359375,5.329193620300293,-6.752995420074463,4.257489102172851
1788965159460364800,7.64836474609375,5.825840827178955,-6.5224038726806635,3.708618371582031
1788965159470393900,7.658393798828125,6.169708040618896,-6.561908200073241,3.4392706848144527
1788965159480422000,7.668421875,5.999270809936523,-6.787711344146728,3.3391631278991696
1788965159490452000,7.678451904296875,5.947346561431885,-7.148786882019042,3.3738790519714352
1788965159500481000,7.68848095703125,6.044461366271972,-7.6647373397827145,3.4994250015258785
1788965159510509000,7.698509033203125,5.849782843780517,-8.311321425628662,3.642328913116455
1788965159520538000,7.7085380859375,5.678298149871826,-8.902539598083495,3.6355952209472653
1788965159530567200,7.718567138671875,5.723638343811035,-9.262418035125732,3.726574884033203
1788965159540596000,7.728595947265625,5.68862314453125,-9.23189196395874,3.8212954872131344
1788965159550624300,7.738624267578125,5.710320597076415,-8.926481614685057,3.794360718536377
1788965159560653000,7.748653076171875,5.3761798278808595,-8.52994196472168,3.1407436653137206
1788965159570682000,7.75868212890625,5.93717120437622,-8.236951536560058,2.6485855865478514
1788965159580710100,7.768710205078125,5.609464852142334,-8.155698317718505,2.3689129051208493
1788965159590739000,7.778739013671875,5.202151294708251,-8.3632456741333,2.295590479278564
1788965159600768000,7.78876806640625,5.332934560394286,-8.655338276672362,2.447173371887207
1788965159610796000,7.798796142578125,5.840056399536133,-8.799439289093018,2.6306290740966793
1788965159620825000,7.8088251953125,6.714538555908203,-8.679429930877685,2.8356325912475584
1788965159630854100,7.818854248046875,7.565976521301269,-8.303390632629394,3.0515596534729004
1788965159640883000,7.828883056640625,7.893832511138916,-7.800159371185302,3.201197257232666
1788965159650911000,7.838910888671875,7.583783396148681,-7.2617632728576655,3.4585739356994627
1788965159660940300,7.848940185546875,6.949319956207275,-6.936451122283935,4.015375459289551
1788965159670969000,7.858968994140625,6.189609841918945,-6.682665746307372,4.690091414642334
1788965159680997000,7.8689970703125,5.727678559112548,-6.480355706024169,5.165490081787109
1788965159691026000,7.87902587890625,5.468506229400634,-6.4861915725708,5.28011248626709
1788965159701055000,7.889054931640625,5.430199002838134,-6.490680700683593,5.138555313110351
1788965159711083300,7.899083251953125,5.660790550231933,-6.583156739807128,4.7375265350341795
1788965159721112000,7.909112060546875,5.761347019958496,-6.753893245697021,4.217086949157714
1788965159731141000,7.91914111328125,5.8862944190979,-6.7748425102233885,3.6189854469299316
1788965159741170200,7.929170166015625,5.943455983734131,-6.483647733306884,3.2134675407409667
1788965159751198000,7.939197998046875,5.8822542037963865,-6.128408061981201,3.0731074684143063
1788965159761227000,7.94922705078125,5.798756420898437,-5.842001688385009,3.142988229370117
1788965159771256000,7.959256103515625,5.832424881744385,-5.6474728034973145,3.414131567382812
1788965159781284000,7.9692841796875,5.855917985534668,-5.629067378234863,3.399616719818115
1788965159791313200,7.979313232421875,6.016928047180175,-5.596446380615234,3.5901053894042967
1788965159801342000,7.989342041015625,6.175992819976806,-5.444863488006591,3.8009447731018065
1788965159811370200,7.999370361328125,5.878213988494872,-5.051466227722168,4.247164107513427
1788965159821399000,8.00939892578125,5.5659203094482415,-4.693682717132568,4.790647884368896
1788965159831428000,8.019427978515624,5.571157625579834,-4.483142608642578,4.978293439483642
1788965159841456000,8.0294560546875,5.7703252761840815,-4.50738390045166,5.456834496307373
1788965159851485000,8.03948486328125,5.961562133789062,-4.947468093109131,5.391143588256836
1788965159861514000,8.049513916015625,6.016928047180175,-5.400121844482421,5.1696799346923825
1788965159871543300,8.059543212890626,6.173000067901611,-5.506065267944336,5.370493598937988
1788965159881571000,8.069571044921876,6.340743821716308,-5.4792801368713375,5.291784219360351
1788965159891600100,8.07960009765625,6.338499257659912,-5.468206954193115,4.8588826316833496
1788965159901629000,8.08962890625,6.124068571472168,-5.317372249603271,4.90946014175415
1788965159911657200,8.0996572265625,5.972186403656005,-5.073313317871094,5.154566536712646
1788965159921686300,8.109686279296875,6.298097104644775,-4.550180255126953,5.473144995117187
1788965159931715000,8.119715087890626,6.742969700622559,-4.255543813323975,6.357952146148682
1788965159941743000,8.1297431640625,6.475567302703857,-4.142118509674072,5.568763423919678
1788965159951772000,8.13977197265625,6.354510481262206,-3.8576574249267575,5.149778133392334
1788965159961801000,8.149801025390625,6.421697765350341,-3.0852281143188476,5.210680638122558
1788965159971830000,8.159830078125,6.779331638336181,-2.1239561477661133,5.308543630981445
1788965159981858000,8.169858154296875,7.1130234947204585,-1.214907704925537,5.665130040740967
1788965159991887000,8.17988720703125,7.021445281219482,-0.6832452987670898,5.575646753692626
1788965160001916200,8.189916259765624,6.848015298461914,-0.5309142181396485,4.6082396453857415
1788965160011944000,8.19994384765625,6.770802294921874,-0.39594109954833984,4.248061933135986
1788965160021973200,8.20997314453125,7.142053189849853,-0.3233668617248535,3.892522986602783
1788965160032002000,8.220001953125,7.733271362304687,-0.27084406280517576,4.780921440124511
1788965160042030000,8.230030029296875,8.232612046051026,-0.2979284690856933,4.893897830963135
1788965160052059100,8.24005908203125,8.435520636749267,-0.2867056488037109,4.5145665054321285
1788965160062088000,8.250087890625,8.525452836608887,-0.25213936233520506,4.41131655883789
1788965160072117000,8.260116943359375,9.036315615844726,-0.22101474075317382,4.051438121795654
1788965160082145000,8.27014501953125,9.263914411163329,-0.7653963432312011,3.9815573608398434
1788965160092174000,8.280174072265625,9.51919616317749,-1.0901099433898924,4.103960920715331
1788965160102203100,8.290203125,9.591920038604735,-1.017685343170166,4.471919788360595
1788965160112231000,8.30023095703125,9.72360112991333,-1.1167454368591307,4.6903906898498535
1788965160122260000,8.310260009765624,9.409062886810302,-1.2183493698120116,4.531026641845703
1788965160132289300,8.320289306640625,8.534880005645752,-1.5716437522888183,4.099621430206299
1788965160142317000,8.330317138671875,7.953986827850342,-1.7099088981628416,3.8863878448486324
1788965160152346000,8.34034619140625,8.19131206741333,-1.603666199493408,4.331260440826416
1788965160162375000,8.350375,8.830264635467529,-1.5901988151550293,4.271255761718749
1788965160172404000,8.360404052734374,9.510367544555663,-1.349581548309326,3.815160345458984
1788965160182432300,8.370432373046874,9.51964507598877,-1.426944189453125,3.294870397186279
1788965160192461000,8.3804609375,9.413103102111815,-1.3302782974243164,2.853289828491211
1788965160202490000,8.390489990234375,9.42312882156372,-0.493504817199707,3.4693478431701656
1788965160212518000,8.400517822265625,8.066963218688965,-0.3229179489135742,3.8016929611206054
1788965160222547000,8.410546875,7.921964380645751,-0.6787561706542968,2.9095535675048825
1788965160232576300,8.420576171875,8.871265338897704,-1.2445359504699707,2.1977274864196774
1788965160242604000,8.43060400390625,9.424176284790038,-1.758241844177246,2.776376100158691
1788965160252633000,8.440633056640625,9.117868109893799,-1.1783961296081542,3.771166889953613
1788965160262662100,8.450662109375,9.070133714294434,-0.11701660614013672,4.680963520812988
1788965160272691000,8.46069091796875,8.981248977661132,-0.18525135345458985,3.5345898384094236
1788965160282719200,8.47071923828125,9.109338766479492,-0.9286509689331054,3.169174810028076
1788965160292748000,8.480748046875,9.692925421142577,-1.6965911514282226,3.6004303840637206
1788965160302777000,8.490777099609375,9.252990866088867,-2.390909632873535,3.787776663970947
1788965160312805000,8.50080517578125,7.43130267791748,-2.413953823852539,2.9282582679748534
1788965160322834000,8.510833984375,6.1453171112060545,-1.754351266479492,2.8202199180603027
1788965160332863000,8.520863037109375,6.777984899902344,-1.1218331153869627,3.900154504394531
1788965160342891000,8.53089111328125,8.022221575164794,-0.9196727127075195,4.5213001976013185
1788965160352920000,8.540920166015624,8.596829973602295,-1.0386346076965332,4.262427143096923
1788965160362949000,8.55094921875,9.587730185699462,-1.4278420150756834,3.856609961700439
1788965160372978000,8.56097802734375,10.529399626159668,-1.729511424255371,4.096628678131103
1788965160383006200,8.571006103515625,10.70657054901123,-1.5990274337768553,4.1094975120544435
1788965160393035300,8.58103515625,11.208903984832762,-1.8272247795104979,3.414131567382812
1788965160403064000,8.59106396484375,11.811943527984619,-2.4666262603759765,3.503165941619873
1788965160413092000,8.601092041015624,12.153715814971923,-2.573617147064209,3.9290345619201656
1788965160423121000,8.611120849609375,12.333580214691162,-2.098368117523193,4.068796083831787
1788965160433150000,8.62114990234375,11.749095734405516,-1.884535981750488,3.4657565406799313
1788965160443178200,8.63117822265625,10.030358217620849,-1.8005892860412596,2.9191303741455075
1788965160453207000,8.64120703125,8.604910404205322,-0.8961796089172362,2.407519406890869
1788965160463236000,8.651236083984376,9.371054935455321,1.2369044326782226,2.0561703132629394
1788965160473265200,8.66126513671875,8.444798168182373,2.1734861946105957,0.9828197814941406
1788965160483293200,8.671293212890625,5.271732780456543,2.3630770385742186,0.7035960128784179
1788965160493321000,8.681321044921875,4.223671003723144,1.8785504776000976,1.3350667007446289
1788965160503350000,8.69135009765625,5.6866778556823725,1.2421417488098143,2.609979084777832
1788965160513377800,8.701377685546875,6.547692627716064,0.6416460449218749,3.106626291656494
1788965160523407000,8.711406982421876,7.531709510040283,-0.009576806640625,2.83458512802124
1788965160533436200,8.721436279296874,8.673294789123535,-0.5374982727050781,2.6446950088500976
1788965160543464000,8.7314638671875,9.019406566619873,-1.1997943069458008,2.3027730842590333
1788965160553493000,8.741492919921875,8.862586357879637,-1.6138415565490722,1.920449006652832
1788965160563522000,8.75152197265625,8.205677277374267,-1.7124527374267577,1.7335516395568846
1788965160573550800,8.76155078125,8.05693749923706,-1.7266683097839355,1.6147393821716307
1788965160583579100,8.7715791015625,8.10197841796875,-1.6392799491882324,1.5225626182556151
1788965160593608000,8.78160791015625,8.62541075592041,-1.1355997749328612,1.609502066040039
1788965160603637000,8.791636962890625,8.879794682312012,-1.0069114356994628,1.6964415138244628
1788965160613664800,8.801664794921875,8.513481828308105,-1.0091559997558592,1.6840215927124023
1788965160623693800,8.81169384765625,9.183409380340576,-1.042674822998047,1.9309236389160156
1788965160633723100,8.82172314453125,9.987112950134277,-1.3839981971740722,1.7947534194946289
1788965160643751000,8.8317509765625,8.897152644348145,-2.101809782409668,0.9355342987060546
1788965160653780000,8.841780029296874,7.562983769226074,-2.2010195137023922,0.7612064903259277
1788965160663809000,8.85180908203125,7.525275093078613,-1.6705542083740232,1.4335282440185546
1788965160673837800,8.861837890625,8.084470818328857,-1.6964415138244628,1.7161936775207518
1788965160683866000,8.8718662109375,8.68332050857544,-1.7658733619689941,1.4419079498291014
1788965160693895000,8.88189501953125,9.009680122375487,-1.9252374099731444,1.0848726272583007
1788965160703924000,8.891924072265626,9.228450299072264,-2.2659622337341307,0.9579799392700195
1788965160713952000,8.901951904296874,9.44901612701416,-2.731784094238281,1.3461398834228515
1788965160723980800,8.911980712890625,10.098443327331543,-3.4325369926452636,2.3603835617065427
1788965160734009900,8.922009765625,10.790367607116698,-4.3363481193542475,2.825008321380615
1788965160744039200,8.9320390625,10.204686026000976,-5.531054747772217,2.177676047515869
1788965160754067000,8.94206689453125,8.87440772857666,-6.442647029876708,1.350928286743164
1788965160764096000,8.952095947265626,8.550292678833006,-6.362441274261474,1.0940005210876464
1788965160774125000,8.962125,9.063250384521483,-5.519383014678954,1.156249764251709
1788965160784153000,8.972153076171875,9.204209007263183,-4.504690423583984,1.1737573638916015
1788965160794182100,8.98218212890625,8.523956460571288,-3.7823897102355954,0.8391676818847655
1788965160804211000,8.9922109375,7.987356013488769,-3.0080151107788082,0.7209539749145507
1788965160814239000,9.002239013671876,7.7605054061889645,-2.5641899780273434,0.5975029518127442
1788965160824267800,9.012267822265626,8.156296868133545,-2.3886650688171387,0.45070846252441404
1788965160834296800,9.022296875,8.062174815368651,-2.6562171043395995,0.787841983795166
1788965160844326100,9.032326171875,7.870040132141113,-2.975843025970459,1.011250926208496
1788965160854354000,9.04235400390625,8.074445098876952,-3.2734722198486326,1.2205939338684082
1788965160864383000,9.052383056640625,8.163629110717773,-3.829974468231201,1.6066589515686034
1788965160874412000,9.062412109375,8.6704516746521,-4.630834923553467,1.1348515869140625
1788965160884440000,9.072440185546874,9.375544063568114,-5.56038371810913,1.3962684806823729
1788965160894469000,9.08246923828125,9.62693523788452,-6.982090591430664,1.393724641418457
1788965160904498200,9.092498291015625,9.271396291351317,-8.372523205566406,1.4260463638305663
1788965160914526000,9.10252587890625,9.351153134155274,-9.008483021545409,1.4016554344177246
1788965160924555000,9.112554931640625,9.203610456848144,-9.325415466308593,1.236006607055664
1788965160934583800,9.122583740234376,9.000252953338622,-9.290400267028808,1.303642803955078
1788965160944612900,9.13261279296875,8.98229644088745,-9.08494783706665,1.0467150382995605
1788965160954641000,9.142640869140624,9.198073865509032,-8.445995269012451,1.0874164665222168
1788965160964670000,9.152669921875,9.147645993041992,-8.278999703216552,0.9642647186279296
1788965160974699000,9.162698974609375,8.602067289733887,-8.294262738800048,1.006163247680664
1788965160984726800,9.172726806640625,8.272864561462402,-8.00576143875122,1.0824784255981446
1788965160994756000,9.182756103515626,8.039130624389648,-7.377882053375243,1.1774983039855957
1788965161004785200,9.19278515625,7.695861961364746,-7.594856578826904,0.649277562713623
1788965161014814000,9.20281396484375,6.941987713623046,-7.535300812530517,0.8258499351501465
1788965161024842000,9.212842041015625,6.8697127510070795,-7.258770520782471,0.854879630279541
1788965161034870800,9.222870849609375,6.9430351768493646,-6.757334910583496,1.4737807594299315
1788965161044899800,9.23289990234375,7.137115148925781,-6.668599811553955,1.4923358222961425
1788965161054928100,9.24292822265625,6.9421373512268065,-7.426663912200928,1.4706383697509764
1788965161064957000,9.25295703125,6.6401686668396,-7.894431061553955,1.7621324218749999
1788965161074986000,9.262986083984375,6.471826362609863,-8.204929089355469,2.122759046936035
1788965161085013800,9.273013671875,6.324582960510254,-8.642918355560303,2.412607085418701
1788965161095042800,9.283042724609375,6.3901242309570305,-8.640673791503906,2.25997672958374
1788965161105072000,9.293072021484376,6.237942787933349,-8.256853337860107,2.568978381347656
1788965161115101200,9.30310107421875,6.370372067260742,-8.020425923919678,2.702604761505127
1788965161125129000,9.31312890625,6.71648384475708,-7.817367695617675,2.249202822113037
1788965161135158000,9.323157958984375,7.320421213531493,-7.781903583526611,1.664269429016113
1788965161145186800,9.333186767578125,7.854328183746337,-8.378807984924316,1.4591162742614745
1788965161155215000,9.343215087890625,7.678653636932372,-8.951920007324219,1.6915034729003906
1788965161165244000,9.353243896484376,7.379528067016601,-8.824728044128417,1.7868226264953613
1788965161175273000,9.36327294921875,6.886172887420654,-8.270919272613526,1.7642273483276367
1788965161185302000,9.373302001953125,6.315305429077148,-8.084321180725096,1.4417583122253417
1788965161195329800,9.383329833984375,5.716306101226806,-8.198793947601319,1.5001169776916503
1788965161205359000,9.393359130859375,5.210830275726318,-8.319252218627929,2.2848165718078612
1788965161215388200,9.40338818359375,4.852597852325439,-8.216002272033691,2.2662615089416502
1788965161225416000,9.413416015625,4.665251572418213,-8.07594147491455,1.7335516395568846
1788965161235445000,9.423445068359374,4.6261961578369135,-8.194304819488526,1.7829320487976072
1788965161245474000,9.43347412109375,4.806808745574951,-8.527398125457763,2.18979669342041
1788965161255502000,9.443502197265625,5.2347722923278805,-8.347982638549805,2.4358009140014647
1788965161265531100,9.45353125,5.227589687347412,-8.719383171081542,2.3150433677673337
1788965161275560000,9.463559814453125,5.120598800659179,-8.450484397125244,2.8944401695251463
1788965161285589000,9.473589111328126,5.286696540832519,-7.855674922180175,2.3395839347839353
1788965161295616800,9.48361669921875,5.197512528991699,-7.3748893013000485,1.912069300842285
1788965161305645800,9.493645751953125,5.156811100769042,-7.11885936126709,1.8344073844909667
1788965161315675100,9.503675048828125,5.006275671386718,-7.042993096160888,1.7268179473876952
1788965161325703000,9.513702880859375,4.9263691909790035,-6.9606924140930175,1.7440262718200683
1788965161335732000,9.52373193359375,4.900481885528564,-7.030124262237549,2.0159177978515626
1788965161345761000,9.533760986328126,4.855440966796874,-7.1395093505859375,2.1033061584472654
1788965161355789800,9.543789794921874,5.073762230682373,-7.1692872337341305,2.199523137664795
1788965161365818000,9.553818115234375,5.194070864105225,-7.363666481018066,2.6599580444335937
1788965161375847200,9.56384716796875,5.201103831481933,-7.952041539001464,3.085527389526367
1788965161385876000,9.5738759765625,5.702090528869628,-8.206425465393066,3.0256723480224608
1788965161395904000,9.583904052734376,6.487239035797119,-8.468291271972657,2.8482021499633787
1788965161405932800,9.593932861328126,7.1887401222229,-8.89999575881958,2.9855694702148434
1788965161415961900,9.6039619140625,7.729680059814453,-9.204358644866943,2.9918542495727536
1788965161425990000,9.613989990234375,7.781753945922851,-8.873060990142822,3.3634044197082518
1788965161436019000,9.62401904296875,7.614758380126952,-8.257751163482666,3.294870397186279
1788965161446048000,9.634048095703125,7.476642871856689,-8.496572779083252,1.882141780090332
1788965161456077000,9.6440771484375,7.839663698577881,-9.456946920013428,0.443076944732666
1788965161466105000,9.65410498046875,8.510788351440429,-8.769362130737305,1.1417349166870117
1788965161476134100,9.664134033203124,8.273313474273682,-7.249492989349365,2.5411457870483396
1788965161486163000,9.674162841796875,7.593659477996826,-6.72890376586914,2.7355250343322752
1788965161496191500,9.68419140625,6.8393363174438475,-6.660369743347167,2.664297534942627
1788965161506220500,9.694220458984375,6.196942084503173,-6.762422589111328,3.1268273681640624
1788965161516249300,9.704249267578126,5.941061782073974,-6.5571197967529296,3.2089784126281735
1788965161526277600,9.714277587890624,6.032041445159912,-6.011092180633544,2.0446482177734375
1788965161536306400,9.724306396484375,5.954978079223633,-5.626972451782226,0.642244595336914
1788965161546335500,9.73433544921875,5.7583542678833,-5.819705685424804,0.6156091018676757
1788965161556364500,9.744364501953125,5.917419040679931,-6.270863060760497,1.1894693122863769
1788965161566392300,9.754392333984375,6.196493171691894,-6.685359223175048,1.5734394035339354
1788965161576421400,9.76442138671875,6.344484761810302,-6.871508402252197,1.7983447219848632
1788965161586450700,9.77445068359375,6.6018614402771,-6.823175456237792,1.8257284034729002
1788965161596478500,9.784478515625,7.148487606811523,-6.649595835876465,0.9202712631225586
1788965161606507500,9.794507568359375,7.754819177246094,-6.558765810394287,0.21353286056518553
1788965161616536300,9.804536376953125,8.160935633850098,-6.589441519165039,0.254084651184082
1788965161626565400,9.8145654296875,8.353070317077636,-6.737882022094726,0.376039298248291
1788965161636593700,9.82459375,8.472481124877929,-6.6337342498779295,0.5871779571533203
1788965161646622500,9.83462255859375,8.55463216934204,-6.245723943328857,0.6733692169189452
1788965161656651500,9.844651611328125,8.694244053649902,-5.889436808776855,0.23178864822387693
1788965161666679300,9.85467919921875,8.543858261871337,-5.790975265502929,0.12000935821533203
1788965161676708400,9.864708251953125,8.240991751861571,-6.029796881103516,0.6476315490722656
1788965161686737700,9.874737548828126,8.161983097076416,-6.291513050079345,1.333121411895752
1788965161696766500,9.884766357421874,8.143876947021484,-6.284779357910156,1.6341922706604004
1788965161706794500,9.89479443359375,8.119934930419921,-6.255001474761962,1.332373223876953
1788965161716823600,9.904823486328125,8.154950129699706,-6.2487166954040525,0.8096890739440917
1788965161726852400,9.914852294921875,8.155997592926026,-6.152948628997803,0.6681319007873535
1788965161736880600,9.924880615234375,7.939172705078125,-6.029198330688476,1.0271125122070313
1788965161746909400,9.934909423828126,7.940519443511962,-5.807884314727783,1.607556777191162
1788965161756938500,9.9449384765625,8.2107649559021,-5.361964255523682,1.6240169136047362
1788965161766967600,9.954967529296875,8.819640365600586,-5.051017314910888,0.8934861320495605
1788965161776995300,9.964995361328125,9.483133500671386,-5.033060802459716,0.4091092086791992
1788965161787024400,9.9750244140625,9.777470667266845,-5.150376683807373,0.7378630241394043
1788965161797053700,9.9850537109375,9.60808089981079,-5.348347233581543,0.9901520240783691
1788965161807081500,9.99508154296875,9.107842390441894,-5.45877978515625,0.8071452346801757
1788965161817110500,10.005110595703124,8.725069400024413,-5.456684858703613,0.5163993705749511
1788965161827139300,10.015139404296875,8.756493296813964,-5.398475830841064,0.34715924072265625
1788965161837167600,10.025167724609375,9.000252953338622,-5.4041620597839355,0.64478843460083
1788965161847196700,10.03519677734375,9.138967012023926,-5.430947190856934,1.319055477142334
1788965161857225500,10.0452255859375,8.994267449188232,-5.387103372955322,1.659181750488281
1788965161867254500,10.055254638671874,8.732252005004883,-5.26065959777832,1.7913117546081543
1788965161877282300,10.0652822265625,8.239645013427733,-5.077802445983886,1.9500772521972656
1788965161887311400,10.075311279296875,7.997232095336914,-4.77553448638916,2.0178630867004395
1788965161897340400,10.08534033203125,8.061426627349853,-4.493467603302002,1.804779138946533
1788965161907368400,10.095368408203125,8.208670029449463,-4.334402830505371,1.5122376235961914
1788965161917397500,10.1053974609375,8.66431653289795,-4.263773881530762,1.480514451599121
1788965161927426600,10.115426513671874,8.92588306427002,-4.228758682250977,1.4095862274169921
1788965161937455400,10.125455322265625,8.980800064849854,-4.106055847167968,1.6497545814514158
1788965161947483600,10.135483642578125,8.75918677368164,-3.946691799163818,1.8975544532775879
1788965161957512400,10.145512451171875,8.805724068450926,-3.7790976829528806,1.7763479942321776
1788965161967541500,10.15554150390625,8.689605287933349,-3.558082942199707,1.7121534622192383
1788965161977569500,10.165569580078126,8.57498288345337,-3.291129457092285,1.7622820594787596
1788965161987598300,10.175598388671874,8.607154968261717,-3.133411422729492,1.9981109230041503
1788965161997627400,10.18562744140625,8.76607010345459,-3.177853791046142,2.330904953765869
1788965162007656400,10.195656494140625,8.852261363220215,-3.423259461212158,2.6487352241516113
1788965162017684500,10.2056845703125,8.665363996124267,-3.633500294494629,2.8553847549438474
1788965162027713500,10.215713623046875,8.59907453765869,-3.6846763549804686,2.882469161224365
1788965162037742300,10.225742431640626,8.74033243560791,-3.630657180023193,2.9282582679748534
1788965162047770600,10.2357705078125,8.86064106903076,-3.4479496658325193,3.0410850212097165
1788965162057799700,10.245799560546875,8.664915083312987,-3.173663938140869,3.0998925994873043
1788965162067828500,10.255828369140625,8.151358827209473,-3.2849943153381345,3.478026824188232
1788965162077856500,10.2658564453125,7.893832511138916,-3.0352491546630858,3.141791128540039
1788965162087885300,10.27588525390625,7.823203562164307,-2.6931775924682615,3.3446997192382812
1788965162097914400,10.285914306640626,8.125172246551513,-2.403628829193115,3.455880458831787
1788965162107943400,10.295943359375,8.633491186523438,-2.4378958404541016,4.23893403930664
1788965162117971500,10.305971435546875,9.366116894531249,-2.1143793411254883,3.9098809486389157
1788965162128000500,10.31600048828125,9.543287817382812,-1.9544167427062986,3.967790701293945
1788965162138029600,10.326029541015625,9.78629928588867,-1.5198691413879393,3.9817069984436033
1788965162148057300,10.336057373046875,9.76175871887207,-1.427542739868164,4.114734828186035
1788965162158086700,10.346086669921876,9.463082061767578,-1.974617819213867,3.8521208335876462
1788965162168115500,10.356115478515624,9.281571648406981,-2.3939023849487304,3.580678220367431
1788965162178144500,10.36614453125,9.053972853088379,-2.2035633529663086,3.9152679023742674
1788965162188172500,10.376172607421875,9.21917276763916,-1.6907552848815917,3.9674914260864256
1788965162198201300,10.386201416015625,9.002946430206299,-1.1317091972351074,3.671807521057129
1788965162208230400,10.39623046875,8.885929824066162,-0.44532150878906246,3.145083155822754
1788965162218258400,10.406258544921876,8.741679174041748,-0.5804442649841308,3.2715269309997557
1788965162228287500,10.41628759765625,8.147019336700438,-0.5472247169494628,2.2590789039611816
1788965162238316500,10.426316650390625,7.988702751922607,-0.1954267105102539,2.110039850616455
1788965162248345300,10.436345458984375,8.589647368621826,-0.20859481964111326,2.3708581939697266
1788965162258373400,10.446373291015625,8.304138820648193,-0.04474164352416992,2.2719477378845214
1788965162268402700,10.456402587890626,7.735815201568603,0.3094505645751953,2.039261264038086
1788965162278431500,10.466431396484374,8.014590057373047,0.25827450408935543,2.018162361907959
1788965162288459500,10.47645947265625,8.164227661132813,0.1183633445739746,2.088791310882568
1788965162298488300,10.48648828125,7.734767738342285,0.4107552223205566,2.2367829010009763
1788965162308517400,10.496517333984375,8.368931903076172,0.5737105728149414,2.3952491233825683
1788965162318546400,10.50654638671875,8.566154264831543,0.23732523956298826,2.228702470397949
1788965162328574500,10.516574462890626,8.154501216888427,0.2650081962585449,1.4710872825622558
1788965162338603500,10.526603515625,8.333467790985107,0.6183025787353515,0.9769839149475097
1788965162348632600,10.536632568359375,8.320000406646727,1.1454758567810057,0.6132149002075195
1788965162358660400,10.546660400390625,6.903979762268066,1.6259622024536131,0.41539398803710936
1788965162368689700,10.556689697265625,6.38413872680664,1.817647972869873,0.20979192047119138
1788965162378718500,10.566718505859376,7.658003647613525,1.4499883804321287,0.04848258361816406
1788965162388747500,10.57674755859375,8.482057931518554,0.5099649536132812,0.19213468322753904
1788965162398775600,10.586775634765624,8.636633576202392,0.17208324432373046,0.9720458740234375
1788965162408804400,10.596804443359375,8.717437882232666,1.122431665802002,2.307860762786865
1788965162418833400,10.60683349609375,9.289951354217528,1.4336778816223144,1.1288660827636718
1788965162428861400,10.616861328125,9.277381795501709,1.4450503395080565,-0.2680009483337402
1788965162438890500,10.626890380859376,7.992593329620361,1.3467384338378905,-0.8144774772644042
1788965162448919600,10.63691943359375,8.55508108215332,1.0524012672424317,0.505026912689209
1788965162458948400,10.6469482421875,10.2793551902771,0.8213608070373535,2.2123919715881346
1788965162468976400,10.656976318359375,11.809698963928222,0.2337339370727539,2.1091420249938966
1788965162479005700,10.667005615234375,11.048791748809814,-0.5666776054382324,0.9006687370300293
1788965162489034500,10.677034423828125,9.618405894470214,-0.936581761932373,0.4857236618041992
1788965162499062500,10.6870625,9.617956981658935,-0.8855553390502929,1.563563321685791
1788965162509091300,10.69709130859375,10.673201363372803,-1.3024457031249999,2.1534347557067868
1788965162519120400,10.707120361328125,11.730091758728026,-1.4354735328674315,2.306065111541748
1788965162529149400,10.7171494140625,11.805958023834227,-1.848174044036865,1.7782932830810545
1788965162539177500,10.727177490234375,10.918008483123778,-2.1829133636474607,1.5158289260864257
1788965162549206500,10.73720654296875,10.165630611419678,-2.0127754081726072,1.8752584503173828
1788965162559235300,10.7472353515625,9.820267021942138,-2.0151696098327636,2.063352918243408
1788965162569263400,10.757263427734374,9.095572106933593,-2.4238299057006834,1.5562310791015623
1788965162579292400,10.76729248046875,8.174702293395995,-2.1052514472961423,1.7009306419372558
1788965162589321500,10.777321533203125,7.969848413848877,-1.378311968231201,2.019359462738037
1788965162599350500,10.7873505859375,8.205976552581786,-1.1252747802734375,1.9809025985717772
1788965162609378300,10.79737841796875,7.845649202728271,-1.286434479522705,1.2988544006347655
1788965162619407400,10.807407470703126,7.175272737884521,-1.502211904144287,0.7133224571228027
1788965162629436400,10.8174365234375,7.220912207031249,-1.319654027557373,1.1960533668518065
1788965162639464400,10.82746435546875,7.9852610870361325,-1.356015965270996,1.601870548248291
1788965162649493500,10.837493408203125,8.39556739654541,-1.6500538566589356,1.518821678161621
1788965162659522600,10.8475224609375,8.071601984405516,-1.8885761970520019,1.4507365684509277
1788965162669550300,10.85755029296875,7.516745749664306,-1.9865888275146484,1.5113397979736327
1788965162679579400,10.867579345703126,7.236923430633545,-2.0958242782592773,1.4603133750915527
1788965162689608400,10.8776083984375,7.170035421752929,-2.3136966293334957,1.293467446899414
1788965162699637500,10.887637451171875,7.509563144683837,-2.639457692718506,1.3637971206665038
1788965162709665500,10.89766552734375,8.230367481994628,-2.972550998687744,1.7489643127441405
1788965162719694300,10.9076943359375,8.812158485412597,-3.4585739356994627,1.9927239692687988
1788965162729723400,10.917723388671876,8.974365647888183,-3.8789059646606443,2.056319950866699
1788965162739751400,10.92775146484375,8.838793978881835,-4.0800189041137696,1.7961001579284668
1788965162749780500,10.937780517578124,8.281842817687988,-4.159925384521484,1.267280866241455
1788965162759809500,10.9478095703125,7.926303871154785,-4.1760862457275385,0.9279027809143066
1788965162769838300,10.95783837890625,8.681674494934082,-4.065354418945312,0.8898948295593261
1788965162779866400,10.967866455078125,9.603591771697998,-4.071938473510742,1.2425906616210938
1788965162789895400,10.9778955078125,9.377489352416992,-4.613776236724854,1.7245733833312988
1788965162799924500,10.987924560546874,9.423877009582519,-5.077353533172607,1.7636287979125975
1788965162809952500,10.997952392578124,8.852261363220215,-5.308244355773925,1.8682254829406737
1788965162819981300,11.007981201171875,8.788216468811035,-5.67560467300415,2.02384859085083
1788965162830010400,11.01801025390625,9.215880740356445,-6.211307294464111,1.821538550567627
1788965162840039400,11.028039306640625,9.317634310913085,-6.828562409973144,1.899350104522705
1788965162850067500,11.0380673828125,8.697984993743896,-7.2641574745178215,2.112733327484131
1788965162860096500,11.048096435546874,8.084770093536376,-7.364564306640625,2.118120281219482
1788965162870125600,11.05812548828125,7.89742381362915,-7.0850412628173824,2.1856068405151365
1788965162880153300,11.0681533203125,7.975085729980468,-6.758232736206054,2.1561282325744626
1788965162890182400,11.078182373046875,8.391527181243896,-6.500107869720458,2.271648462677002
1788965162900211500,11.08821142578125,8.51632494277954,-6.592284633636474,2.4479215599060056
1788965162910240500,11.098240478515624,8.276605501556396,-7.0096239105224605,2.4006360771179196
1788965162920268500,11.1082685546875,7.681796026611328,-7.4491095527648925,2.20909994430542
1788965162930297300,11.11829736328125,6.88871672668457,-7.538293564605713,2.3822306518554686
1788965162940326400,11.128326416015625,6.413168421936035,-7.231985389709473,2.533813544464111
1788965162950354400,11.1383544921875,6.679523356628418,-6.617274113464355,2.6140193000793457
1788965162960383500,11.148383544921876,6.910114904022216,-6.224176128387451,2.8948890823364257
1788965162970412500,11.15841259765625,7.013963401031494,-6.395810459899902,3.0915128936767577
1788965162980441300,11.16844140625,7.085789450836181,-7.083095973968505,3.4105402648925778
1788965162990469400,11.178469482421875,7.0567597557067865,-7.799261545562744,3.7008372161865233
1788965163000498400,11.18849853515625,7.133523846435547,-8.303240995025634,3.8144121574401852
1788965163010527500,11.198527587890625,7.298424485778808,-8.311022150421142,3.5263597702026366
1788965163020555500,11.208555419921876,7.066635837554931,-7.779808657073974,2.8685528640747067
1788965163030584300,11.218584228515626,6.648249097442626,-6.97805037612915,2.524984925842285
1788965163040613400,11.22861328125,6.326228974151611,-6.387730029296875,2.769492770385742
1788965163050642400,11.238642333984375,6.484395921325683,-6.66530778427124,2.470217562866211
1788965163060670500,11.24867041015625,6.962637702941894,-7.135020222473144,2.7398645248413085
1788965163070699500,11.258699462890625,7.36127227935791,-7.983764710998535,2.9255647911071776
1788965163080728600,11.268728515625,7.504924378967285,-8.947281241607666,2.7117326553344725
1788965163090756400,11.27875634765625,7.218069092559814,-9.376441889190673,2.7769746505737305
1788965163100785400,11.288785400390625,6.874950067138672,-9.175628224945068,2.965518031311035
1788965163110814200,11.298814208984375,6.863278334045409,-8.780435313415527,3.0090625740051267
1788965163120843500,11.308843505859375,6.9713166839599605,-8.450484397125244,3.6605847007751464
1788965163130871600,11.31887158203125,7.066486199951171,-9.204957195281981,3.2000001564025875
1788965163140900400,11.328900390625,6.881983034515381,-9.533860648345946,3.244592162322998
1788965163150929400,11.338929443359374,6.634931350708007,-9.178321701812743,3.058592620849609
1788965163160958500,11.34895849609375,6.180631585693359,-8.558971659851073,2.3116017028808593
1788965163170986500,11.358986572265625,5.998522621917724,-7.879616938781738,1.7175404159545897
1788965163181015600,11.369015625,5.839158573913574,-7.223605683898925,1.4908394462585448
1788965163191044400,11.37904443359375,5.433790305328369,-6.831704799652099,1.6856676063537597
1788965163201072400,11.389072265625,4.952256496429443,-6.76765990524292,2.255786876678467
1788965163211101400,11.399101318359374,4.9163434715270995,-6.836942115783691,2.516904495239258
1788965163221130500,11.409130615234375,5.063137960815429,-6.965780092620849,2.5954642372131347
1788965163231158500,11.419158447265625,5.320963552093506,-7.06738402557373,2.833238389587402
1788965163241187300,11.429187255859375,5.427505525970458,-7.4971432235717765,2.6044424934387207
1788965163251216400,11.43921630859375,5.455936670684814,-7.7793597442626945,2.525134563446045
1788965163261245400,11.449245361328124,5.557690241241454,-7.640944960784911,2.573617147064209
1788965163271273500,11.4592734375,5.715408275604248,-7.592612014770507,2.286013672637939
1788965163281302500,11.469302490234375,5.896320138549805,-7.540388491058349,2.2685060729980466
1788965163291331600,11.47933154296875,6.018274785614014,-7.579144630432128,2.5374048469543458
1788965163301360400,11.4893603515625,6.073042148590088,-7.59740041809082,2.6479870361328124
1788965163311388400,11.499388427734376,6.220285550689697,-7.612663453674316,2.6324247253417967
1788965163321417200,11.509417236328124,6.617573388671874,-7.730877160644531,2.227505369567871
1788965163331446500,11.519446533203125,7.039701068878173,-7.895478524780273,2.052579010772705
1788965163341474600,11.529474609375,7.545925082397461,-8.175450481414794,2.4685715492248534
1788965163351503400,11.53950341796875,8.01144766769409,-8.681225582122803,3.0092122116088866
1788965163361532400,11.549532470703125,8.341398583984375,-9.124003251647949,3.36445188293457
1788965163371561500,11.5595615234375,8.2490721824646,-9.279476721954346,3.0151977157592773
1788965163381589500,11.569589599609374,7.915230688476562,-8.901791410064696,1.852064621734619
1788965163391618600,11.57961865234375,7.22689771118164,-8.207323291015625,0.7574655502319335
1788965163401647400,11.5896474609375,6.583755290222167,-7.11227530670166,0.6622960342407226
1788965163411675400,11.59967529296875,6.131101538848877,-5.546317783355713,1.0645219131469725
1788965163421704400,11.609704345703125,5.7602995567321775,-4.529530265808106,1.418714121246338
1788965163431733200,11.619733154296876,5.448903703308106,-4.683956272888183,1.9648913749694823
1788965163441762600,11.629762451171874,5.426158787536621,-5.482572164154052,2.761262702178955
1788965163451790300,11.639790283203125,5.869684645080566,-6.486939760589599,3.3162685745239258
1788965163461819400,11.6498193359375,6.624905631256103,-7.528866395568847,3.7798458709716796
1788965163471848400,11.659848388671875,7.320570851135254,-8.226626541900634,3.7002386657714843
1788965163481876500,11.66987646484375,7.85253253250122,-8.648903859710693,3.05814370803833
1788965163491905500,11.679905517578124,8.590096281433105,-8.903138148498535,2.629282335662842
1788965163501934600,11.6899345703125,9.039308367919922,-8.916904808044434,2.399887889099121
1788965163511963600,11.699963623046875,8.790461032867432,-8.69559079208374,1.8326117332458496
1788965163521991400,11.709991455078125,7.987356013488769,-8.065766117858887,1.3792097938537597
1788965163532020500,11.7200205078125,7.068431488800049,-6.912509105682372,1.2626421005249022
1788965163542049500,11.730049560546876,6.3521162796020505,-5.646874253082275,0.7230489013671875
1788965163552077600,11.74007763671875,5.862651677703857,-4.695029455566406,0.5098153160095215
1788965163562106600,11.750106689453125,5.683685103607178,-4.16890364074707,0.8512883277893066
1788965163572135400,11.760135498046875,6.0619689659118645,-4.068197533416748,1.5056535690307615
1788965163582164500,11.77016455078125,6.886771437835693,-4.372111506652832,1.5477017356872558
1788965163592192800,11.78019287109375,7.604433385467529,-5.135562561035156,1.5876549758911132
1788965163602221600,11.7902216796875,8.157942881774902,-6.068702658081055,1.8417396270751951
1788965163612250600,11.800250732421874,8.641870892333984,-6.825420020294189,2.045695680999756
1788965163622278400,11.8102783203125,8.887875112915038,-7.233032852935791,2.1260510742187497
1788965163632307500,11.820307373046875,8.768464305114746,-7.274632106781006,1.8617910659790038
1788965163642336500,11.83033642578125,8.624213655090331,-6.941239525604248,1.4065934753417968
1788965163652365600,11.840365478515626,8.622567641448974,-6.449530359649658,1.3416507553100585
1788965163662393600,11.8503935546875,8.796895449829101,-6.079177290344238,1.7335516395568846
1788965163672422700,11.860422607421874,8.819939640808105,-5.771073464202881,2.053177561187744
1788965163682451500,11.870451416015625,8.601768014526368,-5.508010556793213,1.886630908203125
1788965163692479500,11.8804794921875,8.401103987884522,-5.11356583328247,1.4826093780517577
1788965163702508500,11.890508544921875,8.577825997924805,-4.906467389678955,0.9012672874450683
1788965163712537600,11.90053759765625,9.02045402984619,-5.015852478027344,0.8034042945861816
1788965163722566700,11.910566650390624,9.399635717773437,-5.345953031921386,1.4226046989440917
1788965163732594400,11.920594482421874,9.924414794158935,-5.759850643920898,1.9624971733093262
1788965163742623500,11.93062353515625,10.06881508178711,-5.990891104125976,1.9024924942016601
1788965163752652500,11.940652587890625,9.8572275100708,-6.06511135559082,1.6189292350769042
1788965163762681600,11.950681640625,9.330952057647705,-5.843498064422607,1.3780126930236816
1788965163772709600,11.960709716796876,8.60655641784668,-5.4013189453125,1.0598831474304198
1788965163782738400,11.970738525390624,7.844003189086914,-4.742464575958252,1.0091559997558592
1788965163792767500,11.980767578125,7.484723302459717,-4.07971962890625,1.044470474243164
1788965163802795800,11.990795654296875,7.646631189727783,-3.5232173805236813,1.0446201118469238
1788965163812824600,12.000824462890625,8.180687797546387,-3.197755592346191,0.9955389778137207
1788965163822853600,12.010853515625,8.775197997283936,-3.0820857246398923,1.167622222137451
1788965163832882700,12.020882568359376,9.183259742736816,-3.0960020217895505,1.3218985916137695
1788965163842910500,12.030910400390624,9.222913707733154,-3.164236769104004,1.354669226837158
1788965163852939500,12.040939453125,9.121160137176513,-3.1057284660339355,1.0510545288085937
1788965163862968600,12.050968505859375,8.665962546539307,-2.8480525123596188,1.0637737251281738
1788965163872996600,12.06099658203125,8.565406076812744,-2.4625860450744628,1.1240776794433593
1788965163883025700,12.071025634765626,8.568847741699217,-2.2692542610168456,0.8907926551818847
1788965163893054500,12.081054443359376,8.776694373321533,-2.339883209991455,0.4305073860168457
1788965163903083500,12.09108349609375,8.86213744506836,-2.5450363647460934,0.5473743545532226
1788965163913111600,12.101111572265625,8.705017961120605,-2.7281927917480466,1.0529998176574706
1788965163923140600,12.111140625,8.432527884674071,-2.7295395301818846,1.6174328590393066
1788965163933169700,12.121169677734375,8.45242968597412,-2.396745499420166,2.3240216239929197
1788965163943197400,12.131197509765625,8.911817129516601,-2.253093399810791,2.4136545486450194
1788965163953226500,12.1412265625,9.076717768859863,-2.2981343185424805,2.5377041221618653
1788965163963255600,12.151255615234374,8.857498679351806,-2.213439434814453,2.535160282897949
1788965163973284600,12.16128466796875,8.303091357421874,-2.1152771667480468,2.832041288757324
1788965163983312600,12.171312744140625,7.9852610870361325,-2.052429373168945,3.305345029449463
1788965163993341700,12.181341796875,8.115296164703368,-1.931821464538574,3.3641526077270507
1788965164003370500,12.19137060546875,8.48490104598999,-1.8875287338256834,3.343053705596924
1788965164013398500,12.2013984375,8.628852420806885,-1.9731214431762694,3.2377088325500485
1788965164023427600,12.211427490234374,8.476970252990721,-2.0753239265441894,3.5016695655822754
1788965164033456600,12.22145654296875,8.560168760681151,-1.9505261650085448,3.6146459564208984
1788965164043485700,12.231485595703125,8.915707707214356,-1.7806874847412109,4.04171167755127
1788965164053513500,12.241513427734375,9.349058207702637,-1.792658493041992,3.923797245788574
1788965164063542500,12.25154248046875,9.271396291351317,-1.7308581626892088,3.5607764190673827
1788965164073571600,12.261571533203124,8.633042273712158,-1.7987936347961424,3.627365152740478
1788965164083600600,12.2716005859375,8.239645013427733,-1.7568951057434081,3.6553473846435547
1788965164093628700,12.281628662109375,8.407538404846191,-1.6074071395874023,3.261501211547851
1788965164103657500,12.291657470703125,8.030601280975342,-1.648557480621338,2.8562825805664063
1788965164113686500,12.3016865234375,8.011746942901611,-1.541716231536865,2.3364415451049805
1788965164123714600,12.311714599609376,7.678503999328613,-1.4309844047546385,1.9683330398559569
1788965164133743600,12.32174365234375,7.501033801269531,-1.1496657096862792,2.396296586608887
1788965164143772700,12.331772705078125,7.763947071075439,-0.7442974411010742,2.7817630538940428
1788965164153801700,12.3418017578125,7.895628162384033,-0.7018003616333007,2.5104700782775877
1788965164163829500,12.35182958984375,7.761852144622802,-0.9826701438903808,2.3220763351440428
1788965164173858600,12.361858642578126,7.466617152404785,-0.9121908325195311,2.3228245231628417
1788965164183887400,12.371887451171874,7.415740367126465,-0.719457598876953,2.3741502212524415
1788965164193915600,12.38191552734375,7.363965756225586,-0.5117606048583984,2.525733113861084
1788965164203944700,12.39194482421875,7.696759786987304,-0.38142625198364255,2.6596587692260742
1788965164213973500,12.401973388671875,8.38284820022583,-0.4966472068786621,2.653373989868164
1788965164224002600,12.41200244140625,8.960748625946044,-0.5707178207397461,2.9448680419921875
1788965164234030600,12.422030517578126,9.205555745697021,-0.609025047302246,3.2791584487915038
1788965164244059600,12.4320595703125,9.53176572189331,-0.725293465423584,3.393182302856445
1788965164254088700,12.442088623046875,10.079888264465332,-1.1420341918945311,3.0496143646240235
1788965164264116500,12.452116455078125,10.53478657989502,-1.6922516609191893,2.552368607330322
1788965164274145500,12.4621455078125,10.728268001556396,-2.2737433891296384,2.5089737022399903
1788965164284174600,12.472174560546875,10.932672968292236,-2.849249613189697,2.9248166030883787
1788965164294203400,12.482203369140626,11.27399634246826,-3.3487399345397946,3.5187282524108885
1788965164304231700,12.492231689453124,11.565789669799804,-3.8347628715515136,3.712209674072265
1788965164314260500,12.502260498046875,11.588983498382568,-4.255244538116455,3.7484219741821287
1788965164324289500,12.51228955078125,11.220874993133544,-4.211251082611084,3.71550170135498
1788965164334318600,12.522318603515625,10.7513121925354,-3.8126165061950683,3.0181904678344726
1788965164344346600,12.5323466796875,10.378864196777343,-3.4383728591918943,2.2029648025512696
1788965164354375700,12.542375732421876,10.086173043823242,-3.2386066581726074,1.4884452445983887
1788965164364404700,12.55240478515625,9.803058697509766,-3.014898440551758,1.3370119895935058
1788965164374432500,12.5624326171875,9.46173532333374,-2.6511294258117672,1.5248071823120117
1788965164384461600,12.572461669921875,9.153781134796143,-2.244115143585205,1.5316905120849609
1788965164394490400,12.582490478515625,8.935010958099365,-2.005892078399658,1.537975291442871
1788965164404519700,12.592519775390626,8.777442561340331,-1.642123063659668,1.9840449882507323
1788965164414547700,12.602547607421876,8.627206407165527,-1.4450503395080565,2.1320365783691404
1788965164424576500,12.612576416015624,8.56824919128418,-1.3760674041748047,2.2978350433349606
1788965164434605600,12.62260546875,8.390030805206298,-1.2797007873535156,2.4993968955993653
1788965164444633600,12.632633544921875,8.158391794586182,-1.2280758140563963,2.1883003173828124
1788965164454662700,12.64266259765625,7.975385005187988,-1.237203707885742,1.802983487701416
1788965164464691700,12.652691650390626,7.924358582305908,-1.1626841812133788,2.2123919715881346
1788965164474720500,12.662720458984374,8.164526936340332,-1.140837091064453,2.795529713439941
1788965164484748500,12.67274853515625,8.517821318817138,-1.1201871017456053,3.24967984085083
1788965164494777600,12.682777587890625,8.756642934417725,-1.0383353324890137,3.538181140899658
1788965164504806700,12.692806640625,8.735244757080078,-0.996586441040039,3.23696064453125
1788965164514834700,12.702834716796875,8.623914379882812,-0.8430582595825195,2.523039636993408
1788965164524863700,12.71286376953125,8.571241943359375,-0.8539818046569824,1.9473837753295897
1788965164534892800,12.722892822265624,8.566902452850341,-1.0779892974853515,1.6813281158447264
1788965164544921600,12.732921630859375,8.887725475311278,-1.188122573852539,1.9975123725891113
1788965164554950000,12.742949951171875,9.196876764678954,-1.1528080993652343,2.2782325172424316
1788965164564978700,12.752978759765625,9.324966553497314,-0.9201216255187987,2.5790041007995606
1788965164575007700,12.7630078125,9.40457375869751,-0.6985083343505859,2.6316765373229978
1788965164585036800,12.773036865234374,9.584138883209228,-0.49455228042602534,2.505083124542236
1788965164595064600,12.783064697265624,9.789441675567627,-0.5978022270202636,1.7835305992126465
1788965164605093600,12.79309375,9.722553666687011,-0.9177274238586425,1.2624924629211425
1788965164615122700,12.803122802734375,9.708038819122313,-1.285087741088867,1.556380716705322
1788965164625150700,12.813150634765625,10.01733974609375,-1.5578770927429197,2.7913398605346678
1788965164635179800,12.8231796875,10.377367820739746,-1.9355624046325683,3.7466263229370114
1788965164645208600,12.83320849609375,10.92339543685913,-2.3210288719177243,4.4479777717590325
1788965164655237600,12.843237548828125,11.221623181152344,-2.4829367591857907,4.433163648986816
1788965164665266000,12.853265869140625,11.240926432037353,-2.7748797241210936,3.3164182121276853
1788965164675294700,12.863294677734375,10.92294652404785,-3.1943139274597168,2.417545126342773
1788965164685323800,12.87332373046875,10.359261670684814,-3.597138356781006,2.436698739624023
1788965164695351600,12.8833515625,9.992948816680908,-3.980809172821045,2.644395733642578
1788965164705380600,12.893380615234374,9.961824195098876,-3.9803602600097654,3.0728081932067868
1788965164715409700,12.90340966796875,9.928604647064208,-3.4706945816040036,3.4256536628723144
1788965164725438700,12.913438720703125,9.89613328704834,-2.836081504058838,3.1229367904663086
