time,seconds_elapsed,z,y,x
1788965151878071600,0.066071533203125,0.0752422958612442,-0.5000614523887634,-0.11030111461877823
1788965151888100600,0.0761005859375,0.07518741488456726,-0.5967677235603333,0.002644145395606756
1788965151898128400,0.08612841796875,0.05333324894309044,-0.6624093055725098,0.13283783197402954
1788965151908157700,0.09615771484375,0.007855800911784172,-0.694061279296875,0.24897928535938263
1788965151918185500,0.106185546875,-0.04118790850043297,-0.7093867063522339,0.3278783857822418
1788965151928214500,0.116214599609375,-0.0894361212849617,-0.7078683972358704,0.3498299717903137
1788965151938243600,0.12624365234375,-0.13759832084178925,-0.6799986958503723,0.31154385209083557
1788965151948271600,0.136271728515625,-0.19328689575195312,-0.641538679599762,0.22580765187740326
1788965151958300700,0.14630078125,-0.25786110758781433,-0.6092478632926941,0.10831830650568008
1788965151968328400,0.156328369140625,-0.32667332887649536,-0.5789123177528381,-0.005271372385323048
1788965151978357500,0.166357421875,-0.3826891779899597,-0.5510460734367371,-0.09047575294971466
1788965151988386600,0.176386474609375,-0.40935543179512024,-0.533936619758606,-0.12976233661174774
1788965151998414600,0.18641455078125,-0.42321187257766724,-0.5099828243255615,-0.12032915651798248
1788965152008443600,0.196443603515625,-0.4348478615283966,-0.4720170199871063,-0.07248100638389587
1788965152018471400,0.206471435546875,-0.4447806477546692,-0.4381416141986847,0.0008025225251913071
1788965152028500500,0.21650048828125,-0.45010271668434143,-0.4027353823184967,0.10186044871807098
1788965152038529500,0.226529541015625,-0.45057541131973267,-0.32528799772262573,0.21138322353363037
1788965152048557600,0.2365576171875,-0.4422653019428253,-0.2561373710632324,0.30259618163108826
1788965152058586600,0.246586669921875,-0.424699068069458,-0.22980906069278717,0.3519144654273987
1788965152068614400,0.256614501953125,-0.4011569023132324,-0.23416545987129211,0.34956106543540955
1788965152078643500,0.2666435546875,-0.3819568455219269,-0.256879061460495,0.3059888184070587
1788965152088672500,0.276672607421875,-0.3719809949398041,-0.29876938462257385,0.23441068828105927
1788965152098700500,0.286700439453125,-0.36676013469696045,-0.32833898067474365,0.15771351754665375
1788965152108729600,0.2967294921875,-0.36023423075675964,-0.32077455520629883,0.08368387818336487
1788965152118757400,0.30675732421875,-0.3372887074947357,-0.3059372901916504,0.00910684373229742
1788965152128786700,0.31678662109375,-0.3387596905231476,-0.37990444898605347,-0.07245035469532013
1788965152138815700,0.326815673828125,-0.35814961791038513,-0.4418274760246277,-0.12400144338607788
1788965152148843500,0.336843505859375,-0.37346145510673523,-0.4397406280040741,-0.1389159858226776
1788965152158872600,0.34687255859375,-0.3850935995578766,-0.3924660384654999,-0.10889256745576859
1788965152168900600,0.356900634765625,-0.3920254409313202,-0.3354268968105316,-0.0638078972697258
1788965152178929700,0.3669296875,-0.3871989846229553,-0.2996411919593811,-0.0324782058596611
1788965152188958700,0.376958740234375,-0.36784234642982483,-0.29580071568489075,-0.01662304997444153
1788965152198986500,0.386986572265625,-0.3374024033546448,-0.28814756870269775,-0.01049511507153511
1788965152209015600,0.397015625,-0.2956054210662842,-0.2730083167552948,-0.02180556207895279
1788965152219043600,0.407043701171875,-0.25663459300994873,-0.27001890540122986,-0.044515181332826614
1788965152229072600,0.41707275390625,-0.21657304465770721,-0.2451496124267578,-0.06409554928541183
1788965152239101700,0.427101806640625,-0.17844589054584503,-0.18556883931159973,-0.07877915352582932
1788965152249129500,0.43712939453125,-0.1432577222585678,-0.10424131900072098,-0.0721951499581337
1788965152259158500,0.447158447265625,-0.11652172356843948,-0.021988263353705406,-0.0379980243742466
1788965152269186600,0.4571865234375,-0.09402859956026077,0.08588697016239166,0.0276779904961586
1788965152279215600,0.467215576171875,-0.0651085302233696,0.2312108725309372,0.12166041135787964
1788965152289244700,0.47724462890625,-0.03265686705708504,0.3622347116470337,0.21718433499336243
1788965152299272400,0.4872724609375,-0.014666151255369186,0.46399250626564026,0.2731727659702301
1788965152309301500,0.497301513671875,0.030834214761853218,0.6209968328475952,0.2747083604335785
1788965152319329500,0.50732958984375,0.11969617754220963,0.884103000164032,0.21522852778434753
1788965152329358600,0.517358642578125,0.2058383971452713,1.2033095359802246,0.12300561368465424
1788965152339387600,0.5273876953125,0.2553950250148773,1.4710570573806763,0.027748607099056244
1788965152349415400,0.53741552734375,0.2589229345321655,1.5644489526748657,-0.05011265352368355
1788965152359444700,0.54744482421875,0.24071036279201508,1.594996452331543,-0.09587028622627258
1788965152369472500,0.557472412109375,0.23674742877483368,1.6913270950317383,-0.11414827406406403
1788965152379501600,0.56750146484375,0.2603318393230438,1.9020297527313232,-0.13322795927524567
1788965152389530600,0.577530517578125,0.33060020208358765,2.2383127212524414,-0.17546498775482178
1788965152399558700,0.58755859375,0.45050767064094543,2.617074728012085,-0.26021263003349304
1788965152409587700,0.597587646484375,0.5946727395057678,2.904374837875366,-0.4045341908931732
1788965152419615500,0.607615478515625,0.5839537978172302,3.0540077686309814,-0.6245748996734619
1788965152429644500,0.61764453125,0.2666066586971283,2.9827940464019775,-0.8082187175750732
1788965152439673600,0.627673583984375,-0.03776174038648605,2.7200207710266113,-0.8968247175216675
1788965152449701600,0.63770166015625,-0.20931141078472137,2.3360471725463867,-0.8172332048416138
1788965152459730700,0.647730712890625,-0.19421234726905823,2.197067975997925,-0.6465485095977783
1788965152469759500,0.657759521484375,-0.02114841341972351,1.9459086656570435,-0.5703006982803345
1788965152479787500,0.66778759765625,0.1669171005487442,1.5615506172180176,-0.6399703025817871
1788965152489815800,0.67781591796875,0.2497861385345459,1.3451228141784668,-0.7162888050079346
1788965152499843800,0.68784375,0.2131575644016266,1.3000472784042358,-0.7308797240257263
1788965152509873000,0.697872802734375,0.12961313128471375,1.1410292387008667,-0.6748765707015991
1788965152519901700,0.707901611328125,0.07918137311935425,0.6586751341819763,-0.5333050489425659
1788965152529930000,0.717929931640625,0.04085223004221916,0.0846831426024437,-0.3292270600795746
1788965152539958800,0.727958740234375,-0.011606714688241482,-0.39634180068969727,-0.1096813902258873
1788965152549986800,0.73798681640625,-0.08968351781368256,-0.6740559935569763,0.028997058048844337
1788965152560016000,0.748015869140625,-0.15712249279022217,-0.713167667388916,0.027602359652519226
1788965152570044700,0.758044677734375,-0.1683860719203949,-0.5258998274803162,-0.0963115245103836
1788965152580073000,0.768072998046875,-0.10685613751411438,-0.13798433542251587,-0.2891150414943695
1788965152590101800,0.778101806640625,0.0016117752529680729,0.36284875869750977,-0.45264095067977905
1788965152600129800,0.7881298828125,0.11358465254306793,0.8529462814331055,-0.5094680190086365
1788965152610158800,0.798158935546875,0.17528261244297028,1.245369553565979,-0.46582964062690735
1788965152620187600,0.808187744140625,0.19886942207813263,1.4457441568374634,-0.4011848568916321
1788965152630216000,0.8182158203125,0.19053134322166443,1.4501936435699463,-0.3903826177120209
1788965152640244700,0.82824462890625,0.10868628323078156,1.2986812591552734,-0.46394339203834534
1788965152650273800,0.838273681640625,-0.04391590505838394,1.1222845315933228,-0.5906118154525757
1788965152660301800,0.8483017578125,-0.13455712795257568,1.1631289720535278,-0.7073802351951599
1788965152670331000,0.858330810546875,-0.162135511636734,1.4874595403671265,-0.7670730948448181
1788965152680359000,0.86835888671875,-0.1341688483953476,2.137044668197632,-0.7414028644561768
1788965152690387700,0.8783876953125,-0.08481356501579285,3.065828800201416,-0.6736525893211365
1788965152700416800,0.888416748046875,-0.15054036676883698,3.9639053344726562,-0.6220999360084534
1788965152710444800,0.89844482421875,-0.3267001807689667,4.627856731414795,-0.6252304911613464
1788965152720473900,0.908473876953125,-0.46430039405822754,4.297935485839844,-0.48449552059173584
1788965152730502000,0.918501953125,-0.7187591791152954,3.4687509536743164,0.06340637058019638
1788965152740530700,0.92853076171875,-0.6061689853668213,1.1114506721496582,1.1773520708084106
1788965152750559700,0.938559814453125,-0.1419062465429306,0.2807792127132416,1.3193023204803467
1788965152760588000,0.948588134765625,0.3754149079322815,0.09219466149806976,0.6253363490104675
1788965152770616800,0.958616943359375,0.8662733435630798,-0.8814195990562439,0.2632465362548828
1788965152780644900,0.968644775390625,1.1426490545272827,-2.5483133792877197,0.04376611486077309
1788965152790673700,0.978673583984375,1.3033636808395386,-3.5808916091918945,-0.4180906116962433
1788965152800702700,0.98870263671875,1.498439908027649,-3.874236583709717,-0.7846074104309082
1788965152810731000,0.99873095703125,1.7512446641921997,-4.258559226989746,-0.7012882232666016
1788965152820759800,1.008759765625,1.9420825242996216,-4.618978977203369,-0.212294802069664
1788965152830787800,1.018787841796875,1.996290683746338,-4.775837421417236,0.39218562841415405
1788965152840816600,1.028816650390625,1.8923709392547607,-4.916557788848877,1.0148953199386597
1788965152850845700,1.038845703125,1.6681616306304932,-5.117800712585449,1.658788800239563
1788965152860873700,1.048873779296875,1.472578525543213,-4.942971706390381,2.0532238483428955
1788965152870902800,1.05890283203125,1.3271342515945435,-4.170276641845703,2.0041511058807373
1788965152880931800,1.068931884765625,1.1622097492218018,-3.0475659370422363,1.6313332319259644
1788965152890959600,1.078959716796875,0.9709339141845703,-1.7712385654449463,1.1165688037872314
1788965152900989000,1.088989013671875,0.7684652209281921,-0.4745875597000122,0.6247057318687439
1788965152911016700,1.0990166015625,0.5363692045211792,0.6432904601097107,0.28235578536987305
1788965152921045800,1.109045654296875,0.29822665452957153,1.400141954421997,0.15652994811534882
1788965152931074800,1.11907470703125,0.1526925265789032,1.6930326223373413,0.30753862857818604
1788965152941102800,1.129102783203125,0.09735602885484695,1.7804328203201294,0.5720664262771606
1788965152951132000,1.1391318359375,0.14041851460933685,1.5881291627883911,0.7685460448265076
1788965152961159700,1.14915966796875,0.20196683704853058,1.2608370780944824,0.7994815707206726
1788965152971188700,1.159188720703125,0.3294730484485626,0.8922310471534729,0.6032208800315857
1788965152981217800,1.1692177734375,0.5449494123458862,0.7837050557136536,0.14413101971149445
1788965152991245800,1.179245849609375,0.8017270565032959,0.6003949642181396,-0.3973683714866638
1788965153001275000,1.18927490234375,0.8751879930496216,0.5559044480323792,-0.7870416045188904
1788965153011304000,1.199303955078125,0.5630900263786316,0.3564177453517914,-1.1155492067337036
1788965153021331700,1.209331787109375,0.293519526720047,0.07567369192838669,-1.2415739297866821
1788965153031360800,1.21936083984375,-0.05946008488535881,-0.04788072407245636,-0.9602994322776794
1788965153041388800,1.229388916015625,-0.44488048553466797,0.0056837014853954315,-0.4944864511489868
1788965153051417900,1.23941796875,-0.8862387537956238,0.20967260003089905,-0.09268327057361603
1788965153061447000,1.249447021484375,-1.342692494392395,0.6101986765861511,0.08889451622962952
1788965153071474700,1.259474609375,-1.6662144660949707,1.3524333238601685,0.008860116824507713
1788965153081503700,1.269503662109375,-1.7613656520843506,2.186955451965332,-0.05760625749826431
1788965153091531800,1.27953173828125,-1.7296735048294067,2.897548198699951,0.05747391656041145
1788965153101560800,1.289560791015625,-1.7585954666137695,3.344132661819458,0.05967368930578232
1788965153111590000,1.29958984375,-1.886976957321167,3.706293821334839,-0.3917730450630188
1788965153121618000,1.309617919921875,-1.9680019617080688,4.182043552398682,-0.9799731969833374
1788965153131647000,1.31964697265625,-2.0220439434051514,4.6341681480407715,-1.520663857460022
1788965153141674800,1.3296748046875,-2.114191770553589,5.167916774749756,-1.9015222787857056
1788965153151703800,1.339703857421875,-2.2214255332946777,5.336440086364746,-2.2199177742004395
1788965153161732900,1.34973291015625,-2.409806489944458,5.147309303283691,-2.5231308937072754
1788965153171761000,1.359760986328125,-2.6621592044830322,4.926046371459961,-2.77237606048584
1788965153181790000,1.3697900390625,-2.8762030601501465,4.612642288208008,-3.0492734909057617
1788965153191818800,1.37981884765625,-3.052086114883423,4.3495073318481445,-3.36617112159729
1788965153201846800,1.3898466796875,-3.254586935043335,4.381866931915283,-3.649972438812256
1788965153211875800,1.399875732421875,-3.5338172912597656,4.842427730560303,-4.082607746124268
1788965153221904000,1.40990380859375,-4.015515327453613,5.154487133026123,-4.657073020935059
1788965153231933000,1.419932861328125,-4.4292497634887695,4.893855571746826,-4.965084552764893
1788965153241961700,1.429961669921875,-4.551268100738525,4.463220119476318,-4.61478328704834
1788965153251989800,1.43998974609375,-4.232926368713379,4.246394634246826,-3.7687225341796875
1788965153262018800,1.450018798828125,-3.6612329483032227,3.8569962978363037,-2.7950518131256104
1788965153272046800,1.460046875,-3.35426926612854,2.8532817363739014,-1.8510879278182983
1788965153282076000,1.470075927734375,-3.0718417167663574,1.8324373960494995,-1.0216481685638428
1788965153292104700,1.480104736328125,-2.6400866508483887,1.1279783248901367,-0.3091477155685425
1788965153302132700,1.4901328125,-2.547694206237793,0.6674043536186218,0.10461511462926865
1788965153312162000,1.500162109375,-2.753300189971924,0.49448513984680176,0.3608340620994568
1788965153322190800,1.51019091796875,-3.1439032554626465,0.24326010048389435,0.49252229928970337
1788965153332219000,1.520218994140625,-3.6155707836151123,0.01543961651623249,0.5602219700813293
1788965153342247700,1.53024755859375,-4.121012210845947,-0.14954587817192078,0.5812811851501465
1788965153352276000,1.54027587890625,-4.589985370635986,-0.0642341896891594,0.5571362376213074
1788965153362305000,1.550304931640625,-4.93418025970459,0.1265687793493271,0.3633803427219391
1788965153372333800,1.560333740234375,-4.9009222984313965,0.37788936495780945,0.09997984766960144
1788965153382361900,1.57036181640625,-4.8580498695373535,0.32596704363822937,-0.06424957513809204
1788965153392390700,1.580390625,-4.90766716003418,0.024233423173427582,-0.4119846820831299
1788965153402419700,1.590419677734375,-4.668772220611572,-0.40055543184280396,-1.1723618507385254
1788965153412448000,1.600447998046875,-4.327785491943359,-0.8178485035896301,-1.95786714553833
1788965153422476800,1.610476806640625,-3.987419366836548,-1.165711760520935,-2.615985155105591
1788965153432504800,1.6205048828125,-3.411773681640625,-1.5147278308868408,-3.0496866703033447
1788965153442533600,1.63053369140625,-2.7101919651031494,-1.9701600074768066,-3.2955222129821777
1788965153452562700,1.640562744140625,-2.163043975830078,-2.3717434406280518,-3.5040431022644043
1788965153462591000,1.650591064453125,-1.8700631856918335,-2.546928882598877,-3.7436342239379883
1788965153472619800,1.660619873046875,-1.5864719152450562,-2.562891960144043,-3.9439613819122314
1788965153482648800,1.67064892578125,-0.9053641557693481,-2.727651357650757,-3.991645336151123
1788965153492676900,1.6806767578125,0.1438504010438919,-3.0277791023254395,-3.8183815479278564
1788965153502706200,1.6907060546875,1.2217069864273071,-3.2358999252319336,-3.5006003379821777
1788965153512734200,1.700734130859375,2.187544822692871,-2.864201545715332,-2.6351494789123535
1788965153522763000,1.710762939453125,2.850295066833496,-1.6346378326416016,-0.3862643539905548
1788965153532792000,1.7207919921875,2.772658109664917,-0.7043301463127136,0.6476589441299438
1788965153542820000,1.730820068359375,2.5136420726776123,0.029994413256645203,0.6179945468902588
1788965153552849200,1.74084912109375,2.343595266342163,0.6061103343963623,0.8617291450500488
1788965153562878200,1.750878173828125,2.2702956199645996,0.8081238865852356,1.369177222251892
1788965153572906000,1.760906005859375,2.193784713745117,0.6251153945922852,1.5218331813812256
1788965153582935000,1.77093505859375,1.861807942390442,0.6120765805244446,1.4254142045974731
1788965153592963000,1.780963134765625,2.6062607765197754,1.0916855335235596,1.3799084424972534
1788965153602992000,1.7909921875,2.925563097000122,1.154312252998352,1.0294334888458252
1788965153613021200,1.801021240234375,3.3523173332214355,1.3455618619918823,0.3073885440826416
1788965153623049000,1.811049072265625,3.663261651992798,1.7549519538879395,-0.4262010157108307
1788965153633078000,1.821078125,4.6373090744018555,1.9799779653549194,-0.6232713460922241
1788965153652508000,1.8405078125,5.319689750671387,2.0450289249420166,-0.08253379166126251
1788965153662536200,1.8505361328125,3.18625545501709,2.2335429191589355,-0.7007203102111816
1788965153672565000,1.86056494140625,1.0495421886444092,1.7225435972213745,-1.2380107641220093
1788965153682594000,1.870593994140625,0.47914987802505493,-0.09806494414806366,-1.3794147968292236
1788965153692621800,1.880621826171875,0.4392000734806061,-1.2731643915176392,-0.6118291020393372
1788965153702651100,1.890651123046875,0.5978025197982788,-1.9563802480697632,0.2421036660671234
1788965153712680200,1.90068017578125,0.5699688792228699,-2.375148057937622,0.952445387840271
1788965153722708000,1.9107080078125,0.43834584951400757,-2.4663641452789307,1.5688172578811646
1788965153732737000,1.920737060546875,-0.04200224205851555,-2.3251705169677734,2.087054491043091
1788965153742765000,1.93076513671875,-0.7443734407424927,-2.031909704208374,2.531343698501587
1788965153752794000,1.940794189453125,-1.5892601013183594,-2.6029436588287354,3.0955092906951904
1788965153762823200,1.9508232421875,-1.7318569421768188,-2.4262993335723877,2.9730587005615234
1788965153772851000,1.960850830078125,-1.3724355697631836,-1.2777259349822998,2.264832019805908
1788965153782880000,1.9708798828125,-1.7537288665771484,-0.9387233257293701,1.7719608545303345
1788965153792909000,1.980908935546875,-1.9265638589859009,-1.6585651636123657,1.6813210248947144
1788965153802937000,1.99093701171875,-0.7116039395332336,-1.6122511625289917,1.7695839405059814
1788965153812966100,2.000966064453125,0.5631099939346313,0.35666623711586,1.3284815549850464
1788965153822994000,2.010993896484375,0.646067202091217,1.603309154510498,0.8394474983215332
1788965153833023000,2.02102294921875,0.3518339991569519,1.7284713983535767,1.2302857637405396
1788965153843052000,2.031052001953125,0.25920501351356506,0.7516343593597412,1.5323045253753662
1788965153853080000,2.041080078125,0.37577396631240845,-0.1193370446562767,1.4555106163024902
1788965153863109000,2.051109130859375,0.6552489995956421,-0.7304861545562744,1.4666894674301147
1788965153873138000,2.061137939453125,0.7746698260307312,-1.2206066846847534,1.640740156173706
1788965153883166000,2.071166015625,0.701692521572113,-1.0200282335281372,1.762905240058899
1788965153893195300,2.0811953125,0.3714221119880676,-0.26905372738838196,1.8717947006225586
1788965153903224000,2.09122412109375,-0.0728946402668953,1.2004919052124023,1.6533148288726807
1788965153913252000,2.101252197265625,0.06625580787658691,1.0535041093826294,0.34382164478302
1788965153923281000,2.111281005859375,0.10845492780208588,0.3289436995983124,-0.6429309248924255
1788965153933309200,2.12130908203125,-0.02877834066748619,1.3621602058410645,-1.0603498220443726
1788965153943338200,2.131338134765625,-0.5147362947463989,-0.472023606300354,-1.9756958484649658
1788965153953367000,2.141366943359375,-0.40619340538978577,0.5849277973175049,-2.848501682281494
1788965153963395000,2.15139501953125,-0.19409099221229553,0.1091868206858635,-1.8194031715393066
1788965153973423900,2.161423828125,-0.39383170008659363,0.5235378742218018,-0.539526104927063
1788965153983453000,2.171452880859375,-0.7757726311683655,1.7616503238677979,-0.5384251475334167
1788965153993481200,2.181481201171875,-1.3049834966659546,2.091724395751953,-1.1950302124023438
1788965154003510000,2.191510009765625,-2.525313377380371,2.097207546234131,-1.1564048528671265
1788965154013538000,2.2015380859375,-3.650315523147583,1.5830026865005493,-0.771270215511322
1788965154023566800,2.21156689453125,-4.277224540710449,1.1256564855575562,-0.4695598781108856
1788965154033596200,2.22159619140625,-4.419836521148682,0.3315792977809906,-0.3474246859550476
1788965154043624200,2.231624267578125,-4.080599784851074,-0.4868229031562805,-0.39549019932746887
1788965154053653000,2.241653076171875,-3.6353588104248047,-1.2147589921951294,-0.5739717483520508
1788965154063682000,2.25168212890625,-3.1776652336120605,-1.953582763671875,-0.7477310299873352
1788965154073710000,2.2617099609375,-1.3066014051437378,-1.920060157775879,-1.0165693759918213
1788965154083739100,2.2717392578125,1.3336621522903442,-2.4428889751434326,-1.2384299039840698
1788965154093768200,2.281768310546875,3.0082483291625977,-3.2861790657043457,-1.1019777059555054
1788965154103796000,2.2917958984375,2.877401351928711,-2.3650779724121094,0.5485578775405884
1788965154113825000,2.301824951171875,3.0688529014587402,-1.5644863843917847,1.3953125476837158
1788965154123853000,2.31185302734375,3.2976737022399902,0.435390442609787,1.375434160232544
1788965154133882000,2.321882080078125,2.388916492462158,0.6877387166023254,0.7326434254646301
1788965154143911200,2.3319111328125,1.2405238151550293,0.7459806799888611,0.3388112187385559
1788965154153939000,2.34193896484375,0.3615597188472748,1.5834890604019165,0.0026333010755479336
1788965154163968000,2.351968017578125,-0.15860117971897125,0.8031240105628967,-0.356873482465744
1788965154173997000,2.3619970703125,-0.6403171420097351,-0.7179408669471741,-0.659725546836853
1788965154184025000,2.372025146484375,-0.8615819215774536,-1.6005733013153076,-1.2878144979476929
1788965154194054100,2.38205419921875,-1.1953336000442505,-2.0059654712677,-1.9709004163742065
1788965154204083000,2.3920830078125,-1.475364089012146,-2.8015458583831787,-2.2714920043945312
1788965154214111000,2.402111083984375,-1.091870903968811,-3.936201572418213,-2.461452007293701
1788965154224140300,2.412140380859375,-0.31827402114868164,-4.989889144897461,-2.5867905616760254
1788965154234168000,2.42216796875,0.547050416469574,-6.061129093170166,-2.9001710414886475
1788965154244197000,2.432197021484375,1.1079250574111938,-6.748684406280518,-3.5445613861083984
1788965154254226000,2.442225830078125,1.3631095886230469,-6.546695232391357,-4.249875545501709
1788965154264254200,2.452254150390625,0.8490538597106934,-3.7433865070343018,-4.245606899261475
1788965154274283300,2.462283203125,0.04600713029503822,0.2588587999343872,-3.194719076156616
1788965154284312000,2.47231201171875,-0.19956640899181366,2.7766315937042236,-1.3686803579330444
1788965154294340000,2.482340087890625,0.3212611973285675,4.091078281402588,0.4613688588142395
1788965154304369000,2.492368896484375,0.7459890246391296,4.696646690368652,1.4103503227233887
1788965154314398000,2.50239794921875,0.8264006972312927,4.375971794128418,1.4487643241882324
1788965154324426200,2.51242626953125,0.9278758764266968,3.3622467517852783,0.7316408157348633
1788965154334455000,2.522455078125,1.175829529762268,1.850919485092163,0.14764098823070526
1788965154344484000,2.532484130859375,0.7608219385147095,0.11887915432453156,-0.35939931869506836
1788965154354512000,2.542511962890625,-0.5090739130973816,-1.3977932929992676,-1.2358232736587524
1788965154364541000,2.552541015625,-1.9659249782562256,-1.704105019569397,-2.079133987426758
1788965154374570200,2.5625703125,-2.9709255695343018,-1.050572156906128,-2.2291154861450195
1788965154384598000,2.572597900390625,-2.4856181144714355,-1.199271559715271,-1.5441124439239502
1788965154394627000,2.582626953125,-1.6697556972503662,-1.7509158849716187,-1.0021564960479736
1788965154404656000,2.59265625,-1.501374363899231,-1.5277073383331299,-0.9349737763404846
1788965154414684200,2.60268408203125,-1.6568235158920288,-1.1147007942199707,-1.1511939764022827
1788965154424713200,2.612713134765625,-1.8045812845230103,-0.8180531859397888,-1.2462224960327148
1788965154434742000,2.622741943359375,-1.712310552597046,-0.765775203704834,-1.1420230865478516
1788965154444770000,2.63277001953125,-1.5144327878952026,-0.7052809596061707,-0.8627392053604126
1788965154454799000,2.642799072265625,-1.5270802974700928,-0.5493999123573303,-0.7911286950111389
1788965154464827100,2.6528271484375,-1.7135076522827148,-0.17091520130634308,-0.6962229609489441
1788965154474856200,2.662856201171875,-1.9290136098861694,0.037012070417404175,-0.5769455432891846
1788965154484885500,2.672885498046875,-2.1146581172943115,-0.26354214549064636,-0.3744785189628601
1788965154494913500,2.68291357421875,-2.000842571258545,-0.5008285045623779,-0.27881744503974915
1788965154504942600,2.692942626953125,-1.8914319276809692,-1.0713268518447876,-0.16556838154792786
1788965154514971400,2.702971435546875,-1.8121978044509888,-0.8672506213188171,-0.14061453938484192
1788965154524999700,2.712999755859375,-1.82204270362854,-0.3140377402305603,-0.18483765423297882
1788965154535028500,2.723028564453125,-1.8107881546020508,-0.10050253570079803,-0.2293516844511032
1788965154545057500,2.7330576171875,-1.5390139818191528,0.04575054720044136,-0.22165967524051666
1788965154555085600,2.74308544921875,-1.0012060403823853,0.6483258605003357,-0.0020467769354581833
1788965154565114600,2.753114501953125,-0.79127436876297,1.9425151348114014,0.6453902721405029
1788965154575143700,2.763143798828125,-1.3828638792037964,3.5571606159210205,1.7306435108184814
1788965154585171500,2.77317138671875,-2.368105411529541,4.656717777252197,2.60404634475708
1788965154595200500,2.783200439453125,-3.721043586730957,2.7299792766571045,2.3834612369537354
1788965154605229600,2.7932294921875,-4.711029529571533,0.21847262978553772,1.3264598846435547
1788965154615257600,2.803257568359375,-4.666842937469482,-2.5413918495178223,-0.488209068775177
1788965154625286700,2.81328662109375,-4.502110481262207,-4.713618755340576,-1.7510861158370972
1788965154635315700,2.823315673828125,-4.290431499481201,-7.138090133666992,-2.3275816440582275
1788965154645343500,2.833343505859375,-3.8183693885803223,-9.268051147460938,-2.351902961730957
1788965154655372500,2.84337255859375,-3.074258327484131,-8.242588996887207,-1.6364045143127441
1788965154665401300,2.8534013671875,-2.2698159217834473,-4.576379299163818,-0.6478325128555298
1788965154675429600,2.8634296875,-2.054896593093872,-1.2216168642044067,0.922295868396759
1788965154685458700,2.873458740234375,-2.278778553009033,0.8932743668556213,2.1986777782440186
1788965154695487500,2.883487548828125,-2.2085742950439453,2.248417854309082,1.9439483880996704
1788965154705515500,2.893515625,-1.5837651491165161,2.434627056121826,0.934632420539856
1788965154715544600,2.903544677734375,-0.9973357915878296,1.4386138916015625,0.08051818609237671
1788965154725573600,2.91357373046875,-0.4723934829235077,0.6599838137626648,-0.40632495284080505
1788965154735601700,2.9236015625,-0.1911969929933548,0.16145659983158112,-0.5146071314811707
1788965154745630500,2.93363037109375,-0.01344509981572628,-0.15645825862884521,-0.28517183661460876
1788965154755659500,2.943659423828125,0.10459848493337631,-0.14228573441505432,-0.013882922939956188
1788965154765687600,2.9536875,0.10020346939563751,-0.17604422569274902,0.08523114025592804
1788965154775716600,2.963716552734375,-0.03285524994134903,-0.33519765734672546,0.05808500945568085
1788965154785745700,2.97374560546875,-0.29702380299568176,0.09774276614189148,0.054755065590143204
1788965154795773400,2.9837734375,-1.1521894931793213,1.0475773811340332,0.06855398416519165
1788965154805802500,2.993802490234375,-2.454524278640747,0.8203809857368469,-0.11510851979255676
1788965154815831600,3.00383154296875,-3.0813848972320557,-0.2868017554283142,-0.12850314378738403
1788965154825859600,3.013859619140625,-2.9783616065979004,-1.627377986907959,-0.17143143713474274
1788965154835888600,3.023888671875,-2.6124088764190674,-2.9682071208953857,-0.30716609954833984
1788965154845917400,3.03391748046875,-2.4099152088165283,-3.6470954418182373,-0.28446638584136963
1788965154855945500,3.043945556640625,-2.2121810913085938,-3.5790722370147705,-0.03230530023574829
1788965154865974800,3.053974853515625,-1.9073772430419922,-2.659062623977661,0.33299437165260315
1788965154876003600,3.064003662109375,-1.193677306175232,-1.5103459358215332,0.5912784337997437
1788965154886031600,3.074031494140625,-0.11947658658027649,-2.1457765102386475,0.29363662004470825
1788965154896060400,3.084060302734375,0.4502863585948944,-3.350071430206299,-0.3336624503135681
1788965154906089500,3.09408935546875,0.2771774232387543,-1.6539006233215332,-0.5818341970443726
1788965154916117800,3.10411767578125,0.008377263322472572,-0.3817920386791229,-0.5368108153343201
1788965154926146600,3.114146484375,0.059188779443502426,-0.07875251770019531,-0.2818661332130432
1788965154936175600,3.124175537109375,0.13534535467624664,-0.08921520411968231,-0.07567628473043442
1788965154946203400,3.134203369140625,0.14206238090991974,-0.2257043421268463,0.05428251624107361
1788965154956232400,3.144232421875,0.10790251940488815,-0.4622836709022522,0.1040075346827507
1788965154966261500,3.154261474609375,0.08821643143892288,-0.4550742506980896,0.12619832158088684
1788965154976289500,3.16428955078125,0.03758378326892853,-0.1400764137506485,0.12431962788105011
1788965154986318600,3.174318603515625,0.018136847764253616,0.15228141844272614,0.1097758412361145
1788965154996347600,3.18434765625,0.004280278459191322,0.29751548171043396,0.14124484360218048
1788965155006375400,3.19437548828125,-0.03827543929219246,0.2823546230792999,0.12124397605657578
1788965155016404700,3.20440478515625,-0.09268955141305923,0.08798384666442871,0.06619887053966522
1788965155026433500,3.21443359375,-0.14643800258636475,-0.04763896018266678,0.04309781268239021
1788965155036461600,3.224461669921875,-0.16190283000469208,-0.10666055232286453,0.08058387786149979
1788965155046490600,3.23449072265625,-0.12922585010528564,-0.020457495003938675,0.1616523712873459
1788965155056519400,3.24451953125,-0.10438825935125351,0.17620961368083954,0.22054068744182587
1788965155066547700,3.254547607421875,-0.07877158373594284,0.30510473251342773,0.2178005576133728
1788965155076576500,3.264576416015625,-0.04897001385688782,0.3347938060760498,0.21244201064109802
1788965155086605600,3.27460546875,-0.007417511660605669,0.3801572918891907,0.24946127831935883
1788965155096633600,3.284633544921875,-0.006635741330683231,0.5122116804122925,0.2698102593421936
1788965155106662400,3.294662353515625,0.0143989697098732,0.8391450643539429,0.3686649203300476
1788965155116691700,3.304691650390625,0.06577452272176743,1.0323526859283447,0.526116132736206
1788965155126719500,3.314719482421875,0.08154550194740295,0.6470946669578552,0.506549596786499
1788965155136748500,3.32474853515625,0.02633766271173954,0.003724023001268506,0.23393024504184723
1788965155146777600,3.334777587890625,-0.07283472269773483,-0.2545677125453949,-0.07581669092178345
1788965155156805600,3.3448056640625,-0.07364153116941452,-0.14885470271110535,-0.19342881441116333
1788965155166834700,3.354834716796875,-0.12167323380708694,0.49161848425865173,-0.23801545798778534
1788965155176863700,3.36486376953125,-0.035272322595119476,0.7825638055801392,-0.007224264554679394
1788965155186891500,3.3748916015625,-0.023810073733329773,0.2675952613353729,0.13923999667167664
1788965155196920600,3.384920654296875,-0.0020355184096843004,-0.19721370935440063,0.1230524480342865
1788965155206949400,3.394949462890625,-0.0074614426121115685,-0.4260450303554535,0.08617991954088211
1788965155216977700,3.404977783203125,-0.006000564433634281,-0.4249730408191681,0.04583622142672539
1788965155227006700,3.4150068359375,-0.033196765929460526,-0.25801414251327515,-0.018315330147743225
1788965155237035500,3.425035400390625,-0.04560786858201027,-0.11989471316337585,-0.06924384087324142
1788965155247063600,3.4350634765625,-0.09154153615236282,-0.02834455668926239,-0.12841740250587463
1788965155257092400,3.44509228515625,-0.11814481019973755,0.11581605672836304,-0.19287729263305664
1788965155267121700,3.45512158203125,-0.14198487997055054,0.39296242594718933,-0.19736552238464355
1788965155277149700,3.465149658203125,-0.16923397779464722,0.5807591080665588,-0.10126026719808578
1788965155287178500,3.475178466796875,-0.24892161786556244,0.3577987551689148,-0.031999967992305756
1788965155297207600,3.48520751953125,0.1971472054719925,-2.269217014312744,0.42524993419647217
1788965155307235600,3.495235595703125,0.6057027578353882,-3.371032238006592,0.5395479798316956
1788965155317264600,3.5052646484375,1.3463095426559448,-2.2339932918548584,0.1309569776058197
1788965155327293700,3.515293701171875,1.4051722288131714,-1.7608002424240112,0.35259613394737244
1788965155337321500,3.525321533203125,1.2379769086837769,-1.0780986547470093,0.5650240182876587
1788965155347350500,3.5353505859375,0.9685028195381165,-0.8236384391784668,0.5556086301803589
1788965155357379600,3.545379638671875,0.865656316280365,-1.5640546083450317,0.31160953640937805
1788965155367407600,3.55540771484375,0.9236106872558594,-2.6929407119750977,0.005757479462772608
1788965155377436700,3.565436767578125,0.9519727230072021,-3.31897234916687,-0.2161647528409958
1788965155387465500,3.575465576171875,0.5962713360786438,-4.420070648193359,-0.036685261875391006
1788965155397494500,3.58549462890625,0.030053583905100822,-3.48291277885437,0.10719382762908936
1788965155407522600,3.5955224609375,0.07947599142789841,-2.3322811126708984,0.15599146485328674
1788965155417551600,3.605551513671875,-0.2030484974384308,-1.9349020719528198,0.1051735058426857
1788965155427580700,3.61558056640625,-0.4427388608455658,-2.068734645843506,0.10576286166906357
1788965155437608400,3.6256083984375,-0.4694109559059143,-1.9556896686553955,0.1956312358379364
1788965155447637500,3.635637451171875,-0.4491778612136841,-1.4870127439498901,0.33367645740509033
1788965155457666600,3.64566650390625,-0.35362446308135986,-0.7227578163146973,0.4612765610218048
1788965155467694600,3.655694580078125,-0.2586556077003479,-0.01236891932785511,0.45518139004707336
1788965155477723600,3.6657236328125,-0.23143236339092255,0.5294453501701355,0.2725958824157715
1788965155487751700,3.675751708984375,-0.15683455765247345,0.9682051539421082,0.12938599288463593
1788965155497779700,3.68577978515625,-0.14128530025482178,1.3291847705841064,0.09405062347650528
1788965155507808800,3.695808837890625,-0.28318119049072266,1.5803219079971313,0.11295747011899948
1788965155517837800,3.705837890625,-0.5155504941940308,1.7780954837799072,0.20698221027851105
1788965155527865600,3.715865478515625,-0.6255270838737488,2.1531434059143066,0.34459787607192993
1788965155537894700,3.725894775390625,-0.5301786065101624,1.9179131984710693,0.3711986541748047
1788965155547923700,3.735923828125,-0.43249890208244324,1.616289734840393,0.22295619547367096
1788965155557951700,3.74595166015625,-0.5834338068962097,1.2438546419143677,0.1690353900194168
1788965155567980800,3.755980712890625,-0.5395068526268005,0.21468590199947357,0.14655111730098724
1788965155578009600,3.766009521484375,-0.41743165254592896,-0.46187227964401245,0.05405816435813904
1788965155588037600,3.77603759765625,-0.37188732624053955,-0.7179772257804871,0.13687607645988464
1788965155598066700,3.786066650390625,-0.4190416634082794,-0.3930673599243164,0.41317692399024963
1788965155608095700,3.796095703125,-0.4434575140476227,0.18402951955795288,0.7028388381004333
1788965155618123800,3.806123779296875,-0.4545743465423584,1.1351932287216187,0.9212208986282349
1788965155628152600,3.816152587890625,-0.41948267817497253,1.862558126449585,0.9028773307800293
1788965155638181600,3.826181640625,-0.4222809970378876,2.520444869995117,0.5636860132217407
1788965155648210700,3.836210693359375,-0.4833901524543762,2.853917121887207,0.22229696810245514
1788965155658238700,3.84623876953125,-0.5045683979988098,2.3936374187469482,-0.09757985919713974
1788965155668267800,3.856267822265625,-0.485607773065567,1.9079638719558716,-0.38876110315322876
1788965155678296800,3.866296875,-0.46822407841682434,1.7025461196899414,-0.5728747844696045
1788965155688324600,3.87632470703125,-0.48237159848213196,1.92299485206604,-0.680938720703125
1788965155698353700,3.886353759765625,-0.45448434352874756,2.2410197257995605,-0.6807534694671631
1788965155708382700,3.8963828125,-0.3625783920288086,2.062087297439575,-0.5295919179916382
1788965155718410800,3.90641064453125,-0.19720126688480377,1.5101977586746216,-0.31142687797546387
1788965155728439800,3.916439697265625,-0.06202373653650284,1.0305958986282349,-0.1632600575685501
1788965155738468600,3.926468505859375,-0.00034277443774044514,1.3432008028030396,-0.20578761398792267
1788965155748497000,3.936496826171875,-0.009943470358848572,1.8407924175262451,-0.27406227588653564
1788965155758525700,3.946525634765625,0.0019838823936879635,2.124035120010376,-0.3684995174407959
1788965155768554800,3.9565546875,0.04119813069701195,2.1556618213653564,-0.5345460176467896
1788965155778582500,3.96658251953125,0.06263349205255508,2.0575320720672607,-0.5794966220855713
1788965155788611600,3.976611572265625,0.030453184619545937,1.8453528881072998,-0.4980885982513428
1788965155798640600,3.986640625,0.020217346027493477,1.3459320068359375,-0.3288855254650116
1788965155808668700,3.996668701171875,0.05211429297924042,0.6992347240447998,-0.16813471913337708
1788965155818697700,4.00669775390625,0.09337489306926727,0.130341574549675,-0.022902648895978928
1788965155828726800,4.016726806640625,0.09326837211847305,-0.3526296019554138,0.0664951428771019
1788965155838754600,4.026754638671875,0.06983242183923721,-0.7043909430503845,0.09936332702636719
1788965155848783600,4.03678369140625,-0.016694743186235428,-0.9116396903991699,0.13110020756721497
1788965155858813000,4.04681298828125,-0.06765086948871613,-1.1283588409423828,0.20105187594890594
1788965155868840700,4.0568408203125,-0.1443869173526764,-1.3599988222122192,0.297486811876297
1788965155878869800,4.066869873046875,-0.20359724760055542,-1.5374345779418945,0.38730132579803467
1788965155888898600,4.076898681640625,-0.3025464713573456,-1.4620211124420166,0.5047613978385925
1788965155898927600,4.086927734375,-0.37695491313934326,-1.3854352235794067,0.5986021757125854
1788965155908955600,4.09695556640625,-0.4172448217868805,-1.320533275604248,0.6624293923377991
1788965155918984700,4.106984619140625,-0.42147088050842285,-1.216492772102356,0.6541552543640137
1788965155929013800,4.117013671875,-0.48537716269493103,-1.1196438074111938,0.5738521814346313
1788965155939041500,4.12704150390625,-0.5437661409378052,-1.033614158630371,0.4684675633907318
1788965155949070600,4.137070556640625,-0.5413386225700378,-0.8727297782897949,0.3443554639816284
1788965155959099600,4.147099609375,-0.46937716007232666,-0.4168228209018707,0.19255858659744263
1788965155969127700,4.157127685546875,-0.4025499224662781,0.20894092321395874,0.1003492996096611
1788965155979156700,4.16715673828125,-0.3460944890975952,1.0355103015899658,0.13772247731685638
1788965155989185500,4.177185546875,-0.2995717227458954,1.640702724456787,0.21098311245441437
1788965155999213600,4.187213623046875,-0.37832021713256836,1.8247274160385132,0.298530250787735
1788965156009243000,4.197242919921875,-0.49286940693855286,1.6069458723068237,0.37770870327949524
1788965156019271700,4.207271728515625,-0.5003939270973206,1.1472104787826538,0.41331911087036133
1788965156029299700,4.2172998046875,-0.44902846217155457,0.7579545378684998,0.43101075291633606
1788965156039328500,4.22732861328125,-0.39001521468162537,0.612589418888092,0.5295515060424805
1788965156049357600,4.237357666015625,-0.35877951979637146,0.5136817693710327,0.6587877869606018
1788965156059385900,4.2473857421875,-0.3505096137523651,0.41720184683799744,0.7628822326660156
1788965156069414700,4.25741455078125,-0.35473471879959106,0.2935938835144043,0.8484247922897339
1788965156079443700,4.267443603515625,-0.35249102115631104,0.19880200922489166,0.9446070790290833
1788965156089471500,4.277471435546875,-0.3402460813522339,0.17903415858745575,1.0942274332046509
1788965156099500500,4.28750048828125,-0.3411042392253876,0.20401860773563385,1.312907099723816
1788965156109529900,4.29752978515625,-0.3840772807598114,0.258047491312027,1.5815215110778809
1788965156119558700,4.30755859375,-0.4332507848739624,0.18444547057151794,1.896127462387085
1788965156129586700,4.317586669921875,-0.4032287001609802,0.06745894253253937,2.2183947563171387
1788965156139615700,4.32761572265625,-0.3574853539466858,-0.00468661542981863,2.542194128036499
1788965156149644500,4.33764453125,-0.3448326885700226,-0.02692427858710289,2.7902584075927734
1788965156159672800,4.3476728515625,-0.3496326208114624,0.06974530220031738,2.8316946029663086
1788965156169701600,4.35770166015625,-0.2458963692188263,0.000981146702542901,2.629392623901367
1788965156179730700,4.367730712890625,-0.11401437222957611,-0.05861634761095047,2.376218557357788
1788965156189758700,4.3777587890625,-0.08687649667263031,0.037746939808130264,2.2139129638671875
1788965156199787500,4.38778759765625,-0.19564437866210938,0.15851634740829468,2.1133463382720947
1788965156209816600,4.397816650390625,-0.3548726737499237,0.19060209393501282,2.0500590801239014
1788965156219844600,4.4078447265625,-0.449777215719223,0.3242400884628296,1.9850990772247314
1788965156229873700,4.417873779296875,-0.4920130968093872,0.283826619386673,2.0318453311920166
1788965156239902700,4.42790283203125,-0.5277368426322937,0.06849048286676407,2.180661916732788
1788965156249930500,4.437930419921875,-0.5385420322418213,-0.15568749606609344,2.3326354026794434
1788965156259959800,4.447959716796875,-0.5933418273925781,-0.395461767911911,2.4356229305267334
1788965156269988900,4.45798876953125,-0.6782053112983704,-0.5155831575393677,2.4610531330108643
1788965156280016600,4.4680166015625,-0.7230165004730225,-0.5002545714378357,2.4527652263641357
1788965156290045700,4.478045654296875,-0.7847855687141418,-0.529077410697937,2.4285402297973633
1788965156300074500,4.488074462890625,-0.8548864722251892,-0.5869076251983643,2.4378104209899902
1788965156310102800,4.498102783203125,-0.933422863483429,-0.5838886499404907,2.4524900913238525
1788965156320131800,4.5081318359375,-1.0114761590957642,-0.5533798933029175,2.481597661972046
1788965156330160600,4.51816064453125,-1.1032228469848633,-0.6524976491928101,2.5322632789611816
1788965156340189700,4.528189697265625,-1.1656978130340576,-0.696187436580658,2.57749080657959
1788965156350217500,4.538217529296875,-1.2191133499145508,-0.7601142525672913,2.618631362915039
1788965156360246800,4.548246826171875,-1.2486352920532227,-0.801913857460022,2.673328399658203
1788965156370275800,4.55827587890625,-1.3116445541381836,-0.8489570021629333,2.6897616386413574
1788965156380303600,4.5683037109375,-1.409242868423462,-0.9163733124732971,2.6781351566314697
1788965156390332700,4.578332763671875,-1.5341315269470215,-1.0853242874145508,2.6509270668029785
1788965156400361700,4.58836181640625,-1.6396068334579468,-1.2136412858963013,2.6766045093536377
1788965156410389800,4.5983896484375,-1.7400943040847778,-1.2460823059082031,2.7131667137145996
1788965156420418800,4.608418701171875,-1.8266969919204712,-1.3024628162384033,2.7535665035247803
1788965156430447600,4.618447509765625,-1.893141746520996,-1.2608247995376587,2.771150588989258
1788965156440475600,4.6284755859375,-1.8882009983062744,-1.1477912664413452,2.750133752822876
1788965156450504700,4.638504638671875,-1.899067997932434,-1.0232679843902588,2.7434651851654053
1788965156460533500,4.648533447265625,-1.9273333549499512,-1.0427627563476562,2.7532267570495605
1788965156470561800,4.658561767578125,-1.957955241203308,-1.0483710765838623,2.7386648654937744
1788965156480590600,4.668590576171875,-1.9824784994125366,-0.9538619518280029,2.752737045288086
1788965156490620000,4.678619873046875,-2.0186567306518555,-0.8402251601219177,2.676020383834839
1788965156500648000,4.68864794921875,-1.9965773820877075,-0.8769791722297668,2.641282081604004
1788965156510676700,4.6986767578125,-1.995801329612732,-0.788659930229187,2.5982375144958496
1788965156520706000,4.7087060546875,-1.985864520072937,-0.7256987690925598,2.5893146991729736
1788965156530733800,4.71873388671875,-1.9789535999298096,-0.6343733668327332,2.56233286857605
1788965156540763000,4.728762939453125,-1.971205472946167,-0.5050321221351624,2.5432591438293457
1788965156550792000,4.7387919921875,-2.041799545288086,-0.3508712947368622,2.5052225589752197
1788965156560820000,4.748820068359375,-1.9813356399536133,-0.18859989941120148,2.4503369331359863
1788965156570849000,4.75884912109375,-1.9348986148834229,-0.02819371223449707,2.3657376766204834
1788965156580878000,4.768878173828125,-1.8979164361953735,0.14068730175495148,2.4104020595550537
1788965156590907000,4.778906982421875,-1.818455696105957,0.2451450079679489,2.372626781463623
1788965156600935000,4.788934814453125,-1.7289470434188843,0.21760529279708862,2.3581416606903076
1788965156610963700,4.798963623046875,-1.6663405895233154,0.2053840458393097,2.3481693267822266
1788965156620993000,4.808992919921875,-1.5951318740844727,0.16569428145885468,2.319643259048462
1788965156631021000,4.81902099609375,-1.4742876291275024,0.05775557458400726,2.2886409759521484
1788965156641049900,4.8290498046875,-1.3445656299591064,-0.10411527007818222,2.188002824783325
1788965156651079000,4.839078857421875,-1.2546104192733765,-0.08893685042858124,2.0717551708221436
1788965156661107000,4.84910693359375,-1.1114498376846313,-0.24549944698810577,2.020972490310669
1788965156671136000,4.859135986328125,-1.0280019044876099,-0.1347590833902359,1.933146595954895
1788965156681165000,4.8691650390625,-0.9027988910675049,-0.17411553859710693,1.8482601642608643
1788965156691192800,4.87919287109375,-0.8296825885772705,-0.1859615445137024,1.8093453645706177
1788965156701222000,4.889221923828125,-0.7315347194671631,-0.056790273636579514,1.7324527502059937
1788965156711251000,4.8992509765625,-0.6754501461982727,-0.11395449191331863,1.6228855848312378
1788965156721279000,4.909279052734375,-0.5964968800544739,-0.16697095334529877,1.5092406272888184
1788965156731308000,4.91930810546875,-0.5726740956306458,-0.1687619388103485,1.367760419845581
1788965156741336800,4.9293369140625,-0.5594385862350464,0.04778110980987549,1.2084286212921143
1788965156751364900,4.93936474609375,-0.4767213463783264,0.14818653464317322,1.0438497066497803
1788965156761394000,4.949393798828125,-0.39247623085975647,0.23586581647396088,0.89339679479599
1788965156771423000,4.959423095703125,-0.2907309830188751,0.2403641641139984,0.8102742433547974
1788965156781451000,4.969450927734375,-0.27583417296409607,0.22437059879302979,0.7061957716941833
1788965156791479800,4.979479736328125,-0.28552621603012085,0.21744851768016815,0.6107286214828491
1788965156801508900,4.9895087890625,-0.3195019066333771,0.3588169813156128,0.4666585326194763
1788965156811537200,4.999537109375,-0.2671598494052887,0.36813512444496155,0.3276580274105072
1788965156821566000,5.00956591796875,-0.1301245242357254,0.25908222794532776,0.22415244579315186
1788965156831595000,5.019594970703125,-0.014723089523613453,0.3062492311000824,0.12941263616085052
1788965156841624000,5.0296240234375,0.10231976211071014,0.2642568349838257,0.01885421946644783
1788965156851651800,5.03965185546875,0.28975996375083923,0.18693889677524567,-0.11176744103431702
1788965156861681000,5.049680908203125,0.4737410247325897,0.11692462861537933,-0.20194511115550995
1788965156871709700,5.059709716796875,0.594214916229248,0.048810023814439774,-0.2871960699558258
1788965156881738000,5.069738037109375,0.6956434845924377,0.003945182077586651,-0.4054745137691498
1788965156891767000,5.07976708984375,0.8156396746635437,-0.08424139767885208,-0.5613996386528015
1788965156901795800,5.0897958984375,0.9272419214248657,-0.1138862818479538,-0.7118959426879883
1788965156911824000,5.099823974609375,1.0064622163772583,-0.08226390928030014,-0.8443893194198608
1788965156921853000,5.10985302734375,1.0706632137298584,-0.04396214708685875,-0.9533171057701111
1788965156931882000,5.119882080078125,1.142621397972107,-0.024384984746575356,-1.0155256986618042
1788965156941910000,5.129909912109375,1.2153037786483765,-0.011678197421133518,-1.0651861429214478
1788965156951938800,5.139938720703125,1.2816535234451294,-0.04991932585835457,-1.1119792461395264
1788965156961967900,5.1499677734375,1.3253324031829834,-0.043180957436561584,-1.1652634143829346
1788965156971996000,5.159995849609375,1.3875712156295776,-0.0439910888671875,-1.241457223892212
1788965156982025000,5.17002490234375,1.4809154272079468,-0.06504395604133606,-1.3209677934646606
1788965156992054000,5.180053955078125,1.5581990480422974,-0.08254785090684891,-1.3552905321121216
1788965157002081800,5.190081787109375,1.6153955459594727,-0.10186011344194412,-1.340409278869629
1788965157012110800,5.20011083984375,1.655436396598816,-0.1521690934896469,-1.3050419092178345
1788965157022140000,5.210139892578125,1.6814849376678467,-0.19565612077713013,-1.2805525064468384
1788965157032168000,5.22016796875,1.6920603513717651,-0.17315852642059326,-1.2966388463974
1788965157042197000,5.230197021484375,1.712041974067688,-0.1035952940583229,-1.3558615446090698
1788965157052225800,5.240225830078125,1.7587876319885254,-0.12606410682201385,-1.4124492406845093
1788965157062254800,5.2502548828125,1.800158977508545,-0.1172812357544899,-1.455459475517273
1788965157072283100,5.260283203125,1.8212261199951172,-0.1141485646367073,-1.485325574874878
1788965157082312000,5.27031201171875,1.828532338142395,-0.12172625958919525,-1.5092263221740723
1788965157092341000,5.280341064453125,1.8435571193695068,-0.1385454684495926,-1.548906922340393
1788965157102368800,5.29036865234375,1.853489875793457,-0.13735736906528473,-1.5785980224609375
1788965157112397800,5.300397705078125,1.8588659763336182,-0.0930095985531807,-1.5721714496612549
1788965157122427000,5.310427001953125,1.8876807689666748,-0.06135432794690132,-1.5584895610809326
1788965157132455000,5.320454833984375,1.929547905921936,-0.06164301559329033,-1.556538701057434
1788965157142484000,5.33048388671875,1.9598016738891602,-0.08597810566425323,-1.5699306726455688
1788965157152513000,5.340512939453125,2.0117805004119873,-0.12943929433822632,-1.5850201845169067
1788965157162540800,5.350540771484375,2.057471752166748,-0.16620153188705444,-1.5791407823562622
1788965157172570000,5.360570068359375,2.0788354873657227,-0.1909143328666687,-1.5203999280929565
1788965157182599000,5.370598876953125,2.112107038497925,-0.16762958467006683,-1.4566197395324707
1788965157192627000,5.380626953125,2.1905300617218018,-0.13662585616111755,-1.4100072383880615
1788965157202656000,5.390656005859375,2.265378475189209,-0.13986700773239136,-1.3479278087615967
1788965157212684800,5.400684814453125,2.3386075496673584,-0.2414463609457016,-1.2971736192703247
1788965157222713000,5.410713134765625,2.402750253677368,-0.2951352596282959,-1.2726682424545288
1788965157232742000,5.420741943359375,2.472695827484131,-0.2428012192249298,-1.3063782453536987
1788965157242771000,5.43077099609375,2.5254290103912354,-0.2033085823059082,-1.3789889812469482
1788965157252799000,5.440799072265625,2.523338794708252,-0.2621713876724243,-1.4067468643188477
1788965157262827800,5.450827880859375,2.46423602104187,-0.2986665368080139,-1.3699734210968018
1788965157272856800,5.46085693359375,2.400536060333252,-0.3342173099517822,-1.381105661392212
1788965157282886100,5.47088623046875,2.34598970413208,-0.26815521717071533,-1.4422974586486816
1788965157292914000,5.480913818359375,2.3159587383270264,-0.18983003497123718,-1.482223629951477
1788965157302943000,5.49094287109375,2.2625844478607178,-0.24471205472946167,-1.4737389087677002
1788965157312971800,5.5009716796875,2.210280179977417,-0.3854854106903076,-1.4656254053115845
1788965157323000000,5.511,2.1236042976379395,-0.4569873809814453,-1.4302455186843872
1788965157333029000,5.521029052734375,2.0360865592956543,-0.45683184266090393,-1.3688229322433472
1788965157343058000,5.531057861328125,1.944534182548523,-0.5094833374023438,-1.2884628772735596
1788965157353086000,5.5410859375,1.896984338760376,-0.5094529986381531,-1.264427661895752
1788965157363114800,5.55111474609375,1.8933264017105103,-0.6647620797157288,-1.220618486404419
1788965157373143800,5.561143798828125,1.9404585361480713,-0.6892234683036804,-1.2311701774597168
1788965157383172000,5.571172119140625,1.9961845874786377,-0.6349789500236511,-1.2733757495880127
1788965157393201000,5.581200927734375,1.9715394973754883,-0.5562934875488281,-1.3662992715835571
1788965157403230000,5.59122998046875,1.9459396600723267,-0.5118942856788635,-1.4428868293762207
1788965157413257700,5.6012578125,1.8909131288528442,-0.39429497718811035,-1.467591643333435
1788965157423287000,5.611287109375,1.8875646591186523,-0.5383445024490356,-1.3441225290298462
1788965157433316000,5.621316162109375,1.8575748205184937,-0.37768611311912537,-1.2366790771484375
1788965157443344000,5.63134375,1.7646538019180298,-0.19334250688552856,-1.2007992267608643
1788965157453373000,5.641373046875,1.6892937421798706,-0.18430745601654053,-1.2272201776504517
1788965157463402000,5.651402099609375,1.6449307203292847,-0.27642759680747986,-1.2628718614578247
1788965157473430000,5.661429931640625,1.5874089002609253,-0.37868791818618774,-1.2933021783828735
1788965157483459000,5.671458984375,1.5323307514190674,-0.6253400444984436,-1.3154199123382568
1788965157493488000,5.681488037109375,1.4320217370986938,-0.583606481552124,-1.370195746421814
1788965157503517200,5.69151708984375,1.2900974750518799,-0.6667478680610657,-1.42379629611969
1788965157513545000,5.701544921875,1.1416778564453125,-0.808748722076416,-1.4718573093414307
1788965157523574000,5.711573974609375,0.970933735370636,-0.8368569612503052,-1.5021036863327026
1788965157533603000,5.72160302734375,0.8298975229263306,-0.7945619821548462,-1.4843710660934448
1788965157543631000,5.731631103515625,0.752788245677948,-0.7507146596908569,-1.412846565246582
1788965157553660200,5.74166015625,0.626442551612854,-0.7703834176063538,-1.2611438035964966
1788965157563689000,5.75168896484375,0.48512133955955505,-0.8480276465415955,-0.9881011843681335
1788965157573717000,5.761717041015625,0.3745732605457306,-0.9670208692550659,-0.6730012893676758
1788965157583746000,5.77174609375,0.3441474437713623,-1.052046537399292,-0.43940263986587524
1788965157593775000,5.781775146484375,0.3506135940551758,-1.0538747310638428,-0.3155025541782379
1788965157603803100,5.79180322265625,0.31576934456825256,-0.9175328016281128,-0.2739574611186981
1788965157613832000,5.80183203125,0.29692667722702026,-0.7175139784812927,-0.32270318269729614
1788965157623861000,5.811861083984375,0.3817541003227234,-0.5644415020942688,-0.46557438373565674
1788965157633889000,5.821888916015625,0.4701657295227051,-0.408457487821579,-0.5735301375389099
1788965157643918000,5.83191796875,0.46711692214012146,-0.2631535530090332,-0.5460736751556396
1788965157653947100,5.841947021484375,0.366621196269989,-0.031271837651729584,-0.34813767671585083
1788965157663975000,5.851974853515625,0.1843685656785965,0.25217148661613464,-0.13311780989170074
1788965157674004000,5.86200390625,0.08266618847846985,0.4509996175765991,-0.04426010325551033
1788965157684033300,5.872033203125,0.11350812017917633,0.6230247616767883,0.0583573617041111
1788965157694062000,5.88206201171875,0.3019145131111145,0.649727463722229,0.22689923644065857
1788965157704090000,5.892090087890625,0.5866802334785461,0.5159674286842346,0.323075532913208
1788965157714119000,5.902118896484375,0.8557106256484985,0.218103289604187,0.23850072920322418
1788965157724148000,5.91214794921875,1.0772926807403564,-0.14623060822486877,-0.017336132004857063
1788965157734176300,5.92217626953125,1.151743769645691,-0.499552458524704,-0.3066544830799103
1788965157744205000,5.932205078125,1.1627578735351562,-0.6068921685218811,-0.5105607509613037
1788965157754234000,5.942234130859375,1.1750712394714355,-0.4553564488887787,-0.575471043586731
1788965157764262000,5.952261962890625,1.1488808393478394,-0.19669365882873535,-0.5450177788734436
1788965157774291000,5.962291015625,1.0997878313064575,0.07873845845460892,-0.5119727253913879
1788965157784320000,5.972320068359375,1.0505198240280151,0.3168204724788666,-0.5258336663246155
1788965157794348000,5.98234814453125,0.9562619924545288,0.38604268431663513,-0.5604388117790222
1788965157804377000,5.992377197265625,0.8186051845550537,0.2964370548725128,-0.5609661340713501
1788965157814406100,6.00240625,0.6791402101516724,0.11549361795186996,-0.5166264176368713
1788965157824434000,6.012433837890625,0.5684347152709961,-0.1307944804430008,-0.42932575941085815
1788965157834463200,6.022463134765625,0.5203633308410645,-0.3427613377571106,-0.3405199944972992
1788965157844492000,6.032491943359375,0.47142577171325684,-0.42410770058631897,-0.26828891038894653
1788965157854521000,6.04252099609375,0.4474354684352875,-0.3872183859348297,-0.2393224835395813
1788965157864549000,6.052549072265625,0.4378748834133148,-0.26399847865104675,-0.2667709290981293
1788965157874578000,6.062577880859375,0.5034024715423584,-0.06661485880613327,-0.31690600514411926
1788965157884607000,6.07260693359375,0.5315051078796387,0.17746084928512573,-0.3765432834625244
1788965157894635000,6.082635009765625,0.5317895412445068,0.3926306664943695,-0.43937817215919495
1788965157904664000,6.0926640625,0.5261520147323608,0.6106113195419312,-0.4728184640407562
1788965157914693000,6.102693115234375,0.566701352596283,0.7454748749732971,-0.4443383514881134
1788965157924721000,6.112720947265625,0.6167105436325073,0.7757141590118408,-0.3640346825122833
1788965157934750200,6.122750244140625,0.6622873544692993,0.7911522388458252,-0.27206188440322876
1788965157944779300,6.132779296875,0.7310972809791565,0.6387240886688232,-0.18032503128051758
1788965157954807000,6.14280712890625,0.739708662033081,0.43325111269950867,-0.08863825350999832
1788965157964836000,6.152836181640625,0.7184974551200867,0.32870832085609436,-0.009185491129755974
1788965157974865000,6.162864990234375,0.7136955261230469,0.26390162110328674,0.038404133170843124
1788965157984893200,6.17289306640625,0.659654438495636,0.22102172672748566,0.04643811658024788
1788965157994922200,6.182922119140625,0.6735164523124695,0.22796031832695007,-0.0028205104172229767
1788965158004951000,6.192950927734375,0.6664105653762817,0.2519945204257965,-0.060899585485458374
1788965158014979000,6.20297900390625,0.6435108780860901,0.3068934381008148,-0.08779378235340118
1788965158025007900,6.2130078125,0.636314868927002,0.38907960057258606,-0.10102459043264389
1788965158035037000,6.223036865234375,0.6439885497093201,0.4566037952899933,-0.08976021409034729
1788965158045066200,6.233066162109375,0.658250093460083,0.5156223773956299,-0.061475012451410294
1788965158055094000,6.243093994140625,0.6266785860061646,0.509478747844696,-0.02557905949652195
1788965158065123000,6.253123046875,0.5654276609420776,0.3902457058429718,-0.0062147569842636585
1788965158075152100,6.263152099609375,0.4638509452342987,0.1883258819580078,-0.001542507205158472
1788965158085180200,6.27318017578125,0.3674200475215912,-0.035378020256757736,0.021454110741615295
1788965158095209200,6.283209228515625,0.30431005358695984,-0.11157398670911789,0.033659644424915314
1788965158105238000,6.293238037109375,0.2887449264526367,0.021583877503871918,-0.0082834642380476
1788965158115266000,6.30326611328125,0.29431411623954773,0.12427590787410736,-0.07728144526481628
1788965158125295000,6.313295166015625,0.2685686945915222,0.12602598965168,-0.14685869216918945
1788965158135324000,6.323323974609375,0.2616442143917084,0.05141965299844742,-0.20719793438911438
1788965158145352200,6.333352294921875,0.22893860936164856,-0.07507801055908203,-0.2581850588321686
1788965158155381000,6.343381103515625,0.07338231056928635,-0.09893780946731567,-0.2645992636680603
1788965158165410000,6.35341015625,-0.029886988922953606,-0.03818299248814583,-0.2727910280227661
1788965158175438000,6.36343798828125,-0.08761686086654663,-0.0680261179804802,-0.2936209440231323
1788965158185467000,6.373466796875,-0.05507688224315643,-0.19361034035682678,-0.29219138622283936
1788965158195496200,6.38349609375,0.04321666434407234,-0.31610241532325745,-0.2855452001094818
1788965158205525200,6.393525146484375,0.031671591103076935,-0.34959205985069275,-0.2851814329624176
1788965158215553000,6.403552978515625,0.025364961475133896,-0.3567948341369629,-0.2810359597206116
1788965158225582000,6.41358203125,0.04086600989103317,-0.4023946225643158,-0.2894938290119171
1788965158235611000,6.42361083984375,0.06503179669380188,-0.4662793278694153,-0.29852059483528137
1788965158245639200,6.43363916015625,0.07056372612714767,-0.5194758176803589,-0.30043837428092957
1788965158255668200,6.443668212890625,0.07196987420320511,-0.5251810550689697,-0.28589245676994324
1788965158265697000,6.453697021484375,0.06613930314779282,-0.47896772623062134,-0.27659621834754944
1788965158275725000,6.46372509765625,0.047648705542087555,-0.4360354244709015,-0.25535857677459717
1788965158285753900,6.47375390625,0.020106809213757515,-0.3884158432483673,-0.2200322300195694
1788965158295783200,6.483783203125,0.008380644954741001,-0.3367803394794464,-0.19265440106391907
1788965158305811200,6.493811279296875,-0.00508136535063386,-0.3399107754230499,-0.17495183646678925
1788965158315840000,6.503840087890625,-0.004715979564934969,-0.34964674711227417,-0.1517605036497116
1788965158325869000,6.513869140625,0.01807335391640663,-0.30757763981819153,-0.1164613664150238
1788965158335897000,6.52389697265625,0.060883138328790665,-0.2290641963481903,-0.09193684905767441
1788965158345926100,6.533926025390625,0.10550718009471893,-0.18962402641773224,-0.09324120730161667
1788965158355955200,6.543955078125,0.14257891476154327,-0.20204874873161316,-0.11123564839363098
1788965158365984000,6.55398388671875,0.1762322336435318,-0.23572812974452972,-0.13445766270160675
1788965158376012000,6.564011962890625,0.18965110182762146,-0.26241594552993774,-0.1516108214855194
1788965158386041000,6.574041015625,0.18195946514606476,-0.2573285698890686,-0.15883032977581024
1788965158396070000,6.58406982421875,0.1562352031469345,-0.20834451913833618,-0.1606130599975586
1788965158406098200,6.59409814453125,0.11971541494131088,-0.14063683152198792,-0.15766148269176483
1788965158416127000,6.604126953125,0.08502934128046036,-0.10847543179988861,-0.14785705506801605
1788965158426156000,6.614156005859375,0.05430712178349495,-0.1689048856496811,-0.14962995052337646
1788965158436184000,6.62418408203125,0.03107476979494095,-0.3579176962375641,-0.15986928343772888
1788965158446213000,6.634213134765625,-0.034666307270526886,-0.5209546089172363,-0.16421844065189362
1788965158456242200,6.6442421875,-0.05948004499077797,-0.5728753209114075,-0.19701793789863586
1788965158466270000,6.65427001953125,-0.01505318470299244,-0.5181965827941895,-0.23701757192611694
1788965158476299000,6.664299072265625,0.13715872168540955,-0.4322878122329712,-0.24076731503009796
1788965158486327800,6.674327880859375,0.13916917145252228,-0.28755030035972595,-0.24949002265930176
1788965158496356900,6.68435693359375,0.08804287016391754,-0.12239328771829605,-0.2630103826522827
1788965158506385000,6.694385009765625,0.027170047163963318,0.04791152849793434,-0.268086314201355
1788965158516414000,6.7044140625,-0.02535334788262844,0.19659554958343506,-0.252279132604599
1788965158526442800,6.71444287109375,-0.052441149950027466,0.3365493416786194,-0.21433551609516144
1788965158536470800,6.724470703125,-0.08446672558784485,0.4478790760040283,-0.16461776196956635
1788965158546499800,6.734499755859375,-0.11022455245256424,0.49281251430511475,-0.09690339863300323
1788965158556529000,6.74452880859375,-0.1291777342557907,0.5029793977737427,0.004352915100753307
1788965158566557000,6.754556884765625,-0.16740356385707855,0.5183784365653992,0.1364569067955017
1788965158576585700,6.764585693359375,-0.22458162903785706,0.517726480960846,0.28069475293159485
1788965158586614800,6.77461474609375,-0.27206870913505554,0.5123887062072754,0.3989611864089966
1788965158596643000,6.78464306640625,-0.30919715762138367,0.48894357681274414,0.4654368758201599
1788965158606672000,6.794671875,-0.33196496963500977,0.4565486013889313,0.48326441645622253
1788965158616701000,6.804700927734375,-0.33874082565307617,0.38864970207214355,0.45863255858421326
1788965158626728700,6.814728759765625,-0.345962256193161,0.3344953954219818,0.43446677923202515
1788965158636757800,6.8247578125,-0.36500200629234314,0.3318466246128082,0.4373789429664612
1788965158646786800,6.834786865234375,-0.38464710116386414,0.3626578450202942,0.4740920066833496
1788965158656815900,6.84481591796875,-0.41239163279533386,0.39601659774780273,0.5291387438774109
1788965158666844000,6.854843994140625,-0.441721647977829,0.3978815972805023,0.5835302472114563
1788965158676873000,6.864873046875,-0.45610830187797546,0.3566843569278717,0.608590304851532
1788965158686901800,6.87490185546875,-0.4587596654891968,0.28970256447792053,0.6068870425224304
1788965158696930000,6.884929931640625,-0.45569515228271484,0.2346893846988678,0.6167641282081604
1788965158706958800,6.894958740234375,-0.44363513588905334,0.2036193311214447,0.6350908875465393
1788965158716988000,6.90498779296875,-0.4256609380245209,0.15289410948753357,0.6412798166275024
1788965158727016000,6.915015869140625,-0.41693055629730225,0.05959003418684006,0.6172072291374207
1788965158737044700,6.925044677734375,-0.45890358090400696,-0.025829264894127846,0.5404658317565918
1788965158747073800,6.93507373046875,-0.5258462429046631,-0.1527484506368637,0.40968436002731323
1788965158757101800,6.945101806640625,-0.47370418906211853,-0.10500624030828476,0.31025177240371704
1788965158767131000,6.955130859375,-0.40227028727531433,-0.024384882301092148,0.24550430476665497
1788965158777160000,6.965159912109375,-0.3046744763851166,-0.03964053839445114,0.19500170648097992
1788965158787188700,6.975188720703125,-0.2408762127161026,-0.11938716471195221,0.1263580173254013
1788965158797216800,6.985216796875,-0.21712639927864075,-0.20370124280452728,0.03935893625020981
1788965158807246000,6.99524609375,-0.2046397179365158,-0.26753830909729004,-0.04852716624736786
1788965158817275000,7.00527490234375,-0.1672356277704239,-0.3187381327152252,-0.12941747903823853
1788965158827303000,7.015302978515625,-0.1234106793999672,-0.4305442273616791,-0.24612507224082947
1788965158837331700,7.025331787109375,-0.06918312609195709,-0.5839108824729919,-0.41585153341293335
1788965158847360800,7.03536083984375,0.02637910097837448,-0.6546120047569275,-0.6324959993362427
1788965158857389000,7.04538916015625,0.13638097047805786,-0.6200047135353088,-0.884943425655365
1788965158867417900,7.05541796875,0.23215170204639435,-0.5689780712127686,-1.1363605260849
1788965158877447000,7.065447021484375,0.2870340943336487,-0.5975247621536255,-1.3335137367248535
1788965158887474700,7.075474609375,0.27797776460647583,-0.6564413905143738,-1.4296290874481201
1788965158897503700,7.085503662109375,0.22418245673179626,-0.6374709010124207,-1.4249640703201294
1788965158907533000,7.095532958984375,0.1369173228740692,-0.5891417860984802,-1.3478106260299683
1788965158917561900,7.105561767578125,0.08108174800872803,-0.5572730302810669,-1.2730711698532104
1788965158927590000,7.11558984375,-0.016113363206386566,-0.625391960144043,-1.2201286554336548
1788965158937619000,7.125618896484375,-0.04176652804017067,-0.6866625547409058,-1.2205288410186768
1788965158947647700,7.135647705078125,0.060361310839653015,-0.4859659969806671,-1.2432233095169067
1788965158957676000,7.145676025390625,0.15178869664669037,0.1024000346660614,-1.156688928604126
1788965158967704800,7.155704833984375,0.1370149403810501,0.6561263203620911,-0.8704723715782166
1788965158977734000,7.16573388671875,0.028133457526564598,0.7735512256622314,-0.5821702480316162
1788965158987762000,7.175761962890625,-0.04752149432897568,0.6755133867263794,-0.4398266673088074
1788965158997790700,7.185790771484375,-0.09104127436876297,0.5219757556915283,-0.35149386525154114
1788965159007819800,7.19581982421875,-0.09219230711460114,0.4483753442764282,-0.33629223704338074
1788965159017847800,7.205847900390625,-0.12365595251321793,0.36079543828964233,-0.2847808599472046
1788965159027876900,7.215876953125,-0.1385992020368576,0.26906484365463257,-0.10580898076295853
1788965159037906000,7.225906005859375,-0.16743804514408112,0.2182927429676056,0.10973822325468063
1788965159047934700,7.235934814453125,-0.20534545183181763,0.19634945690631866,0.2755017876625061
1788965159057963000,7.245962890625,-0.22318144142627716,0.2196614295244217,0.40382513403892517
1788965159067992000,7.255991943359375,-0.18795692920684814,0.22142326831817627,0.5381572842597961
1788965159078020900,7.266020751953125,-0.11351890861988068,0.10669216513633728,0.6823053956031799
1788965159088049000,7.276048828125,-0.048769451677799225,-0.047164857387542725,0.8162755966186523
1788965159098077700,7.28607763671875,-0.06204930320382118,-0.1408255696296692,0.953549325466156
1788965159108106800,7.296106689453125,-0.1375540792942047,-0.11656951904296875,1.1057403087615967
1788965159118135000,7.306135009765625,-0.22292277216911316,0.037263717502355576,1.2709639072418213
1788965159128163800,7.316163818359375,-0.330011248588562,0.27099403738975525,1.431302785873413
1788965159138193000,7.32619287109375,-0.45425277948379517,0.4884243607521057,1.5582338571548462
1788965159148220700,7.336220703125,-0.5773435235023499,0.6279758810997009,1.6668956279754639
1788965159158249700,7.346249755859375,-0.6693530678749084,0.6926643252372742,1.7586263418197632
1788965159168279000,7.356279052734375,-0.713420033454895,0.7378728985786438,1.8042521476745605
1788965159178307800,7.366307861328125,-0.7217317223548889,0.8035984039306641,1.776331901550293
1788965159188335900,7.3763359375,-0.6909846067428589,0.8931201100349426,1.6938692331314087
1788965159198365000,7.386364990234375,-0.6445931196212769,0.9934475421905518,1.6074458360671997
1788965159208393700,7.396393798828125,-0.5751656293869019,1.0396504402160645,1.5475010871887207
1788965159218422000,7.406422119140625,-0.4829004108905792,1.006967544555664,1.5241988897323608
1788965159228450800,7.416450927734375,-0.370805948972702,0.9339679479598999,1.5110796689987183
1788965159238480000,7.42647998046875,-0.27609729766845703,0.8911533951759338,1.5119481086730957
1788965159248507600,7.436507568359375,-0.2285233736038208,0.9199010133743286,1.4847174882888794
1788965159258536700,7.44653662109375,-0.1809380203485489,0.9657372236251831,1.3800075054168701
1788965159268566000,7.45656591796875,-0.14230206608772278,0.9596089124679565,1.2296162843704224
1788965159278595000,7.466594970703125,-0.08765321224927902,0.8883006572723389,1.1037286520004272
1788965159288622800,7.476622802734375,-0.026193836703896523,0.7816091775894165,1.018951177597046
1788965159298652000,7.48665185546875,0.020985927432775497,0.6634881496429443,0.9985844492912292
1788965159308680700,7.4966806640625,0.048194386065006256,0.5291426181793213,1.0200188159942627
1788965159318709000,7.506708984375,0.04619888216257095,0.4021284878253937,1.0547592639923096
1788965159328738000,7.516738037109375,0.017118338495492935,0.2999453842639923,1.0962681770324707
1788965159338766800,7.526766845703125,-0.022401107475161552,0.22676222026348114,1.1461780071258545
1788965159348795000,7.536794921875,-0.09891197085380554,0.14431436359882355,1.227618932723999
1788965159358823700,7.54682373046875,-0.16280919313430786,0.05712619051337242,1.3289740085601807
1788965159368852700,7.556852783203125,-0.21536174416542053,-0.0487215593457222,1.421512246131897
1788965159378880800,7.566880859375,-0.20822979509830475,-0.3122485280036926,1.524309515953064
1788965159388909800,7.576909912109375,-0.24434404075145721,-0.4181583523750305,1.5534977912902832
1788965159398939000,7.58693896484375,-0.29152727127075195,-0.46209225058555603,1.5490565299987793
1788965159408968000,7.596968017578125,-0.29542186856269836,-0.4327223002910614,1.497672200202942
1788965159418996000,7.606995849609375,-0.28531914949417114,-0.3812873363494873,1.4508634805679321
1788965159429025000,7.61702490234375,-0.2815665006637573,-0.3758017122745514,1.4024709463119507
1788965159439053800,7.6270537109375,-0.30575570464134216,-0.32356780767440796,1.3124244213104248
1788965159449081900,7.637081787109375,-0.338606595993042,-0.3032861649990082,1.224561333656311
1788965159459111000,7.64711083984375,-0.3862886428833008,-0.226654514670372,1.1930961608886719
1788965159469139700,7.6571396484375,-0.4451245367527008,-0.08403190970420837,1.1725761890411377
1788965159479168000,7.66716796875,-0.507322371006012,0.04771067947149277,1.1318782567977905
1788965159489198000,7.677197998046875,-0.5566542148590088,0.22542241215705872,1.0789775848388672
1788965159499227100,7.68722705078125,-0.581961452960968,0.2648411989212036,1.0609612464904785
1788965159509255200,7.697255126953125,-0.5818573236465454,0.1600286215543747,1.061448335647583
1788965159519284000,7.707283935546875,-0.545053243637085,-0.008977178484201431,1.0855294466018677
1788965159529313000,7.71731298828125,-0.49422773718833923,-0.157814159989357,1.1147325038909912
1788965159539342000,7.727342041015625,-0.43662726879119873,-0.20100024342536926,1.115713357925415
1788965159549370000,7.7373701171875,-0.39014872908592224,-0.21179810166358948,1.0625841617584229
1788965159559399200,7.747399169921875,-0.34725135564804077,-0.2716958224773407,1.0733274221420288
1788965159569428000,7.757427978515625,-0.332699716091156,-0.28467845916748047,1.1545556783676147
1788965159579456000,7.7674560546875,-0.33820366859436035,-0.3755580186843872,1.206612229347229
1788965159589485000,7.777485107421875,-0.3500961363315582,-0.5782891511917114,1.2402257919311523
1788965159599514000,7.78751416015625,-0.35792529582977295,-0.7638965845108032,1.263635516166687
1788965159609542100,7.797542236328125,-0.35502395033836365,-0.8549280166625977,1.2798874378204346
1788965159619571000,7.807571044921875,-0.32613930106163025,-0.8006013631820679,1.2804536819458008
1788965159629600000,7.81760009765625,-0.28316837549209595,-0.6393351554870605,1.2835932970046997
1788965159639629000,7.827629150390625,-0.23343543708324432,-0.4617297351360321,1.2786469459533691
1788965159649657000,7.837656982421875,-0.15583211183547974,-0.3405131697654724,1.2445249557495117
1788965159659686100,7.84768603515625,-0.04652560502290726,-0.26124709844589233,1.1954149007797241
1788965159669715200,7.857715087890625,0.08488449454307556,-0.23430123925209045,1.1658935546875
1788965159679743000,7.867742919921875,0.20283882319927216,-0.22601720690727234,1.1482492685317993
1788965159689772000,7.87777197265625,0.28959211707115173,-0.2794080972671509,1.152381181716919
1788965159699801000,7.887801025390625,0.3467960059642792,-0.3696889877319336,1.1883362531661987
1788965159709829000,7.8978291015625,0.3810148239135742,-0.4578217566013336,1.2494722604751587
1788965159719858200,7.907858154296875,0.3990524113178253,-0.42849260568618774,1.284568190574646
1788965159729887000,7.917886962890625,0.4321393668651581,-0.4976722002029419,1.3205726146697998
1788965159739916000,7.927916015625,0.4711270034313202,-0.5619071125984192,1.3587646484375
1788965159749944000,7.937944091796875,0.4844232201576233,-0.6463825702667236,1.39753258228302
1788965159759973000,7.94797314453125,0.47446727752685547,-0.7277935147285461,1.4569189548492432
1788965159770002200,7.958002197265625,0.47866469621658325,-0.8237307667732239,1.5369476079940796
1788965159780030000,7.968030029296875,0.48066580295562744,-0.9296545386314392,1.6067794561386108
1788965159790059000,7.97805908203125,0.4909747242927551,-0.9876264333724976,1.682707667350769
1788965159800088000,7.988088134765625,0.5076069831848145,-1.0219956636428833,1.768812656402588
1788965159810116000,7.9981162109375,0.4883062541484833,-0.9298495650291443,1.7918285131454468
1788965159820145200,8.008145263671874,0.4395240545272827,-0.9088484048843384,1.81520676612854
1788965159830174000,8.018174072265625,0.417831152677536,-0.9018293023109436,1.835672378540039
1788965159840202000,8.028201904296875,0.35463887453079224,-0.8491690158843994,1.849640130996704
1788965159850231300,8.038231201171875,0.32844093441963196,-0.7816269397735596,1.8521733283996582
1788965159860260000,8.048260009765626,0.30034512281417847,-0.7154814600944519,1.8662554025650024
1788965159870289200,8.0582890625,0.26527902483940125,-0.710336446762085,1.8918992280960083
1788965159880317000,8.06831689453125,0.2302454113960266,-0.6698811650276184,1.9164679050445557
1788965159890346000,8.078345947265625,0.22725291550159454,-0.5817933678627014,1.9514702558517456
1788965159900375000,8.088375,0.21514512598514557,-0.5272251963615417,1.9688355922698975
1788965159910403000,8.098403076171875,0.22210024297237396,-0.39717429876327515,1.975955605506897
1788965159920432000,8.10843212890625,0.19246621429920197,-0.33815839886665344,2.034808874130249
1788965159930461200,8.118461181640624,0.16679973900318146,-0.20674961805343628,2.0888402462005615
1788965159940489000,8.128489013671874,0.16803118586540222,-0.08676300942897797,2.1269044876098633
1788965159950518000,8.13851806640625,0.1799689531326294,0.0002808310091495514,2.1982080936431885
1788965159960547000,8.148547119140625,0.13156253099441528,0.08733024448156357,2.2321646213531494
1788965159970576100,8.158576171875,0.031665898859500885,0.3229682743549347,2.2575671672821045
1788965159980604200,8.168604248046876,-0.06834112107753754,0.5378459692001343,2.2738988399505615
1788965159990633000,8.178633056640624,-0.14237529039382935,0.7370633482933044,2.2173469066619873
1788965160000662000,8.188662109375,-0.17000825703144073,0.9642746448516846,2.094651699066162
1788965160010690000,8.19868994140625,-0.16581271588802338,1.1229884624481201,1.9015380144119263
1788965160020719000,8.208718994140625,-0.1407041698694229,1.2277220487594604,1.696608304977417
1788965160030748200,8.218748046875,-0.1180044412612915,1.233370304107666,1.532076358795166
1788965160040776000,8.22877587890625,-0.0890718549489975,1.3089414834976196,1.3818594217300415
1788965160050805000,8.238804931640624,-0.07236385345458984,1.3813637495040894,1.208997368812561
1788965160060834000,8.248833984375,-0.03634512796998024,1.3458257913589478,1.014770269393921
1788965160070863000,8.258863037109375,0.020568344742059708,1.2364574670791626,0.8667965531349182
1788965160080891100,8.26889111328125,0.1067596897482872,1.1300472021102905,0.7657567858695984
1788965160090920000,8.278919921875,0.16900856792926788,1.0501402616500854,0.6924343109130859
1788965160100949000,8.288948974609376,0.19669559597969055,0.9318448305130005,0.6277911067008972
1788965160110977300,8.298977294921874,0.19914011657238007,0.8812157511711121,0.5316205620765686
1788965160121006000,8.309006103515625,0.21612229943275452,0.823525071144104,0.4269479811191559
1788965160131035100,8.31903515625,0.2559565305709839,0.7115064263343811,0.34552258253097534
1788965160141063000,8.32906298828125,0.2924216091632843,0.5600452423095703,0.289174348115921
1788965160151092000,8.339092041015626,0.28799471259117126,0.4830579161643982,0.22116827964782715
1788965160161121000,8.34912109375,0.30376383662223816,0.3665299713611603,0.17263829708099365
1788965160171150000,8.359150146484374,0.33595922589302063,0.2773546874523163,0.17660152912139893
1788965160181178000,8.36917822265625,0.40292733907699585,0.22860072553157806,0.19408199191093445
1788965160191207200,8.379207275390625,0.4652775228023529,0.18798860907554626,0.24081839621067047
1788965160201236000,8.389236083984375,0.42437508702278137,0.41285181045532227,0.15847265720367432
1788965160211264300,8.39926416015625,0.3456050455570221,0.49015772342681885,0.08923686295747757
1788965160221293000,8.40929296875,0.31672972440719604,0.48545190691947937,0.10931789129972458
1788965160231322000,8.419322021484374,0.38354429602622986,0.4342842400074005,0.22257359325885773
1788965160241350100,8.42935009765625,0.42546457052230835,0.5281127095222473,0.25871536135673523
1788965160251379000,8.43937890625,0.38812360167503357,0.7464327216148376,0.17568600177764893
1788965160261408000,8.449407958984375,0.3220662772655487,0.6916880011558533,0.07977331429719925
1788965160271437000,8.45943701171875,0.33242347836494446,0.6249688267707825,0.04315751791000366
1788965160281465000,8.469465087890624,0.39400985836982727,0.5750582814216614,0.08840329200029373
1788965160291494100,8.479494140625,0.4574807286262512,0.6260346174240112,0.15747690200805664
1788965160301523000,8.48952294921875,0.5283775329589844,0.7721343040466309,0.14962270855903625
1788965160311551000,8.499551025390625,0.5527172088623047,0.7072077989578247,0.06742407381534576
1788965160321580300,8.509580322265625,0.4391019344329834,0.6457971930503845,-0.003505487460643053
1788965160331609000,8.519609130859376,0.2251618504524231,0.5806937217712402,-0.023287059739232063
1788965160341637000,8.52963720703125,0.006540302187204361,0.6737730503082275,-0.010906023904681206
1788965160351666000,8.539666015625,-0.1467275619506836,0.7112258076667786,0.02247060090303421
1788965160361695000,8.549695068359375,-0.24911971390247345,0.7048534154891968,0.09296100586652756
1788965160371724000,8.55972412109375,-0.3290692865848541,0.7253980040550232,0.13295292854309082
1788965160381752000,8.569751953125,-0.35088616609573364,0.7279919385910034,0.14393660426139832
1788965160391781000,8.579781005859376,-0.3123900294303894,0.6110358238220215,0.25155171751976013
1788965160401810200,8.58981005859375,-0.2539307177066803,0.5052129626274109,0.4390214681625366
1788965160411838000,8.599837890625,-0.2342536598443985,0.47162237763404846,0.611309826374054
1788965160421867000,8.609866943359375,-0.23184563219547272,0.4142187237739563,0.7550989389419556
1788965160431896000,8.61989599609375,-0.19615887105464935,0.32834526896476746,0.8056579828262329
1788965160441924000,8.629924072265625,-0.13076575100421906,0.16869783401489258,0.7318711280822754
1788965160451953200,8.639953125,-0.07819457352161407,0.11515790224075317,0.6127200722694397
1788965160461982000,8.64998193359375,-0.024041594937443733,0.07911494374275208,0.450855553150177
1788965160472011000,8.660010986328125,0.08064527809619904,0.004984003491699696,0.09265369921922684
1788965160482039000,8.6700390625,0.19671329855918884,-0.027719082310795784,-0.39085012674331665
1788965160492067000,8.680067138671875,0.2632089853286743,0.029151078313589096,-0.7668488025665283
1788965160502096000,8.690095947265625,0.19928351044654846,0.0840233862400055,-0.9501677751541138
1788965160512124200,8.700124267578126,0.12612806260585785,0.24067369103431702,-1.1357048749923706
1788965160522153000,8.710153076171874,0.05266502872109413,0.40845468640327454,-1.2539931535720825
1788965160532182000,8.72018212890625,-0.03176059573888779,0.537115752696991,-1.330500841140747
1788965160542209800,8.730209716796875,-0.06657423079013824,0.5593201518058777,-1.37384831905365
1788965160552238800,8.74023876953125,-0.03999818488955498,0.5091431140899658,-1.474908709526062
1788965160562268000,8.750267822265625,-0.012090652249753475,0.33553507924079895,-1.5717915296554565
1788965160572297200,8.760297119140626,0.045206084847450256,0.23077216744422913,-1.6504987478256226
1788965160582325000,8.770324951171874,0.09572838246822357,0.21927689015865326,-1.7010003328323364
1788965160592354000,8.78035400390625,0.10296602547168732,0.257985383272171,-1.671791434288025
1788965160602382800,8.7903828125,0.11978868395090103,0.3079577386379242,-1.650270700454712
1788965160612411100,8.8004111328125,0.10941286385059357,0.35815274715423584,-1.6759589910507202
1788965160622440200,8.810440185546875,0.054342951625585556,0.3958119750022888,-1.6647050380706787
1788965160632469000,8.820468994140626,0.06473422050476074,0.42384108901023865,-1.671727180480957
1788965160642497000,8.8304970703125,0.1487758606672287,0.398898184299469,-1.7577518224716187
1788965160652525800,8.84052587890625,0.19292014837265015,0.37225034832954407,-1.8813190460205078
1788965160662555000,8.850554931640625,0.16657721996307373,0.38397490978240967,-1.9987707138061523
1788965160672584000,8.860583984375,0.1185416504740715,0.41669830679893494,-2.0742268562316895
1788965160682612000,8.870612060546875,0.10030698776245117,0.45103204250335693,-2.0688464641571045
1788965160692641000,8.88064111328125,0.1061042994260788,0.4859134554862976,-1.9715522527694702
1788965160702670000,8.890670166015624,0.11866430193185806,0.4943125247955322,-1.8436691761016846
1788965160712697900,8.90069775390625,0.061550676822662354,0.48877182602882385,-1.7302206754684448
1788965160722727200,8.91072705078125,-0.07266811281442642,0.502095103263855,-1.6435030698776245
1788965160732756000,8.920755859375,-0.15196973085403442,0.442198783159256,-1.62717604637146
1788965160742785000,8.930784912109376,-0.13737720251083374,0.2976123094558716,-1.7331050634384155
1788965160752813000,8.94081298828125,-0.08319412171840668,0.16545023024082184,-1.8593940734863281
1788965160762841900,8.950841796875,-0.03566601127386093,0.12988078594207764,-1.8917334079742432
1788965160772871000,8.960870849609375,-0.021198488771915436,0.12993474304676056,-1.830743670463562
1788965160782899000,8.97089892578125,-0.014329131692647934,0.13202212750911713,-1.7571152448654175
1788965160792928000,8.980927978515625,0.007420588284730911,0.11555146425962448,-1.7160587310791016
1788965160802957000,8.99095703125,-0.012023149989545345,0.11830597370862961,-1.724478840827942
1788965160812984800,9.00098486328125,-0.04441862925887108,0.16199982166290283,-1.756947636604309
1788965160823014100,9.01101416015625,-0.05997415632009506,0.22906248271465302,-1.767057180404663
1788965160833043200,9.021043212890625,-0.10433004051446915,0.22507822513580322,-1.7819091081619263
1788965160843072000,9.031072021484375,-0.14198553562164307,0.21234166622161865,-1.7311668395996094
1788965160853100000,9.04110009765625,-0.26480066776275635,0.0771062821149826,-1.6134628057479858
1788965160863128800,9.05112890625,-0.3331032991409302,0.010952562093734741,-1.510184407234192
1788965160873158000,9.061157958984374,-0.44291090965270996,0.13766881823539734,-1.469765067100525
1788965160883186000,9.07118603515625,-0.5451629757881165,0.2707139551639557,-1.3854269981384277
1788965160893215000,9.081215087890625,-0.5572220087051392,0.34959447383880615,-1.308652639389038
1788965160903244000,9.091244140625,-0.5497097969055176,0.33885928988456726,-1.2223763465881348
1788965160913271800,9.101271728515625,-0.5216256976127625,0.2256835401058197,-1.0914294719696045
1788965160923300900,9.11130078125,-0.46625080704689026,0.09129669517278671,-1.0112073421478271
1788965160933330200,9.121330078125,-0.3827912211418152,0.07568827271461487,-1.0052461624145508
1788965160943359000,9.13135888671875,-0.2997485399246216,0.07366347312927246,-0.9753069281578064
1788965160953387000,9.141386962890625,-0.3059735596179962,0.10765226185321808,-0.8886143565177917
1788965160963416000,9.151416015625,-0.2173275649547577,0.09509439021348953,-0.8307337164878845
1788965160973444900,9.16144482421875,-0.17081251740455627,0.10099586844444275,-0.8275693655014038
1788965160983473200,9.17147314453125,-0.15007688105106354,0.09429748356342316,-0.8222401142120361
1788965160993502000,9.181501953125,-0.12121165543794632,0.037863846868276596,-0.7573206424713135
1788965161003531000,9.191531005859375,-0.020532984286546707,-0.04696422442793846,-0.7389402985572815
1788965161013560000,9.20156005859375,0.04204489290714264,-0.09633056819438934,-0.7895240187644958
1788965161023587800,9.211587890625,0.09622077643871307,-0.1697390079498291,-0.8237097263336182
1788965161033617000,9.221616943359376,0.02798927016556263,-0.21681484580039978,-0.7926625609397888
1788965161043646200,9.231646240234374,0.03720513731241226,-0.2977810502052307,-0.7022144198417664
1788965161053674000,9.241674072265624,0.04986007884144783,-0.25407224893569946,-0.6558352112770081
1788965161063703000,9.251703125,0.05567988380789757,-0.23001457750797272,-0.6183344125747681
1788965161073731800,9.26173193359375,0.035997260361909866,-0.2881978452205658,-0.5739544630050659
1788965161083760000,9.271760009765625,0.055423952639102936,-0.4460434019565582,-0.4782167375087738
1788965161093789200,9.2817890625,0.01932854764163494,-0.5602678656578064,-0.35807469487190247
1788965161103818000,9.29181787109375,-0.00016978601342998445,-0.46683672070503235,-0.3106115758419037
1788965161113847000,9.301846923828125,0.052714042365550995,-0.2844626307487488,-0.32233259081840515
1788965161123874800,9.311874755859375,0.050367001444101334,-0.3333902060985565,-0.3279007077217102
1788965161133904000,9.32190380859375,-0.0007289404165931046,-0.4844955801963806,-0.2238944172859192
1788965161143933200,9.33193310546875,-0.026699820533394814,-0.5577652454376221,-0.07453157007694244
1788965161153961000,9.3419609375,-0.01955653354525566,-0.4626113474369049,0.032671235501766205
1788965161163990000,9.351989990234374,-0.011599807068705559,-0.2773520052433014,0.08519622683525085
1788965161174019000,9.36201904296875,0.025612663477659225,-0.18818996846675873,0.10994317382574081
1788965161184047900,9.3720478515625,0.07112448662519455,-0.330000102519989,0.16774415969848633
1788965161194076200,9.382076171875,0.07140732556581497,-0.47927433252334595,0.2338845431804657
1788965161204105000,9.39210498046875,0.06922166794538498,-0.5133739709854126,0.2632019519805908
1788965161214134000,9.402134033203126,0.0787065178155899,-0.5271093249320984,0.2581222355365753
1788965161224161800,9.412161865234374,0.10250558704137802,-0.5788441896438599,0.26261070370674133
1788965161234190800,9.42219091796875,0.12709785997867584,-0.6103934645652771,0.2793314456939697
1788965161244220000,9.432219970703125,0.09892161935567856,-0.5818917751312256,0.3643861413002014
1788965161254248000,9.442248046875,0.07693016529083252,-0.5590837597846985,0.4772610366344452
1788965161264277000,9.452277099609375,0.09815555810928345,-0.5174433588981628,0.5134558081626892
1788965161274306000,9.46230615234375,0.11893060803413391,-0.4271010458469391,0.4841242730617523
1788965161284334800,9.4723349609375,0.13833706080913544,-0.4301948547363281,0.43533119559288025
1788965161294363100,9.482363037109375,0.14253289997577667,-0.42682385444641113,0.3896077871322632
1788965161304392200,9.49239208984375,0.1413392722606659,-0.36870595812797546,0.35523489117622375
1788965161314421000,9.5024208984375,0.13858634233474731,-0.315326452255249,0.33766448497772217
1788965161324449000,9.512448974609375,0.13441956043243408,-0.22306309640407562,0.326212078332901
1788965161334477800,9.522477783203126,0.12789402902126312,-0.13244737684726715,0.2866273820400238
1788965161344507000,9.5325068359375,0.1330094337463379,-0.10721074044704437,0.24720674753189087
1788965161354536000,9.542535888671875,0.13180433213710785,-0.12264282256364822,0.2400388866662979
1788965161364564000,9.55256396484375,0.10743667930364609,-0.09790737926959991,0.20749984681606293
1788965161374593000,9.562593017578125,0.07677330076694489,-0.06046750396490097,0.1785140335559845
1788965161384622000,9.5726220703125,0.060701653361320496,-0.09486382454633713,0.20767565071582794
1788965161394649900,9.58264990234375,0.07690396159887314,-0.14119043946266174,0.2818291187286377
1788965161404679200,9.59267919921875,0.10996551066637039,-0.15726926922798157,0.376095175743103
1788965161414708000,9.6027080078125,0.104810930788517,-0.12777265906333923,0.4836781919002533
1788965161424736000,9.612736083984375,0.059245310723781586,-0.047017090022563934,0.5901596546173096
1788965161434765000,9.62276513671875,0.057196035981178284,-0.020817143842577934,0.6392495632171631
1788965161444793900,9.6327939453125,0.06468191742897034,-0.03555294871330261,0.5562793016433716
1788965161454823000,9.642822998046874,0.0845503956079483,-0.0060882531106472015,0.4923055171966553
1788965161464851000,9.652850830078124,0.08210375159978867,0.1130346730351448,0.48338553309440613
1788965161474880000,9.6628798828125,0.0979522168636322,0.22775401175022125,0.5244301557540894
1788965161484909000,9.672908935546875,0.10237360000610352,0.17936010658740997,0.6048057079315186
1788965161494937300,9.682937255859375,0.039631955325603485,0.051978498697280884,0.6607143878936768
1788965161504966400,9.69296630859375,-0.01448880322277546,0.031182941049337387,0.6342495083808899
1788965161514995500,9.702995361328124,-0.026116451248526573,0.1243109330534935,0.5539957284927368
1788965161525023500,9.7130234375,0.003484050976112485,0.13569514453411102,0.5138163566589355
1788965161535052500,9.723052490234375,0.07339722663164139,0.08321449160575867,0.46868056058883667
1788965161545081300,9.733081298828125,0.12239646166563034,0.060748595744371414,0.42922982573509216
1788965161555110400,9.7431103515625,0.10603561252355576,0.07878853380680084,0.4436417520046234
1788965161565138700,9.753138671875,0.0558006651699543,0.03497979789972305,0.5539525747299194
1788965161575167500,9.76316748046875,-0.01804252155125141,0.021647978574037552,0.6795094013214111
1788965161585196500,9.773196533203125,-0.06563480943441391,-0.003948994912207127,0.7820320129394531
1788965161595224300,9.783224365234375,-0.06910094618797302,-0.04751889407634735,0.845740020275116
1788965161605253400,9.79325341796875,-0.05539818853139877,-0.023347776383161545,0.8594382405281067
1788965161615282400,9.803282470703126,-0.04309863597154617,0.07000672817230225,0.8509925603866577
1788965161625311500,9.8133115234375,-0.027511952444911003,0.13418146967887878,0.882282555103302
1788965161635339500,9.823339599609374,-0.02122887223958969,0.19364933669567108,0.9174764752388
1788965161645368600,9.83336865234375,-0.026555992662906647,0.24498149752616882,0.9265892505645752
1788965161655397400,9.8433974609375,-0.03340313583612442,0.23263190686702728,0.9300674200057983
1788965161665425700,9.85342578125,-0.045043811202049255,0.17347751557826996,0.9405298829078674
1788965161675454500,9.863454345703126,-0.05453675240278244,0.1582365483045578,0.9736155867576599
1788965161685483500,9.8734833984375,-0.06943900138139725,0.18229208886623383,1.0045415163040161
1788965161695512600,9.8835126953125,-0.03421032801270485,0.14189830422401428,1.0210106372833252
1788965161705540400,9.893540283203125,-0.014710929244756699,0.09617821872234344,1.0107457637786865
1788965161715569400,9.9035693359375,0.013745088130235672,-0.019630558788776398,1.0095807313919067
1788965161725598500,9.913598388671875,0.06932952255010605,-0.1857854425907135,1.0445563793182373
1788965161735626500,9.92362646484375,0.13125520944595337,-0.2753792107105255,1.0735187530517578
1788965161745655600,9.933655517578124,0.1877022385597229,-0.30843544006347656,1.0727030038833618
1788965161755684400,9.943684326171875,0.20080684125423431,-0.2637642025947571,1.0721834897994995
1788965161765713400,9.95371337890625,0.17413395643234253,-0.16657185554504395,1.097542643547058
1788965161775741700,9.96374169921875,0.14751499891281128,-0.07918033748865128,1.1654411554336548
1788965161785770500,9.9737705078125,0.1535574495792389,-0.031396567821502686,1.24708092212677
1788965161795799600,9.983799560546874,0.18864166736602783,-0.09455310553312302,1.294440746307373
1788965161805827300,9.993827392578124,0.23685872554779053,-0.28375259041786194,1.2589727640151978
1788965161815856400,10.0038564453125,0.2766238749027252,-0.46381676197052,1.1976995468139648
1788965161825885400,10.013885498046875,0.30954238772392273,-0.5671654939651489,1.1674761772155762
1788965161835913500,10.02391357421875,0.3280581533908844,-0.5923110246658325,1.1849147081375122
1788965161845942500,10.033942626953126,0.3260647654533386,-0.521067202091217,1.1920621395111084
1788965161855971600,10.0439716796875,0.31660428643226624,-0.4161362648010254,1.1911029815673828
1788965161866000400,10.05400048828125,0.30766060948371887,-0.36698654294013977,1.1780668497085571
1788965161876028400,10.0640283203125,0.3223671317100525,-0.36429664492607117,1.1454557180404663
1788965161886057500,10.074057373046875,0.32740503549575806,-0.4333617091178894,1.1483250856399536
1788965161896086500,10.08408642578125,0.3296504318714142,-0.5367218852043152,1.186284065246582
1788965161906114600,10.094114501953126,0.32619231939315796,-0.6194953322410583,1.2361618280410767
1788965161916143400,10.104143310546876,0.31031325459480286,-0.6600517630577087,1.3086665868759155
1788965161926172400,10.11417236328125,0.3189043402671814,-0.6433481574058533,1.3860883712768555
1788965161936201500,10.124201416015625,0.3218170404434204,-0.6362391114234924,1.4438477754592896
1788965161946229500,10.1342294921875,0.3289271295070648,-0.5995332598686218,1.457192301750183
1788965161956258600,10.144258544921875,0.3255051076412201,-0.5438984036445618,1.4447572231292725
1788965161966287400,10.154287353515626,0.33157259225845337,-0.5182977318763733,1.4192407131195068
1788965161976315400,10.1643154296875,0.3435734510421753,-0.5629969239234924,1.3752561807632446
1788965161986344400,10.174344482421875,0.34465762972831726,-0.6239620447158813,1.3667311668395996
1788965161996373500,10.18437353515625,0.34857913851737976,-0.6356672644615173,1.3729640245437622
1788965162006402600,10.194402587890625,0.34157687425613403,-0.648395836353302,1.403699517250061
1788965162016430300,10.204430419921875,0.34551915526390076,-0.6507338285446167,1.4426811933517456
1788965162026459400,10.21445947265625,0.3534087538719177,-0.5839763283729553,1.4848209619522095
1788965162036488400,10.224488525390624,0.3456825613975525,-0.4793023467063904,1.5204042196273804
1788965162046516500,10.2345166015625,0.3221074640750885,-0.392505407333374,1.5525174140930176
1788965162056545500,10.244545654296875,0.2548024654388428,-0.35726794600486755,1.5571554899215698
1788965162066574600,10.25457470703125,0.21371731162071228,-0.3457114100456238,1.525336503982544
1788965162076602400,10.264602294921875,0.18894942104816437,-0.376232385635376,1.4947112798690796
1788965162086631400,10.27463134765625,0.15117408335208893,-0.24463415145874023,1.4349671602249146
1788965162096660500,10.284660400390624,0.05750230327248573,-0.030521593987941742,1.3814501762390137
1788965162106689500,10.294689453125,-0.04276544600725174,0.13482342660427094,1.3713836669921875
1788965162116717600,10.304717529296875,-0.11055062711238861,0.2620103359222412,1.4024238586425781
1788965162126746400,10.314746337890625,-0.14470647275447845,0.3067179024219513,1.424757957458496
1788965162136775400,10.324775390625,-0.18382444977760315,0.3138861060142517,1.432244896888733
1788965162146803500,10.334803466796876,-0.21572965383529663,0.41714832186698914,1.361469030380249
1788965162156832500,10.34483251953125,-0.18350286781787872,0.44792288541793823,1.3072377443313599
1788965162166861600,10.354861572265625,-0.13691139221191406,0.38623690605163574,1.2732222080230713
1788965162176890400,10.364890380859375,-0.11984039843082428,0.3639620840549469,1.224906086921692
1788965162186918400,10.37491845703125,-0.14230656623840332,0.36264142394065857,1.1307241916656494
1788965162196947500,10.384947509765626,-0.17413410544395447,0.3784767985343933,0.9901130199432373
1788965162206976500,10.3949765625,-0.21660619974136353,0.50238037109375,0.86094731092453
1788965162217004500,10.405004638671874,-0.20182237029075623,0.33851397037506104,0.7749633193016052
1788965162227033300,10.415033447265625,-0.14573247730731964,0.1989014893770218,0.6707953810691833
1788965162237062400,10.4250625,-0.11383125931024551,0.22515681385993958,0.5584083199501038
1788965162247091500,10.435091552734375,-0.10053782165050507,0.25719863176345825,0.5230007767677307
1788965162257119500,10.445119384765626,-0.07205050438642502,0.24144162237644196,0.44131892919540405
1788965162267148500,10.4551484375,-0.04494884982705116,0.20415496826171875,0.3910056948661804
1788965162277177600,10.465177490234375,-0.03330913186073303,0.18126289546489716,0.3809824585914612
1788965162287205400,10.475205322265625,-0.024002714082598686,0.17214183509349823,0.3873958885669708
1788965162297234400,10.485234375,-0.043033894151449203,0.26575708389282227,0.3255816698074341
1788965162307263500,10.495263427734375,-0.0771694928407669,0.3605493903160095,0.3066955804824829
1788965162317292500,10.50529248046875,-0.07633953541517258,0.41483423113822937,0.2905225455760956
1788965162327320600,10.515320556640624,-0.048696186393499374,0.45231902599334717,0.24929918348789215
1788965162337349400,10.525349365234375,-0.020752176642417908,0.4778270721435547,0.2232455015182495
1788965162347378400,10.53537841796875,-0.0006192105356603861,0.420792818069458,0.1364956945180893
1788965162357406500,10.545406494140625,0.02640576846897602,0.3254301846027374,-0.06933397054672241
1788965162367435500,10.555435546875,0.049058083444833755,0.26605555415153503,-0.20244169235229492
1788965162377464600,10.565464599609374,0.08626136183738708,0.28500449657440186,-0.17848728597164154
1788965162387493400,10.575493408203124,0.13276387751102448,0.27748504281044006,-0.1212271898984909
1788965162397521400,10.585521484375,0.08049854636192322,0.34720689058303833,-0.13457149267196655
1788965162407550500,10.595550537109375,0.014345626346766949,0.4194656312465668,-0.27257996797561646
1788965162417579500,10.60557958984375,0.04935581237077713,0.3815394937992096,-0.3808646500110626
1788965162427607600,10.615607666015626,0.15776990354061127,0.3063448667526245,-0.5880441665649414
1788965162437636400,10.62563623046875,0.279513418674469,0.21304534375667572,-0.742256224155426
1788965162447665400,10.63566552734375,0.29255571961402893,0.32913118600845337,-0.8751839399337769
1788965162457694500,10.645694580078125,0.26339486241340637,0.44705796241760254,-0.9251623153686523
1788965162467722500,10.655722412109375,0.3288865387439728,0.4129846692085266,-0.9218834042549133
1788965162477751600,10.66575146484375,0.5023728013038635,0.24197803437709808,-0.9591069221496582
1788965162487780600,10.675780517578126,0.6120925545692444,0.12278790026903152,-1.0369168519973755
1788965162497808400,10.685808349609376,0.6381446719169617,0.06970290094614029,-1.0562143325805664
1788965162507837400,10.69583740234375,0.6291740536689758,0.11403334885835648,-1.054311752319336
1788965162517866500,10.705866455078125,0.6311678290367126,0.1797938346862793,-1.0560303926467896
1788965162527895600,10.7158955078125,0.6621925830841064,0.1450427770614624,-1.0671753883361816
1788965162537923300,10.72592333984375,0.6832199692726135,0.1101769357919693,-1.1321648359298706
1788965162547952400,10.735952392578126,0.6664884090423584,0.0726093202829361,-1.1991955041885376
1788965162557981400,10.7459814453125,0.678236186504364,-0.006878692656755447,-1.231452465057373
1788965162568009500,10.756009521484375,0.744817316532135,-0.07810360193252563,-1.2739983797073364
1788965162578038500,10.76603857421875,0.766154944896698,-0.08518099784851074,-1.3519648313522339
1788965162588067600,10.776067626953125,0.742321252822876,-0.08873657882213593,-1.4133719205856323
1788965162598096400,10.786096435546876,0.7309532761573792,-0.11268247663974762,-1.4457658529281616
1788965162608124400,10.79612451171875,0.779221773147583,-0.12808246910572052,-1.506178617477417
1788965162618153200,10.8061533203125,0.8103442192077637,-0.15115489065647125,-1.597652792930603
1788965162628182500,10.8161826171875,0.7742253541946411,-0.1524031162261963,-1.6368962526321411
1788965162638210600,10.82621044921875,0.7324896454811096,-0.1391543447971344,-1.6157704591751099
1788965162648239400,10.8362392578125,0.6930511593818665,-0.12166085094213486,-1.600136160850525
1788965162658268400,10.846268310546876,0.6670054793357849,-0.13959576189517975,-1.6367214918136597
1788965162668296400,10.85629638671875,0.6404513716697693,-0.20194782316684723,-1.7018839120864868
1788965162678325500,10.866325439453124,0.6411330699920654,-0.2588486969470978,-1.7914340496063232
1788965162688354600,10.8763544921875,0.6420244574546814,-0.25976428389549255,-1.84958016872406
1788965162698383400,10.88638330078125,0.62176913022995,-0.24794185161590576,-1.8132730722427368
1788965162708411400,10.896411376953125,0.5815396904945374,-0.23685218393802643,-1.6943567991256714
1788965162718440400,10.9064404296875,0.5418378114700317,-0.17386263608932495,-1.5840963125228882
1788965162728469200,10.91646923828125,0.5019673705101013,-0.11161737143993378,-1.532934546470642
1788965162738497500,10.92649755859375,0.48676595091819763,-0.135475292801857,-1.5366517305374146
1788965162748526300,10.9365263671875,0.4967493414878845,-0.1920139342546463,-1.6351606845855713
1788965162758555400,10.946555419921875,0.506355881690979,-0.23530572652816772,-1.7287991046905518
1788965162768584400,10.95658447265625,0.4827410876750946,-0.29535815119743347,-1.675870656967163
1788965162778612500,10.966612548828126,0.44539904594421387,-0.3362196981906891,-1.5622938871383667
1788965162788641500,10.9766416015625,0.4357810616493225,-0.31159451603889465,-1.492313265800476
1788965162798670600,10.986670654296875,0.4229241907596588,-0.22680436074733734,-1.4800297021865845
1788965162808698400,10.996698486328125,0.396573007106781,-0.21537114679813385,-1.5439447164535522
1788965162818727400,11.0067275390625,0.36373427510261536,-0.25531813502311707,-1.5848997831344604
1788965162828756200,11.016756103515625,0.34535926580429077,-0.30512696504592896,-1.5778056383132935
1788965162838785500,11.02678564453125,0.32557395100593567,-0.3356635868549347,-1.5515879392623901
1788965162848813600,11.0368134765625,0.33160150051116943,-0.3759806752204895,-1.5617798566818237
1788965162858842400,11.04684228515625,0.33602526783943176,-0.41134995222091675,-1.5756514072418213
1788965162868871400,11.056871337890625,0.32777851819992065,-0.41799959540367126,-1.5898231267929077
1788965162878899500,11.0668994140625,0.2997652590274811,-0.44618839025497437,-1.5433471202850342
1788965162888928500,11.076928466796875,0.2750103771686554,-0.4483591318130493,-1.4470094442367554
1788965162898957600,11.08695751953125,0.2686214745044708,-0.4351789355278015,-1.363773226737976
1788965162908986400,11.096986328125,0.2957287132740021,-0.429500013589859,-1.3286224603652954
1788965162919014400,11.107014404296875,0.32784098386764526,-0.4102707803249359,-1.359877347946167
1788965162929043500,11.11704345703125,0.3515748083591461,-0.3822987973690033,-1.449556827545166
1788965162939072300,11.127072265625,0.3523159623146057,-0.36180785298347473,-1.5107941627502441
1788965162949100500,11.1371005859375,0.3057713806629181,-0.3261193633079529,-1.477321982383728
1788965162959129300,11.14712939453125,0.2298719584941864,-0.28888022899627686,-1.3672451972961426
1788965162969158400,11.157158447265624,0.1569785624742508,-0.24457401037216187,-1.2343811988830566
1788965162979187500,11.1671875,0.08539318293333054,-0.20903275907039642,-1.1327322721481323
1788965162989215500,11.177215576171875,0.03678516298532486,-0.189265176653862,-1.1008492708206177
1788965162999244500,11.18724462890625,0.054081991314888,-0.1241273507475853,-1.1094731092453003
1788965163009273600,11.197273681640626,0.0976284071803093,-0.018150851130485535,-1.1339293718338013
1788965163019301400,11.20730126953125,0.12614740431308746,0.06167848780751228,-1.1457128524780273
1788965163029330400,11.217330322265624,0.05001802369952202,0.16571806371212006,-1.1277247667312622
1788965163039359200,11.227359130859375,-0.002719772746786475,0.16330058872699738,-1.065354585647583
1788965163049388300,11.23738818359375,-0.05278906598687172,0.06265281140804291,-0.9482114315032959
1788965163059416600,11.24741650390625,-0.11409781873226166,0.018474435433745384,-0.8214950561523438
1788965163069445400,11.2574453125,-0.13310454785823822,0.060374751687049866,-0.7030893564224243
1788965163079474400,11.267474365234374,-0.11879187077283859,0.12206016480922699,-0.6208299994468689
1788965163089502200,11.277502197265624,-0.08597906678915024,0.1890924572944641,-0.5990365743637085
1788965163099531500,11.287531494140625,-0.08898566663265228,0.19941318035125732,-0.5614722967147827
1788965163109560600,11.297560546875,-0.20616662502288818,0.2451774626970291,-0.48484835028648376
1788965163119589400,11.30758935546875,-0.30389079451560974,0.25825613737106323,-0.3509933352470398
1788965163129617400,11.317617431640626,-0.30132856965065,0.1511688381433487,-0.1806788593530655
1788965163139646500,11.327646484375,-0.2679102420806885,0.1365288496017456,-0.06829597055912018
1788965163149675300,11.33767529296875,-0.20639708638191223,0.17927046120166779,-0.017586715519428253
1788965163159704300,11.347704345703125,-0.1571681797504425,0.16102568805217743,-0.013829180039465427
1788965163169732400,11.357732421875,-0.11986102908849716,0.13633206486701965,0.02115890011191368
1788965163179761400,11.367761474609376,-0.11013651639223099,0.1827269196510315,0.07160136848688126
1788965163189790500,11.37779052734375,-0.09506355971097946,0.23965704441070557,0.08401010185480118
1788965163199818500,11.387818603515624,-0.09272195398807526,0.3459751605987549,0.020070495083928108
1788965163209847600,11.39784765625,-0.09366551786661148,0.3843020498752594,-0.03706922382116318
1788965163219876600,11.407876708984375,-0.0946827083826065,0.3742089867591858,-0.04538894444704056
1788965163229904400,11.417904296875,-0.12379319220781326,0.3534299433231354,-0.015554615296423435
1788965163239933400,11.427933349609376,-0.10222598165273666,0.2901765704154968,0.03612538427114487
1788965163249962200,11.437962158203124,-0.10559488087892532,0.31959888339042664,0.08679921925067902
1788965163259991300,11.4479912109375,-0.10745988041162491,0.3700026571750641,0.11600977182388306
1788965163270019600,11.45801953125,-0.09269878268241882,0.34030681848526,0.14185841381549835
1788965163280048400,11.46804833984375,-0.0852789506316185,0.2913392186164856,0.18365728855133057
1788965163290077400,11.478077392578125,-0.08794531226158142,0.24737653136253357,0.23587681353092194
1788965163300106500,11.4881064453125,-0.10327538847923279,0.228693425655365,0.26605573296546936
1788965163310134500,11.498134521484374,-0.11561008542776108,0.2490524798631668,0.27788200974464417
1788965163320163600,11.50816357421875,-0.11121828109025955,0.21053531765937805,0.3121787905693054
1788965163330192400,11.5181923828125,-0.1080792099237442,0.2010858952999115,0.4202437400817871
1788965163340220400,11.528220458984375,-0.11721107363700867,0.25460371375083923,0.5775657892227173
1788965163350249500,11.53824951171875,-0.144941508769989,0.3388573229312897,0.7507364749908447
1788965163360278300,11.5482783203125,-0.1727542132139206,0.42486855387687683,0.8997554779052734
1788965163370307300,11.558307373046874,-0.17211505770683289,0.5356573462486267,0.9978213310241699
1788965163380335400,11.56833544921875,-0.13648928701877594,0.5529840588569641,1.0124646425247192
1788965163390364400,11.578364501953125,-0.10695615410804749,0.46167147159576416,0.9098538756370544
1788965163400393500,11.5883935546875,-0.12857156991958618,0.39432358741760254,0.7218254208564758
1788965163410421200,11.598421142578125,-0.13708515465259552,0.3257690370082855,0.5250937342643738
1788965163420450600,11.608450439453126,-0.11464852839708328,0.2569423317909241,0.39998096227645874
1788965163430479600,11.618479736328124,-0.13491810858249664,0.1819186955690384,0.30744463205337524
1788965163440508400,11.62850830078125,-0.2387932986021042,0.14957033097743988,0.2610360085964203
1788965163450536400,11.638536376953125,-0.334723562002182,0.17525891959667206,0.3133753836154938
1788965163460565200,11.648565185546875,-0.39598408341407776,0.23760652542114258,0.4735969305038452
1788965163470594300,11.65859423828125,-0.38425126671791077,0.2889605462551117,0.6761231422424316
1788965163480622600,11.66862255859375,-0.3481518626213074,0.2980230748653412,0.8627404570579529
1788965163490651400,11.6786513671875,-0.29795098304748535,0.3375430405139923,1.008882999420166
1788965163500680400,11.688680419921875,-0.23479945957660675,0.4288819432258606,1.0804884433746338
1788965163510709500,11.69870947265625,-0.18338686227798462,0.4910084307193756,1.0727487802505493
1788965163520737500,11.708737548828125,-0.15679402649402618,0.45131295919418335,1.011518955230713
1788965163530766600,11.7187666015625,-0.14586015045642853,0.3114844858646393,0.9171221852302551
1788965163540795600,11.728795654296874,-0.11915222555398941,0.15312227606773376,0.817071259021759
1788965163550823400,11.738823486328124,-0.07378128170967102,0.11109999567270279,0.7135493755340576
1788965163560852500,11.7488525390625,-0.07043514400720596,0.18963007628917694,0.6338779330253601
1788965163570881500,11.758881591796875,-0.10986804217100143,0.3500508964061737,0.6187556982040405
1788965163580910600,11.76891064453125,-0.17082248628139496,0.4324897229671478,0.7141453623771667
1788965163590938600,11.778938720703126,-0.21797668933868408,0.4494130611419678,0.8647239804267883
1788965163600967700,11.7889677734375,-0.2328290045261383,0.46110033988952637,0.9974117279052734
1788965163610996500,11.79899658203125,-0.22520411014556885,0.49133068323135376,1.0678203105926514
1788965163621024500,11.8090244140625,-0.20118820667266846,0.46543800830841064,1.081669807434082
1788965163631053600,11.819053466796875,-0.171574667096138,0.407844215631485,1.04312264919281
1788965163641082600,11.82908251953125,-0.1553788036108017,0.34301289916038513,0.9939735531806946
1788965163651111700,11.839111572265624,-0.14793846011161804,0.355757474899292,0.9447095990180969
1788965163661139500,11.849139404296874,-0.13329707086086273,0.3856596350669861,0.9427971839904785
1788965163671168500,11.85916845703125,-0.11866725981235504,0.36773788928985596,0.9856789112091064
1788965163681197600,11.869197509765625,-0.1026182547211647,0.25392356514930725,1.031501293182373
1788965163691225600,11.8792255859375,-0.08746380358934402,0.11738169938325882,1.0417165756225586
1788965163701254700,11.889254638671876,-0.08720933645963669,0.05742909759283066,1.0517233610153198
1788965163711283700,11.89928369140625,-0.10224661231040955,0.07011613249778748,1.0950729846954346
1788965163721312500,11.9093125,-0.1290430724620819,0.11793334037065506,1.1799769401550293
1788965163731340500,11.919340576171875,-0.15944437682628632,0.17190444469451904,1.2853792905807495
1788965163741369600,11.92936962890625,-0.18176274001598358,0.24534164369106293,1.3310434818267822
1788965163751398700,11.939398681640625,-0.18404985964298248,0.2613064646720886,1.308943748474121
1788965163761427700,11.949427734375,-0.15578731894493103,0.17665180563926697,1.2575459480285645
1788965163771455500,11.95945556640625,-0.11793581396341324,0.0018978375010192394,1.2129079103469849
1788965163781484500,11.969484619140625,-0.09118225425481796,-0.15995420515537262,1.184173345565796
1788965163791513600,11.979513671875,-0.08409478515386581,-0.26138681173324585,1.1688764095306396
1788965163801541600,11.989541748046875,-0.10336765646934509,-0.2755025327205658,1.1682720184326172
1788965163811570700,11.99957080078125,-0.133843794465065,-0.2160767912864685,1.1877011060714722
1788965163821599500,12.009599609375,-0.17415566742420197,-0.11478004604578018,1.2213165760040283
1788965163831628500,12.019628662109374,-0.21666690707206726,-0.09339220076799393,1.2703027725219727
1788965163841656300,12.02965625,-0.21705546975135803,-0.19264842569828033,1.3344429731369019
1788965163851685600,12.039685546875,-0.20403820276260376,-0.38444212079048157,1.3797599077224731
1788965163861714700,12.049714599609375,-0.19130899012088776,-0.5356488823890686,1.345856785774231
1788965163871742500,12.059742431640625,-0.19882309436798096,-0.6552916765213013,1.2811638116836548
1788965163881771500,12.069771484375,-0.21142171323299408,-0.6937077045440674,1.2207881212234497
1788965163891800600,12.079800537109374,-0.21414799988269806,-0.6921519041061401,1.2292755842208862
1788965163901829400,12.089829345703125,-0.2002067118883133,-0.697216272354126,1.2745848894119263
1788965163911857700,12.099857666015625,-0.15426452457904816,-0.7411065101623535,1.334754228591919
1788965163921886700,12.10988671875,-0.10962317883968353,-0.8007697463035583,1.3417706489562988
1788965163931915500,12.11991552734375,-0.10482628643512726,-0.7884747385978699,1.3026249408721924
1788965163941943600,12.129943603515626,-0.12175879627466202,-0.7289873957633972,1.2829723358154297
1788965163951972600,12.13997265625,-0.14432190358638763,-0.7069036364555359,1.290698766708374
1788965163962001700,12.150001708984375,-0.134682297706604,-0.7152644991874695,1.286737322807312
1788965163972030700,12.16003076171875,-0.1607075184583664,-0.7143835425376892,1.2405633926391602
1788965163982058500,12.17005859375,-0.18614058196544647,-0.6612860560417175,1.1650017499923706
1788965163992087600,12.180087646484376,-0.21442894637584686,-0.5370911359786987,1.0796985626220703
1788965164002116600,12.19011669921875,-0.23459851741790771,-0.3864066004753113,1.0330383777618408
1788965164012144600,12.20014453125,-0.23765875399112701,-0.28518998622894287,1.0150032043457031
1788965164022173700,12.210173583984375,-0.2090207189321518,-0.19726981222629547,0.9995520114898682
1788965164032202500,12.220202392578125,-0.20808541774749756,-0.09417671710252762,0.9578487873077393
1788965164042231600,12.2302314453125,-0.2403256744146347,0.06460268050432205,0.8752429485321045
1788965164052259600,12.240259521484376,-0.25507852435112,0.21449044346809387,0.805643618106842
1788965164062288600,12.25028857421875,-0.21175341308116913,0.17327556014060974,0.7609938979148865
1788965164072317700,12.260317626953125,-0.14190801978111267,0.15271197259426117,0.6891210675239563
1788965164082346800,12.2703466796875,-0.08538667112588882,0.1469053477048874,0.6192854642868042
1788965164092374500,12.28037451171875,-0.059809938073158264,0.18344871699810028,0.5283076167106628
1788965164102403600,12.290403564453126,-0.03429621085524559,0.17724740505218506,0.38608846068382263
1788965164112432400,12.300432373046876,0.0145956976339221,0.08946321904659271,0.27134618163108826
1788965164122460700,12.310460693359374,0.07797375321388245,-0.03050614707171917,0.15021677315235138
1788965164132489700,12.32048974609375,0.0870484784245491,-0.043551910668611526,0.01896846480667591
1788965164142518500,12.3305185546875,0.05665050074458122,0.0163051076233387,-0.11926695704460144
1788965164152547600,12.340547607421875,0.04780001565814018,0.06305929273366928,-0.24629946053028107
1788965164162575400,12.350575439453126,0.06625451892614365,0.07434933632612228,-0.35522592067718506
1788965164172604700,12.360604736328124,0.08853186666965485,0.052992384880781174,-0.4528787136077881
1788965164182633700,12.3706337890625,0.0971037819981575,0.04321187734603882,-0.5598664283752441
1788965164192661500,12.38066162109375,0.07675084471702576,0.07782924175262451,-0.710414707660675
1788965164202690600,12.390690673828125,0.03817922994494438,0.11697810143232346,-0.8363116979598999
1788965164212719600,12.4007197265625,0.012703166343271732,0.18913964927196503,-0.8951313495635986
1788965164222748400,12.41074853515625,-0.003155834972858429,0.2701520025730133,-0.914323091506958
1788965164232776700,12.420776611328124,-0.02525767683982849,0.33918166160583496,-0.9521418213844299
1788965164242805500,12.430805419921874,-0.05837862938642502,0.41470083594322205,-1.0266269445419312
1788965164252834600,12.44083447265625,-0.06265300512313843,0.4294070601463318,-1.0639740228652954
1788965164262862600,12.450862548828125,-0.020211681723594666,0.3517005741596222,-1.0253651142120361
1788965164272891600,12.4608916015625,0.0442032627761364,0.20410500466823578,-0.9201020002365112
1788965164282920700,12.470920654296876,0.08816701173782349,0.09792278707027435,-0.7642467617988586
1788965164292949800,12.48094970703125,0.08699202537536621,0.09304947406053543,-0.5752885341644287
1788965164302977500,12.4909775390625,0.07291295379400253,0.12068034708499908,-0.3559998571872711
1788965164313006600,12.501006591796875,0.046505849808454514,0.15938672423362732,-0.14248517155647278
1788965164323035400,12.511035400390625,0.026924440637230873,0.14931759238243103,0.032707102596759796
1788965164333064400,12.521064453125,0.031138360500335693,0.08588483929634094,0.1444501429796219
1788965164343092700,12.5310927734375,0.0361580066382885,0.021131442859768867,0.2112630307674408
