time,seconds_elapsed,z,y,x
1789125348849475600,0.0574755859375,-0.08022923767566681,0.3414125442504883,-0.17093460261821747
1789125348859418600,0.067418701171875,-0.07518414407968521,0.28821268677711487,-0.15589413046836853
1789125348869361700,0.077361572265625,-0.07248546928167343,0.22614982724189758,-0.16691990196704865
1789125348879303700,0.0873037109375,-0.06114625930786133,0.15361037850379944,-0.1887975037097931
1789125348889246700,0.097246826171875,-0.04890526086091995,0.07700138539075851,-0.21335555613040924
1789125348899189800,0.107189697265625,-0.0660158023238182,0.014649057760834694,-0.2670837938785553
1789125348909131800,0.1171318359375,-0.13941441476345062,-0.03839041665196419,-0.3473415672779083
1789125348919074800,0.12707470703125,-0.23912155628204346,-0.06890438497066498,-0.42451971769332886
1789125348929016800,0.137016845703125,-0.3375394940376282,-0.08568579703569412,-0.4814075231552124
1789125348938960000,0.1469599609375,-0.41196924448013306,-0.08342690765857697,-0.5228010416030884
1789125348948902700,0.156902587890625,-0.42677292227745056,-0.04399573430418968,-0.5260229706764221
1789125348958844700,0.1668447265625,-0.38886016607284546,0.05487412214279175,-0.4538675546646118
1789125348968787700,0.17678759765625,-0.31778714060783386,0.2046046406030655,-0.31724148988723755
1789125348978730800,0.186730712890625,-0.22273974120616913,0.324770987033844,-0.14471285045146942
1789125348988672800,0.1966728515625,-0.1143031120300293,0.36513325572013855,0.026153942570090294
1789125348998615800,0.20661572265625,-0.0318061038851738,0.32578983902931213,0.19863437116146088
1789125349008558800,0.216558837890625,-0.012767942622303963,0.2479962259531021,0.3806017339229584
1789125349018500900,0.2265009765625,-0.06520212441682816,0.16898103058338165,0.5391037464141846
1789125349028444000,0.23644384765625,-0.15247075259685516,0.1252039670944214,0.6490973830223083
1789125349038387000,0.246386962890625,-0.2384146898984909,0.11738039553165436,0.6812220215797424
1789125349048328700,0.25632861328125,-0.3114205598831177,0.14107857644557953,0.6424482464790344
1789125349058271700,0.266271728515625,-0.3420588970184326,0.2165198028087616,0.5667572617530823
1789125349068213800,0.2762138671875,-0.32455679774284363,0.3217599093914032,0.5053578019142151
1789125349078156800,0.28615673828125,-0.29524096846580505,0.41169750690460205,0.49317115545272827
1789125349088099800,0.296099853515625,-0.26626986265182495,0.49670377373695374,0.543628990650177
1789125349098041900,0.306041748046875,-0.23996824026107788,0.516745388507843,0.6145311594009399
1789125349107985000,0.31598486328125,-0.23467664420604706,0.4168740510940552,0.6802992820739746
1789125349117927700,0.325927734375,-0.25733134150505066,0.3011847138404846,0.7020663619041443
1789125349127869700,0.33586962890625,-0.29345703125,0.19100667536258698,0.667505145072937
1789125349137812700,0.345812744140625,-0.3196423053741455,0.06448280811309814,0.5997151732444763
1789125349147755500,0.355755615234375,-0.33050692081451416,-0.012409517541527748,0.5027391314506531
1789125349157697800,0.36569775390625,-0.3379126191139221,-0.028680099174380302,0.3737609088420868
1789125349167640600,0.375640625,-0.35060450434684753,-0.0112027982249856,0.2090744972229004
1789125349177583600,0.38558349609375,-0.33578720688819885,0.03221604973077774,0.05335281789302826
1789125349187525600,0.395525634765625,-0.29165181517601013,0.06584189832210541,-0.07280752807855606
1789125349197468700,0.40546875,-0.2214231789112091,0.08815784752368927,-0.11414777487516403
1789125349207411700,0.41541162109375,-0.1483512818813324,0.09088459610939026,-0.05372067540884018
1789125349217353700,0.425353759765625,-0.08854307234287262,0.05513725429773331,0.07249771058559418
1789125349227296800,0.435296875,-0.029515642672777176,-0.022978005930781364,0.20869764685630798
1789125349237238500,0.445238525390625,0.00406974833458662,-0.14543041586875916,0.3067765533924103
1789125349247181600,0.455181640625,0.021370889618992805,-0.2299908548593521,0.35558828711509705
1789125349257124600,0.46512451171875,0.03506859391927719,-0.23084813356399536,0.361502081155777
1789125349267066600,0.475066650390625,0.07683634012937546,-0.17385704815387726,0.3248034715652466
1789125349277009700,0.485009765625,0.14149603247642517,-0.09598729014396667,0.2646024525165558
1789125349286952700,0.49495263671875,0.21818235516548157,-0.03503579646348953,0.22033455967903137
1789125349296894700,0.504894775390625,0.2844806909561157,-0.010824997909367085,0.20012542605400085
1789125349306837800,0.514837646484375,0.3488227427005768,-0.04520370066165924,0.224685400724411
1789125349316780800,0.52478076171875,0.39718976616859436,-0.11342962831258774,0.26389724016189575
1789125349326722600,0.53472265625,0.4431607723236084,-0.19014334678649902,0.31805822253227234
1789125349336665600,0.54466552734375,0.4800277054309845,-0.25765103101730347,0.3643761873245239
1789125349346608600,0.554608642578125,0.4942920207977295,-0.31635820865631104,0.4006905257701874
1789125349356550700,0.564550537109375,0.4903572201728821,-0.3444734513759613,0.43631139397621155
1789125349366493700,0.57449365234375,0.4678156077861786,-0.3635231554508209,0.4834442138671875
1789125349376436700,0.584436767578125,0.47641468048095703,-0.37482908368110657,0.5246981978416443
1789125349386378800,0.594378662109375,0.5106543898582458,-0.3835911452770233,0.5862792730331421
1789125349396321800,0.60432177734375,0.5577680468559265,-0.4419041872024536,0.7051438689231873
1789125349406264800,0.614264892578125,0.5764837265014648,-0.5605690479278564,0.8618628978729248
1789125349416206800,0.624206787109375,0.5920272469520569,-0.6330155730247498,0.996258020401001
1789125349426149600,0.634149658203125,0.6248994469642639,-0.6335262656211853,1.0631537437438965
1789125349436092700,0.6440927734375,0.6566850543022156,-0.6296734809875488,1.0462117195129395
1789125349446034700,0.65403466796875,0.6872878670692444,-0.6369794607162476,1.0328506231307983
1789125349455977700,0.663977783203125,0.7266062498092651,-0.5982991456985474,1.0585805177688599
1789125349465919700,0.673919677734375,0.7482892274856567,-0.5425618290901184,1.1465420722961426
1789125349475862800,0.68386279296875,0.6898999214172363,-0.2371310591697693,1.2619898319244385
1789125349485805800,0.693805908203125,0.7895646691322327,-0.29125291109085083,1.4503357410430908
1789125349495747800,0.703747802734375,0.901913583278656,-0.7497384548187256,1.527799129486084
1789125349505691000,0.71369091796875,0.9224603772163391,-1.617452621459961,1.2682631015777588
1789125349515634000,0.723634033203125,1.1124534606933594,-2.0899157524108887,0.9353456497192383
1789125349525575700,0.73357568359375,1.4506165981292725,-1.378446102142334,0.9319551587104797
1789125349535518700,0.743518798828125,1.6386831998825073,-1.548642635345459,0.9455620646476746
1789125349545461800,0.753461669921875,1.6935991048812866,-1.822656512260437,1.0106960535049438
1789125349555403500,0.763403564453125,1.4618502855300903,-1.8166639804840088,1.068208932876587
1789125349565346600,0.7733466796875,1.091216802597046,-1.6917110681533813,1.0458698272705078
1789125349575289600,0.78328955078125,0.9489203095436096,-1.3246965408325195,0.9206210374832153
1789125349585231600,0.793231689453125,0.9525908827781677,-1.1004053354263306,0.7430065870285034
1789125349595174700,0.803174560546875,0.951753556728363,-1.10557222366333,0.42400461435317993
1789125349605117400,0.813117431640625,0.975902259349823,-1.3017988204956055,0.026918772608041763
1789125349615059700,0.823059814453125,1.073327898979187,-1.58048415184021,-0.3736611306667328
1789125349625002500,0.83300244140625,1.1951963901519775,-1.8358485698699951,-0.7775220274925232
1789125349634945500,0.842945556640625,1.3589218854904175,-2.2324764728546143,-1.206629753112793
1789125349644887600,0.852887451171875,1.4393380880355835,-2.8137753009796143,-1.603445291519165
1789125349654830300,0.862830322265625,1.2315350770950317,-3.204876184463501,-1.7871708869934082
1789125349664773400,0.8727734375,0.9704406261444092,-3.3343820571899414,-1.8281418085098267
1789125349674715400,0.88271533203125,0.8172199130058289,-3.090893268585205,-1.8377834558486938
1789125349684658400,0.892658447265625,0.5443063974380493,-2.4351625442504883,-1.6916086673736572
1789125349694600700,0.9026005859375,0.057565752416849136,-1.813608169555664,-1.5260679721832275
1789125349704543500,0.91254345703125,0.029078645631670952,-1.409115195274353,-1.2824318408966064
1789125349714486500,0.922486572265625,0.4973262548446655,-1.0218777656555176,-0.963500440120697
1789125349724429600,0.9324296875,1.1112513542175293,-1.0281108617782593,-0.7074476480484009
1789125349734371600,0.94237158203125,1.4157054424285889,-1.1666001081466675,-0.4583131670951843
1789125349744314600,0.952314697265625,1.4796644449234009,-1.4174946546554565,-0.2920738756656647
1789125349754256400,0.96225634765625,1.5039273500442505,-1.7296422719955444,-0.2037176638841629
1789125349764199400,0.972199462890625,1.4166243076324463,-2.045653820037842,-0.13685715198516846
1789125349774142500,0.982142578125,1.1871432065963745,-2.685096263885498,-0.181833416223526
1789125349784084500,0.99208447265625,0.9795562624931335,-3.5004963874816895,-0.3725825548171997
1789125349794027500,1.002027587890625,1.0330431461334229,-4.897279739379883,-0.7009084820747375
1789125349803970600,1.011970458984375,1.5802421569824219,-5.985529899597168,-0.6603214740753174
1789125349813912600,1.02191259765625,1.6059176921844482,-5.619753837585449,-0.3731738328933716
1789125349823855600,1.031855712890625,1.550980806350708,-4.814040660858154,-0.049897704273462296
1789125349833798700,1.041798583984375,2.2082459926605225,-4.705841541290283,0.43910926580429077
1789125349843740400,1.051740478515625,2.5667686462402344,-4.749383926391602,0.927741289138794
1789125349853683500,1.061683349609375,2.0506184101104736,-4.569515705108643,1.3719115257263184
1789125349863626500,1.07162646484375,1.313883662223816,-4.520425319671631,1.73981511592865
1789125349873568500,1.081568603515625,0.9225726127624512,-5.071369171142578,2.076547622680664
1789125349883511600,1.091511474609375,0.9014416933059692,-5.447575569152832,2.217120885848999
1789125349893454600,1.10145458984375,1.0973587036132812,-5.578161239624023,2.3257527351379395
1789125349903396600,1.111396728515625,1.2844996452331543,-5.884326457977295,2.5254809856414795
1789125349913339600,1.121339599609375,1.4250514507293701,-6.240859508514404,2.8608195781707764
1789125349923282700,1.13128271484375,1.582801342010498,-6.643444538116455,3.3254683017730713
1789125349933224400,1.141224365234375,1.899767518043518,-6.886178016662598,3.7997989654541016
1789125349943167500,1.15116748046875,2.208571195602417,-6.725011348724365,4.235756874084473
1789125349953110500,1.161110595703125,2.4092092514038086,-6.244838714599609,4.4355950355529785
1789125349963052500,1.171052490234375,2.556715965270996,-5.633647441864014,4.326103687286377
1789125349972995600,1.18099560546875,2.732529640197754,-5.034343719482422,3.9355480670928955
1789125349982938600,1.190938720703125,2.9442007541656494,-4.308437347412109,3.3498427867889404
1789125349992880600,1.200880615234375,3.078704595565796,-3.4291069507598877,2.649472951889038
1789125350002823700,1.21082373046875,3.201059341430664,-2.4988951683044434,1.901542067527771
1789125350012766700,1.2207666015625,3.3075835704803467,-1.603644609451294,1.1771892309188843
1789125350022708700,1.230708740234375,3.334632635116577,-0.7184286117553711,0.566649854183197
1789125350032651800,1.24065185546875,3.2250874042510986,-0.006506210658699274,0.09787146002054214
1789125350042594600,1.250594482421875,3.147571325302124,0.38656044006347656,-0.3264691233634949
1789125350052536600,1.26053662109375,3.1321635246276855,0.69345623254776,-0.6313225030899048
1789125350062479600,1.270479736328125,3.0497705936431885,0.8935524821281433,-0.7829973101615906
1789125350072422400,1.28042236328125,2.8587541580200195,0.8730959892272949,-0.6571038365364075
1789125350082364700,1.29036474609375,2.600856065750122,0.6547220349311829,-0.148371621966362
1789125350092307500,1.300307373046875,2.2727904319763184,0.6619716882705688,0.4404759407043457
1789125350102250500,1.31025048828125,1.861894965171814,0.826776385307312,0.777796745300293
1789125350112192500,1.320192626953125,1.4603132009506226,1.1890451908111572,0.6218284368515015
1789125350122135600,1.330135498046875,1.289893388748169,1.702088713645935,-0.19346342980861664
1789125350132078600,1.34007861328125,1.1302241086959839,2.1421902179718018,-1.2568849325180054
1789125350142020400,1.350020263671875,0.8483671545982361,2.3452444076538086,-2.117748498916626
1789125350151963400,1.35996337890625,0.6627193093299866,2.3843040466308594,-2.2425177097320557
1789125350161906400,1.369906494140625,0.3863683044910431,2.1947174072265625,-1.8766610622406006
1789125350171848400,1.379848388671875,0.2599712014198303,0.7355032563209534,0.8599869012832642
1789125350181791500,1.38979150390625,-0.06053432077169418,-0.10429026931524277,2.8172507286071777
1789125350191734500,1.399734619140625,0.06649153679609299,0.8313552141189575,1.886602520942688
1789125350201676500,1.409676513671875,0.0980503186583519,1.472133755683899,0.6106039881706238
1789125350211619600,1.41961962890625,-0.014254122041165829,1.276053786277771,-0.22561928629875183
1789125350221562600,1.429562744140625,-0.5209456086158752,0.5872220993041992,-0.34339383244514465
1789125350231504400,1.43950439453125,-0.8572551608085632,0.12572744488716125,0.4214841425418854
1789125350241447400,1.449447509765625,-0.810912549495697,0.08234533667564392,1.0881468057632446
1789125350251390500,1.459390380859375,-0.6275714635848999,0.19739869236946106,1.1506950855255127
1789125350261332500,1.46933251953125,-0.547201931476593,0.005910244770348072,1.032111406326294
1789125350271275500,1.479275634765625,-0.676764190196991,-0.2944115102291107,1.0864677429199219
1789125350281218600,1.489218505859375,-0.8799681067466736,-0.3530053198337555,1.0905988216400146
1789125350291160600,1.49916064453125,-1.0688204765319824,-0.1829046905040741,0.9672340154647827
1789125350301103600,1.509103515625,-1.1945728063583374,0.0966728925704956,0.7515467405319214
1789125350311046700,1.519046630859375,-1.0353730916976929,0.22705912590026855,0.5467930436134338
1789125350320988700,1.52898876953125,-0.9203923344612122,0.2770264446735382,0.3272194564342499
1789125350330931700,1.538931640625,-1.0308165550231934,-0.11911129206418991,0.413996160030365
1789125350340874800,1.548874755859375,-1.1548711061477661,-0.5387120842933655,0.5999324321746826
1789125350350816500,1.55881640625,-1.0895997285842896,-0.6897919178009033,0.46184515953063965
1789125350360759600,1.568759521484375,-0.976065456867218,-0.6418355703353882,0.2929666340351105
1789125350370702600,1.57870263671875,-0.8270293474197388,-0.46299120783805847,0.0933946743607521
1789125350380644600,1.58864453125,-0.47713688015937805,-0.36720478534698486,0.09820140153169632
1789125350390587600,1.598587646484375,-0.21594549715518951,-0.22676323354244232,0.21084833145141602
1789125350400530700,1.60853076171875,-0.2677404582500458,-0.06782758235931396,0.09697986394166946
1789125350410472700,1.61847265625,-0.6280853152275085,0.02595163881778717,-0.19003379344940186
1789125350420415700,1.628415771484375,-1.1646268367767334,0.03810756653547287,-0.5271812081336975
1789125350430358500,1.638358642578125,-1.313352108001709,0.028701815754175186,-0.5492258071899414
1789125350440300500,1.648300537109375,-1.2025177478790283,-0.1238245740532875,-0.438258558511734
1789125350450243600,1.65824365234375,-0.7403658628463745,-0.15466131269931793,-0.2544647455215454
1789125350460186400,1.668186279296875,-0.4471839666366577,0.0049784425646066666,-0.18723668158054352
1789125350470128600,1.678128662109375,-0.3655868172645569,0.3576033115386963,-0.22529858350753784
1789125350480071400,1.688071533203125,-0.4330926835536957,0.6066929697990417,-0.3553389310836792
1789125350490014500,1.698014404296875,-0.5192677974700928,0.5649447441101074,-0.5636646747589111
1789125350499956500,1.70795654296875,-0.6105867624282837,0.40563684701919556,-0.5955400466918945
1789125350509899500,1.7178994140625,-0.642175018787384,0.2585259675979614,-0.5806540250778198
1789125350519842600,1.727842529296875,-0.23262742161750793,0.27009421586990356,-0.5399824976921082
1789125350529784300,1.737784423828125,0.0404275506734848,0.33827459812164307,-0.5033919811248779
1789125350539727400,1.747727294921875,0.1096753254532814,0.561985194683075,-0.45175305008888245
1789125350549670400,1.75767041015625,0.0502663254737854,0.5717829465866089,-0.2958364188671112
1789125350559612200,1.767612060546875,-0.03067011944949627,0.4975510537624359,-0.16024908423423767
1789125350569555200,1.77755517578125,-0.06969288736581802,0.5429565906524658,-0.12245083600282669
1789125350579498200,1.787498291015625,-0.12238090485334396,0.6744638085365295,-0.14950618147850037
1789125350589440300,1.797440185546875,0.01308557391166687,0.792107880115509,-0.24585027992725372
1789125350599383300,1.80738330078125,0.06427177786827087,0.8529235124588013,-0.3934956192970276
1789125350609326300,1.817326416015625,0.071071095764637,1.2761762142181396,-0.30631223320961
1789125350619268400,1.827268310546875,0.0657520666718483,1.0124343633651733,-0.5548197627067566
1789125350629211400,1.83721142578125,0.02785422094166279,1.1695917844772339,-0.5232394933700562
1789125350639154400,1.847154541015625,0.02069142460823059,1.3169596195220947,-0.43371519446372986
1789125350649096200,1.85709619140625,0.028847623616456985,0.9695531725883484,-0.5231494903564453
1789125350659039200,1.867039306640625,-0.17604751884937286,0.9868582487106323,-0.11355022341012955
1789125350668982300,1.876982177734375,-0.39888298511505127,1.4039545059204102,1.100951910018921
1789125350678925300,1.88692529296875,-0.36866283416748047,0.26179739832878113,1.2109917402267456
1789125350688867300,1.896867431640625,-0.4433024525642395,1.256428599357605,1.7493977546691895
1789125350698810400,1.906810302734375,-0.14909271895885468,0.3087582290172577,1.0982862710952759
1789125350708753400,1.91675341796875,-0.19159676134586334,0.2553709149360657,-0.17261706292629242
1789125350718695400,1.9266953125,-0.07093178480863571,0.5644424557685852,-1.2145991325378418
1789125350728638500,1.936638427734375,-0.13233575224876404,0.7121480703353882,-1.6199167966842651
1789125350738581500,1.94658154296875,-0.2139110267162323,0.7282862663269043,-1.6492823362350464
1789125350748523300,1.956523193359375,-0.06722678989171982,0.6074202656745911,-1.4629173278808594
1789125350758466300,1.96646630859375,0.15218499302864075,0.4490061104297638,-1.2407758235931396
1789125350768409300,1.976409423828125,0.24947479367256165,0.20892667770385742,-0.9186896681785583
1789125350778351400,1.986351318359375,0.0337415412068367,-0.08211793750524521,-0.4837384819984436
1789125350788294400,1.99629443359375,-0.27230173349380493,-0.2003401815891266,-0.1489029824733734
1789125350798237400,2.006237548828125,-0.571293294429779,-0.10402268171310425,-0.1645684540271759
1789125350808179500,2.016179443359375,-0.5734952092170715,0.2644674777984619,-0.449685662984848
1789125350818122500,2.02612255859375,-0.6346691846847534,0.7314516305923462,-0.6809812188148499
1789125350828065300,2.036065185546875,-0.6426717042922974,0.9237172603607178,-0.7876464128494263
1789125350838007600,2.046007568359375,-0.7477203011512756,0.7668975591659546,-0.7301074862480164
1789125350847950300,2.055950439453125,-0.7425076961517334,0.37258380651474,-0.4970337450504303
1789125350857893400,2.065893310546875,-0.6473098993301392,-0.3796926438808441,-0.05334370583295822
1789125350867835400,2.07583544921875,-0.49729159474372864,-1.0431163311004639,0.5318180322647095
1789125350877778200,2.085778076171875,-0.3617185056209564,-1.1199800968170166,1.0057225227355957
1789125350887721200,2.09572119140625,-0.1700284332036972,-0.8965533375740051,1.123179316520691
1789125350897663200,2.105663330078125,-0.11294421553611755,-0.6545969247817993,1.0330054759979248
1789125350907606300,2.115606201171875,-0.19620183110237122,-0.5296807289123535,0.9821588397026062
1789125350917549300,2.12554931640625,-0.0025787651538848877,0.35043826699256897,0.5235212445259094
1789125350927492400,2.135492431640625,0.16527841985225677,0.9549561738967896,-0.1438605636358261
1789125350937434400,2.145434326171875,0.10759374499320984,0.9719883799552917,-0.29578882455825806
1789125350947377400,2.15537744140625,0.25139111280441284,0.9961901307106018,0.000141107477247715
1789125350957320400,2.165320556640625,0.4475049376487732,1.0153311491012573,0.4938355088233948
1789125350967262200,2.17526220703125,0.5736519694328308,0.5663058757781982,1.1295101642608643
1789125350977205200,2.185205322265625,0.7212170362472534,-0.022798685356974602,1.5256274938583374
1789125350987148300,2.195148193359375,0.8571338653564453,-0.6056764721870422,1.7293994426727295
1789125350997090300,2.20509033203125,0.8700495958328247,-1.0846385955810547,1.9561830759048462
1789125351007033300,2.215033447265625,0.7519344091415405,-1.5890535116195679,2.0821828842163086
1789125351016976400,2.224976318359375,0.6662384867668152,-1.7772811651229858,2.008455276489258
1789125351026918400,2.23491845703125,0.5070579051971436,-1.7011810541152954,1.6832045316696167
1789125351036861400,2.244861328125,0.3353247046470642,-1.4290591478347778,1.3579050302505493
1789125351046804500,2.254804443359375,0.2731127440929413,-0.8155069351196289,0.8058732748031616
1789125351056746200,2.264746337890625,0.12218934297561646,-0.5661287903785706,0.18157239258289337
1789125351066689300,2.274689208984375,-0.026076825335621834,-0.5055448412895203,-0.314651221036911
1789125351076632300,2.28463232421875,-0.08142335712909698,-0.6174780130386353,-0.4326161742210388
1789125351086574300,2.29457421875,-0.1333097219467163,-0.8536924123764038,-0.5592460036277771
1789125351096517400,2.304517333984375,-0.1107684075832367,-1.2468605041503906,-0.611275851726532
1789125351106460400,2.31446044921875,-0.031230175867676735,-1.4389207363128662,-0.7318994998931885
1789125351116402400,2.32440234375,0.0691055953502655,-1.6655858755111694,-0.9357663989067078
1789125351126345500,2.334345458984375,0.14399953186511993,-1.9700754880905151,-1.1443207263946533
1789125351136288500,2.34428857421875,-0.020487597212195396,-2.009934663772583,-1.4736090898513794
1789125351146231300,2.354231201171875,0.1681712567806244,-2.058443307876587,-1.9744967222213745
1789125351156173300,2.36417333984375,0.4798213243484497,-1.8302596807479858,-2.545102596282959
1789125351166116400,2.374116455078125,1.3173396587371826,-1.0659340620040894,-2.804889440536499
1789125351176059100,2.38405908203125,1.6489133834838867,0.2842203676700592,-2.433013916015625
1789125351186001400,2.39400146484375,0.7833316326141357,0.8294610381126404,-2.0469813346862793
1789125351195944200,2.403944091796875,0.4257339835166931,0.750655472278595,-1.6091663837432861
1789125351205887200,2.41388720703125,0.3967103064060211,0.897540271282196,-1.351719617843628
1789125351215829200,2.423829345703125,0.40086010098457336,0.8056271076202393,-1.2958122491836548
1789125351225772300,2.433772216796875,0.542503833770752,0.6611111760139465,-1.3042173385620117
1789125351235715300,2.44371533203125,0.7051785588264465,0.8133113384246826,-1.1233924627304077
1789125351245657300,2.4536572265625,0.6875934600830078,0.7795552611351013,-0.8375986218452454
1789125351255600400,2.463600341796875,0.30541524291038513,0.5811362266540527,-0.44364431500434875
1789125351265543400,2.47354345703125,-0.1595071703195572,0.34534284472465515,-0.10580822825431824
1789125351275485200,2.483485107421875,-0.42064037919044495,0.15455397963523865,-0.0013415026478469372
1789125351285428200,2.49342822265625,-0.4230146110057831,0.03147759661078453,-0.14214389026165009
1789125351295371300,2.503371337890625,-0.559682309627533,0.011280984617769718,-0.4182489812374115
1789125351305314300,2.513314208984375,-0.05503695085644722,0.19564230740070343,-0.7355233430862427
1789125351315256300,2.52325634765625,0.2827237844467163,0.2594548165798187,-0.9174686670303345
1789125351325199400,2.533199462890625,0.36581096053123474,0.5390323996543884,-0.8429547548294067
1789125351335142400,2.543142333984375,0.4847138524055481,0.7560408711433411,-0.8411539196968079
1789125351345084400,2.55308447265625,0.5393099784851074,0.758513331413269,-0.8569477796554565
1789125351355027500,2.56302734375,0.5348372459411621,0.5400401949882507,-0.7274694442749023
1789125351364970500,2.572970458984375,0.6915988922119141,0.11141157895326614,-0.6178710460662842
1789125351374912300,2.582912353515625,0.3896837830543518,-0.05243062227964401,-0.4039403796195984
1789125351384855300,2.592855224609375,0.016088616102933884,-0.32023969292640686,-0.05422791838645935
1789125351394798300,2.60279833984375,0.046930424869060516,-0.49244794249534607,0.19079625606536865
1789125351404740400,2.612740234375,-0.09112731367349625,-0.37331944704055786,0.31522151827812195
1789125351414683400,2.622683349609375,-0.025052117183804512,-0.5876641869544983,0.47546127438545227
1789125351424626400,2.63262646484375,0.20176905393600464,-0.9596771597862244,0.6915273070335388
1789125351434569500,2.642569580078125,0.5510703921318054,-1.288020133972168,0.7008147835731506
1789125351444511500,2.652511474609375,0.5800769925117493,-1.3044532537460327,0.7220844030380249
1789125351454454500,2.66245458984375,0.7208107113838196,-1.0909411907196045,0.7688947916030884
1789125351464397300,2.672397216796875,0.7766520977020264,-1.4673439264297485,0.6835716366767883
1789125351474339300,2.68233935546875,0.6626245975494385,-2.5444109439849854,0.8885391354560852
1789125351484282400,2.692282470703125,0.5461435317993164,-3.3184006214141846,1.13399338722229
1789125351494225200,2.70222509765625,0.5524638891220093,-3.675837755203247,1.1818689107894897
1789125351504167400,2.71216748046875,0.6547691822052002,-3.454301357269287,1.1381491422653198
1789125351514110200,2.722110107421875,0.842056155204773,-2.4876325130462646,0.6650791764259338
1789125351524053200,2.73205322265625,1.020639181137085,-1.9360170364379883,0.2267092615365982
1789125351533995300,2.741995361328125,1.0639281272888184,-2.1483633518218994,0.28698959946632385
1789125351543938300,2.751938232421875,1.1225550174713135,-1.9781997203826904,0.21615351736545563
1789125351553881300,2.76188134765625,1.105677843093872,-1.5069986581802368,-0.05819576233625412
1789125351563823400,2.7718232421875,1.2305537462234497,-1.3337050676345825,-0.04018906503915787
1789125351573766400,2.781766357421875,1.3763841390609741,-1.0538384914398193,-0.22544415295124054
1789125351583709400,2.79170947265625,1.404086947441101,-0.8120254278182983,-0.49026066064834595
1789125351593652500,2.801652587890625,1.37506103515625,-0.5059198141098022,-0.7227221131324768
1789125351603594500,2.811594482421875,1.5044238567352295,-0.05017971992492676,-1.0264805555343628
1789125351613537500,2.82153759765625,1.6138780117034912,0.5981870889663696,-1.4947712421417236
1789125351623480600,2.83148046875,1.574597954750061,0.858024001121521,-1.5881043672561646
1789125351633422300,2.84142236328125,1.5885475873947144,0.6841190457344055,-1.4764562845230103
1789125351643365400,2.851365478515625,1.4647811651229858,0.7976053953170776,-1.2372859716415405
1789125351653308400,2.861308349609375,1.2171474695205688,0.7142234444618225,-0.7065974473953247
1789125351663250400,2.87125048828125,1.0330324172973633,0.016936466097831726,-0.20644035935401917
1789125351673193500,2.881193359375,0.8559626340866089,-0.3019411265850067,0.3080693185329437
1789125351683136500,2.891136474609375,0.742827296257019,-0.5421292185783386,0.8155043125152588
1789125351693078500,2.90107861328125,0.6618736982345581,-0.8335722088813782,1.0867780447006226
1789125351703021600,2.911021484375,0.6010351181030273,-0.2929353713989258,0.8118714690208435
1789125351712964600,2.920964599609375,0.39506545662879944,0.2558974027633667,0.42706969380378723
1789125351722907600,2.93090771484375,-0.11522842943668365,-0.13058002293109894,0.5072655081748962
1789125351732849400,2.940849365234375,-0.5956783890724182,-0.7880372405052185,0.8822511434555054
1789125351742792400,2.95079248046875,-1.6145555973052979,-1.9638822078704834,1.0415362119674683
1789125351752735500,2.960735595703125,-1.7907323837280273,-2.354501247406006,1.6769360303878784
1789125351762677500,2.970677490234375,-0.9673721790313721,-1.9991462230682373,1.9153406620025635
1789125351772620500,2.98062060546875,-0.2625315487384796,-1.1335440874099731,1.5802301168441772
1789125351782563300,2.990563232421875,0.02849845215678215,-0.5697951912879944,1.333923101425171
1789125351792505600,3.000505615234375,-0.5215083360671997,-1.3854763507843018,1.427583932876587
1789125351802448400,3.010448486328125,-0.7129672169685364,-1.2036075592041016,1.5929566621780396
1789125351812391400,3.020391357421875,-0.8134399056434631,-0.9750564098358154,1.3978586196899414
1789125351822334500,3.03033447265625,-1.0705031156539917,-1.133316993713379,1.2610975503921509
1789125351832276500,3.0402763671875,-1.1557244062423706,-1.264556646347046,1.2494323253631592
1789125351842219500,3.050219482421875,-1.0323317050933838,-1.1630585193634033,1.1078944206237793
1789125351852162300,3.060162353515625,-0.6776509284973145,-0.8004579544067383,0.9129499793052673
1789125351862104300,3.070104248046875,-0.3261179029941559,-0.694304347038269,0.8052471876144409
1789125351872047400,3.08004736328125,-0.21731510758399963,-0.8623018860816956,0.9081804156303406
1789125351881990400,3.089990478515625,-0.09253749251365662,-0.7211858034133911,1.0107403993606567
1789125351891932400,3.099932373046875,-0.011517560109496117,-0.33223485946655273,0.876010537147522
1789125351901875500,3.10987548828125,-0.17476055026054382,-0.19413448870182037,0.6239990592002869
1789125351911818500,3.119818603515625,-0.23210327327251434,0.07651111483573914,0.35650795698165894
1789125351921760500,3.129760498046875,-0.12167609483003616,0.3786488473415375,0.02897961623966694
1789125351931703600,3.13970361328125,0.2921077609062195,0.7847487330436707,-0.18469750881195068
1789125351941646600,3.149646484375,0.43711352348327637,0.5778144598007202,-0.25363588333129883
1789125351951589600,3.159589599609375,0.4357006251811981,0.5095341801643372,-0.20002296566963196
1789125351961531400,3.169531494140625,0.4992266297340393,0.5713030099868774,-0.07691780477762222
1789125351971474400,3.179474365234375,0.6983428001403809,0.5340709686279297,0.23945429921150208
1789125351981417500,3.18941748046875,0.6963025331497192,0.35200420022010803,0.6825047135353088
1789125351991359500,3.199359375,0.45675063133239746,0.18025214970111847,1.001761555671692
1789125352001302500,3.209302490234375,0.1238994300365448,0.23208099603652954,0.9927064776420593
1789125352011245600,3.21924560546875,0.03080425225198269,0.47032368183135986,0.6724344491958618
1789125352021187600,3.2291875,0.0146228838711977,0.7668602466583252,0.2836746871471405
1789125352031130600,3.239130615234375,0.1320006549358368,0.9474912881851196,-0.009791545569896698
1789125352041073700,3.24907373046875,0.3831585645675659,0.6912310123443604,0.1653331220149994
1789125352051015400,3.259015380859375,0.8348895311355591,0.026432234793901443,0.6310481429100037
1789125352060958500,3.26895849609375,1.2358555793762207,-0.12838052213191986,1.1411638259887695
1789125352070901500,3.278901611328125,1.704542636871338,0.05764741078019142,1.2579706907272339
1789125352080844300,3.28884423828125,2.3697826862335205,0.2778666019439697,0.9567346572875977
1789125352090786600,3.29878662109375,2.3274638652801514,0.6985232830047607,0.6473573446273804
1789125352100729300,3.308729248046875,2.400399923324585,1.246248722076416,0.027406996116042137
1789125352110672400,3.31867236328125,2.523813247680664,1.4733457565307617,-0.26551806926727295
1789125352120614700,3.32861474609375,2.3849079608917236,1.3630272150039673,-0.365083783864975
1789125352130557400,3.338557373046875,1.8726341724395752,0.6982447504997253,-0.48376262187957764
1789125352140500500,3.34850048828125,1.628866195678711,0.7152655124664307,-0.5399329662322998
1789125352150443500,3.358443603515625,1.6916258335113525,0.6244935393333435,-0.6415868401527405
1789125352160385300,3.36838525390625,1.704415202140808,0.4210461378097534,-0.6707460284233093
1789125352170328300,3.378328369140625,1.581982135772705,0.3624480664730072,-0.6843792796134949
1789125352180271400,3.388271240234375,1.448319673538208,0.5804120898246765,-0.6765570640563965
1789125352190213400,3.39821337890625,1.3661553859710693,0.8027287721633911,-0.48835086822509766
1789125352200156400,3.408156494140625,1.3028491735458374,0.9234858155250549,-0.016855793073773384
1789125352210099500,3.418099365234375,1.2632302045822144,0.877901554107666,0.5001891851425171
1789125352220041500,3.42804150390625,1.2308850288391113,0.8995160460472107,0.8617345690727234
1789125352229984500,3.437984619140625,1.3542375564575195,1.2451916933059692,0.8967559337615967
1789125352239927600,3.447927490234375,1.15920889377594,1.34257173538208,0.62736976146698
1789125352249870600,3.45787060546875,0.594261109828949,1.5144222974777222,0.400456964969635
1789125352259812400,3.467812255859375,0.42061319947242737,1.5875394344329834,0.04080825299024582
1789125352269755400,3.47775537109375,0.5407716631889343,1.6664446592330933,-0.13048334419727325
1789125352279698400,3.487698486328125,0.6471827626228333,1.0885469913482666,-0.28131812810897827
1789125352289640400,3.497640380859375,0.5741460919380188,0.48941534757614136,-0.31727343797683716
1789125352299583500,3.50758349609375,0.20845414698123932,-0.12268134951591492,-0.6016225814819336
1789125352309526500,3.517526611328125,-0.037473682314157486,-0.26600947976112366,-1.24848473072052
1789125352319468500,3.527468505859375,-0.7455999255180359,-1.0081285238265991,-1.037854552268982
1789125352329411600,3.53741162109375,-0.46381327509880066,-1.4584646224975586,-1.8334687948226929
1789125352339354600,3.547354736328125,0.9642264246940613,-0.11314775049686432,-2.6666364669799805
1789125352349297400,3.55729736328125,1.0662366151809692,1.2794519662857056,-2.3899593353271484
1789125352359239700,3.56723974609375,-0.27615469694137573,1.7276278734207153,-1.241923213005066
1789125352369182500,3.577182373046875,-0.30669301748275757,0.33036816120147705,-0.886334240436554
1789125352379125200,3.587125244140625,-0.011132735759019852,-0.5665421485900879,-0.5807205438613892
1789125352389067500,3.597067626953125,0.019524089992046356,-1.1914092302322388,-0.1569669097661972
1789125352399010300,3.60701025390625,-0.29232460260391235,-1.3978595733642578,-0.1894335001707077
1789125352408953300,3.616953369140625,-0.5636748671531677,-1.4004721641540527,-0.5385134220123291
1789125352418896400,3.626896484375,-0.2192658632993698,-1.5855789184570312,-0.5839530825614929
1789125352428838400,3.63683837890625,0.4291220009326935,-1.3799877166748047,-0.36394035816192627
1789125352438781400,3.646781494140625,0.7627803683280945,-1.0423246622085571,-0.15727238357067108
1789125352448724500,3.656724365234375,0.844517707824707,-0.9901676774024963,-0.15408667922019958
1789125352458666500,3.66666650390625,0.8173587918281555,-1.3333567380905151,0.03159423917531967
1789125352468609500,3.676609619140625,1.2153804302215576,-1.3323532342910767,-0.0791885033249855
1789125352478552600,3.686552490234375,0.8967806100845337,-0.38447511196136475,-0.249922975897789
1789125352488494300,3.696494384765625,1.030514121055603,-0.7542508244514465,-0.6506232023239136
1789125352498437400,3.706437255859375,1.159009337425232,-1.209645390510559,-0.39495471119880676
1789125352508380400,3.71638037109375,0.964938759803772,-1.7600889205932617,0.30244889855384827
1789125352518323500,3.726323486328125,-0.10104554146528244,0.17100435495376587,0.14475888013839722
1789125352528265500,3.736265380859375,-0.5446256399154663,0.20458734035491943,-0.3155653476715088
1789125352538208300,3.746208251953125,-0.4209950268268585,-0.6442978978157043,-0.7772746086120605
1789125352548151300,3.7561513671875,-0.3576718866825104,-0.07386346906423569,-0.9426654577255249
1789125352558093000,3.766093017578125,-0.4843411445617676,0.927506685256958,-0.8779790997505188
1789125352568036000,3.7760361328125,-0.6238661408424377,1.394202470779419,-1.0413923263549805
1789125352577979100,3.785979248046875,-0.7373277544975281,0.9010263681411743,-1.1028802394866943
1789125352587922200,3.795922119140625,-0.8267842531204224,-0.48299556970596313,-0.8052932620048523
1789125352597864200,3.8058642578125,-0.7659781575202942,-1.0122681856155396,-0.5393396019935608
1789125352607807200,3.81580712890625,-0.760351836681366,-0.7184166312217712,-0.47888657450675964
1789125352617750300,3.825750244140625,-0.8329781293869019,-0.5629827976226807,-0.611591100692749
1789125352627692300,3.8356923828125,-0.7545327544212341,-0.7578433752059937,-0.6742188334465027
1789125352637635300,3.84563525390625,-0.09451006352901459,-0.7072693705558777,-0.9831814765930176
1789125352647578000,3.855578125,-0.07861392945051193,0.7975100874900818,-1.0024116039276123
1789125352657521200,3.865521240234375,-0.8611286878585815,0.8572956323623657,-0.5806726217269897
1789125352667463200,3.875463134765625,-0.8060235977172852,-0.05440288782119751,-0.8575146794319153
1789125352677406000,3.885406005859375,-0.6109986901283264,-0.4885026812553406,-1.104175090789795
1789125352687349000,3.895348876953125,-0.6118001341819763,-0.6169110536575317,-1.31618070602417
1789125352697291000,3.905291015625,-0.48385441303253174,-0.6096358299255371,-1.2222901582717896
1789125352707234000,3.915234130859375,-0.35690581798553467,-0.38386738300323486,-0.9203583002090454
1789125352717177000,3.925177001953125,-0.2509029507637024,-0.6036237478256226,-0.6303179860115051
1789125352727120100,3.9351201171875,-0.02047719806432724,-0.8413435816764832,-0.531629741191864
1789125352737062100,3.945062255859375,0.0062854397110641,-0.8700095415115356,-0.49571168422698975
1789125352747005200,3.955005126953125,-0.07811839133501053,-0.6279932260513306,-0.4769257605075836
1789125352756948200,3.9649482421875,-0.30886584520339966,-0.29261523485183716,-0.3583644926548004
1789125352766890200,3.97489013671875,-0.41262924671173096,-0.224538192152977,-0.2652784585952759
1789125352776833300,3.984833251953125,-0.4572100341320038,-0.38464581966400146,-0.2819269597530365
1789125352786776000,3.994776123046875,-0.41845571994781494,-0.5762900710105896,-0.3142535090446472
1789125352796719000,4.004718994140625,-0.39837202429771423,-0.6064626574516296,-0.3644788861274719
1789125352806661000,4.0146611328125,-0.38595253229141235,-0.5158646106719971,-0.4161968529224396
1789125352816604200,4.024604248046875,-0.37878915667533875,-0.464510053396225,-0.46558329463005066
1789125352826547200,4.034547119140625,-0.31073859333992004,-0.34246107935905457,-0.4222984313964844
1789125352836489200,4.0444892578125,-0.28785085678100586,-0.17901331186294556,-0.32640546560287476
1789125352846432300,4.054432373046875,-0.3274058699607849,-0.12962308526039124,-0.27242350578308105
1789125352856375300,4.064375244140625,-0.4629991054534912,0.06175938993692398,-0.27334389090538025
1789125352866318300,4.074318359375,-0.6205773949623108,0.3727441430091858,-0.2699102759361267
1789125352876260400,4.08426025390625,-0.700670599937439,0.5811604857444763,-0.23690783977508545
1789125352886203400,4.094203369140625,-0.672358512878418,0.6714677214622498,-0.169413223862648
1789125352896146200,4.104146240234375,-0.5863218903541565,0.5617377758026123,-0.04494773596525192
1789125352906088200,4.114088134765625,-0.4848603308200836,0.5027724504470825,0.08432957530021667
1789125352916031200,4.12403125,-0.3855379819869995,0.3873438537120819,0.15081726014614105
1789125352925974000,4.13397412109375,-0.27271944284439087,0.2724931836128235,0.12107156962156296
1789125352935917000,4.1439169921875,-0.11503633856773376,0.18626722693443298,0.054932501167058945
1789125352945859000,4.153859130859375,-0.049011293798685074,0.20243260264396667,0.007684588432312012
1789125352955802000,4.163802001953125,0.021188832819461823,0.2496192753314972,0.011867349036037922
1789125352965745200,4.1737451171875,0.05054740607738495,0.25121986865997314,0.019471991807222366
1789125352975687200,4.183687255859375,0.050285618752241135,0.33085212111473083,0.04030004143714905
1789125352985630200,4.193630126953125,0.09611683338880539,0.41883498430252075,0.10650726407766342
1789125352995573200,4.2035732421875,0.1573929786682129,0.29029297828674316,0.2280142456293106
1789125353005516300,4.213516357421875,0.2554086148738861,0.35694044828414917,0.2719574570655823
1789125353015458000,4.2234580078125,0.3752362132072449,0.293066143989563,0.36698970198631287
1789125353025401000,4.233401123046875,0.46696943044662476,0.2702782452106476,0.4886418282985687
1789125353035344100,4.24334423828125,0.5063735842704773,0.3059654235839844,0.5927844643592834
1789125353045286100,4.2532861328125,0.5983364582061768,0.5156064629554749,0.6824800968170166
1789125353055229200,4.263229248046875,0.7260376811027527,0.6459519267082214,0.7850117683410645
1789125353065172200,4.273172119140625,0.7497718930244446,0.6903180480003357,0.8292077779769897
1789125353075115300,4.283115234375,0.7629995942115784,0.7275195121765137,0.8708018660545349
1789125353085057300,4.293057373046875,0.8854392170906067,0.8666960597038269,0.8887875080108643
1789125353095000300,4.303000244140625,0.924423098564148,0.893580436706543,0.9419508576393127
1789125353104943400,4.312943359375,1.0524084568023682,0.787787139415741,0.9757232069969177
1789125353114885000,4.322885009765625,1.1763585805892944,0.6034297943115234,1.1107425689697266
1789125353124828200,4.332828125,1.4175496101379395,0.5835791826248169,1.253156304359436
1789125353134771200,4.342771240234375,1.6477264165878296,0.6506194472312927,1.2257091999053955
1789125353144714200,4.35271435546875,1.8987321853637695,0.6102786660194397,1.190166711807251
1789125353154656300,4.36265625,2.107802391052246,0.5928405523300171,1.1393592357635498
1789125353164599300,4.372599365234375,2.1900441646575928,0.5395839810371399,1.0721309185028076
1789125353174542000,4.3825419921875,2.0501227378845215,0.6344090700149536,1.0202648639678955
1789125353184484400,4.392484375,1.8522928953170776,0.6447591185569763,1.136265754699707
1789125353194427100,4.40242724609375,1.7041860818862915,0.5977721810340881,1.1039516925811768
1789125353204370200,4.4123701171875,1.5175725221633911,0.43029025197029114,0.9016337394714355
1789125353214313200,4.422313232421875,1.3134851455688477,0.29150786995887756,0.655632495880127
1789125353224255000,4.4322548828125,0.9738026857376099,0.012427526526153088,0.34916654229164124
1789125353234198000,4.442197998046875,0.9348536729812622,-0.201685830950737,0.2389947474002838
1789125353244141000,4.45214111328125,0.7448779344558716,-0.23474201560020447,0.32836291193962097
1789125353254084000,4.462083984375,0.6952115893363953,-0.43199753761291504,0.41326743364334106
1789125353264026000,4.472026123046875,0.662207305431366,-0.6597564816474915,0.3975425660610199
1789125353273969200,4.48196923828125,0.6036315560340881,-0.532706081867218,0.5063108205795288
1789125353283912200,4.491912109375,0.4957694709300995,-0.2906356751918793,0.639872133731842
1789125353293854200,4.501854248046875,0.2844204902648926,-0.2048874944448471,0.788412868976593
1789125353303797200,4.51179736328125,0.0022774231620132923,-0.05581251531839371,1.0289008617401123
1789125353313740300,4.521740234375,-0.08048110455274582,0.108729287981987,1.1392499208450317
1789125353323683300,4.531683349609375,-0.16862623393535614,0.10834259539842606,1.1594852209091187
1789125353333625000,4.541625,-0.1636120229959488,0.06387606263160706,1.109922170639038
1789125353343568100,4.551568115234375,-0.10242311656475067,0.3528335988521576,1.0745335817337036
1789125353353511200,4.56151123046875,-0.03590187802910805,0.21690930426120758,1.0932273864746094
1789125353363454200,4.5714541015625,0.08468540757894516,0.38559794425964355,1.0861763954162598
1789125353373396200,4.581396240234375,0.5571187138557434,0.14367984235286713,1.1097005605697632
1789125353383339300,4.59133935546875,1.1573526859283447,0.4049585461616516,0.9550140500068665
1789125353393282000,4.601281982421875,1.3954817056655884,0.8489980697631836,0.9708276391029358
1789125353403224300,4.611224365234375,1.4347941875457764,0.925772488117218,0.8507020473480225
1789125353413167400,4.62116748046875,1.4645336866378784,0.7151936292648315,0.4331578314304352
1789125353423110100,4.631110107421875,1.603436827659607,0.684816300868988,0.04172401502728462
1789125353433053200,4.64105322265625,1.5448914766311646,0.5776424407958984,-0.4066354036331177
1789125353442995000,4.650994873046875,1.481087327003479,0.47647300362586975,-0.6445678472518921
1789125353452938000,4.66093798828125,1.3237237930297852,0.44907572865486145,-0.7651193141937256
1789125353462881000,4.670881103515625,1.0830875635147095,0.38582050800323486,-0.7280743718147278
1789125353472824000,4.680823974609375,1.021785855293274,0.10257869958877563,-0.599240243434906
1789125353482766000,4.69076611328125,1.086928367614746,0.07329245656728745,-0.34956035017967224
1789125353492709000,4.700709228515625,1.0453708171844482,0.06183340400457382,-0.2806689143180847
1789125353502652200,4.710652099609375,0.8110206723213196,0.22643621265888214,-0.2963845133781433
1789125353512594200,4.72059423828125,0.7296267151832581,0.328941285610199,-0.3966194987297058
1789125353522537200,4.730537109375,0.6958572864532471,0.20653760433197021,-0.44127485156059265
1789125353532480300,4.740480224609375,0.5062705278396606,0.28089386224746704,-0.24201740324497223
1789125353542423300,4.75042333984375,0.1702619343996048,0.2090529501438141,0.06480859965085983
1789125353552365300,4.760365234375,-0.025612227618694305,0.24043989181518555,0.3597331941127777
1789125353562308400,4.770308349609375,-0.18466182053089142,0.27977216243743896,0.5901841521263123
1789125353572251400,4.78025146484375,-0.32264792919158936,0.2707912027835846,0.7716701030731201
1789125353582193400,4.790193359375,-0.8078042268753052,0.028872808441519737,0.9113592505455017
1789125353592136400,4.800136474609375,-1.2365797758102417,-0.6182289719581604,0.8625472784042358
1789125353602079500,4.81007958984375,-1.6104204654693604,-1.1611957550048828,0.3003765642642975
1789125353612022300,4.820022216796875,-1.967588186264038,-2.3991317749023438,-0.6505568027496338
1789125353621964300,4.82996435546875,-1.9812341928482056,-2.7138726711273193,-1.219482183456421
1789125353631907300,4.8399072265625,-1.8421937227249146,-0.9906336665153503,-1.0865449905395508
1789125353641850000,4.84985009765625,-1.8227059841156006,0.6791800260543823,-0.9212202429771423
1789125353651793200,4.859793212890625,-1.5647623538970947,1.0752859115600586,-0.5313622355461121
1789125353661735400,4.8697353515625,-0.745698869228363,2.223551034927368,0.27845343947410583
1789125353671678200,4.87967822265625,0.6815679669380188,1.7957371473312378,0.9301337599754333
1789125353681621200,4.889621337890625,1.1897310018539429,1.0215482711791992,-0.417985200881958
1789125353691563300,4.899563232421875,-0.03744541481137276,0.8295872807502747,-0.7205288410186768
1789125353701506300,4.90950634765625,2.3878490924835205,2.1473240852355957,-0.3124473989009857
1789125353711449300,4.919449462890625,3.1284143924713135,1.1271429061889648,-0.4144858717918396
1789125353721392400,4.929392333984375,0.543171226978302,2.165459632873535,-1.0682284832000732
1789125353731334100,4.939334228515625,-1.1717668771743774,0.9153781533241272,-0.8849676251411438
1789125353741277200,4.949277099609375,-1.1817069053649902,-0.3972700238227844,-0.8095255494117737
1789125353751220200,4.95922021484375,-0.5775860548019409,-0.8507980704307556,-0.905511200428009
1789125353761163300,4.969163330078125,-0.4060451090335846,-0.9019182324409485,-1.2048382759094238
1789125353771105300,4.979105224609375,-0.1971438080072403,-1.060628056526184,-1.4951822757720947
1789125353781048300,4.98904833984375,0.048928555101156235,-1.411908507347107,-1.6385180950164795
1789125353790991400,4.998991455078125,0.03333255276083946,-1.3706798553466797,-1.6623365879058838
1789125353800933400,5.008933349609375,0.19737744331359863,-1.294543981552124,-1.6623283624649048
1789125353810876400,5.01887646484375,0.4216345250606537,-1.112303614616394,-1.601116418838501
1789125353820819500,5.0288193359375,0.5069193840026855,-0.794366717338562,-1.485682725906372
1789125353830762500,5.038762451171875,0.5027235746383667,-0.4183632433414459,-1.427761435508728
1789125353840704300,5.048704345703125,0.40039095282554626,-0.27357006072998047,-1.3863626718521118
1789125353850647300,5.058647216796875,0.11845593899488449,-0.06438728421926498,-1.3450634479522705
1789125353860590300,5.06859033203125,-0.20112040638923645,-0.024699566885828972,-1.2866554260253906
1789125353870533000,5.078533203125,-0.3820140063762665,0.007840000092983246,-1.2727649211883545
1789125353880475400,5.088475341796875,-0.6866173148155212,0.14511290192604065,-1.2843406200408936
1789125353890418200,5.098418212890625,-0.9542666077613831,0.35192573070526123,-1.2422459125518799
1789125353900361200,5.108361328125,-1.0604419708251953,0.645369827747345,-1.1314170360565186
1789125353910304300,5.11830419921875,-1.0758326053619385,0.9106678366661072,-0.9731464982032776
1789125353920246300,5.128246337890625,-1.1412490606307983,1.0269238948822021,-0.8233703374862671
1789125353930189300,5.138189208984375,-1.227334976196289,0.9924114942550659,-0.8476032018661499
1789125353940132400,5.14813232421875,-1.1650444269180298,0.6425713300704956,-0.9907621741294861
1789125353950074000,5.15807421875,-0.96612948179245,0.07480194419622421,-1.1999338865280151
1789125353960017200,5.16801708984375,-0.8293607831001282,-0.1881422996520996,-1.3595796823501587
1789125353969960200,5.177960205078125,-0.7174690961837769,-0.37353503704071045,-1.349113941192627
1789125353979903200,5.1879033203125,-0.7109145522117615,-0.5947377681732178,-1.3185430765151978
1789125353989845200,5.19784521484375,-0.6635957360267639,-0.6976103186607361,-1.4490631818771362
1789125353999788300,5.207788330078125,-0.6830464601516724,-0.7954092621803284,-1.587363600730896
1789125354009731300,5.2177314453125,-0.6728036999702454,-0.8524385094642639,-1.6856597661972046
1789125354019674400,5.22767431640625,-0.6622498035430908,-0.7921081185340881,-1.6959446668624878
1789125354029616400,5.237616455078125,-0.5688444375991821,-0.8324483036994934,-1.6968048810958862
1789125354039559400,5.247559326171875,-0.5289738178253174,-0.8134747743606567,-1.6616963148117065
1789125354049502500,5.25750244140625,-0.5029230713844299,-0.7146480679512024,-1.6924341917037964
1789125354059444200,5.2674443359375,-0.5540688633918762,-0.5333079695701599,-1.6629222631454468
1789125354069387300,5.27738720703125,-0.5467745065689087,-0.3964260220527649,-1.477750301361084
1789125354079330300,5.287330322265625,-0.5341988205909729,-0.5211359262466431,-1.492118239402771
1789125354089273000,5.297273193359375,-0.4724792540073395,-0.5468119978904724,-1.4867078065872192
1789125354099215400,5.30721533203125,-0.4998999536037445,-0.38184407353401184,-1.4351856708526611
1789125354109158400,5.317158447265625,-0.6236583590507507,-0.12785999476909637,-1.223816156387329
1789125354119101200,5.32710107421875,-0.5903663039207458,-0.00617541279643774,-1.0254852771759033
1789125354129044200,5.337044189453125,-0.5135098695755005,0.009131371043622494,-0.8789545297622681
1789125354138986200,5.346986328125,-0.5104568004608154,-0.032100677490234375,-0.7045628428459167
1789125354148929300,5.35692919921875,-0.4332027733325958,-0.19222882390022278,-0.5462408065795898
1789125354158872300,5.366872314453125,-0.35146164894104004,-0.26764434576034546,-0.37353894114494324
1789125354168815400,5.3768154296875,-0.23650072515010834,-0.23431888222694397,-0.22419580817222595
1789125354178757000,5.386757080078125,-0.11047583073377609,-0.11594851315021515,-0.13032317161560059
1789125354188700200,5.3967001953125,-0.058906108140945435,-0.052959688007831573,-0.07090138643980026
1789125354198643200,5.406643310546875,-0.032955776900053024,0.00455684307962656,0.0012567234225571156
1789125354208586200,5.416586181640625,-0.03225722908973694,0.05335607752203941,0.1511540710926056
1789125354218528300,5.4265283203125,-0.0018264994723722339,0.13416120409965515,0.29534634947776794
1789125354228471300,5.43647119140625,0.07140936702489853,0.2082815021276474,0.39382046461105347
1789125354238414300,5.446414306640625,0.11272146552801132,0.18002194166183472,0.46223756670951843
1789125354248356400,5.4563564453125,0.1390412151813507,0.10136494040489197,0.5237593054771423
1789125354258299400,5.46629931640625,0.16290365159511566,0.06476700305938721,0.638416051864624
1789125354268242400,5.476242431640625,0.21196334064006805,0.06196056306362152,0.756103515625
1789125354278185500,5.486185546875,0.26703596115112305,0.0932241901755333,0.8573119640350342
1789125354288127500,5.49612744140625,0.3212989270687103,0.1363929659128189,0.9479814171791077
1789125354298070300,5.5060703125,0.3496513366699219,0.12220652401447296,1.0047461986541748
1789125354308013300,5.516013427734375,0.36504706740379333,0.10652130097150803,1.087586760520935
1789125354317956000,5.5259560546875,0.4245002865791321,0.07960154861211777,1.1895976066589355
1789125354327898400,5.5358984375,0.5258522033691406,0.01247284933924675,1.2998359203338623
1789125354337841200,5.545841064453125,0.6372027397155762,-0.04511689022183418,1.3650152683258057
1789125354347784200,5.5557841796875,0.7247557640075684,-0.10826336592435837,1.415034532546997
1789125354357727200,5.565727294921875,0.795864462852478,-0.18604080379009247,1.4646432399749756
1789125354367669200,5.575669189453125,0.861406147480011,-0.21112778782844543,1.5191786289215088
1789125354377612300,5.5856123046875,0.9524521827697754,-0.094611756503582,1.578302025794983
1789125354387555300,5.595555419921875,1.0504597425460815,0.0032865796238183975,1.6294044256210327
1789125354397497300,5.605497314453125,1.1289962530136108,0.024401668459177017,1.679419755935669
1789125354407440400,5.6154404296875,1.1825907230377197,0.027705587446689606,1.7141292095184326
1789125354417383200,5.625383056640625,1.246658205986023,0.04899652674794197,1.7207199335098267
1789125354427326200,5.635326171875,1.337814211845398,0.09773743152618408,1.692854404449463
1789125354437268200,5.645268310546875,1.4241485595703125,0.14554037153720856,1.6590397357940674
1789125354447211300,5.655211181640625,1.4655184745788574,0.11267244070768356,1.62192964553833
1789125354457154300,5.665154296875,1.4480630159378052,-0.05697625130414963,1.5809144973754883
1789125354467097300,5.675097412109375,1.419179916381836,-0.15609431266784668,1.5474896430969238
1789125354477039400,5.685039306640625,1.400468111038208,-0.19643613696098328,1.5049993991851807
1789125354486982400,5.694982421875,1.4563381671905518,-0.1338377594947815,1.504736065864563
1789125354496925400,5.704925537109375,1.478407621383667,-0.1477322280406952,1.4574954509735107
1789125354506868500,5.714868408203125,1.466301679611206,-0.18494510650634766,1.3564090728759766
1789125354516810500,5.724810546875,1.4228909015655518,-0.20898862183094025,1.3050174713134766
1789125354526753300,5.734753173828125,1.3729758262634277,-0.1893824338912964,1.257243275642395
1789125354536696300,5.7446962890625,1.3333123922348022,-0.1399642527103424,1.1915197372436523
1789125354546639400,5.754639404296875,1.2741880416870117,-0.12360125780105591,1.1336960792541504
1789125354556581400,5.764581298828125,1.1483566761016846,-0.18657496571540833,1.0972480773925781
1789125354566524400,5.7745244140625,0.9868689179420471,-0.2585626244544983,1.1173226833343506
1789125354576467500,5.784467529296875,0.8429698348045349,-0.3529548943042755,1.1099566221237183
1789125354586410500,5.794410400390625,0.7496060729026794,-0.4218505918979645,1.0473870038986206
1789125354596352500,5.8043525390625,0.6930357813835144,-0.5083258152008057,0.9532731175422668
1789125354606295600,5.814295654296875,0.6105217337608337,-0.5710108280181885,0.9165662527084351
1789125354616238600,5.824238525390625,0.4609672725200653,-0.48117196559906006,1.0112189054489136
1789125354626181600,5.834181640625,0.34113994240760803,-0.29748308658599854,1.1367429494857788
1789125354636123600,5.84412353515625,0.268337607383728,-0.15925273299217224,1.1958612203598022
1789125354646066700,5.854066650390625,0.2281065434217453,-0.15786868333816528,1.1624747514724731
1789125354656009700,5.864009765625,0.21334461867809296,-0.18380522727966309,1.0995982885360718
1789125354665951500,5.873951416015625,0.1867513507604599,-0.19493404030799866,1.0638186931610107
1789125354675894500,5.88389453125,0.13754495978355408,-0.16364005208015442,1.0350451469421387
1789125354685837600,5.893837646484375,0.0747649297118187,-0.111034095287323,0.9877383708953857
1789125354695780600,5.903780517578125,0.0028056909795850515,-0.038786325603723526,0.9109741449356079
1789125354705722600,5.91372265625,-0.05190841853618622,0.044509366154670715,0.8206719160079956
1789125354715665700,5.923665771484375,-0.07705318182706833,0.09541811048984528,0.7556188106536865
1789125354725608700,5.933608642578125,-0.15974754095077515,0.11330442875623703,0.6801235675811768
1789125354735551500,5.943551513671875,-0.2463941127061844,0.21841202676296234,0.5260417461395264
1789125354745493800,5.95349365234375,-0.33205920457839966,0.2898547649383545,0.3607761263847351
1789125354755436500,5.9634365234375,-0.42978888750076294,0.3353111743927002,0.2053559422492981
1789125354765379600,5.973379638671875,-0.5301671624183655,0.20159439742565155,-0.002750665880739689
1789125354775322400,5.983322265625,-0.6350868940353394,0.09411267936229706,-0.22040176391601562
1789125354785264400,5.993264404296875,-0.6954946517944336,0.006794280372560024,-0.42592963576316833
1789125354795207400,6.00320751953125,-0.7398127913475037,-0.10621143877506256,-0.6380100846290588
1789125354805150500,6.013150390625,-0.7775617241859436,-0.3810989260673523,-0.9245438575744629
1789125354815093500,6.023093505859375,-0.7937983870506287,-0.5264344811439514,-1.191104531288147
1789125354825035500,6.033035400390625,-0.808856725692749,-0.3613741397857666,-1.3479024171829224
1789125354834978600,6.042978515625,-0.8554486632347107,-0.06629452109336853,-1.436163067817688
1789125354844921600,6.052921630859375,-0.9544759392738342,0.2511926293373108,-1.5709244012832642
1789125354854864600,6.06286474609375,-1.0318089723587036,0.7350286841392517,-1.6335562467575073
1789125354864806700,6.072806640625,-1.053298830986023,1.2096292972564697,-1.5689077377319336
1789125354874749700,6.082749755859375,-1.0694056749343872,1.3443996906280518,-1.4475698471069336
1789125354884692700,6.092692626953125,-1.0661693811416626,1.2190686464309692,-1.3191701173782349
1789125354894635500,6.102635498046875,-0.9954002499580383,0.9948616027832031,-1.158400058746338
1789125354904577500,6.11257763671875,-0.8316525816917419,0.6626546382904053,-0.9229758381843567
1789125354914520600,6.1225205078125,-0.5944547653198242,0.33018484711647034,-0.612194836139679
1789125354924463600,6.132463623046875,-0.37055614590644836,0.1027761772274971,-0.3503144681453705
1789125354934406400,6.142406494140625,-0.1877869963645935,0.02723933756351471,-0.16927888989448547
1789125354944348700,6.1523486328125,-0.0961415022611618,-0.021193977445364,-0.02693825773894787
1789125354954291500,6.16229150390625,-0.05322614684700966,-0.009197250008583069,0.035046033561229706
1789125354964234500,6.172234375,-0.018018892034888268,0.03724215552210808,0.049476370215415955
1789125354974176800,6.1821767578125,0.025357354432344437,0.12363995611667633,0.03870542719960213
1789125354984119600,6.19211962890625,0.05786816030740738,0.1701911985874176,0.05879178270697594
1789125354994062600,6.2020625,0.07317715138196945,0.1590021848678589,0.07342240959405899
1789125355004005600,6.212005615234375,0.05738247185945511,0.11792612075805664,0.035859860479831696
1789125355013948400,6.221948486328125,0.03068680316209793,0.12076908349990845,-0.0039517758414149284
1789125355023890400,6.231890380859375,0.022640593349933624,0.1288672238588333,-0.017072638496756554
1789125355033833500,6.24183349609375,0.07899937033653259,0.012586742639541626,-0.09128938615322113
1789125355043776500,6.251776611328125,0.045678697526454926,-0.07001732289791107,-0.18527953326702118
1789125355053718500,6.261718505859375,0.01790768839418888,-0.1713605672121048,-0.30930206179618835
1789125355063661600,6.27166162109375,0.024663329124450684,-0.27967530488967896,-0.4436763823032379
1789125355073604600,6.2816044921875,0.05049663037061691,-0.29264503717422485,-0.5846498608589172
1789125355083547600,6.291547607421875,0.1372871845960617,-0.32548555731773376,-0.7071778774261475
1789125355093490700,6.30149072265625,0.13275331258773804,-0.27937328815460205,-0.7858371734619141
1789125355103432700,6.3114326171875,-0.039775311946868896,-0.17899344861507416,-0.7985236644744873
1789125355113375700,6.321375732421875,-0.18634310364723206,-0.20385558903217316,-0.8874032497406006
1789125355123318800,6.33131884765625,-0.367016464471817,-0.20861651003360748,-0.9746300578117371
1789125355133260500,6.341260498046875,-0.5709396004676819,-0.19613808393478394,-1.0859043598175049
1789125355143203600,6.35120361328125,-0.8026984930038452,-0.029153620824217796,-1.1531398296356201
1789125355153146600,6.361146728515625,-0.7408216595649719,-0.11314454674720764,-1.291872501373291
1789125355163089400,6.37108935546875,-0.7081106305122375,-0.2297595739364624,-1.4093682765960693
1789125355173031700,6.38103173828125,-0.7769719958305359,-0.3306884169578552,-1.4804878234863281
1789125355182974500,6.390974365234375,-0.7198826670646667,-0.542224109172821,-1.541466474533081
1789125355192917500,6.40091748046875,-0.592853844165802,-0.7433331608772278,-1.5396291017532349
1789125355202860500,6.410860595703125,-0.5974056720733643,-0.7132293581962585,-1.47148859500885
1789125355212802600,6.420802490234375,-0.5247145891189575,-0.729333758354187,-1.4896667003631592
1789125355222745600,6.43074560546875,-0.5030971765518188,-0.6452575325965881,-1.527631163597107
1789125355232688600,6.440688720703125,-0.38776618242263794,-0.6149938702583313,-1.6251022815704346
1789125355242631700,6.450631591796875,-0.29930129647254944,-0.5137836337089539,-1.6803604364395142
1789125355252573400,6.460573486328125,-0.3030693531036377,-0.37756234407424927,-1.7234026193618774
1789125355262516500,6.4705166015625,-0.44095370173454285,-0.04321392625570297,-1.6990845203399658
1789125355272459500,6.48045947265625,-0.4994029998779297,-0.02384243905544281,-1.74050772190094
1789125355282402600,6.490402587890625,-0.5792235136032104,0.03800628334283829,-1.6966323852539062
1789125355292344600,6.500344482421875,-0.714783251285553,0.30123791098594666,-1.593248724937439
1789125355302287600,6.51028759765625,-0.6860083341598511,0.3104982376098633,-1.5786024332046509
1789125355312230700,6.520230712890625,-0.6168937683105469,0.301691472530365,-1.450455665588379
1789125355322173700,6.530173583984375,-0.48062753677368164,0.18133097887039185,-1.2943592071533203
1789125355332115700,6.54011572265625,-0.41527193784713745,0.20278748869895935,-1.2271618843078613
1789125355342058800,6.550058837890625,-0.4396057724952698,0.24449846148490906,-1.1446027755737305
1789125355352001800,6.560001708984375,-0.48882171511650085,0.2539820075035095,-0.9616032242774963
1789125355361944600,6.569944580078125,-0.48965102434158325,0.23320803046226501,-0.7789681553840637
1789125355371886600,6.579886474609375,-0.44072866439819336,0.19908063113689423,-0.6660218238830566
1789125355381829400,6.589829345703125,-0.3883325755596161,0.12769167125225067,-0.6104166507720947
1789125355391772400,6.5997724609375,-0.29693523049354553,0.036885447800159454,-0.5236397981643677
1789125355401715500,6.609715576171875,-0.19425438344478607,-0.08320420980453491,-0.39325326681137085
1789125355411657500,6.619657470703125,-0.07611532509326935,-0.15414667129516602,-0.24164658784866333
1789125355421600500,6.6296005859375,0.02967209182679653,-0.15821464359760284,-0.09490588307380676
1789125355431543600,6.63954345703125,0.10728878527879715,-0.12399087846279144,0.07062765955924988
1789125355441486600,6.649486572265625,0.16858676075935364,-0.06564101576805115,0.2479470670223236
1789125355451429600,6.6594296875,0.23616528511047363,0.0010773595422506332,0.41833630204200745
1789125355461371600,6.66937158203125,0.27266284823417664,0.04282613843679428,0.5591988563537598
1789125355471314700,6.679314697265625,0.2780711054801941,0.07932444661855698,0.7073162198066711
1789125355481257500,6.689257568359375,0.30834272503852844,0.1026979461312294,0.8582087755203247
1789125355491200500,6.699200439453125,0.38098272681236267,0.13930657505989075,0.9968979954719543
1789125355501142500,6.709142578125,0.4934277832508087,0.1671704351902008,1.1013870239257812
1789125355511085600,6.71908544921875,0.6311511397361755,0.18234358727931976,1.2107536792755127
1789125355521028600,6.729028564453125,0.727199912071228,0.17058812081813812,1.3222019672393799
1789125355530970600,6.738970703125,0.7487819194793701,0.18947948515415192,1.4054752588272095
1789125355540913700,6.74891357421875,0.8122743368148804,0.27985891699790955,1.4817692041397095
1789125355550856700,6.758856689453125,0.9035212993621826,0.3107782006263733,1.5483314990997314
1789125355560799500,6.768799560546875,0.9583888053894043,0.2975532114505768,1.5919450521469116
1789125355570742500,6.778742431640625,0.971728503704071,0.370352566242218,1.6023863554000854
1789125355580684500,6.7886845703125,0.98548823595047,0.5861256122589111,1.6265827417373657
1789125355590627600,6.798627685546875,0.9561865925788879,0.6794611215591431,1.6530601978302002
1789125355600570600,6.808570556640625,0.930181086063385,0.7259572744369507,1.6749238967895508
1789125355610513700,6.818513671875,0.9004504680633545,0.695065438747406,1.6799414157867432
1789125355620455700,6.82845556640625,0.892477810382843,0.5759432911872864,1.6376014947891235
1789125355630398700,6.838398681640625,0.894963800907135,0.4715113937854767,1.5805027484893799
1789125355640341800,6.848341796875,0.8698749542236328,0.3930448293685913,1.5608023405075073
1789125355650284800,6.858284912109375,0.8760229349136353,0.25169628858566284,1.5193006992340088
1789125355660226600,6.8682265625,0.9017818570137024,0.16496619582176208,1.4887821674346924
1789125355670169600,6.878169677734375,0.9281949400901794,-0.00590997189283371,1.425237774848938
1789125355680112600,6.888112548828125,0.9686909914016724,-0.22534538805484772,1.3957449197769165
1789125355690055700,6.8980556640625,1.0302939414978027,-0.3036506175994873,1.3883464336395264
1789125355699997700,6.907997802734375,1.063448190689087,-0.293478399515152,1.3721864223480225
1789125355709940700,6.917940673828125,1.0784862041473389,-0.3131261169910431,1.3692471981048584
1789125355719883800,6.9278837890625,1.0851970911026,-0.4299861490726471,1.39175283908844
1789125355729826800,6.937826904296875,1.0626171827316284,-0.5660673379898071,1.3635627031326294
1789125355739768800,6.947768798828125,0.9845387935638428,-0.5313620567321777,1.3736557960510254
1789125355749712000,6.9577119140625,0.9764713644981384,-0.5827633738517761,1.395117998123169
1789125355759654700,6.967654541015625,0.9473121166229248,-0.6459646821022034,1.3546710014343262
1789125355769597700,6.97759765625,0.8587039709091187,-0.649453341960907,1.2852534055709839
1789125355779539700,6.987539794921875,0.7702044248580933,-0.5510714054107666,1.264783263206482
1789125355789482500,6.997482421875,0.6758378744125366,-0.4871053695678711,1.2453069686889648
1789125355799425500,7.007425537109375,0.5023102760314941,-0.45748674869537354,1.1705964803695679
1789125355809368600,7.01736865234375,0.2827073931694031,-0.5068218111991882,1.0212711095809937
1789125355819310600,7.027310546875,0.047595299780368805,-0.6102983951568604,0.8788008689880371
1789125355829253600,7.037253662109375,-0.17088553309440613,-0.5425755977630615,0.7714434862136841
1789125355839196700,7.04719677734375,-0.37301012873649597,-0.3668401837348938,0.7182849049568176
1789125355849139700,7.0571396484375,-0.5092403292655945,-0.24661409854888916,0.6476271748542786
1789125355859081700,7.067081787109375,-0.6159350872039795,-0.13040892779827118,0.5717979669570923
1789125355869024800,7.077024658203125,-0.7373307943344116,0.08997239172458649,0.50291508436203
1789125355878967800,7.0869677734375,-0.7537111043930054,0.3024172782897949,0.44694608449935913
1789125355888910800,7.096910888671875,-0.6822767853736877,0.26008206605911255,0.3073013424873352
1789125355898854000,7.10685400390625,-0.5123887062072754,0.11352379620075226,0.1542995572090149
1789125355908795600,7.116795654296875,-0.3005731701850891,-0.07893984764814377,-0.030888201668858528
1789125355918738700,7.12673876953125,-0.1302139163017273,-0.3092004954814911,-0.23847255110740662
1789125355928681700,7.136681640625,-0.06778894364833832,-0.485681414604187,-0.46604907512664795
1789125355938624500,7.14662451171875,-0.10282229632139206,-0.5970284938812256,-0.6869620680809021
1789125355948566800,7.15656689453125,-0.16350942850112915,-0.5336931943893433,-0.8435130715370178
1789125355958509600,7.166509521484375,-0.2102992832660675,-0.2706356644630432,-0.8662663102149963
1789125355968452600,7.17645263671875,-0.254557728767395,-0.07023903727531433,-0.8959420323371887
1789125355978395600,7.186395751953125,-0.2960497736930847,0.18448592722415924,-0.949794590473175
1789125355988337700,7.196337646484375,-0.31820324063301086,0.435465931892395,-0.9896485209465027
1789125355998280700,7.20628076171875,-0.32477620244026184,0.6534621119499207,-0.9905417561531067
1789125356008223700,7.2162236328125,-0.33520960807800293,0.7496744394302368,-0.9776355624198914
1789125356018166800,7.226166748046875,-0.319365918636322,0.7311812043190002,-0.9365384578704834
1789125356028108500,7.236108642578125,-0.2865014374256134,0.588802695274353,-0.8807880282402039
1789125356038051600,7.246051513671875,-0.2659554183483124,0.4092963635921478,-0.8386597633361816
1789125356047994600,7.25599462890625,-0.20488190650939941,0.34593331813812256,-0.7532268762588501
1789125356057937700,7.265937744140625,-0.14510485529899597,0.2381511926651001,-0.6535128355026245
1789125356067879700,7.275879638671875,-0.1299092173576355,0.07786483317613602,-0.6059184074401855
1789125356077822700,7.28582275390625,-0.13691546022891998,0.042306311428546906,-0.5995414853096008
1789125356087765800,7.295765869140625,-0.0950201228260994,0.13304398953914642,-0.5995516180992126
1789125356097708800,7.305708740234375,-0.04810906574130058,0.20849241316318512,-0.5686206221580505
1789125356107651600,7.315651611328125,-0.046144504100084305,0.22422684729099274,-0.5538205504417419
1789125356117593900,7.32559375,-0.08945202827453613,0.22353363037109375,-0.5940606594085693
1789125356127537000,7.335536865234375,-0.1737368404865265,0.29333409667015076,-0.6504981517791748
1789125356137479700,7.345479736328125,-0.17844158411026,0.24049963057041168,-0.728108286857605
1789125356147422700,7.355422607421875,-0.25143083930015564,0.260168194770813,-0.8316327929496765
1789125356157364500,7.365364501953125,-0.22228172421455383,0.19002531468868256,-0.9781740307807922
1789125356167307500,7.3753076171875,-0.22435319423675537,0.16691482067108154,-1.0745247602462769
1789125356177250600,7.38525048828125,-0.22585122287273407,0.2205468863248825,-1.0936424732208252
1789125356187193600,7.395193603515625,-0.16357003152370453,0.13939693570137024,-1.0642428398132324
1789125356197135600,7.405135498046875,-0.16745930910110474,0.051382921636104584,-1.0368175506591797
1789125356207078700,7.41507861328125,-0.25588151812553406,0.004341616295278072,-1.0640980005264282
1789125356217021700,7.425021728515625,-0.2336806207895279,-0.11525082588195801,-1.13041353225708
1789125356226964700,7.43496484375,-0.28115174174308777,-0.24575328826904297,-1.211611032485962
1789125356236906800,7.44490673828125,-0.3943358361721039,-0.2731364667415619,-1.3044108152389526
1789125356246849800,7.454849853515625,-0.3875442445278168,-0.35698965191841125,-1.3879265785217285
1789125356256792800,7.464792724609375,-0.3868832588195801,-0.44837015867233276,-1.4260729551315308
1789125356266735900,7.47473583984375,-0.46896398067474365,-0.4525734484195709,-1.4212148189544678
1789125356276678700,7.4846787109375,-0.5282552242279053,-0.4466750919818878,-1.4478956460952759
1789125356286620700,7.49462060546875,-0.6260372996330261,-0.33759304881095886,-1.4224507808685303
1789125356296563700,7.504563720703125,-0.6358832716941833,-0.3368428349494934,-1.4228792190551758
1789125356306506800,7.5145068359375,-0.5941747426986694,-0.37445417046546936,-1.3996658325195312
1789125356316449500,7.524449462890625,-0.6993807554244995,-0.25317221879959106,-1.3201121091842651
1789125356326391800,7.534391845703125,-0.7157857418060303,-0.2448449283838272,-1.2838810682296753
1789125356336334600,7.54433447265625,-0.7056790590286255,-0.24962636828422546,-1.2285511493682861
1789125356346277600,7.554277587890625,-0.7988682985305786,-0.2090451419353485,-1.1935704946517944
1789125356356220700,7.564220703125,-0.7619462013244629,-0.29827648401260376,-1.3096778392791748
1789125356366162700,7.57416259765625,-0.773645281791687,-0.32841864228248596,-1.4010324478149414
1789125356376105700,7.584105712890625,-0.8710448145866394,-0.2378874123096466,-1.4786592721939087
1789125356386048800,7.594048828125,-0.8594844937324524,-0.20887979865074158,-1.5332257747650146
1789125356395991600,7.603991455078125,-0.9494417905807495,0.006161403842270374,-1.5188071727752686
1789125356405933600,7.61393359375,-0.908697247505188,0.15224751830101013,-1.4930468797683716
1789125356415876600,7.623876708984375,-0.9785868525505066,0.40844306349754333,-1.351636528968811
1789125356425819600,7.633819580078125,-0.8791002631187439,0.3750014901161194,-1.2639505863189697
1789125356435762700,7.6437626953125,-0.8180808424949646,0.4050568640232086,-1.1434428691864014
1789125356445705700,7.653705810546875,-0.7771707773208618,0.46824735403060913,-1.0145773887634277
1789125356455647700,7.663647705078125,-0.6651193499565125,0.4226026237010956,-0.9393116235733032
1789125356465590800,7.6735908203125,-0.5946188569068909,0.40368083119392395,-0.7435082793235779
1789125356475533800,7.683533935546875,-0.565006673336029,0.4258125126361847,-0.4876123070716858
1789125356485476600,7.6934765625,-0.5151396989822388,0.476811021566391,-0.32130753993988037
1789125356495419000,7.7034189453125,-0.4699362814426422,0.49493592977523804,-0.24048243463039398
1789125356505362000,7.71336181640625,-0.40569332242012024,0.4535604417324066,-0.1566532403230667
1789125356515304400,7.723304443359375,-0.31949692964553833,0.4037236273288727,-0.022530587390065193
1789125356525247500,7.73324755859375,-0.21642087399959564,0.3931719958782196,0.15063554048538208
1789125356535189500,7.743189453125,-0.1122225672006607,0.4064190983772278,0.33801501989364624
1789125356545132800,7.7531328125,0.025504393503069878,0.4742375314235687,0.5266174674034119
1789125356555075800,7.763075927734375,0.16843731701374054,0.4550617039203644,0.672982394695282
1789125356565019000,7.773018798828125,0.2886819839477539,0.34453094005584717,0.7889660000801086
1789125356574960600,7.782960693359375,0.3465498089790344,0.2760789096355438,0.8917682766914368
1789125356584903700,7.792903564453125,0.3985392451286316,0.29667502641677856,1.0491291284561157
1789125356594846700,7.8028466796875,0.47635334730148315,0.32329729199409485,1.2119531631469727
1789125356604789800,7.812789794921875,0.5675100684165955,0.2769567668437958,1.3031232357025146
1789125356614732800,7.82273291015625,0.6503828763961792,0.1803567111492157,1.3370471000671387
1789125356624674800,7.8326748046875,0.6957091689109802,0.06869015097618103,1.3766584396362305
1789125356634617900,7.842617919921875,0.7109717130661011,0.020339395850896835,1.443857192993164
1789125356644561000,7.852560791015625,0.750891387462616,-0.0018986696377396584,1.5300651788711548
1789125356654504000,7.86250390625,0.8233152031898499,0.0786140114068985,1.5958396196365356
1789125356664446000,7.872446044921875,0.9150822758674622,0.12394653260707855,1.6201605796813965
1789125356674389000,7.882388916015625,0.9694744348526001,0.10480373352766037,1.6356146335601807
1789125356684331800,7.892331787109375,0.994940996170044,0.05489931255578995,1.6696172952651978
1789125356694274800,7.90227490234375,1.000655174255371,0.013180097565054893,1.683356523513794
1789125356704216800,7.912216796875,1.0536874532699585,-0.038803830742836,1.7091346979141235
1789125356714159600,7.92215966796875,1.1435624361038208,-0.011687789112329483,1.767248272895813
1789125356724102700,7.9321025390625,1.2289819717407227,0.05025966465473175,1.8332850933074951
1789125356734045700,7.942045654296875,1.284706950187683,0.1013185903429985,1.8365730047225952
1789125356743988700,7.95198876953125,1.33161199092865,0.14537346363067627,1.7847089767456055
1789125356753930800,7.9619306640625,1.3548262119293213,0.11417345702648163,1.7485883235931396
1789125356763873800,7.971873779296875,1.3721089363098145,-0.058038756251335144,1.7240885496139526
1789125356773816800,7.98181689453125,1.3572958707809448,-0.23124516010284424,1.6814206838607788
1789125356783760000,7.991759765625,1.2930700778961182,-0.2996523976325989,1.584197759628296
1789125356793702000,8.001701904296874,1.2436420917510986,-0.36110562086105347,1.470089077949524
1789125356803645000,8.01164501953125,1.2005021572113037,-0.5474955439567566,1.372347354888916
1789125356813588000,8.021587890625,1.0604883432388306,-0.6805457472801208,1.2906579971313477
1789125356823531000,8.031531005859375,0.965043842792511,-0.6929992437362671,1.1895415782928467
1789125356833472800,8.04147265625,0.8712324500083923,-0.6217168569564819,1.182960867881775
1789125356843415800,8.051415771484375,0.7793341875076294,-0.466558575630188,1.1290427446365356
1789125356853358800,8.06135888671875,0.5893431901931763,-0.3982418477535248,1.0534616708755493
1789125356863301600,8.071301513671875,0.4552932679653168,-0.35514289140701294,1.0513652563095093
1789125356873244700,8.08124462890625,0.3397752046585083,-0.34893184900283813,1.102250576019287
1789125356883187000,8.09118701171875,0.22404541075229645,-0.27810677886009216,1.0890156030654907
1789125356893129700,8.101129638671875,0.1688002645969391,-0.1534133106470108,1.0584938526153564
1789125356903072800,8.11107275390625,0.15401104092597961,-0.040720220655202866,1.0435150861740112
1789125356913015800,8.121015869140624,0.21875648200511932,0.04329505190253258,1.0395954847335815
1789125356922957800,8.130957763671875,0.33514806628227234,0.1519576609134674,1.0265305042266846
1789125356932900900,8.14090087890625,0.42081958055496216,0.05094636231660843,0.9024343490600586
1789125356942844000,8.150843994140626,0.4445772171020508,-0.07657167315483093,0.7468693256378174
1789125356952787000,8.160786865234375,0.36194226145744324,-0.016000472009181976,0.6165341734886169
1789125356962728700,8.170728759765625,0.249803364276886,0.12155812233686447,0.5557515621185303
1789125356972671700,8.180671630859376,0.1488213688135147,0.20654092729091644,0.4831937551498413
1789125356982614800,8.19061474609375,0.051469139754772186,0.1317806988954544,0.2991871237754822
1789125356992557800,8.200557861328125,-0.000563967740163207,-0.024266958236694336,0.08069687336683273
1789125357002500900,8.2105009765625,-0.023679673671722412,-0.10605795681476593,-0.07487194985151291
1789125357012443000,8.22044287109375,-0.07396707683801651,-0.21622015535831451,-0.20539027452468872
1789125357022386000,8.230385986328125,-0.1182224228978157,-0.24042882025241852,-0.3315199911594391
1789125357032329000,8.240328857421876,-0.15693692862987518,-0.25478678941726685,-0.4827216863632202
1789125357042271700,8.250271728515624,-0.18800833821296692,-0.10669532418251038,-0.6231813430786133
1789125357052214000,8.260214111328125,-0.21787461638450623,0.12175755202770233,-0.7043318152427673
1789125357062156800,8.27015673828125,-0.2658218443393707,0.20368412137031555,-0.8173571825027466
1789125357072099800,8.280099853515624,-0.3246191143989563,0.25007185339927673,-0.9912294149398804
1789125357082042600,8.290042724609375,-0.3631790578365326,0.41280117630958557,-1.1173828840255737
1789125357091985700,8.299985595703125,-0.3410505950450897,0.7086690068244934,-1.088983178138733
1789125357101927700,8.309927734375,-0.3140064775943756,0.9223238229751587,-1.0095360279083252
1789125357111870700,8.31987060546875,-0.34040480852127075,0.9476438164710999,-0.9772118926048279
1789125357121813800,8.329813720703125,-0.3679597079753876,0.896122932434082,-0.9757954478263855
1789125357131756800,8.3397568359375,-0.36771148443222046,0.839722752571106,-0.9545229077339172
1789125357141698800,8.34969873046875,-0.3441920280456543,0.6833678483963013,-0.896825909614563
1789125357151641900,8.359641845703125,-0.30450189113616943,0.49554550647735596,-0.8216866850852966
1789125357161585000,8.3695849609375,-0.24810364842414856,0.27750542759895325,-0.7665507793426514
1789125357171528000,8.37952783203125,-0.19577358663082123,0.15066438913345337,-0.7227974534034729
1789125357181471000,8.389470947265625,-0.15709953010082245,0.08834511786699295,-0.694614052772522
1789125357191412700,8.399412841796876,-0.12731021642684937,0.032338567078113556,-0.6854737997055054
1789125357201355800,8.409355712890624,-0.12337425351142883,-0.017742160707712173,-0.7021247148513794
1789125357211298800,8.419298828125,-0.1128971129655838,-0.023032262921333313,-0.7387216091156006
1789125357221241600,8.42924169921875,-0.13766014575958252,-0.019202664494514465,-0.8022300004959106
1789125357231184000,8.439183837890624,-0.1935950517654419,-0.017817288637161255,-0.8987341523170471
1789125357241126700,8.449126708984375,-0.24502842128276825,0.06871653348207474,-0.9879137873649597
1789125357251069700,8.459069580078125,-0.3268609344959259,0.17352497577667236,-1.0428622961044312
1789125357261012700,8.4690126953125,-0.3872864842414856,0.21474218368530273,-1.066864252090454
1789125357270955800,8.478955810546875,-0.4614134430885315,0.2542400658130646,-1.1123089790344238
1789125357280897800,8.488897705078125,-0.4862577021121979,0.2637222111225128,-1.1797317266464233
1789125357290840800,8.4988408203125,-0.5086578130722046,0.23695266246795654,-1.2436624765396118
1789125357300783900,8.508783935546875,-0.5259917378425598,0.10276100039482117,-1.3246217966079712
1789125357310727000,8.518726806640625,-0.5801795721054077,-0.07117909938097,-1.4316177368164062
1789125357320668700,8.528668701171876,-0.5829042792320251,-0.25059062242507935,-1.558951497077942
1789125357330611700,8.53861181640625,-0.542787492275238,-0.3810248076915741,-1.6429941654205322
1789125357340554800,8.5485546875,-0.5741118788719177,-0.453624427318573,-1.698162317276001
1789125357350497800,8.558497802734376,-0.666364848613739,-0.37361854314804077,-1.750891089439392
1789125357360440800,8.56844091796875,-0.6643887758255005,-0.3591604232788086,-1.795324683189392
1789125357370382800,8.5783828125,-0.6650910377502441,-0.33848366141319275,-1.765131950378418
1789125357380326000,8.588325927734376,-0.7047308087348938,-0.29936450719833374,-1.7116419076919556
1789125357390269000,8.59826904296875,-0.7526711821556091,-0.2817940413951874,-1.6813112497329712
1789125357400211700,8.608211669921875,-0.7458581328392029,-0.3167438209056854,-1.686354160308838
1789125357410154000,8.618154052734376,-0.7895140051841736,-0.3037675619125366,-1.6670193672180176
1789125357420096800,8.6280966796875,-0.7287910580635071,-0.4421912431716919,-1.7216671705245972
1789125357430039800,8.638039794921875,-0.7246053814888,-0.4459678530693054,-1.7325775623321533
1789125357439982800,8.64798291015625,-0.8015139102935791,-0.3776308298110962,-1.7377753257751465
1789125357449926000,8.65792578125,-0.8364761471748352,-0.37954750657081604,-1.7205842733383179
1789125357459867600,8.66786767578125,-0.7972149848937988,-0.42324790358543396,-1.6532326936721802
1789125357469810700,8.677810791015625,-0.8006196022033691,-0.4051075279712677,-1.567455530166626
1789125357479753700,8.687753662109374,-0.7601163387298584,-0.3385133147239685,-1.4579284191131592
1789125357489696800,8.69769677734375,-0.7461496591567993,-0.29648011922836304,-1.3318965435028076
1789125357499638800,8.707638671875,-0.7552567720413208,-0.19092723727226257,-1.205753207206726
1789125357509581800,8.717581787109374,-0.7777924537658691,-0.010275707580149174,-1.0992920398712158
1789125357519524900,8.72752490234375,-0.8123247027397156,0.20822244882583618,-0.9736714959144592
1789125357529468000,8.737468017578125,-0.8098165392875671,0.276151180267334,-0.7746419906616211
1789125357539411000,8.747410888671874,-0.7051959037780762,0.27538740634918213,-0.47245046496391296
1789125357549352200,8.757352294921875,-0.5206964015960693,0.15793614089488983,-0.267046183347702
1789125357559295200,8.767295166015625,-0.4232273995876312,0.143886536359787,-0.19171586632728577
1789125357569238300,8.77723828125,-0.3670450747013092,0.22825361788272858,-0.07438790053129196
1789125357579181300,8.787181396484375,-0.3210201859474182,0.29115524888038635,0.07673883438110352
1789125357589123300,8.797123291015625,-0.2532555162906647,0.25265419483184814,0.21084177494049072
1789125357599066400,8.80706640625,-0.1716383993625641,0.2076234370470047,0.32340046763420105
1789125357609009200,8.817009033203124,-0.0893845334649086,0.2103656828403473,0.4288989305496216
1789125357618952200,8.8269521484375,-0.01760455220937729,0.21081066131591797,0.5558577179908752
1789125357628895200,8.836895263671876,0.04327131435275078,0.2187008112668991,0.7163379788398743
1789125357638837200,8.846837158203124,0.1127135306596756,0.27524471282958984,0.8912679553031921
1789125357648780000,8.856780029296875,0.19111619889736176,0.3318406343460083,1.0150432586669922
1789125357658723000,8.86672314453125,0.23065631091594696,0.32413429021835327,1.1083221435546875
1789125357668666000,8.876666015625,0.2871025502681732,0.26468268036842346,1.2146281003952026
1789125357678608100,8.886608154296875,0.344367116689682,0.17563237249851227,1.3031831979751587
1789125357688551200,8.89655126953125,0.44275492429733276,0.14507712423801422,1.383780837059021
1789125357698494200,8.906494140625,0.5516480207443237,0.10084321349859238,1.4470083713531494
1789125357708437200,8.916437255859375,0.6337865591049194,0.08990081399679184,1.483890175819397
1789125357718380300,8.92638037109375,0.7097514867782593,0.11036042124032974,1.5451478958129883
1789125357728322300,8.936322265625,0.7811293005943298,0.17863188683986664,1.6528663635253906
1789125357738265300,8.946265380859375,0.8521147966384888,0.31408408284187317,1.7559454441070557
1789125357748208400,8.95620849609375,0.9044493436813354,0.37701618671417236,1.791942834854126
1789125357758151200,8.966151123046876,0.9402616620063782,0.3637290596961975,1.7891809940338135
1789125357768093200,8.97609326171875,0.9864726066589355,0.2922500669956207,1.7951291799545288
1789125357778036200,8.9860361328125,1.0267325639724731,0.26926010847091675,1.7907263040542603
1789125357787979000,8.99597900390625,1.0841401815414429,0.24859373271465302,1.8119847774505615
1789125357797922000,9.005922119140624,1.1530473232269287,0.24787616729736328,1.8213802576065063
1789125357807865000,9.015864990234375,1.2277281284332275,0.2690728008747101,1.7906899452209473
1789125357817807000,9.02580712890625,1.2673563957214355,0.24434000253677368,1.7356433868408203
1789125357827750100,9.035750244140624,1.2865383625030518,0.11951044201850891,1.6811065673828125
1789125357837693200,9.045693115234375,1.305846095085144,0.03815051168203354,1.6651843786239624
1789125357847636200,9.05563623046875,1.3263614177703857,0.002778405323624611,1.638922095298767
1789125357857579300,9.065579345703124,1.3487250804901123,-0.11075587570667267,1.5824428796768188
1789125357867521300,9.075521240234375,1.343667984008789,-0.30416634678840637,1.5084975957870483
1789125357877464300,9.08546435546875,1.3051447868347168,-0.4546162188053131,1.4402315616607666
1789125357887407400,9.095407470703124,1.2686622142791748,-0.5134389996528625,1.340852975845337
1789125357897350400,9.105350341796875,1.2159405946731567,-0.6045565605163574,1.2249969244003296
1789125357907292200,9.115292236328125,1.1559756994247437,-0.6669906377792358,1.1658166646957397
1789125357917235200,9.125235107421876,1.046324610710144,-0.7064400315284729,1.115364909172058
1789125357927178200,9.13517822265625,0.9648904800415039,-0.7127687931060791,1.1196321249008179
1789125357937121300,9.145121337890625,0.7653841972351074,-0.5961148142814636,1.1558494567871094
1789125357947064000,9.15506396484375,0.6026509404182434,-0.5450729727745056,1.1497162580490112
1789125357957006300,9.16500634765625,0.4143200218677521,-0.41350406408309937,1.1520392894744873
1789125357966949000,9.17494921875,0.299973726272583,-0.36632055044174194,1.15841805934906
1789125357976892200,9.18489208984375,0.23976671695709229,-0.33512410521507263,1.162463903427124
1789125357986835200,9.194835205078125,0.20534747838974,-0.18712452054023743,1.1692602634429932
1789125357996778200,9.2047783203125,0.22750185430049896,-0.058365046977996826,1.125453233718872
1789125358006720300,9.21472021484375,0.2818812131881714,-0.057946667075157166,1.0487680435180664
1789125358016663300,9.224663330078124,0.28433096408843994,-0.19016346335411072,0.8411938548088074
1789125358026606300,9.2346064453125,0.22880005836486816,-0.17777523398399353,0.6477381587028503
1789125358036549400,9.24454931640625,0.15071821212768555,-0.02049727737903595,0.5861002206802368
1789125358046491100,9.2544912109375,0.041364558041095734,-0.0169515460729599,0.5035020112991333
1789125358056434200,9.26443408203125,-0.09658917039632797,-0.18921668827533722,0.3097984492778778
1789125358066377200,9.274377197265625,-0.12519071996212006,-0.26946359872817993,0.12744063138961792
1789125358076320300,9.2843203125,-0.1310044676065445,-0.23246532678604126,0.015356412157416344
1789125358086263300,9.29426318359375,-0.17462997138500214,-0.21580113470554352,-0.12832246720790863
1789125358096205300,9.304205322265625,-0.26614633202552795,-0.26303812861442566,-0.3345603346824646
1789125358106148400,9.3141484375,-0.33880695700645447,-0.1976332664489746,-0.5022119283676147
1789125358116091100,9.324091064453125,-0.4268854260444641,-0.10640685260295868,-0.6610535979270935
1789125358126034200,9.3340341796875,-0.5102689862251282,0.03733833134174347,-0.7627964615821838
1789125358135977200,9.343977294921874,-0.5816310048103333,0.16117314994335175,-0.8911932706832886
1789125358145919200,9.353919189453125,-0.5984933972358704,0.3080028295516968,-0.9914748668670654
1789125358155862300,9.3638623046875,-0.6094098687171936,0.46930888295173645,-1.0475349426269531
1789125358165805300,9.373805419921876,-0.6345136165618896,0.6186475157737732,-1.0566275119781494
1789125358175748000,9.383748046875,-0.669378399848938,0.6808502078056335,-1.039099097251892
1789125358185690000,9.393690185546875,-0.6362676024436951,0.7187778353691101,-0.9411589503288269
1789125358195633200,9.403633056640626,-0.6428191661834717,0.6409290432929993,-0.845438539981842
1789125358205576200,9.413576171875,-0.6832754611968994,0.40854936838150024,-0.8032218813896179
1789125358215519200,9.423519287109375,-0.6759477257728577,0.26293161511421204,-0.7239298820495605
1789125358225462300,9.433462158203126,-0.6285445690155029,0.17323262989521027,-0.596433699131012
1789125358235404300,9.443404296875,-0.5751775503158569,0.10798121243715286,-0.45999962091445923
1789125358245347300,9.453347412109375,-0.4914912283420563,0.04356493800878525,-0.3813815116882324
1789125358255290400,9.463290283203126,-0.40926802158355713,-0.07152442634105682,-0.3216215670108795
1789125358265233200,9.473233154296874,-0.38116103410720825,-0.18005916476249695,-0.29536280035972595
1789125358275176200,9.48317626953125,-0.37215426564216614,-0.22781246900558472,-0.3427686393260956
1789125358285118500,9.493118408203125,-0.3595274090766907,-0.29489508271217346,-0.4635288715362549
1789125358295061000,9.50306103515625,-0.3745018541812897,-0.3424380123615265,-0.6038011908531189
1789125358305004000,9.513004150390625,-0.4218464493751526,-0.28365111351013184,-0.7053560614585876
1789125358314947000,9.522947021484375,-0.5130840539932251,-0.2709662914276123,-0.7879883050918579
1789125358324889000,9.53288916015625,-0.6474170684814453,-0.20189055800437927,-0.8682666420936584
1789125358334832000,9.54283203125,-0.7610660791397095,-0.11826702952384949,-0.9151912927627563
1789125358344775200,9.552775146484375,-0.7861530780792236,-0.015594453550875187,-0.9260183572769165
1789125358354718200,9.56271826171875,-0.7951686978340149,-0.03356834501028061,-0.9504672884941101
1789125358364661200,9.5726611328125,-0.7691935300827026,-0.13650670647621155,-1.0641019344329834
1789125358374603300,9.582603271484375,-0.7145517468452454,-0.21091625094413757,-1.2189525365829468
1789125358384546300,9.59254638671875,-0.6400061249732971,-0.2822585999965668,-1.317050814628601
1789125358394489300,9.6024892578125,-0.6031545400619507,-0.41477513313293457,-1.3597825765609741
1789125358404432400,9.612432373046875,-0.5758600234985352,-0.46831583976745605,-1.3847155570983887
1789125358414375400,9.62237548828125,-0.5734668374061584,-0.3947022259235382,-1.3809319734573364
1789125358424317200,9.632317138671874,-0.649030864238739,-0.24903957545757294,-1.3609590530395508
1789125358434260200,9.64226025390625,-0.6636754274368286,-0.21511167287826538,-1.385603666305542
1789125358444203300,9.652203369140626,-0.7087259888648987,-0.19772176444530487,-1.4487836360931396
1789125358454146000,9.66214599609375,-0.779613196849823,-0.20044201612472534,-1.5091464519500732
1789125358464089000,9.672089111328125,-0.8019635081291199,-0.2359888255596161,-1.531654953956604
1789125358474031000,9.682031005859375,-0.7576565146446228,-0.32380545139312744,-1.5148776769638062
1789125358483974100,9.69197412109375,-0.8365175127983093,-0.26528966426849365,-1.4910684823989868
1789125358493917200,9.701917236328125,-0.7831020951271057,-0.3540510833263397,-1.565125584602356
1789125358503860200,9.711860107421876,-0.7529857158660889,-0.3881499469280243,-1.5994486808776855
1789125358513802200,9.72180224609375,-0.7801530361175537,-0.26038822531700134,-1.5383703708648682
1789125358523745300,9.731745361328125,-0.7144129276275635,-0.2589873969554901,-1.5092735290527344
1789125358533688300,9.741688232421875,-0.7548449039459229,-0.16422781348228455,-1.4768767356872559
1789125358543631400,9.75163134765625,-0.7828009128570557,-0.0782279446721077,-1.4523530006408691
1789125358553574000,9.761573974609375,-0.8190245032310486,0.07858077436685562,-1.3429937362670898
1789125358563516000,9.771515869140625,-0.842004656791687,0.2400152087211609,-1.1616966724395752
1789125358573459000,9.781458984375,-0.8627961277961731,0.3443349301815033,-0.9925843477249146
1789125358583402000,9.791402099609375,-0.8269185423851013,0.3223433494567871,-0.8835371732711792
1789125358593345000,9.801344970703125,-0.7189483046531677,0.22590987384319305,-0.7170137763023376
1789125358603287800,9.811287841796876,-0.593181848526001,0.16359615325927734,-0.5291256308555603
1789125358613230000,9.82122998046875,-0.5121682286262512,0.2643873393535614,-0.3821008801460266
1789125358623173000,9.831173095703125,-0.45850497484207153,0.3684522211551666,-0.26928722858428955
1789125358633116000,9.841115966796876,-0.4163247346878052,0.37686604261398315,-0.125074565410614
1789125358643059000,9.851058837890625,-0.37017056345939636,0.3582220673561096,0.0620090514421463
1789125358653002000,9.861001953125,-0.31099605560302734,0.41199323534965515,0.2487298846244812
1789125358662943700,9.87094384765625,-0.21220023930072784,0.44996511936187744,0.3850882649421692
1789125358672886800,9.88088671875,-0.10432574898004532,0.46753060817718506,0.5060861110687256
1789125358682829800,9.890829833984375,-0.02183060348033905,0.4887474775314331,0.6600589156150818
1789125358692772900,9.90077294921875,0.05693022906780243,0.5243864059448242,0.8220237493515015
1789125358702716000,9.9107158203125,0.11392001062631607,0.5249041318893433,0.9627091884613037
1789125358712658000,9.920657958984375,0.14717386662960052,0.481905460357666,1.0957162380218506
1789125358722601000,9.93060107421875,0.2003191113471985,0.4723300635814667,1.2027236223220825
1789125358732544000,9.9405439453125,0.29062268137931824,0.46108007431030273,1.3104991912841797
1789125358742487000,9.950487060546875,0.37737196683883667,0.42048099637031555,1.3914445638656616
1789125358752429000,9.960428955078125,0.46159207820892334,0.39713600277900696,1.4465008974075317
1789125358762372000,9.9703720703125,0.5547270774841309,0.40669170022010803,1.5266923904418945
1789125358772315100,9.980315185546875,0.6478917598724365,0.4767676293849945,1.6152008771896362
1789125358782258000,9.9902578125,0.7406496405601501,0.5055518746376038,1.6803511381149292
1789125358792201000,10.000200927734374,0.8029448986053467,0.5157427191734314,1.7124089002609253
1789125358802143000,10.01014306640625,0.8780361413955688,0.5018618106842041,1.756884217262268
1789125358812085800,10.020085693359375,0.9720163345336914,0.5096134543418884,1.7990484237670898
1789125358822028800,10.03002880859375,1.0645742416381836,0.568671464920044,1.8214155435562134
1789125358831971800,10.039971923828125,1.1272815465927124,0.5785989761352539,1.803452968597412
1789125358841915000,10.049914794921875,1.231105923652649,0.5499100685119629,1.8004320859909058
1789125358851857000,10.05985693359375,1.333531379699707,0.5270116329193115,1.788465142250061
1789125358861800000,10.069800048828125,1.413496494293213,0.5335704684257507,1.7359583377838135
1789125358871743000,10.079742919921875,1.4626964330673218,0.45604243874549866,1.6710922718048096
1789125358881686000,10.08968603515625,1.477465033531189,0.3412756323814392,1.5710673332214355
1789125358891629000,10.099629150390625,1.4831571578979492,0.20345991849899292,1.4618016481399536
1789125358901571000,10.109571044921875,1.486187219619751,-0.008900810033082962,1.3624695539474487
1789125358911514000,10.11951416015625,1.4771329164505005,-0.3015575706958771,1.2728092670440674
1789125358921457000,10.129456787109374,1.4417847394943237,-0.5006600022315979,1.2364217042922974
1789125358931400000,10.13939990234375,1.425479769706726,-0.5572566390037537,1.2097108364105225
1789125358941342700,10.1493427734375,1.4147990942001343,-0.5581546425819397,1.1625289916992188
1789125358951285000,10.159284912109374,1.3497027158737183,-0.5736988186836243,1.1582163572311401
1789125358961227800,10.169227783203125,1.212912678718567,-0.5551104545593262,1.1642338037490845
1789125358971170800,10.1791708984375,1.0422372817993164,-0.4983285069465637,1.1522789001464844
1789125358981113900,10.18911376953125,0.8825541734695435,-0.4998970925807953,1.1713236570358276
1789125358991057000,10.199056884765625,0.7681556344032288,-0.48348212242126465,1.1976850032806396
1789125359000999000,10.2089990234375,0.606377124786377,-0.4081130623817444,1.2247525453567505
1789125359010942000,10.21894189453125,0.44028955698013306,-0.41149553656578064,1.1894408464431763
1789125359020885000,10.228885009765625,0.296124666929245,-0.4000242352485657,1.1247026920318604
1789125359030828000,10.238828125,0.22823527455329895,-0.3005725145339966,1.1167038679122925
1789125359040771000,10.24877099609375,0.15810252726078033,-0.10940894484519958,1.1752822399139404
1789125359050712800,10.258712890625,0.16372041404247284,-0.01708095148205757,1.1800956726074219
1789125359060655900,10.26865576171875,0.17804104089736938,-0.056148722767829895,1.0502573251724243
1789125359070599000,10.278598876953126,0.1721857488155365,-0.08509575575590134,0.8906828165054321
1789125359080542000,10.2885419921875,0.1530248373746872,-0.03556308522820473,0.8085969686508179
1789125359090484000,10.29848388671875,0.05407697707414627,0.07269091159105301,0.7379673719406128
1789125359100427000,10.308427001953126,-0.03756186366081238,0.17948153614997864,0.6185797452926636
1789125359110370000,10.3183701171875,-0.08106181025505066,0.255953311920166,0.4862515926361084
1789125359120312800,10.328312744140625,-0.06088170036673546,0.2696632742881775,0.40116652846336365
1789125359130256000,10.338255859375,-0.04199729859828949,0.0943472608923912,0.247945636510849
1789125359140198000,10.348197998046874,-0.010187170468270779,-0.04299541935324669,0.09763149917125702
1789125359150141000,10.358140869140625,-0.012375153601169586,-0.14781758189201355,-0.0689021646976471
1789125359160084000,10.368083984375,-0.07133620977401733,-0.2751965820789337,-0.2849212884902954
1789125359170027000,10.378027099609374,-0.13147421181201935,-0.35173243284225464,-0.4961993992328644
1789125359179970000,10.387969970703125,-0.13208407163619995,-0.26523083448410034,-0.6510941386222839
1789125359189911800,10.397911865234375,-0.13127800822257996,-0.15335619449615479,-0.7563183307647705
1789125359199854800,10.407854736328124,-0.1950141042470932,-0.03928820788860321,-0.8746579885482788
1789125359209798000,10.4177978515625,-0.2599262297153473,0.14733393490314484,-0.9886165857315063
1789125359219741000,10.427740966796875,-0.29302453994750977,0.34736740589141846,-1.0645846128463745
1789125359229684000,10.43768408203125,-0.3082836866378784,0.49722233414649963,-1.1149907112121582
1789125359239626000,10.4476259765625,-0.3692341148853302,0.5569956302642822,-1.1676392555236816
1789125359249569000,10.457569091796875,-0.41023847460746765,0.5946528315544128,-1.2096134424209595
1789125359259512000,10.467511962890624,-0.40436112880706787,0.6786422729492188,-1.184382677078247
1789125359269454800,10.477454833984375,-0.38750606775283813,0.7242481708526611,-1.1386841535568237
1789125359279398000,10.48739794921875,-0.3819725513458252,0.6401926875114441,-1.1488587856292725
1789125359289340000,10.49733984375,-0.3517518639564514,0.4564010798931122,-1.187253713607788
1789125359299283000,10.507282958984375,-0.31714966893196106,0.3136492669582367,-1.1913692951202393
1789125359309226000,10.51722607421875,-0.26388007402420044,0.24219809472560883,-1.1973540782928467
1789125359319169000,10.5271689453125,-0.19270817935466766,0.2055862993001938,-1.1945881843566895
1789125359329111800,10.53711181640625,-0.18079465627670288,0.1106644868850708,-1.2031279802322388
1789125359339053800,10.5470537109375,-0.21576862037181854,0.07881148159503937,-1.1996506452560425
1789125359348996900,10.556996826171876,-0.28988906741142273,0.06463561207056046,-1.2027232646942139
1789125359358940000,10.56693994140625,-0.38487708568573,0.08510493487119675,-1.2409998178482056
1789125359368883000,10.576883056640625,-0.4510026276111603,0.1189713403582573,-1.2840216159820557
1789125359378826000,10.586825927734376,-0.5044336318969727,0.17784610390663147,-1.3228925466537476
1789125359388768000,10.59676806640625,-0.5685442686080933,0.19605082273483276,-1.3688960075378418
1789125359398711000,10.6067109375,-0.5835301280021667,0.1478840857744217,-1.3923743963241577
1789125359408654000,10.616654052734376,-0.6382234692573547,0.10265342891216278,-1.4230529069900513
1789125359418596900,10.626596923828124,-0.5945353507995605,-0.036325760185718536,-1.4951635599136353
1789125359428540000,10.636539794921875,-0.5688471794128418,-0.2275654673576355,-1.5622673034667969
1789125359438482000,10.64648193359375,-0.5765831470489502,-0.34317755699157715,-1.6314184665679932
1789125359448424700,10.6564248046875,-0.6306086182594299,-0.35707125067710876,-1.6399006843566895
1789125359458367700,10.66636767578125,-0.6040731072425842,-0.38725605607032776,-1.6610397100448608
1789125359468310800,10.676310791015625,-0.5776264071464539,-0.36497101187705994,-1.6243125200271606
1789125359478253800,10.68625390625,-0.6252820491790771,-0.34381887316703796,-1.5949766635894775
1789125359488195800,10.69619580078125,-0.6853422522544861,-0.3764131963253021,-1.6605068445205688
1789125359498139000,10.706138916015625,-0.7447773814201355,-0.38579151034355164,-1.7157697677612305
1789125359508082000,10.71608203125,-0.7517980933189392,-0.37038835883140564,-1.7264912128448486
1789125359518025000,10.72602490234375,-0.7850426435470581,-0.35466665029525757,-1.7082711458206177
1789125359527968000,10.735968017578125,-0.836699366569519,-0.23261922597885132,-1.6296898126602173
1789125359537910000,10.745909912109376,-0.8664684891700745,-0.013400857336819172,-1.5082755088806152
1789125359547853800,10.755853759765625,-0.7866605520248413,0.07487823069095612,-1.4743629693984985
1789125359557796600,10.765796630859375,-0.7697926163673401,0.053629402071237564,-1.4849425554275513
1789125359567739400,10.775739501953124,-0.8026807904243469,0.018724948167800903,-1.5138890743255615
1789125359577682400,10.785682373046875,-0.7835948467254639,-0.06286613643169403,-1.5587517023086548
1789125359587624400,10.79562451171875,-0.7891605496406555,0.005999346263706684,-1.5121217966079712
1789125359597567500,10.8055673828125,-0.8435620069503784,0.04627752676606178,-1.3933892250061035
1789125359607510500,10.815510498046875,-0.7919849157333374,0.04680665209889412,-1.2589318752288818
1789125359617453600,10.82545361328125,-0.7645136117935181,0.03585333749651909,-1.1581631898880005
1789125359627396600,10.835396728515626,-0.7157853245735168,-0.07224853336811066,-1.0197659730911255
1789125359637338600,10.845338623046874,-0.5956842303276062,-0.17104941606521606,-0.8566625714302063
1789125359647281700,10.85528173828125,-0.5006015300750732,-0.10594522207975388,-0.6861512660980225
1789125359657224700,10.865224609375,-0.424560546875,-0.03597918897867203,-0.5601970553398132
1789125359667167700,10.875167724609375,-0.3346194922924042,0.04712758958339691,-0.4600447416305542
1789125359677110800,10.88511083984375,-0.2816867530345917,0.0657832995057106,-0.3425860106945038
1789125359687052500,10.895052490234375,-0.226231187582016,0.024231139570474625,-0.2048329859972
1789125359696995600,10.90499560546875,-0.15515726804733276,0.022030305117368698,-0.05788535624742508
1789125359706938600,10.914938720703125,-0.07629689574241638,0.057748861610889435,0.08179932087659836
1789125359716881400,10.92488134765625,0.006570294499397278,0.13833531737327576,0.27294450998306274
1789125359726824400,10.934824462890624,0.08538216352462769,0.17481142282485962,0.4457629919052124
1789125359736766500,10.944766357421875,0.169042706489563,0.14395923912525177,0.5754232406616211
1789125359746709500,10.95470947265625,0.25530195236206055,0.09194610267877579,0.6763458251953125
1789125359756652500,10.964652587890624,0.33169740438461304,0.04910755157470703,0.774337649345398
1789125359766595600,10.974595703125,0.40183010697364807,0.026101714000105858,0.9004696011543274
1789125359776538600,10.98453857421875,0.48406320810317993,0.05845939368009567,1.054582953453064
1789125359786480600,10.994480712890624,0.5498665571212769,0.12032869458198547,1.1800841093063354
1789125359796423700,11.004423583984375,0.6213750839233398,0.1895112246274948,1.2923078536987305
1789125359806366700,11.01436669921875,0.6921922564506531,0.18260875344276428,1.389559268951416
1789125359816309800,11.024309814453124,0.7754719853401184,0.16060465574264526,1.4804388284683228
1789125359826252800,11.034252685546875,0.8377887606620789,0.13010038435459137,1.54346764087677
1789125359836195600,11.044195556640625,0.9073108434677124,0.13571245968341827,1.5549120903015137
1789125359846137600,11.0541376953125,0.9732381105422974,0.12934266030788422,1.5971958637237549
1789125359856080600,11.06408056640625,1.0339598655700684,0.13615742325782776,1.6618417501449585
1789125359866023400,11.0740234375,1.0486193895339966,0.15005119144916534,1.7163374423980713
1789125359875966500,11.083966552734376,1.0807427167892456,0.15110580623149872,1.7533249855041504
1789125359885909500,11.093909423828125,1.1042412519454956,0.19878418743610382,1.7737185955047607
1789125359895851500,11.1038515625,1.15346360206604,0.26421910524368286,1.7810590267181396
1789125359905794600,11.113794677734376,1.2033823728561401,0.3120332658290863,1.8070110082626343
1789125359915737600,11.123737548828124,1.2605478763580322,0.26659974455833435,1.8598902225494385
1789125359925680600,11.1336806640625,1.3100906610488892,0.21158654987812042,1.855204701423645
1789125359935623700,11.143623779296876,1.3579703569412231,0.12853454053401947,1.768237590789795
1789125359945565700,11.153565673828124,1.399497628211975,-0.022681545466184616,1.7104153633117676
1789125359955508700,11.1635087890625,1.411160945892334,-0.2299756109714508,1.6852706670761108
1789125359965451500,11.173451416015626,1.3714293241500854,-0.40701672434806824,1.6264002323150635
1789125359975394600,11.18339453125,1.3375192880630493,-0.498333603143692,1.544030785560608
1789125359985337600,11.193337646484375,1.2960312366485596,-0.6515581607818604,1.4748350381851196
1789125359995279600,11.203279541015625,1.216710090637207,-0.7541319131851196,1.4008032083511353
1789125360005222700,11.21322265625,1.0858455896377563,-0.7324297428131104,1.3938671350479126
1789125360015165400,11.22316552734375,0.9759114384651184,-0.6626250743865967,1.453534722328186
1789125360025108500,11.2331083984375,0.7832643389701843,-0.5383034944534302,1.5256396532058716
1789125360035051500,11.243051513671874,0.5633774995803833,-0.4382796883583069,1.5215586423873901
1789125360044993500,11.25299365234375,0.3259420096874237,-0.41501912474632263,1.4941074848175049
1789125360054936600,11.2629365234375,0.1775999516248703,-0.4469861090183258,1.4298897981643677
1789125360064879600,11.272879638671874,0.14285817742347717,-0.41655808687210083,1.3790708780288696
1789125360074822700,11.28282275390625,0.13915425539016724,-0.41302594542503357,1.3395024538040161
1789125360084765700,11.292765625,0.16117839515209198,-0.3832891285419464,1.2873823642730713
1789125360094707500,11.30270751953125,0.14577972888946533,-0.3363293409347534,1.153061866760254
1789125360104650500,11.312650390625,0.135067418217659,-0.3478218913078308,0.9680773019790649
1789125360114593500,11.322593505859375,0.1216362863779068,-0.31375208497047424,0.810352623462677
1789125360124536600,11.33253662109375,0.036523833870887756,-0.21567636728286743,0.7100143432617188
1789125360134479600,11.342479736328125,-0.08654935657978058,-0.06185964122414589,0.6385459899902344
1789125360144422700,11.352422607421875,-0.1672096997499466,-0.070219986140728,0.5414227247238159
1789125360154364700,11.36236474609375,-0.2093917727470398,-0.19508789479732513,0.37668460607528687
1789125360164307700,11.3723076171875,-0.2514050006866455,-0.32411712408065796,0.16729618608951569
1789125360174250500,11.38225048828125,-0.25520026683807373,-0.332890123128891,0.05146917700767517
1789125360184193500,11.392193603515626,-0.30537712574005127,-0.3814677596092224,-0.05579283460974693
1789125360194136600,11.402136474609375,-0.36597388982772827,-0.44026634097099304,-0.20850062370300293
1789125360204078600,11.41207861328125,-0.41199004650115967,-0.3425716757774353,-0.36645302176475525
1789125360214021600,11.422021728515626,-0.446740061044693,-0.2212417870759964,-0.5055909156799316
1789125360223964700,11.431964599609374,-0.45808789134025574,-0.11268281191587448,-0.6440945863723755
1789125360233907700,11.44190771484375,-0.4704985022544861,-0.013535458594560623,-0.7584738731384277
1789125360243850800,11.451850830078126,-0.4912990629673004,0.051946066319942474,-0.8357366323471069
1789125360253792500,11.46179248046875,-0.5172414183616638,0.11366242915391922,-0.8782694339752197
1789125360263735600,11.471735595703125,-0.5499265193939209,0.2062307596206665,-0.8610839247703552
1789125360273678600,11.4816787109375,-0.5653552412986755,0.3135729432106018,-0.8309984803199768
1789125360283621600,11.49162158203125,-0.5893117785453796,0.39139845967292786,-0.8084560036659241
1789125360293564700,11.501564697265625,-0.5937448740005493,0.4501131474971771,-0.7702153921127319
1789125360303506700,11.511506591796875,-0.5954552292823792,0.407388836145401,-0.7566951513290405
1789125360313449700,11.52144970703125,-0.5806304216384888,0.3055199980735779,-0.7665472626686096
1789125360323392500,11.531392578125,-0.5142968893051147,0.20925000309944153,-0.7886773943901062
1789125360333335600,11.54133544921875,-0.4362182915210724,0.14849664270877838,-0.8066140413284302
1789125360343278600,11.551278564453124,-0.37624990940093994,0.12450137734413147,-0.8178667426109314
1789125360353220600,11.561220703125,-0.3760767877101898,0.11393502354621887,-0.8673136830329895
1789125360363163600,11.57116357421875,-0.40275609493255615,0.1230165883898735,-0.916426956653595
1789125360373106400,11.5811064453125,-0.4270361363887787,0.12704433500766754,-0.9286114573478699
1789125360383049500,11.591049560546875,-0.4672544598579407,0.10069435834884644,-0.9502599239349365
1789125360392992500,11.600992431640625,-0.5414330959320068,0.0636359378695488,-1.0197852849960327
1789125360402935600,11.610935546875,-0.5685553550720215,0.08324915915727615,-1.1075230836868286
1789125360412877600,11.620877685546875,-0.6280192136764526,0.23039865493774414,-1.157011866569519
1789125360422820600,11.630820556640625,-0.7169348001480103,0.4009440839290619,-1.154500126838684
1789125360432763600,11.640763671875,-0.8100072145462036,0.37613222002983093,-1.2209558486938477
1789125360442706700,11.650706787109375,-0.8937791585922241,0.3160335123538971,-1.3058241605758667
1789125360452649500,11.6606494140625,-0.929500937461853,0.19928452372550964,-1.4099308252334595
1789125360462591700,11.670591796875,-0.8653155565261841,0.011670132167637348,-1.5250662565231323
1789125360472534800,11.68053466796875,-0.73858243227005,-0.16434165835380554,-1.6029003858566284
1789125360482477600,11.6904775390625,-0.6704764366149902,-0.265491247177124,-1.622214674949646
1789125360492420600,11.700420654296876,-0.7039582133293152,-0.2793436646461487,-1.5996716022491455
1789125360502363600,11.71036376953125,-0.6577574610710144,-0.25872603058815,-1.5707814693450928
1789125360512305400,11.720305419921875,-0.7264137864112854,-0.20730623602867126,-1.5465368032455444
1789125360522248400,11.73024853515625,-0.7566388845443726,-0.15882861614227295,-1.5290327072143555
1789125360532191500,11.74019140625,-0.7947847247123718,-0.1591612547636032,-1.496797800064087
1789125360542134500,11.750134521484375,-0.8210975527763367,-0.19265618920326233,-1.4944002628326416
1789125360552077600,11.76007763671875,-0.8220363259315491,-0.19849836826324463,-1.4978668689727783
1789125360562019600,11.77001953125,-0.822397768497467,-0.2265150547027588,-1.4928652048110962
1789125360571962600,11.779962646484375,-0.7785632014274597,-0.3447250425815582,-1.4616777896881104
1789125360581905700,11.78990576171875,-0.7521920800209045,-0.4282251000404358,-1.4140872955322266
1789125360591848700,11.7998486328125,-0.7334996461868286,-0.42835506796836853,-1.3725782632827759
1789125360601791700,11.809791748046875,-0.7317684888839722,-0.287616103887558,-1.3252657651901245
1789125360611734500,11.819734619140625,-0.7192279100418091,-0.1899886280298233,-1.2419580221176147
1789125360621676800,11.8296767578125,-0.7328685522079468,-0.12939882278442383,-1.2031831741333008
1789125360631619600,11.83961962890625,-0.7654911875724792,-0.016972146928310394,-1.2193208932876587
1789125360641562600,11.849562744140625,-0.8039243221282959,0.08020413666963577,-1.187131643295288
1789125360651505700,11.859505615234376,-0.8110511898994446,0.08700638264417648,-1.1195834875106812
1789125360661448700,11.86944873046875,-0.8134082555770874,0.07488969713449478,-0.9830358028411865
1789125360671390500,11.879390380859375,-0.6363919377326965,-0.038750577718019485,-0.7981982231140137
1789125360681333500,11.88933349609375,-0.4672934412956238,-0.03895271196961403,-0.6605792045593262
1789125360691276500,11.899276611328125,-0.36890003085136414,-0.006073058117181063,-0.6047217845916748
1789125360701219600,11.909219482421875,-0.332927942276001,0.052445366978645325,-0.5077232718467712
1789125360711162600,11.91916259765625,-0.2686123251914978,0.07349686324596405,-0.31034764647483826
1789125360721104600,11.929104736328124,-0.20541368424892426,0.12670300900936127,-0.1737462282180786
1789125360731047700,11.939047607421875,-0.13589346408843994,0.19372572004795074,-0.06761260330677032
1789125360740990700,11.94899072265625,-0.06021041423082352,0.25644436478614807,0.05849294364452362
1789125360750933800,11.958933837890624,0.005993905011564493,0.27998510003089905,0.20921987295150757
1789125360760876500,11.96887646484375,0.07631932199001312,0.2776110768318176,0.37804102897644043
1789125360770819600,11.978819580078126,0.1670185923576355,0.271159827709198,0.5759463310241699
1789125360780761600,11.98876171875,0.24252334237098694,0.2613172233104706,0.7611700892448425
1789125360790704400,11.998704345703125,0.3113812208175659,0.30394405126571655,0.8953073620796204
1789125360800647400,12.0086474609375,0.399689257144928,0.32934531569480896,0.9872029423713684
1789125360810590500,12.018590576171874,0.47841230034828186,0.2879379689693451,1.0559710264205933
1789125360820533500,12.028533447265625,0.5681079626083374,0.2802400588989258,1.1601617336273193
1789125360830475500,12.0384755859375,0.6459638476371765,0.2720857262611389,1.2651786804199219
1789125360840418600,12.04841845703125,0.6947785019874573,0.23016610741615295,1.3454298973083496
1789125360850361600,12.058361572265625,0.7478907108306885,0.16915708780288696,1.4376729726791382
1789125360860304600,12.0683046875,0.8149929046630859,0.15967798233032227,1.4993841648101807
1789125360870247700,12.07824755859375,0.9017717242240906,0.13434146344661713,1.5535831451416016
1789125360880189700,12.088189697265625,0.9760514497756958,0.14264026284217834,1.6101073026657104
1789125360890132700,12.0981328125,1.0575742721557617,0.12673266232013702,1.7204087972640991
1789125360900075800,12.10807568359375,1.0951789617538452,0.16576138138771057,1.7792515754699707
1789125360910018600,12.1180185546875,1.158776879310608,0.20861883461475372,1.7648968696594238
1789125360919961600,12.127961669921875,1.1855096817016602,0.2293419986963272,1.7161173820495605
1789125360929904600,12.137904541015626,1.2165197134017944,0.24419844150543213,1.7177597284317017
1789125360939846400,12.147846435546874,1.2545008659362793,0.3113878071308136,1.7552872896194458
1789125360949789400,12.15778955078125,1.3467650413513184,0.35258665680885315,1.7779182195663452
1789125360959732500,12.167732421875,1.4382120370864868,0.2881235182285309,1.765696406364441
1789125360969675500,12.177675537109375,1.4816668033599854,0.1748368889093399,1.7445279359817505
1789125360979618600,12.18761865234375,1.4984803199768066,0.10770271718502045,1.7176249027252197
1789125360989560600,12.197560546875,1.4745659828186035,-0.002547356765717268,1.6664583683013916
1789125360999503600,12.207503662109374,1.4522372484207153,-0.13853013515472412,1.621508240699768
1789125361009446700,12.21744677734375,1.4402016401290894,-0.21387682855129242,1.5816887617111206
1789125361019389700,12.2273896484375,1.389496922492981,-0.37566253542900085,1.4910049438476562
1789125361029332700,12.237332763671875,1.3146852254867554,-0.5068543553352356,1.4090615510940552
1789125361039275500,12.247275634765625,1.2151987552642822,-0.5057084560394287,1.4431231021881104
1789125361049217800,12.2572177734375,1.0761053562164307,-0.4226311445236206,1.514865756034851
1789125361059160800,12.267160888671874,0.9034947752952576,-0.3149903416633606,1.5001273155212402
1789125361069103400,12.277103271484375,0.6571617126464844,-0.31766360998153687,1.4219461679458618
1789125361079046400,12.28704638671875,0.458750456571579,-0.37239229679107666,1.3834974765777588
1789125361088989400,12.296989501953124,0.32457295060157776,-0.41708892583847046,1.3741649389266968
1789125361098931500,12.306931396484375,0.2474994659423828,-0.3767024874687195,1.3617403507232666
1789125361108874500,12.31687451171875,0.23567476868629456,-0.32066798210144043,1.3236446380615234
1789125361118817500,12.326817626953124,0.23210807144641876,-0.23592737317085266,1.2769116163253784
1789125361128760600,12.336760498046875,0.2221616953611374,-0.17602968215942383,1.1675465106964111
1789125361138703600,12.34670361328125,0.1728595495223999,-0.151894673705101,1.0204226970672607
1789125361148645600,12.356645751953126,0.13961264491081238,-0.10843774676322937,0.8761494159698486
1789125361158588700,12.366588623046875,0.10242659598588943,-0.04734424501657486,0.73975670337677
1789125361168531700,12.37653173828125,0.010613586753606796,-0.08077704161405563,0.5554827451705933
1789125361178474800,12.386474853515624,-0.0647503063082695,-0.17861855030059814,0.3752436637878418
1789125361188417800,12.396417724609375,-0.10174321383237839,-0.18579444289207458,0.22375506162643433
1789125361198360600,12.406360595703125,-0.12461192160844803,-0.20517291128635406,0.08158618956804276
