time,seconds_elapsed,z,y,x
1790107948543330800,0.065330810546875,0.012239888370037078,-0.485718401107192,-1.1153468951728194
1790107948553275100,0.075275146484375,0.1847252837538719,-0.5782026235371828,-0.9663689243655651
1790107948563219000,0.085218994140625,0.32793197768330573,-0.618503069743514,-0.8722669645406306
1790107948573164000,0.0951640625,0.27675416363179683,-0.5849526823192834,-0.9542305966738611
1790107948583107800,0.10510791015625,0.2162964800596237,-0.40144378861784935,-0.8535088533829898
1790107948593052000,0.115052001953125,0.13460077814757823,-0.19527999551594255,-0.6275283799812197
1790107948602997000,0.1249970703125,0.14029226778745651,-0.03358195160627365,-0.4688599130257964
1790107948612941000,0.134941162109375,0.2281301257163286,0.039082887110114095,-0.3210536163464188
1790107948622884900,0.144884765625,0.2179828257113695,0.0673293229073286,-0.08400032559260726
1790107948632830000,0.154829833984375,0.23549860865771768,0.12825053233802317,0.0794066411267966
1790107948642774000,0.16477392578125,0.2850415149837732,0.12405424969196319,0.0583918370835483
1790107948652719000,0.174718994140625,0.24938860232234,0.01706570109128952,-0.05859101291745901
1790107948662663000,0.184662841796875,0.3488087614953518,-0.10169161123633384,-0.25735592793971296
1790107948672607000,0.19460693359375,0.31276831082105633,-0.16218085899055004,-0.5400436463389545
1790107948682552000,0.204552001953125,0.00604103372991085,-0.12654431294202803,-0.7143389406889676
1790107948692496100,0.21449609375,-0.24453707063794133,-0.04384147981405258,-0.7737619474511593
1790107948702440000,0.22443994140625,-0.34390345379710197,0.010667524486780166,-0.7893746001899242
1790107948712385300,0.23438525390625,-0.3006435732632875,0.1489320858389139,-0.5997405746717006
1790107948722329000,0.2443291015625,-0.35559155350327487,0.22987726164460182,-0.4215204350281507
1790107948732273200,0.254273193359375,-0.6000748481273651,0.25405776317715645,-0.5022011877439916
1790107948742218200,0.26421826171875,-0.8592576992332935,0.1894353611409664,-0.7461934109155088
1790107948752162300,0.274162353515625,-0.6877583922773599,0.03267477363348007,-1.0226433309037237
1790107948762106000,0.284106201171875,-0.19328093065321444,-0.12210954536497592,-1.0022334339510648
1790107948772051200,0.29405126953125,0.17833704402148723,-0.169223178717494,-0.7777068126194179
1790107948781995300,0.303995361328125,0.5462088179051876,-0.08322481117546558,-0.676754110116884
1790107948791939300,0.313939208984375,0.7502075419276952,-0.25137831483483314,-0.7555410849753766
1790107948801884200,0.32388427734375,0.924254195278883,0.12216507494449615,-0.7878893300682306
1790107948811828200,0.333828125,1.0481050313532352,0.6890279738217592,-0.629295316588506
1790107948821773300,0.343773193359375,1.2625970923393963,1.3836036448985338,-0.5472859456174075
1790107948831717400,0.35371728515625,0.7615338225841521,0.8243190723210573,0.058147141607478255
1790107948841661200,0.3636611328125,0.34742812079191204,0.5355038840174675,0.43843335671052336
1790107948851606000,0.37360595703125,0.4253635933876037,0.9684276835262775,0.245604042282328
1790107948861550000,0.383550048828125,0.6480670178800821,1.122151679816842,0.14910568884015082
1790107948871494400,0.393494384765625,1.0466869812488555,1.105797341865301,0.029692798680625854
1790107948881439200,0.403439208984375,2.1228648453980683,0.9632704468935728,-0.2114533874100074
1790107948891383300,0.41338330078125,2.3058085064321756,0.6761316673696041,-0.7634581417102366
1790107948901327000,0.4233271484375,1.8862772724598644,0.17613515006303787,-0.8817057509500533
1790107948911272200,0.433272216796875,1.343181033617258,-0.00015197569131851195,-0.29546235296679657
1790107948921216300,0.44321630859375,1.042571947145462,0.1633183385878801,0.02155680196546018
1790107948931160300,0.453160400390625,0.863214327904582,0.5029723182469606,0.23342056027464567
1790107948941105200,0.463105224609375,1.3055021680861711,0.9003653701692819,0.08290120524428785
1790107948951049200,0.47304931640625,1.0512485900759696,0.6423895567655563,0.04189712254693732
1790107948960993300,0.4829931640625,0.5484750092715025,-0.05312193385660648,-0.27274434346854687
1790107948970938000,0.492938232421875,0.38128245959877965,-0.16418050837516784,-0.5306944013765081
1790107948980882200,0.502882080078125,0.24382979915142058,0.22992402339577672,-0.37581370933149005
1790107948990827000,0.512826904296875,0.11820377009809016,0.22865970254838466,-0.2391732055172324
1790107949000771300,0.522771240234375,0.1839507922500372,0.09096972621381283,-0.22871497639957813
1790107949010715100,0.532715087890625,-0.13517068699002266,0.1789443622648716,-0.7928912300087511
1790107949020660200,0.54266015625,-0.5370598812878131,0.03778291042745113,-1.4869753181762992
1790107949030604000,0.55260400390625,-0.7793254998624324,-0.31413024682402607,-1.8396062683083116
1790107949040548000,0.562548095703125,-0.875306916758418,-0.4154629616200924,-1.8187527192413806
1790107949050493200,0.5724931640625,-0.8118518049359321,-0.5086567936241626,-1.7462457014352082
1790107949060437200,0.582437255859375,-0.5531950235307216,-0.4451595962256193,-1.2946294764161108
1790107949070381000,0.592381103515625,-0.26416005499660966,-0.3054465896308422,-0.6334147346060722
1790107949080326100,0.602326171875,-0.018079846569895742,-0.2675222249060869,-0.38020496656037867
1790107949090270200,0.612270263671875,0.11755085914731025,-0.42189036431908605,-0.1916185503989458
1790107949100214300,0.62221435546875,-0.07861994772851466,-0.37959085325002667,-0.18080518770068882
1790107949110159000,0.6321591796875,-0.2850380078524351,-0.34215807143449783,-0.5873511948283762
1790107949120103200,0.642103271484375,-0.35713059963881966,-0.39003216776549815,-0.8340659017663449
1790107949130047000,0.652046875,-0.16540858886539936,-0.18599603434205053,-0.5243276062909513
1790107949139992300,0.661992431640625,0.12813771961331366,-0.023740356549620627,-0.24151691909916698
1790107949149936000,0.67193603515625,0.3396896354943514,0.07294950087666512,-0.12068141225799918
1790107949159880200,0.681880126953125,0.583836245509982,0.28487375720143315,0.17533428200893103
1790107949169825000,0.691824951171875,0.9810469266027212,0.7850187430679798,0.5384172141809016
1790107949179769300,0.701769287109375,1.2952180899590253,1.2472867104828358,0.9729980601817368
1790107949189713200,0.711713134765625,1.5942121424496174,1.4925035800784825,1.2801768804326652
1790107949199658200,0.721658203125,2.1119611740678548,2.0055425343096256,1.312780196265131
1790107949209602000,0.73160205078125,3.1290935595303773,3.5880706687062975,-1.1068427592650054
1790107949219547400,0.74154736328125,3.529986728528142,3.90683325150609,-1.5683130004309116
1790107949229491200,0.7514912109375,4.072039011275768,3.974411580738425,-0.5361654166661203
1790107949239435300,0.761435302734375,4.619645421019197,3.656376143169403,1.1747723861530421
1790107949249380000,0.771380126953125,5.362765050512552,3.3198557853609323,1.7049094824403523
1790107949259324200,0.78132421875,6.220351017141342,5.171591905793547,0.9937541402235627
1790107949269268200,0.791268310546875,5.663289965832233,7.253478259593248,2.5609511422365903
1790107949279213300,0.80121337890625,5.833437273657322,8.54547504941821,3.6538290890350935
1790107949289157000,0.8111572265625,6.021850890535116,9.487166117188334,4.973632461935281
1790107949299101200,0.82110107421875,5.843472929981351,10.249397274386881,5.448552990174293
1790107949309046300,0.83104638671875,5.518133306878805,11.118275034880638,4.8933530565619465
1790107949318990300,0.840990234375,5.160594126439094,11.36406181331873,4.423040314379334
1790107949328934100,0.85093408203125,4.737718258213997,11.766645419621467,4.1486897047579285
1790107949338879200,0.860879150390625,3.6816333340227603,12.28947453098297,3.678827044430375
1790107949348823000,0.870822998046875,2.075884190775454,12.405022818136214,2.4545950463205575
1790107949358767400,0.880767333984375,1.2149074126645922,12.214953835266828,0.37493046022355553
1790107949368712200,0.890712158203125,1.2483096237897873,11.65255843719244,-1.393825179183483
1790107949378656300,0.90065625,0.8999126579657196,11.018394272458552,-2.3029268135160206
1790107949388601000,0.91060107421875,-0.5648074276521802,10.247288319408893,-2.4288655617803334
1790107949398545200,0.920545166015625,-1.9882377637654542,9.554822772353887,-2.9155753120124337
1790107949408489200,0.9304892578125,-3.1425410701245067,9.083347416132687,-3.578892505994439
1790107949418434000,0.94043408203125,-4.1622652256459,8.347171906688809,-4.7573500104010105
1790107949428378000,0.950378173828125,-4.432871972563863,7.505232422003149,-6.412325541371107
1790107949438322200,0.960322265625,-3.9711359200686216,6.012043782269954,-8.362997836852074
1790107949448267300,0.970267333984375,-3.114960989281535,3.7732045332610604,-10.114363365519047
1790107949458211000,0.980211181640625,-0.3869838861107826,-0.156871372671891,-12.091454881370067
1790107949468155100,0.990155029296875,1.0118839634150265,-0.2475165979053825,-14.650247384268045
1790107949478100000,1.000099853515625,-0.01840191813111305,-3.0551413113519548,-15.14588103018999
1790107949488044300,1.010044189453125,-1.3080886774480343,-4.47779627917856,-15.240926627540588
1790107949497988400,1.01998828125,-2.388334229427576,-4.211119272924959,-14.25237502439618
1790107949507933200,1.02993310546875,-2.7775580034196374,-4.557594330775737,-12.070693832892179
1790107949517877000,1.039876953125,-1.298467447143793,-5.173080098524689,-11.060185249483585
1790107949527821000,1.049821044921875,3.1002129174828528,-6.341286258029937,-11.135554670983552
1790107949537766100,1.05976611328125,5.966389115554094,-7.4232958970725536,-11.57219135353565
1790107949547710200,1.069710205078125,6.965687738162279,-8.735636386746167,-11.043363878542184
1790107949557655000,1.079655029296875,7.412952197712659,-8.749697645324469,-9.11257058800757
1790107949567599400,1.089599365234375,7.25533937729001,-8.892650072231888,-7.972833567139506
1790107949577543200,1.099543212890625,5.78066079223752,-8.749123644828796,-8.129903951248526
1790107949587488300,1.10948828125,3.74185545527339,-8.960230739551783,-7.087897236770391
1790107949597432000,1.11943212890625,0.5428922041704878,-8.575099787831306,-6.225030699390173
1790107949607376100,1.129376220703125,-0.8716624227762222,-8.757870430386065,-6.2464411516875025
1790107949617321200,1.1393212890625,0.05644607331063598,-9.19446093570888,-6.3594678114086385
1790107949627265300,1.149265380859375,5.868823059815168,-10.429997002643347,-5.98030950435698
1790107949637209000,1.159208984375,9.061492142677306,-10.927632051515578,-5.982090542554855
1790107949647154200,1.169154296875,7.681459342002868,-10.088052866220474,-5.312168251219392
1790107949657098200,1.17909814453125,2.759944020795822,-7.756675034245848,-4.938996617361903
1790107949667042300,1.189042236328125,0.4642075571753084,-7.237264791417122,-5.540433986014127
1790107949676987100,1.198987060546875,0.7788790712691843,-6.755804632276297,-4.774315173727274
1790107949686931200,1.20893115234375,0.635778614193201,-5.627570417675376,-3.4594577327966687
1790107949696875000,1.218875,-0.35194515982493757,-4.573921780720353,-2.100703866994381
1790107949706820400,1.2288203125,-1.08776966387406,-3.0375878267437217,-0.7743062103956937
1790107949716763400,1.238763427734375,-1.72712175263986,-0.8264480471737682,2.4705823045253754
1790107949726707500,1.24870751953125,-2.2741198212265967,2.236548507723212,6.944937211078405
1790107949736652500,1.258652587890625,-1.144057806676626,2.534832366117835,7.298430330997705
1790107949746596600,1.2685966796875,-0.5788799382768571,4.7440848706364624,8.643360254108906
1790107949756540400,1.27854052734375,-1.311008802678436,3.915903277668357,3.784706755006313
1790107949766485500,1.288485595703125,-1.6047124936759471,0.72795859297961,-1.9628484709650278
1790107949776429300,1.29842919921875,-1.0141044159434736,0.7969578949257731,0.5030430453956127
1790107949786374700,1.308374755859375,2.2299641608968375,1.7854197739601134,8.394930267685652
1790107949796318500,1.318318359375,1.7352409078180788,2.365094223615527,9.026886108720301
1790107949806262500,1.328262451171875,2.1104116065382956,2.9662182885348796,6.01270487652719
1790107949816207400,1.338207275390625,3.383808909833431,1.2212085586354136,2.9092408482939005
1790107949826151700,1.348151611328125,1.2396753586962819,3.4510806573346255,-0.22464695977568624
1790107949836095500,1.358095458984375,-0.9852899709999561,2.919716649600863,0.4209510376423597
1790107949846040600,1.36804052734375,0.4661784188568592,3.5998739192247386,1.04011344807744
1790107949855984400,1.377984375,-0.45983518730998035,2.5197183836162087,-0.41246611789166926
1790107949865928400,1.387928466796875,0.1411960847593844,3.4563752566114068,-0.7291928109496831
1790107949875873500,1.39787353515625,0.7021101582348346,3.075896806871891,0.21202362504601477
1790107949885817600,1.407817626953125,0.3683770930573344,2.8777070613890885,0.590289367172122
1790107949895761400,1.417761474609375,0.23354338293671606,2.4340610845968125,0.31919922065138817
1790107949905706500,1.42770654296875,0.467705336163193,1.8304098392874002,-0.372751362618804
1790107949915650600,1.437650634765625,0.9910112712562084,0.9210663590230047,-2.871909773287177
1790107949925594600,1.4475947265625,2.0096016004420814,-0.09525217103967443,-5.237171754685044
1790107949935539500,1.45753955078125,3.094136227917671,0.550971904121153,-4.417070592319965
1790107949945483500,1.4674833984375,2.2713899578712877,0.21044868561318142,-3.573604336458444
1790107949955427300,1.47742724609375,1.0083270015858112,-0.7398938723798841,-4.162978342351317
1790107949965372700,1.48737255859375,1.6900994513213634,0.17811359226284548,-3.851511177256703
1790107949975316500,1.49731640625,2.732810514676571,-1.3954711928248404,-5.071439340692758
1790107949985261600,1.507261474609375,2.8698610240638254,-2.1689146489113567,-6.216465115618705
1790107949995205400,1.517205322265625,2.38828016115278,-1.4064721870496868,-5.0846559651404615
1790107950005149700,1.527149658203125,2.274270481743663,-1.3646166203558445,-1.6833546532362698
1790107950015094500,1.537094482421875,0.1174047286748886,-0.8124706674866378,0.5769026468545199
1790107950025038600,1.54703857421875,0.16750263853520153,1.699291788689047,6.560196719980239
1790107950034982400,1.556982421875,-1.1561816674515604,2.8521172775804993,10.586886184966563
1790107950044927500,1.566927490234375,-2.3245243128180504,3.9865263814240692,11.910212179034948
1790107950054871600,1.57687158203125,-0.4166390196621418,5.307234301948547,14.054306274944542
1790107950064815600,1.586815673828125,2.0053658625684676,5.640595318943261,13.63830321509838
1790107950074760400,1.596760498046875,3.3767578222781416,5.19829345023632,10.964262869298457
1790107950084704500,1.60670458984375,2.611424315150082,4.255622723779082,9.238408213984966
1790107950094648600,1.616648681640625,1.403806036580354,4.264964552620053,8.95210296267569
1790107950104593400,1.626593505859375,2.1551333763182163,3.7843075265556574,8.682731895032525
1790107950114537500,1.636537353515625,3.1323803261160847,2.9705437505185603,8.456156013020873
1790107950124481500,1.6464814453125,2.849343428952992,1.6453765124976634,6.905549203541875
1790107950134426600,1.656426513671875,3.0947336092889306,-0.7609673478078096,5.172763287660479
1790107950144370400,1.666370361328125,1.7478876234233378,-3.075894468784332,0.9523924945265054
1790107950154314500,1.676314453125,0.01813274580091238,-1.5003763592801986,-1.9015116664707659
1790107950164259300,1.68625927734375,0.9936369435846805,0.9312186274640262,-7.0403966499269
1790107950174203400,1.696203369140625,0.9161012839615345,2.0954925620868803,-9.85429788635969
1790107950184148500,1.7061484375,-0.9760241300046444,1.0691007653698326,-9.653171502903103
1790107950194092500,1.716092529296875,-1.1570436911083757,-1.4727724591702223,-8.104667803183197
1790107950204036400,1.726036376953125,-0.05519888626113534,-2.918915270090103,-6.229849497848749
1790107950213981700,1.735981689453125,3.0742052005231377,-3.902077289150655,-5.054556594952941
1790107950223925500,1.745925537109375,7.963701581656933,-3.545607783769071,-7.619286671206354
1790107950233869600,1.75586962890625,4.297227238321304,-0.3965849504098296,-15.694561206644773
1790107950243814400,1.765814453125,1.1328232228916137,5.138099386036396,-18.176245919942854
1790107950253758500,1.775758544921875,2.5639035623013973,5.970730944150686,-8.012909556940198
1790107950263702500,1.78570263671875,1.8174609258651733,4.406647690244019,-0.6000573124706745
1790107950273647600,1.795647705078125,1.1905271507762372,3.446525185987353,0.922946619811654
1790107950283591400,1.80559130859375,1.3942387284204363,3.1848978643387555,1.2719973733693362
1790107950293535500,1.815535400390625,2.577990539842844,2.3973899348035452,2.7601562022417783
1790107950303480600,1.82548046875,3.4293513483464717,0.0462827354863286,4.9107455053895706
1790107950313424600,1.835424560546875,0.4687631746530533,-0.506442332445085,3.134728350546956
1790107950323368400,1.845368408203125,-0.5276324930552393,-2.2222750676989556,2.9564234552294013
1790107950333313500,1.8553134765625,-1.0213093788862229,-2.326190200203657,1.9663047488987444
1790107950343257300,1.86525732421875,-0.6988124318636953,-1.3227613459229468,0.7236673255264758
1790107950353201700,1.87520166015625,-0.019517039766162633,0.39792613588571546,0.35920156069397924
1790107950363146500,1.885146484375,1.2779318779848514,3.6146605694681404,0.7386942142665386
1790107950373090600,1.895090576171875,3.387999931782484,6.519900949949026,1.5783201613128184
1790107950383035400,1.905035400390625,4.104368916994333,4.22392001004815,3.2242940551817414
1790107950392979700,1.914979736328125,1.9890460114084183,1.1899404369294642,2.9578672242969275
1790107950402923500,1.924923583984375,-0.09027487581744789,-0.9698469026744365,1.3482529300540684
1790107950412868600,1.93486865234375,0.08042685102000832,-1.3461784618675707,0.5573936442643403
1790107950422812400,1.9448125,-0.4308759270682931,-1.4414321490108966,-0.8142828314751386
1790107950432756500,1.954756591796875,-0.6617009909570217,-0.9167723150908946,0.07646773813068866
1790107950442701600,1.96470166015625,-0.14670447291731833,-0.4906844990819692,1.4188906468570233
1790107950452645600,1.974645751953125,0.590720159804821,0.06888181304633617,1.97138599768579
1790107950462589400,1.98458935546875,0.7428034031510352,1.2081950555443763,1.8960002095729112
1790107950472534500,1.994534423828125,0.8302933244250714,-0.9726742350548505,1.3473925138324498
1790107950482478600,2.004478515625,1.166845830937475,-7.906534171801805,2.3474182816714046
1790107950492422700,2.014422607421875,1.0108091737903655,-3.1485470325410363,-0.3545896829843521
1790107950502367500,2.024367431640625,2.2690134379982947,4.476489580494166,-2.0851152527183294
1790107950512311600,2.0343115234375,1.844278936294466,2.535761171400547,-1.095051491445303
1790107950522255400,2.04425537109375,1.6831379417456684,1.9306424838870762,-0.12255553556680679
1790107950532200400,2.054200439453125,1.8162625098608434,1.1723925052791833,-0.019960838010907173
1790107950542144500,2.06414453125,1.456909119606018,1.5255506941556929,-0.8338269053786993
1790107950552088600,2.074088623046875,1.659759404245764,1.39146195718348,-0.34628596501946446
1790107950562033400,2.084033447265625,1.572341671425104,2.128057737866044,-0.5927414364993572
1790107950571977700,2.093977783203125,1.329327864831686,4.471752615100145,-1.9932769269764423
1790107950581922600,2.103922607421875,1.319359428524971,2.775988562145829,-2.17288179897666
1790107950591866400,2.113866455078125,0.963203299941495,2.9175252770364284,-2.485392920166254
1790107950601810400,2.123810546875,1.6522504899203776,4.164719048538804,-1.6061849043160676
1790107950611755500,2.133755615234375,2.254099946504831,3.161607005122304,0.37592356291413304
1790107950621699600,2.143699462890625,0.6173427937924861,0.4410597596913576,-0.5028595055222511
1790107950631643600,2.1536435546875,0.770439598095417,-3.8118326623409984,-0.4116968870848417
1790107950641588500,2.16358837890625,-1.4689970322847365,-6.465009083810449,1.527842604485154
1790107950651532300,2.1735322265625,-6.021835692965984,-6.793360163688659,1.084038514521718
1790107950661476600,2.1834765625,-1.0489549992460756,-4.134716708984971,3.748173552379012
1790107950671421400,2.19342138671875,3.183736419343948,0.11487842506766319,2.679036254391074
1790107950681365500,2.203365478515625,2.519872697395086,0.5421995822638273,-0.584312046328187
1790107950691309600,2.2133095703125,1.361200674432516,-2.283324287423491,-2.54379308668673
1790107950701254700,2.223254638671875,2.1175135474979876,-3.4545477489233014,-2.8298493316709994
1790107950711198500,2.233198486328125,2.0665151816666123,-4.574258465328812,-2.2630407933294774
1790107950721143600,2.2431435546875,1.9883552526652812,-4.411176858106256,-0.7376490891277789
1790107950731088400,2.25308837890625,1.3566811511814594,-4.063206301000714,0.21945289826393127
1790107950741032400,2.263032470703125,0.3651449062030762,-4.854101242625713,1.985416276603937
1790107950750976300,2.272976318359375,-0.31839857179298997,-1.04708913230896,0.7588005982279777
1790107950760921600,2.282921630859375,0.19716741669774054,3.893671572116017,0.06866553994715213
1790107950770865400,2.292865478515625,0.5855611696064472,7.616749846205115,-0.9408592931210994
1790107950780810200,2.302810302734375,1.161165593343973,6.475539245653152,-1.497314195230603
1790107950790754300,2.31275439453125,1.6459902604818344,5.250319990071654,-0.9071832334905863
1790107950800698400,2.322698486328125,2.450090136116743,3.434929440739751,-0.3279197027236223
1790107950810643500,2.3326435546875,0.9666460608065128,5.83905394449532,-1.842297845479846
1790107950820587500,2.34258740234375,0.800247876381874,6.154591135507822,-0.7583686365514993
1790107950830531300,2.35253125,1.3773229571938514,6.571327185803652,1.3055161966115236
1790107950840476200,2.36247607421875,1.7708510042510925,-7.981305627408624,2.6476865918815133
1790107950850420500,2.37242041015625,-1.9367453308068214,-2.9203724831610915,-0.5259983890473843
1790107950860364500,2.382364501953125,-1.7808078962504863,2.6702029595941306,0.5164882179021835
1790107950870309400,2.392309326171875,1.183030073019117,2.7663924662828445,2.6633582082659006
1790107950880253400,2.40225341796875,2.257780096322298,3.063499682113528,3.8483500828772783
1790107950890197200,2.412197265625,3.5885412088274955,2.995487053117156,3.9984997278124093
1790107950900142300,2.422142333984375,2.4786159733772277,1.4609294611632824,3.103583855220675
1790107950910086400,2.43208642578125,1.1024570915266871,4.701346968150139,4.828934068143368
1790107950920030500,2.442030517578125,1.1729583224684,3.9966859563887116,6.288448401811719
1790107950929975300,2.451975341796875,1.6180609278097748,0.18032617201209067,4.838386371621489
1790107950939919400,2.46191943359375,1.677524339647591,-2.395873977282643,2.413498481300473
1790107950949863400,2.471863525390625,1.7493313924908638,-2.88094998883307,-0.10911854636669158
1790107950959808300,2.481808349609375,1.7744152726039288,-1.550135100314021,-1.8090882343173027
1790107950969752300,2.49175244140625,1.3804352439954877,-0.16921148827970026,-2.456352703642845
1790107950979696400,2.5016962890625,1.2585212212026118,-0.2908879029244184,-2.42087105589509
1790107950989641500,2.511641357421875,1.2750878867305815,-1.362522862946987,-1.1439192749887703
1790107950999585300,2.521585205078125,0.9943814783416688,-1.9669442158460615,0.5330442159056663
1790107951009530400,2.5315302734375,0.7985141844570637,-2.234480469277501,2.1705214995861053
1790107951019474400,2.541474365234375,0.7352488961182534,-2.755329804998636,3.8968864425092935
1790107951029418500,2.55141845703125,-0.06824073866382241,-4.436144710624218,5.140863005530834
1790107951039363300,2.56136328125,-0.6204407598078251,-5.908992573118209,5.280007856848836
1790107951049307400,2.571307373046875,-0.8559718094304204,-2.39323135381937,1.1655009921997785
1790107951059251200,2.581251220703125,-0.23363354543820022,0.08120382674187421,-2.6072400152027604
1790107951069196500,2.591196533203125,0.6635936728358268,0.7871119159549474,-4.683613158538937
1790107951079140400,2.601140380859375,-0.23197350327149033,0.325596520473063,-5.095254516044259
1790107951089084400,2.61108447265625,-0.17121230670809745,-0.18150281457602976,-3.6901486489117143
1790107951099029200,2.621029296875,1.725936488378048,1.850018502859771,-2.5622277380436658
1790107951108973600,2.6309736328125,1.231595804876089,2.8439737186133858,-2.1888386620432136
1790107951118917400,2.64091748046875,-0.3156498576067388,2.969020486474037,-1.6689292375206946
1790107951128862500,2.650862548828125,-0.15491349833607673,3.7503172864094374,-1.1018377905845642
1790107951138806300,2.66080615234375,0.7061023696761578,4.796290566430986,-0.5909317567288875
1790107951148750300,2.670750244140625,0.7340275376297533,4.589740696620941,-0.6396919882446527
1790107951158695400,2.6806953125,-0.0513749440588057,5.571790078264475,-1.7386019086837767
1790107951168639500,2.690639404296875,-0.647927317148447,5.176833313578367,-1.9355039524435995
1790107951178583300,2.700583251953125,-0.7139771216392516,3.254426158595085,-2.0574626911610365
1790107951188528400,2.7105283203125,0.426780474448204,3.5766251455843445,-2.11916891348958
1790107951198472400,2.720472412109375,1.2958257004633544,4.26105351665616,-1.0070184032052756
1790107951208417500,2.73041748046875,1.1298013177871704,5.498717243269086,1.215329145208001
1790107951218361300,2.740361328125,-0.1282885262608528,6.144864691263437,3.0425609389811754
1790107951228305400,2.750305419921875,-1.2415714015759527,4.777364332164824,3.7634973782390353
1790107951238250500,2.76025048828125,-0.6870052358224987,3.2335990591436623,3.278713627633452
1790107951248194600,2.770194580078125,0.3402387938097119,2.239352605358511,2.305363685274124
1790107951258138400,2.780138427734375,0.7205445173308253,3.5007086115956305,3.514999002754688
1790107951268083500,2.79008349609375,-1.0595920555293559,3.663497957873344,6.233706757798791
1790107951278027300,2.80002734375,1.4006173235416413,1.8888148281134665,8.037975609135627
1790107951287971600,2.8099716796875,3.4209959001943466,-0.2810994993597269,6.025475510773062
1790107951297916400,2.81991650390625,1.9168685178175568,-2.367190319111943,3.3027345546901223
1790107951307860500,2.829860595703125,0.4723647062763571,-3.9945635574072598,3.527335921758413
1790107951317804300,2.83980419921875,0.8838955891445278,-4.781425005732476,4.224948184052109
1790107951327749400,2.849749267578125,1.5390703932031988,-6.38643297522366,4.37136857933104
1790107951337693400,2.859693359375,-0.7817500966608524,-6.8118737255007025,4.3079239889025684
1790107951347637500,2.869637451171875,-1.4171560781493782,-8.04251968230605,2.8319366593390702
1790107951357582300,2.879582275390625,0.32772388789057727,-9.561088847011327,-0.2865291231930256
1790107951367526400,2.8895263671875,-0.7191618308007717,-9.565770867347716,-3.081704031845927
1790107951377470500,2.899470458984375,-0.6833385300084948,-9.07877528591156,-1.6182371611595152
1790107951387415300,2.909415283203125,0.596801817806065,-8.935028493756056,2.239101699337363
1790107951397359400,2.919359375,1.1247536790087818,-8.257460071581601,4.00172453507781
1790107951407303400,2.929303466796875,0.9174792943164706,-7.281803021323681,2.7482869007498025
1790107951417248500,2.93924853515625,0.8995344723030925,-6.654312927526235,0.38394963298141954
1790107951427192600,2.949192626953125,0.6219286602780223,-5.401661475139856,-2.107841463789344
1790107951437137400,2.959137451171875,1.8289786374405026,-5.174526790201663,-0.7030652670025825
1790107951447081200,2.969081298828125,1.9576973718121646,-3.1917940535932776,1.5325883377075193
1790107951457025300,2.979025390625,0.276891818536818,-0.42122547066956756,3.862299113252759
1790107951466970400,2.988970458984375,-0.01537906317859888,2.8314269562512635,5.862763321384787
1790107951476914400,2.99891455078125,-0.365168067882955,4.3515515337049955,7.099930204391479
1790107951486858200,3.008858154296875,-2.085445507586002,5.729395884424448,5.696646876510977
1790107951496803300,3.01880322265625,-3.6982819787457584,7.016444111931324,1.3225468263894318
1790107951506747400,3.028747314453125,-4.524631972372531,6.178681620669365,-1.8123188868016002
1790107951516691500,3.03869140625,-2.8935505272090434,6.3070128170281645,-3.401451534029841
1790107951526636300,3.04863623046875,-1.5164832983419299,6.089716220015287,-4.845629182356595
1790107951536580400,3.058580322265625,-1.2789385708093644,6.515899313092231,-4.110287785649299
1790107951546524200,3.068524169921875,-0.34502924295663834,8.128937152042985,-3.478718898105621
1790107951556469500,3.078469482421875,1.378362237113714,7.759148730883002,-5.067157717850804
1790107951566413300,3.088413330078125,6.445891710886359,8.84214036670029,-10.924246500730513
1790107951576357400,3.098357421875,11.176300522869825,-4.647252389869093,-9.211156049922108
1790107951586302200,3.10830224609375,9.314986426752805,-3.589923603096604,-5.460180884125829
1790107951596246500,3.11824658203125,4.407722333738207,-3.5330519613176583,-3.714294079130888
1790107951606191400,3.12819140625,-3.5488258690327403,1.3977952518582344,-5.900277936264872
1790107951616135400,3.138135498046875,-7.9111618316024535,4.738858660420775,-1.2552525747954846
1790107951626079200,3.148079345703125,-6.1440335011363025,4.109287668696045,3.134435505080223
1790107951636024600,3.158024658203125,-5.9089668541550635,3.0839801600843666,5.932717147576809
1790107951645968400,3.167968505859375,1.1364788958549499,-0.4226584260821342,3.3507132804393764
1790107951655912400,3.177912353515625,5.27464603755474,-7.257370590856671,0.5420914457142353
1790107951665857300,3.187857177734375,-0.7121861465692519,-4.389253195589781,1.2986924880713224
1790107951675801300,3.19780126953125,1.9093717323213815,-1.3400415665477514,1.4345640168070792
1790107951685745400,3.207745361328125,4.175831978705525,-3.0866648691236973,-0.5653758751899004
1790107951695690500,3.2176904296875,2.413343582999706,-3.311445099890232,0.03670154493153095
1790107951705634300,3.22763427734375,0.20576105751991272,-1.7512223208039999,1.2991577674955128
1790107951715577600,3.23757763671875,1.0414707079052925,-0.21164543938338756,0.2073825212419033
1790107951725522700,3.247522705078125,2.5469068347930905,-0.7872808427810668,-1.6135259147286414
1790107951735466800,3.257466796875,2.1940981900066134,-2.2437077318280934,-0.9112836545467377
1790107951745410600,3.26741064453125,0.5365437484592199,-3.274034529906511,0.7333019998341799
1790107951755355600,3.277355712890625,-0.17756721042646095,-3.257657395601272,0.1766612197637558
1790107951765299500,3.287299560546875,0.6364250954031944,-5.993524375239014,-1.8675632196396588
1790107951775243500,3.297243408203125,-1.283737495523691,-2.732474999111891,0.5103524916261434
1790107951785188600,3.307188720703125,-1.6865607558012008,0.054009238085150714,0.27998481611609455
1790107951795132700,3.317132568359375,0.43553785446472465,-0.3296966492682695,-1.0651455980032682
1790107951805076500,3.327076416015625,1.0015443557083605,1.5950123529165983,-2.1744144153714178
1790107951815021800,3.337021728515625,0.6202817698538303,2.167485492891073,-2.599672794818878
1790107951824965600,3.346965576171875,0.25344631674792617,2.2480115665018556,-1.4763438879162072
1790107951834910700,3.35691064453125,0.03715100573208183,3.281400090238452,-0.46047640782296656
1790107951844854500,3.3668544921875,-0.04257774348855018,2.987600099259615,0.587609334307909
1790107951854798600,3.376798583984375,-0.4701555057942867,2.20508953962028,0.8603332195103168
1790107951864743700,3.38674365234375,-0.8888006045818329,1.875304627546668,0.12910568786263465
1790107951874687700,3.396687744140625,-0.7793371903002262,2.0797043335855006,0.150060213086009
1790107951884631600,3.406631591796875,-1.1524795980632305,1.5232348184287547,0.5170908599704503
1790107951894576600,3.41657666015625,-1.912695908308029,0.6389812096267938,0.9567530278235673
1790107951904520700,3.426520751953125,-1.6105565435290337,-1.491618613937497,0.2460644263356924
1790107951914464800,3.43646484375,-0.894938084423542,-3.8075036932259794,-0.5796247652947902
1790107951924409600,3.44640966796875,-0.4847511635102331,-3.6633190941751,-0.5339741902321576
1790107951934353700,3.456353759765625,-0.26432547469139095,-2.8442858533024786,-1.9279308868408203
1790107951944297500,3.46629736328125,-0.3856816444057971,-2.1252304054856297,-3.3964918657958507
1790107951954242800,3.476242919921875,-0.46843233526349065,-1.4381553192973136,-3.422082818648219
1790107951964186600,3.4861865234375,-0.9377424762748181,-0.9404179790943861,-4.240917906600236
1790107951974130700,3.496130615234375,-0.622730916571617,0.5569301184058189,-2.9334686960995198
1790107951984075500,3.506075439453125,-0.7501929288804531,3.6850235609829425,-0.7191951485484838
1790107951994019800,3.516019775390625,-2.4994237836062907,6.490083319312333,2.4946219362825155
1790107952003963600,3.525963623046875,-3.4509015013754367,9.037578183126449,7.884659609124064
1790107952013908700,3.53590869140625,-0.11613967717513442,8.161427801281214,12.64349138251543
1790107952023852500,3.5458525390625,3.624504502612352,2.308159453472495,10.281971510255335
1790107952033797600,3.555797607421875,3.2944644467338917,-3.3359032493203875,-0.3582715863674879
1790107952043741700,3.56574169921875,0.5198572559438646,-4.633137355276942,-6.089459030383825
1790107952053685800,3.575685791015625,0.1866809478662908,-1.5445184294760226,-3.6085815418153997
1790107952063630600,3.585630615234375,0.49082317690029736,-1.0518617535382508,1.3332242877483367
1790107952073574700,3.59557470703125,-0.12194544084444642,-0.9425438852071761,2.169779741308093
1790107952083518700,3.605518798828125,-0.02469122753366828,-0.5914198325067758,1.3272797001302241
1790107952093463600,3.615463623046875,0.8108044878400862,-0.24396657727360724,0.2864940518796444
1790107952103407600,3.62540771484375,0.6347885071773082,0.15405892733335494,0.033228315863013266
1790107952113351700,3.6353515625,-1.2955612043082714,0.013323591953516005,1.6248726536512375
1790107952123296800,3.645296875,-2.100983268457651,-0.3572533492356539,2.64735692153573
1790107952133240600,3.655240478515625,-1.3632558533966541,-1.203186287471652,2.0266297460019587
1790107952143184600,3.6651845703125,2.204270624452829,-4.506885887801647,1.037655533531308
1790107952153129500,3.67512939453125,1.2937374960124493,-5.45773466001749,-0.21624211952388286
1790107952163073500,3.685073486328125,-0.4626830510217696,-3.635869946235418,-1.1602373725831507
1790107952173017900,3.695017822265625,-1.2933376830399035,0.4728086506515741,-1.634468749514222
1790107952182962700,3.704962646484375,-1.2702560826599598,5.122313787883519,-1.376406426870823
1790107952192906500,3.714906494140625,-0.7817093262590468,5.916771390426159,-0.9792167885661125
1790107952202850600,3.7248505859375,0.07985730750374495,5.117249490231275,-1.4612813433408736
1790107952212795600,3.734795654296875,0.2233714599471539,4.311951929244398,-1.367165135794878
1790107952222739700,3.74473974609375,-0.7720271595478058,4.442901783668995,-1.2088134797036647
1790107952232683800,3.754683837890625,-1.577471289398521,5.502318482631445,0.7778653641819954
1790107952242628600,3.764628662109375,-0.27527115853242573,3.2166642909556624,0.9802607446610927
1790107952252572400,3.774572509765625,-0.3198130417007953,0.18072364689707754,-2.4063795892059803
1790107952262517800,3.784517822265625,-0.6416882035631686,1.416339793330431,1.6319190650314093
1790107952272461600,3.794461669921875,2.9777029746234414,2.704439575716853,0.2161351520180702
1790107952282405600,3.804405517578125,2.909392239463329,1.5141753136605023,-1.1504396166682243
1790107952292350500,3.8143505859375,1.7166870139956474,-1.1193009665608404,-1.9755664982408283
1790107952302294800,3.824294677734375,1.1369885989427566,0.4472364024996757,-0.8567775728553533
1790107952312238600,3.834238525390625,1.1084019714057445,0.8143161492228508,0.36921032901108264
1790107952322183700,3.84418359375,0.467296061242558,4.233723026660084,4.885949502307176
1790107952332127500,3.85412744140625,-2.9769629699110984,7.823785161444544,9.990411991679668
1790107952342071600,3.864071533203125,-7.478873407387733,4.711532262077927,7.526497328349947
1790107952352016600,3.8740166015625,-8.042768688631057,-2.434064299467206,-0.7413368377298116
1790107952361960700,3.883960693359375,-3.473389227515459,-9.546043838092684,-9.647643679392337
1790107952371904500,3.893904541015625,2.472570847994089,-13.687581917530297,-8.728995049035548
1790107952381849600,3.903849609375,4.370239867562056,-4.8702901608824725,-6.05250263390839
1790107952391793700,3.913793701171875,3.848586814242601,-2.2418717485725876,-2.017775992938876
1790107952401737700,3.92373779296875,4.035382474529743,-3.4017525628030296,1.996117703360319
1790107952411682600,3.9336826171875,2.857178068101406,-2.850337408426404,1.3573703024894
1790107952421626600,3.943626708984375,2.141906522737443,-2.005248519799113,0.13388532335460185
1790107952431570400,3.9535703125,-0.15944821915626525,-0.3729050918757915,-1.3810346711933612
1790107952441515800,3.963515869140625,-1.7865009933255611,1.1742466087132692,-3.309169556173682
1790107952451459600,3.97345947265625,-1.0735878476560115,1.5889473537892103,-4.933475223591923
1790107952461403600,3.983403564453125,-0.02945873419642448,1.9000684819251297,-4.425462573090195
1790107952471348500,3.993348388671875,0.3903063085317611,2.0684435193806885,-3.5763287929862737
1790107952481292800,4.003292724609375,1.2395114003062246,2.750893868377805,-1.6267413701325655
1790107952491237600,4.013237548828125,1.5078408499419689,2.103448781788349,-1.1074725816011428
1790107952501181700,4.023181640625,1.148967936680466,1.8057050216197967,-1.016830772167444
1790107952511125500,4.03312548828125,0.8857482312738895,3.3141625421553846,-1.044750460228324
1790107952521070600,4.043070556640625,-1.3171347382128238,3.4836452485918996,-1.9425299055576324
1790107952531014700,4.0530146484375,-2.7214135068714618,3.5174393816441296,-0.07049918511509895
1790107952540958700,4.062958740234375,-1.6237795977175236,2.8710809212476014,1.5728092889368532
1790107952550903600,4.072903564453125,-0.22084289131760595,2.3324445844233033,0.9411275886684656
1790107952560847600,4.08284765625,0.11831665588803589,2.3879636425495145,0.12459025626480578
1790107952570791700,4.092791748046875,-2.1361492743849753,3.420428037178516,-1.0920219144910572
1790107952580736500,4.102736572265625,-3.4755344228506084,0.1776800414174795,-0.7149304768413305
1790107952590680600,4.1126806640625,-1.0022622947193682,-0.6859639100760221,1.373942667105794
1790107952600624600,4.122624755859375,-0.030181203252077102,-0.29498189423978327,2.133788390472531
1790107952610569700,4.13256982421875,0.0033386429034173485,-1.108869004395604,2.106236951202154
1790107952620513800,4.142513671875,-0.5625448895476758,-1.4212065225839614,1.5870049875497818
1790107952630457600,4.15245751953125,-1.1836731932282447,-1.759938711223006,2.747202612644434
1790107952640402400,4.16240234375,-1.0775894845128058,-2.4686960523873567,4.076837935990095
1790107952650346800,4.1723466796875,-0.5633271259665489,-2.3511937085568904,3.2152135076254607
1790107952660290800,4.182290771484375,-0.18162161865010856,-2.27422503516674,2.6628362302184105
1790107952670235600,4.192235595703125,0.348164910633862,-2.178409622487426,3.559351354700327
1790107952680179700,4.2021796875,0.8302522617623209,-2.5300346104472875,3.7571792811334133
1790107952690123500,4.21212353515625,0.500146154910326,-2.791151059964299,2.7232319544702768
1790107952700068600,4.222068603515625,-0.26277444585710763,-1.789310936179757,1.7832529513150452
1790107952710012700,4.2320126953125,-0.7738982141166925,-1.0446621974229813,-0.18672317957282064
1790107952719958300,4.241958251953125,-1.6594038688063621,-0.9432724917426705,-2.329521390452981
1790107952729902300,4.25190234375,-2.5557120725393294,2.4056243869245053,-1.1507283704817295
1790107952739846100,4.26184619140625,-2.074429315792024,3.1462606751695272,0.2844207527369261
1790107952749791500,4.27179150390625,0.36028088036328554,5.376493716135621,1.3172621639847755
1790107952759735300,4.2817353515625,0.7715078118488192,5.371488455194235,1.1035486861556767
1790107952769679400,4.291679443359375,0.32767712613940236,3.1735102088838816,-0.6346031406730414
1790107952779624200,4.301624267578125,-0.7195283260256051,-0.47328941990584134,-3.4001235002964734
1790107952789568300,4.311568359375,-0.9977163218528031,-1.6218796093150973,-3.2262872748255726
1790107952799512300,4.32151220703125,-1.034604329267144,-0.8765811744779348,-1.1370932283610105
1790107952809457400,4.33145751953125,-0.14911328762471676,1.3462778305888174,-0.0824701934158802
1790107952819401200,4.341401123046875,-0.5085153393268584,3.758048172922432,0.23965222120583057
1790107952829345300,4.35134521484375,-1.8846230755120514,3.722214058475196,1.3927321232497691
1790107952839290400,4.361290283203125,-1.2737088534623384,1.0461240866690873,1.6538842286020516
1790107952849234400,4.371234375,-0.47980479314923286,-1.8756576787680386,1.0174585486769676
1790107952859178200,4.38117822265625,-0.14861352140903472,-1.7760183238863945,0.1845423284024
1790107952869123300,4.391123291015625,-0.048743280380964274,0.36868718191981315,-0.7097118654102087
1790107952879067400,4.4010673828125,-1.189386894699931,0.563011776407063,-1.7294781065076588
1790107952889011500,4.411011474609375,-1.0435390386119485,0.6374617449745535,-2.6530554254382848
1790107952898956300,4.420956298828125,-0.01869564038068056,2.0615660348266363,-3.1833494658529755
1790107952908900400,4.430900390625,-1.0051642997711896,1.0731950489461421,-1.7585224146842955
1790107952918845400,4.440845458984375,-1.2838807033866644,-1.5554887363016605,-0.7196750410199165
1790107952928789500,4.45078955078125,-1.0274071112394332,-3.393585622960329,-1.0533844330608844
1790107952938733300,4.4607333984375,-2.0058464856922624,-2.3154224302127955,-2.2753023090094326
1790107952948678100,4.47067822265625,-2.5412434022039174,-1.1883125434666872,-0.5524053344577551
1790107952958622200,4.480622314453125,-4.082207938590646,-3.344334100796282,2.7278140215635296
1790107952968566500,4.49056640625,-2.8427053061127663,-5.041771347659826,5.283738275548815
1790107952978511400,4.500511474609375,0.2112210764914751,-3.7375139189377427,10.46072531838417
1790107952988455200,4.510455078125,-0.3018459347903728,-1.4746628029614686,10.925477503830194
1790107952998399200,4.520399169921875,-0.08484569037556648,-0.2477142393693328,6.448886801049113
1790107953008344300,4.53034423828125,0.10364566791355609,0.17179975120723245,2.2853759592562914
1790107953018288400,4.540288330078125,-0.6452601437658071,-0.21937983302772043,-0.2728337753176689
1790107953028232400,4.550232421875,-1.19627080899477,-0.9689438163548707,-2.530268419203162
1790107953038177300,4.56017724609375,-1.8063918348401784,-0.784044637338817,-1.378455760616064
1790107953048121000,4.57012109375,-0.22993980548679827,-0.42761984788179397,-2.2271055565953253
1790107953058065400,4.5800654296875,0.2168041373208165,-0.2537003280416131,-3.774764622184634
1790107953068010200,4.59001025390625,1.0696072535872458,-1.1577493551596998,1.4497306062787771
1790107953077954300,4.599954345703125,6.0789908278614275,1.1359095715343952,6.266977743759751
1790107953087898400,4.6098984375,6.245109026300907,0.896571823105216,-11.532961751431227
1790107953097843500,4.619843505859375,-0.732831751973927,4.236737113784254,-13.116619766640662
1790107953107787300,4.629787353515625,-8.522081898871063,4.679479711996018,-2.71559809859097
1790107953117731300,4.6397314453125,-8.94007350218594,-3.0760426450833678,5.839520977485179
1790107953127676200,4.64967626953125,-0.3593944529175758,0.6358376509040594,14.72407132989168
1790107953137620200,4.6596201171875,-5.485172702041268,4.635242803123593,33.59681015270948
1790107953147565300,4.6695654296875,-8.595856744655967,-4.9348552797734735,19.257574006462097
1790107953157509400,4.67950927734375,0.3116302467018366,-5.946822245296835,-2.9122376920223236
1790107953167453200,4.689453125,13.409586813926696,-1.1015110428482293,-19.84290019826889
1790107953177398300,4.699398193359375,9.557385316318273,5.008561736497283,-13.822609981179237
1790107953187342300,4.70934228515625,-3.6455788548231123,4.2357793746680015,1.5260323401927947
1790107953197286400,4.719286376953125,-1.0466416808024048,3.5402246294260022,4.910871177595854
1790107953207231200,4.729231201171875,2.849891710485518,7.457906607204675,0.19993746593296527
1790107953217175300,4.73917529296875,2.0205895890548824,8.209149921920895,-4.1868975625991816
1790107953227119000,4.749119140625,0.8713786373987793,7.049160386618971,-4.0975884630739685
1790107953237064400,4.759064453125,2.2714102700069545,6.802897807362675,-1.860744771796465
1790107953247008300,4.76900830078125,2.498984515406191,6.399727341082691,5.011854932823777
1790107953256952300,4.778952392578125,1.0573226492926477,6.021931554555892,2.177265128627419
1790107953266897200,4.788897216796875,2.3953119594857095,3.4541245550751682,-1.767587180149555
1790107953276841500,4.798841552734375,3.364582523576915,4.233144349989295,-3.9045658910959955
1790107953286785300,4.808785400390625,2.35224789378494,3.167181590384245,-4.621402493819594
1790107953296730400,4.81873046875,1.1379822861552238,-0.7785480857491492,-4.224557138907909
1790107953306674200,4.828674072265625,1.3082991053283213,-3.1065041265815494,-4.157662115764618
1790107953316618200,4.8386181640625,0.8962403991937636,-2.665032278957963,-3.0467414395362136
1790107953326563300,4.848563232421875,-0.9953168594956397,-1.102565520337224,-0.7994891669690608
1790107953336507400,4.85850732421875,-2.9896394961327313,-2.8263895466059443,-1.765886221450567
1790107953346451200,4.868451171875,-4.460592923182249,-1.1292384232074022,-1.3367477856993675
1790107953356396300,4.878396240234375,-3.4069963086754083,-0.6016577334046364,0.7385375624001026
1790107953366340400,4.88834033203125,-1.0213795215129853,-1.03754038271904,0.5074176072180271
1790107953376285400,4.898285400390625,-1.6559671723559497,-1.4242571423262358,0.3932844475597143
1790107953386229200,4.908229248046875,-2.7225164996773,-5.379258504673838,2.881834954974055
1790107953396173300,4.91817333984375,-3.130025871944427,-5.492225543162227,3.6274732892900703
1790107953406118400,4.928118408203125,-4.282048373889923,-1.2486340334385633,0.5441816959917545
1790107953416062500,4.9380625,-3.3440348255887624,1.2281821970403193,-0.2824000605642795
1790107953426006300,4.94800634765625,-1.09321989210397,2.67117326593101,0.8384931436240672
1790107953435951400,4.957951416015625,1.9208859367653726,2.661089094290137,1.5077674924448132
1790107953445895200,4.967895263671875,4.928420862811803,1.3155746492892504,1.2978230117604135
1790107953455839500,4.977839599609375,4.540424877049029,-0.2737058819770813,-1.5967147729203104
1790107953465784300,4.987784423828125,1.534384865735471,0.24499007510244844,-4.400874659800529
1790107953475728400,4.997728271484375,0.8506839321553706,1.2466378911852836,-2.6844688008338213
1790107953485672200,5.007672119140625,0.5139984469130635,1.654551168078184,-2.7428502626538274
1790107953495617300,5.0176171875,0.7380643919304013,1.152429913702607,-2.988981324484944
1790107953505561300,5.027561279296875,1.3709385168537496,0.9614239422440528,-1.402616972926259
1790107953515505400,5.03750537109375,2.0523592305421827,0.770021664944291,1.1027572435170412
1790107953525450200,5.0474501953125,3.0795185045003888,0.3509989650160074,2.7769255507349966
1790107953535394300,5.057394287109375,2.4953251161158083,0.8157406290680169,1.472967104959488
1790107953545338400,5.06733837890625,0.3642500762552023,1.1705454161077737,-0.5911357548683881
1790107953555283200,5.077283203125,-0.8085206146866083,2.237121339175105,-2.1767408124923704
1790107953565227300,5.087227294921875,-0.7406754512116313,3.2017391090244054,-3.2221342467993495
1790107953575171300,5.09717138671875,-1.2979177043065429,2.564661102670431,0.8904051171690225
1790107953585116400,5.107116455078125,-0.6839709826931357,3.2195103280365465,4.201674275970459
1790107953595060200,5.117060302734375,2.2479040144741536,-0.19640636919736862,-0.0934364085882902
1790107953605005300,5.12700537109375,2.324615352102369,-2.1658160983741284,-4.9100756433039905
1790107953614949000,5.13694921875,0.05974646656289696,-0.5619885708391666,-5.793755836132169
1790107953624893200,5.14689306640625,-0.23405293989405035,1.892509444847703,-3.949755862909555
1790107953634838300,5.15683837890625,-1.0552409476477653,3.9990070928126573,-2.257988186115026
1790107953644782300,5.1667822265625,0.11531674341969192,3.214847012400627,-0.6378747096896171
1790107953654726100,5.17672607421875,3.7765222795069215,0.9039256929993629,4.38321157733798
1790107953664671500,5.18667138671875,4.183086479878425,-1.5265397051930427,0.7716483893632888
1790107953674615300,5.196615234375,0.9183984549880028,-4.970851891306042,-1.3310481127530336
1790107953684559400,5.206559326171875,0.21576226358506828,-2.033293295544386,3.4309050075292586
1790107953694504200,5.216504150390625,2.252522906446457,-0.23690204571485518,4.767770282128453
1790107953704448300,5.2264482421875,5.09452444820404,-1.4588772048085927,8.86340410400331
1790107953714391800,5.236391845703125,4.67170937025547,-1.1978840894103049,9.507221063223481
1790107953724336600,5.246336669921875,0.34516251394748687,-0.2838061279699206,3.8463182847887274
1790107953734280700,5.25628076171875,-3.996868327218294,-0.7222130350649356,2.3262550821334123
1790107953744224800,5.266224853515625,-5.296382068544626,0.530946659104526,3.712788935264945
1790107953754169600,5.276169677734375,-4.583361224716901,1.6967168236345052,2.979660538432002
1790107953764113700,5.28611376953125,-3.36495574080348,1.3306810330063104,2.7342057684272527
1790107953774057700,5.2960576171875,-1.6479086613237857,0.09716098206937313,0.7631120316863059
1790107953784002800,5.3060029296875,0.14626725054383277,-0.0012704583272337912,1.3389520177453755
1790107953793946600,5.315946533203125,-0.4165560906190425,-0.3332356370493769,1.4283610705137253
1790107953803890700,5.325890625,-1.3115956626556813,0.16906506554633377,0.27397242395877835
1790107953813835500,5.33583544921875,-2.964568767762184,0.7797691519767046,-0.3555477143615484
1790107953823779600,5.345779541015625,1.3924353322602807,0.9057523239046334,0.40127252370417116
1790107953833724700,5.355724609375,1.033336501288414,1.146583233501017,2.677191503307223
1790107953843668700,5.365668701171875,-3.2342379415690896,5.072338919880986,4.356477299669384
1790107953853612500,5.375612548828125,-0.5324935232203454,3.037771951138973,3.1457384048610924
1790107953863557600,5.3855576171875,4.44794503853321,2.5887974728003145,-0.5623386994510888
1790107953873501700,5.395501708984375,5.998333236825466,5.8675920567154884,0.4393079475879669
1790107953883445800,5.40544580078125,5.785877065581083,3.8242683655440803,6.817164233124256
1790107953893390600,5.415390625,3.492291496384144,0.5447638797938823,5.4366930410325525
1790107953903334700,5.425334716796875,1.0988237034603954,-0.4176888209760189,-3.00584887265563
1790107953913278500,5.435278564453125,0.22438728592619298,-2.0071467546358703,-5.520384300675988
1790107953923223800,5.445223876953125,-5.45747513229847,-5.37185202780962,-2.383891278544068
1790107953933167600,5.455167724609375,-7.884062812274694,-10.237329235452412,2.5412194368064402
1790107953943111700,5.465111572265625,-5.416657968741655,-8.87989054390192,2.518288058552146
1790107953953056500,5.475056396484375,-5.391252309328317,-2.7186235838919877,-0.8216115669280291
1790107953963000800,5.485000732421875,-2.9711750341594216,0.5707312647432089,-1.8606617696881294
1790107953972944600,5.494944580078125,1.4405787470519542,1.9907845256388186,-2.1458932542860505
1790107953982889700,5.5048896484375,3.9218566331148144,1.7138666958779096,-0.958672597709298
1790107953992833500,5.51483349609375,3.903312091642618,1.4122487246245146,-3.8150411029934883
1790107954002777600,5.524777587890625,2.110884923138469,0.9312836555242537,-5.378308656603098
1790107954012722700,5.53472265625,4.179848228609561,1.167689442154765,-2.8532150096893307
1790107954022666800,5.544666748046875,5.332333671891689,-0.003614683365821838,-4.5481122166812415
1790107954032611600,5.554611572265625,-7.6652774380087845,-4.864128131121396,-0.43456981315016746
1790107954042555600,5.5645556640625,3.0899522202312943,-1.0990993055313825,3.2369331720024346
1790107954052499700,5.574499755859375,-1.4428139587581157,0.17960487200021744,1.5291098479419947
1790107954062444800,5.58444482421875,-0.4697815579153597,1.8860884718894957,-1.093369237446785
1790107954072388600,5.594388671875,0.0651237756870687,1.8718407508283852,-1.0649544593453406
1790107954082332700,5.604332763671875,1.0814623804233967,2.688342427396774,-0.3885743701726198
1790107954092277800,5.61427783203125,0.501084677869454,5.526537562608719,0.5366805265814065
1790107954102221800,5.624221923828125,-0.14260098312124608,5.645007290166616,-2.2054694788485762
1790107954112165600,5.63416552734375,-0.43899011381044983,0.06776771432459354,0.838870160242915
1790107954122110700,5.64411083984375,-0.5269570780117064,-3.855800983405113,1.28366501480937
1790107954132054500,5.654054443359375,-1.2322574836552143,-1.253817573556304,1.004507297167182
1790107954141998800,5.663998779296875,-1.22569337589927,2.1177806740015743,-0.2679144390940666
1790107954151943700,5.673943603515625,0.03248772662878036,1.3222726856231688,0.20897826600074768
1790107954161887700,5.6838876953125,1.1853051783442496,-0.7259113050609827,-0.05772621278166771
1790107954171831600,5.69383154296875,0.7975006235003471,-1.8599772945553064,-1.8126602475851774
1790107954181776600,5.703776611328125,0.10695223517827689,-1.0219190352171659,-1.7190706942617893
1790107954191720700,5.713720703125,0.16918036248907445,-1.039080597898364,-1.0862585286587476
1790107954201664800,5.723664794921875,0.17516360161714256,-0.756627345842123,0.25578677892684937
1790107954211609600,5.733609619140625,0.004499649506807327,1.3594026850998402,1.080612631726265
1790107954221553700,5.7435537109375,-0.048068742120265955,0.7355278591901063,1.0593798740833997
1790107954231497700,5.753497802734375,0.06974390976838767,0.01621463721990585,0.32227614387869835
1790107954241442600,5.763442626953125,0.04736716972216964,0.7587468222141266,0.14491232880353927
1790107954251386600,5.77338671875,0.29477796916551885,0.10260989512503146,-0.01453121417760849
1790107954261330700,5.78333056640625,-0.4474771524529904,-1.9974322930902242,1.3789175329089165
1790107954271275800,5.79327587890625,11.437622724092005,1.7508032186090945,0.20191081183254717
1790107954281219800,5.8032197265625,1.5230429491184652,-2.3396488167136904,-2.5408085179179905
1790107954291164700,5.81316455078125,-4.997530054873228,-8.033192466512322,3.9338632972508667
1790107954301108500,5.8231083984375,4.302525052468479,-16.51528020864725,-0.5201543391942978
1790107954311052500,5.833052490234375,-1.9691912641204892,-8.099108415490388,-5.488836485245823
1790107954320997600,5.84299755859375,0.6069993866935371,5.09640894677639,-3.9754835938841104
1790107954330941700,5.852941650390625,-3.0531872546747323,6.291483823984861,0.31711130846142765
1790107954340885800,5.8628857421875,-6.796089880913495,9.597202362921834,2.6228672079235316
1790107954350830800,5.872830810546875,-6.553228050011396,7.2810595094799995,2.5570401062726975
1790107954360774700,5.882774658203125,-3.0481112665846943,1.7965812194436788,-2.2852298287838697
1790107954370718700,5.89271875,-0.256046598906815,-1.1822153956353663,-0.11467559597194193
1790107954380663600,5.90266357421875,-1.1342013063117862,2.281020102134347,0.10782558394670486
1790107954390607600,5.912607666015625,1.1804302657842636,7.958173758146167,0.40336335850358007
1790107954400551700,5.9225517578125,3.9616593589320774,4.386248168554902,1.3849340167194604
1790107954410496800,5.932496826171875,1.8011840370640158,-1.6367244194865225,-0.05075754281282425
1790107954420440600,5.942440673828125,1.1391279490590094,-3.2025936800271273,-1.992341107431054
1790107954430384600,5.952384521484375,1.2651616821303964,0.1717290240585804,-1.3533856167674063
1790107954440329700,5.962329833984375,-0.1111155654028058,-1.2269441796779632,0.6679442692607641
1790107954450273800,5.972273681640625,-0.14973375761061905,-3.2601065423190594,-0.13352818048000334
1790107954460217600,5.982217529296875,0.7583975703850389,-2.473608958870172,-0.6342758084148168
1790107954470162700,5.99216259765625,0.164258542047441,-0.4178893119841814,-0.25518939755558967
1790107954480106500,6.0021064453125,0.1348503689944744,-0.5758966846823692,-0.36691374250650405
1790107954490050800,6.01205078125,-0.2731821503639221,-0.9840502000719308,0.593166968435049
1790107954499995600,6.02199560546875,-1.2394780825585126,-0.7408470083862543,1.7385042935281991
1790107954509939700,6.031939697265625,-1.1654910553276538,-0.6464455541580915,1.623577353143692
1790107954519884500,6.041884521484375,0.12415771006643771,-0.47011108213067054,0.9750286892265081
1790107954529828900,6.051828857421875,1.3612930288910865,-0.25428981836736203,0.9322516237735747
1790107954539772700,6.061772705078125,1.1705062531411647,-0.8066782016903161,1.0506927097588776
1790107954549717800,6.0717177734375,1.1530167736798524,-1.010318613794446,1.2871359057903289
1790107954559661600,6.08166162109375,1.3012947795242071,-0.895730696105957,0.731964613750577
1790107954569605600,6.091605712890625,1.7512585611611604,0.8841992482662201,0.04568856898546218
1790107954579550700,6.10155078125,-0.6634294221848249,2.672583132728934,0.8227952237546443
1790107954589494800,6.111494873046875,-1.0971546012043951,2.5035721354573965,0.5563537798225879
1790107954599438600,6.1214384765625,0.2032692407041788,0.7539420522809028,-0.9512912552863358
1790107954609383700,6.1313837890625,-1.1973217793524265,-1.7373697365403173,0.030454759496450424
1790107954619327700,6.14132763671875,-1.2604133185595274,-2.848902991709113,-0.01250818391740322
1790107954629271800,6.151271728515625,-1.812162819457054,2.6267946105003355,0.30664252141714093
1790107954639216600,6.161216552734375,1.9882801416024565,3.8980274292379615,-0.6261369256228209
1790107954649160700,6.17116064453125,1.599854239989817,-0.19620412462353706,0.5407832857251167
1790107954659104500,6.1811044921875,-1.4860790999889373,-0.6058610303133726,-0.3237374486029148
1790107954669049900,6.1910498046875,-1.4810305844277143,-0.9386357718527316,0.48486792175769805
1790107954678993700,6.20099365234375,-0.5942360589712857,-3.009873305866122,0.8607052676931023
1790107954688937700,6.210937744140625,-1.3380182440266013,-1.9404460850208998,1.2935396353527904
1790107954698882600,6.220882568359375,-2.5939503255188465,-1.265178925526142,1.0061506804600358
1790107954708827000,6.230826904296875,-3.3781104059308764,-0.496850620496273,0.014803601378202438
1790107954718772000,6.24077197265625,-2.391840776243806,-0.12204875508844852,-0.6615095600381493
1790107954728715800,6.2507158203125,-1.7274556607693432,1.5995143405109642,-1.1485293991327286
1790107954738659800,6.260659912109375,0.43126112699359653,3.487358131635189,-3.8052044763728974
1790107954748605000,6.27060498046875,-1.5648247199237346,3.0688211693972347,-2.274829430800676
1790107954758549000,6.280549072265625,-4.769025542886555,0.20765783105194568,3.078643767492473
1790107954768493000,6.2904931640625,-2.2278622201815246,-5.451752078476548,4.712439732311665
1790107954778438000,6.30043798828125,-0.4696273902669549,-7.425649182200432,4.804680501374602
1790107954788381700,6.310381591796875,-0.4347334792792797,-7.4978919961124655,4.594558910557628
1790107954798326000,6.320325927734375,-0.4708811897203326,-7.360231245872378,4.607144835886359
1790107954808270800,6.330270751953125,1.214573650665581,-6.901867300158739,3.5949580901324745
1790107954818215000,6.34021484375,3.9539305182456967,-5.866632271772623,2.1267209363043307
1790107954828159000,6.350158935546875,8.031631208544969,-3.5227065083920954,0.16666706449389457
1790107954838104000,6.36010400390625,10.63506598624587,0.10434007991850376,-4.211411826130748
1790107954848047900,6.3700478515625,7.633686367958783,3.600108312502503,-9.187641318821907
1790107954857992000,6.379991943359375,3.759932379233837,8.419040626591444,-12.160898419952392
1790107954867936800,6.389936767578125,1.848519204212725,13.6233113976717,-11.427460226517915
1790107954877880800,6.399880859375,-0.5793371805250644,12.635147917062044,-8.301523085191846
1790107954887825000,6.409824951171875,-0.7724316486954689,7.381048408451676,-3.8079257180303334
1790107954897770000,6.41977001953125,-0.15296470235586165,3.302474442449212,0.4677800088346004
1790107954907713800,6.4297138671875,-1.0509843861818313,0.9633727382242679,2.414400983098149
1790107954917657900,6.439657958984375,-2.8390976370096204,-0.6815875946879386,3.511214808040857
1790107954927603000,6.44960302734375,-3.009335837988555,-1.072889343997836,4.411206668722629
1790107954937547000,6.459547119140625,-2.0324267418429254,-1.1699380978643894,5.3384138685882085
1790107954947491800,6.469491943359375,-1.2224483295634387,-1.2306903804689644,5.834064465644955
1790107954957436000,6.479435791015625,-0.7379261525034904,-0.7112012271851301,5.499388274398446
1790107954967380000,6.4893798828125,-0.0334425431355834,0.4093219746470451,4.292544633463025
1790107954977325000,6.499324951171875,0.5023369429528713,1.4615589912384748,2.7577333590090274
1790107954987268900,6.509268798828125,0.06248188287615776,2.0946470511734483,2.181558441907167
1790107954997213000,6.519212890625,-1.3833707129254937,1.7472341279506682,2.0828829636216164
1790107955007158000,6.529157958984375,-1.9125065232157705,1.1784510746657848,1.8534025923401116
1790107955017102000,6.53910205078125,-2.1266902489051223,0.9017647155731916,1.4153998821318148
1790107955027046000,6.5490458984375,-2.2578667516924438,-0.4146551523685455,0.9286468772798776
1790107955036991000,6.558990966796875,-1.4760828988924621,-0.22121873889267443,0.8656114521741867
1790107955046934800,6.568934814453125,-0.4597032314933836,0.2949368860542774,0.8235890044808387
1790107955056879000,6.578879150390625,0.22138065145611763,-0.3889543094009161,0.5013970317542553
1790107955066824000,6.588823974609375,0.5945101997375488,-1.2617711629092692,-0.07131283958554267
1790107955076768000,6.59876806640625,1.5217548090040682,-1.0419541075080632,-0.940828313460946
1790107955086711800,6.6087119140625,3.594802607309818,-0.07154781738519668,-1.285039810293913
1790107955096657200,6.6186572265625,5.078935249406099,1.3741612782925368,-2.167824515587091
1790107955106601000,6.62860107421875,5.839983918821812,3.1876725897490976,-2.771721552351117
1790107955116545800,6.6385458984375,5.843267762798071,4.305566612121463,-3.188503779876232
1790107955126489900,6.64848974609375,5.146027840948104,4.9933717661499974,-3.3122201759159564
1790107955136434000,6.658433837890625,4.692980706343055,5.991933891177177,-1.877984660410881
1790107955146379000,6.66837890625,2.495510409554839,3.920737273696065,0.30405835014283655
1790107955156323000,6.678322998046875,2.730777547544241,3.740167356055975,2.088217310386896
1790107955166267000,6.688266845703125,1.4285937102258204,3.391379052826762,2.4910826562404633
1790107955176211700,6.698211669921875,-0.3059960402071476,0.8390455168098211,1.8700427614957094
1790107955186156000,6.708156005859375,-1.9171664778508244,-1.7746090416103601,0.7905173404842615
1790107955196100000,6.71810009765625,-4.4665468631505965,-2.7463229072004554,-0.6204945358216762
1790107955206045000,6.728044921875,-4.527193347293138,-4.422896521994471,-2.194971465709805
1790107955215989000,6.737989013671875,-2.9193361258506774,-7.412225637003779,-3.5982495328932997
1790107955225932800,6.747932861328125,-2.0739783571541306,-6.175640353277325,-4.251730392515659
1790107955235878000,6.7578779296875,-1.1989490882933138,-4.789977437761426,-4.194423281928897
1790107955245822000,6.767822021484375,-0.04606618839250877,-4.571990520396828,-3.5750451829165217
1790107955255766000,6.77776611328125,0.7421136673212051,-4.863794953644275,-2.3584365192919967
1790107955265710800,6.7877109375,0.9621148471176624,-4.927355279406905,-2.069551772883534
1790107955275655000,6.797655029296875,1.1761328608512878,-4.794904957291483,-2.29328570946753
1790107955285599000,6.807598876953125,0.7049485965311527,-3.0190327638775107,-1.8609972852528094
1790107955295543800,6.817543701171875,0.23651156682623548,0.11238485468626022,-1.2492284922003745
1790107955305488000,6.82748779296875,0.45270285121202464,2.4375696772396562,-1.351493519410491
1790107955315432000,6.837431884765625,0.9645160630404949,3.891497150686383,-0.5588777453422547
1790107955325377000,6.847376953125,1.7909376605987548,6.147373459213972,0.5948667580902576
1790107955335320800,6.85732080078125,2.4188854350358246,8.460712945672869,2.1147727243572474
1790107955345266000,6.867265869140625,2.9057693727910516,3.692525022654235,6.3448144321560855
1790107955355209700,6.877209716796875,2.7563983110129833,-21.430138994574545,17.314335660374162
1790107955365154000,6.887154052734375,1.041594626545906,9.215515998697281,-2.870148608833551
1790107955375099000,6.897098876953125,1.5892729324817656,7.055194406086206,-3.9369221002995967
1790107955385043000,6.90704296875,2.946035916727781,6.696852092570066,-1.8500006749421356
1790107955394986800,6.91698681640625,4.3051440027952195,7.857310414427518,-2.8290526283353565
1790107955404932000,6.92693212890625,4.592791900885105,7.701327825555205,-1.7703940542638301
1790107955414876000,6.9368759765625,3.8847827477395533,7.493826061847805,0.27250410497188565
1790107955424820000,6.946820068359375,3.8225393497943876,6.813014127707481,0.4490940130650997
1790107955434764800,6.956764892578125,3.5590532485365864,5.852914712065458,0.7124070958435536
1790107955444708900,6.966708984375,2.394369856330007,5.102219678881764,0.4546136532694101
1790107955454653000,6.97665283203125,0.19361498491317033,3.8724487513452766,-0.7131254732459783
1790107955464598000,6.986597900390625,-1.44142571927011,2.6803783166497945,-1.3998784878730772
1790107955474541800,6.996541748046875,-2.9243428480967877,1.5186773012548684,-3.856196704724431
1790107955484486000,7.00648583984375,-4.687252684085071,-0.1738064148545265,-6.9921104656636714
1790107955494431000,7.016430908203125,-3.9790143983587623,-0.4234562984615564,-6.9688704598516225
1790107955504375000,7.026375,-2.366709549857676,-0.13340133922994135,-4.790896890693903
1790107955514318800,7.03631884765625,-1.8229922565072774,-0.3739432027518749,-2.6267384963989255
1790107955524264000,7.046263916015625,-1.604681221754849,-0.2531494161605835,-1.5826526375591754
1790107955534207700,7.056207763671875,-1.6891364515081047,-0.9877315189331769,-0.4169681054860353
1790107955544152000,7.066152099609375,-1.8590803457155822,-3.1552108743444083,1.1137193670362233
1790107955554097000,7.076096923828125,-1.4970824323013423,-5.473390494310856,3.2124218310803174
1790107955564041000,7.086041015625,-1.9270821610569953,-7.087206331896781,4.296307785388827
1790107955573985800,7.09598583984375,-1.9261326052471994,-6.8078177281081675,4.457648686423897
1790107955583930000,7.10593017578125,-0.9663242815062403,-5.324745993241668,3.621892274287343
1790107955593874000,7.1158740234375,-0.42822526642903685,-4.07670729534775,2.138236602053046
1790107955603819000,7.125819091796875,0.08856807189956308,-2.1494763734698292,0.6260486628174782
1790107955613762800,7.1357626953125,1.1158419121481478,0.032164778284728524,-1.3808435325354338
1790107955623707000,7.145706787109375,2.451673021394014,2.191208606044948,-3.334059667280316
1790107955633652000,7.15565185546875,2.8817700730443,3.418109823364019,-4.446639216631651
1790107955643596000,7.165595947265625,1.8334242186725138,3.4419475028082727,-4.3011148934096095
1790107955653539800,7.175539794921875,1.008446463247016,2.6841157496124506,-3.3781080678433177
1790107955663485000,7.18548486328125,1.6804408116161822,2.0847516801029444,-1.9125041851282119
1790107955673429000,7.195428955078125,3.1996108648240567,1.8776053057044744,-0.16325637926757336
1790107955683373000,7.205373046875,3.7439480436384676,1.4342588963806628,0.9892378318428993
1790107955693318000,7.21531787109375,2.7512393208146095,0.96190471149832,1.73339264960289
1790107955703262000,7.225261962890625,1.1232852138914167,0.25542671344280243,2.2924901751756668
1790107955713205800,7.235205810546875,-0.15119944624900816,-0.5276525859951973,2.538631758400798
1790107955723150800,7.24515087890625,-1.0056722492933272,-0.6673249683186412,2.6952999914497133
1790107955733094700,7.2550947265625,-1.7888685992397366,-0.25667495993822814,2.6115724914491176
1790107955743038700,7.265038818359375,-2.2951124865032733,0.38266339256316423,2.076839007282257
1790107955752983600,7.274983642578125,-2.8189561817348,0.7280740360528231,1.574089391875267
1790107955762927900,7.284927978515625,-2.9897862111270426,0.7871092856064439,0.8880226059466599
1790107955772872700,7.294872802734375,-0.6683927436806261,0.11401976241171359,0.9581003507792949
1790107955782816800,7.304816650390625,-0.8564379656374455,-2.05162711687535,1.5237112037688494
1790107955792760600,7.314760498046875,-2.2146108166813847,0.8432695642456411,-1.0282920773804187
1790107955802705700,7.32470556640625,-0.44898763008117676,0.10527765302956103,-0.5141752647846937
1790107955812649700,7.334649658203125,2.124430925671011,1.550519131195545,0.750946377596259
1790107955822593800,7.34459375,1.7499533237814902,2.1280805342197415,2.1167361333847046
1790107955832538600,7.35453857421875,1.2065500648163259,1.3225322133421897,3.8884225655466316
1790107955842482700,7.364482666015625,1.0051612310312688,-0.09133242204636335,4.071716939714551
1790107955852426800,7.3744267578125,0.3816564074777066,-1.5766262168765066,3.7000837674707174
1790107955862371600,7.38437158203125,-0.2907951100744307,-2.2100138442799446,3.0777573400467633
1790107955872315600,7.394315673828125,-0.6996903837420045,-1.9266335405066608,2.2899317228645084
1790107955882259700,7.404259765625,-0.7048622334219515,-1.413644855158031,1.5108511376738547
1790107955892204800,7.414204833984375,-0.4530570714771747,-0.69616001765877,1.0241571695327758
1790107955902148600,7.424148681640625,-0.1554629489123821,0.06613923633992672,1.320056763139367
1790107955912092700,7.4340927734375,0.20122151439413427,0.5582686735332012,1.6604086619347334
1790107955922037500,7.44403759765625,0.34584625842794775,0.4303364133641123,1.1721499286949635
1790107955931981600,7.453981689453125,0.2450666474699974,0.12131401107311247,1.0540151321798563
1790107955941926000,7.46392578125,0.3509339369557798,-0.0688894118309021,1.6089304036319254
1790107955951870700,7.47387060546875,0.2725076121032238,-0.40000469572544095,1.9506185194671153
1790107955961814500,7.483814453125,-0.35182825544700025,-0.5351344661831855,2.024954506266117
1790107955971758600,7.493758544921875,-1.020911904001236,-0.7203276597097515,2.0659289062112567
1790107955981703700,7.50370361328125,-1.2173990833498536,-0.8603025321111083,2.112572583964467
1790107955991647700,7.513647705078125,-1.5101301299229264,-1.023688967499137,2.064259511694312
1790107956001592600,7.523592529296875,-1.2880549203313887,-1.1614347656741737,1.4985709172934294
1790107956011536600,7.53353662109375,-0.8563689920544624,-1.0203332273304462,1.3351853586882352
1790107956021480400,7.54348046875,-0.03355374842509627,-0.4110384231761098,1.1603893482744694
1790107956031425800,7.55342578125,0.9345898574627935,-0.07678074960261583,0.7917559423685073
1790107956041369600,7.56336962890625,1.5652210257649422,-0.3973161872938275,0.482840799844265
1790107956051313700,7.573313720703125,1.684434265166521,-0.8529591836109757,0.5419669425517321
1790107956061258800,7.5832587890625,1.7245137620985507,-0.7380316587045789,0.4637567446678877
1790107956071202800,7.593202880859375,1.9723311695814132,-0.6962286989808082,0.09197861099541187
1790107956081146600,7.603146728515625,2.5029730005204676,-1.5317738064542412,-0.45220717664957044
1790107956091091700,7.613091796875,2.7797376855462788,-2.476874682667851,-0.4310895698189735
1790107956101035500,7.623035400390625,1.8867443054497242,-2.581471952217817,0.5207195718616247
1790107956110979800,7.632979736328125,1.2854706029266119,-1.311063601605594,1.117916234204173
1790107956120924700,7.642924560546875,1.8411603658825157,0.6437070691049098,1.1043243467032908
1790107956130868700,7.65286865234375,2.5034675060391423,2.520960200370848,0.676228698003292
1790107956140812500,7.6628125,2.704642989334464,3.767182788753509,-0.31469372592568395
1790107956150758000,7.6727578125,1.633795380297303,3.062885934129357,-0.7065098544985056
1790107956160701700,7.68270166015625,0.059519452873989936,-0.7188613865494727,1.182292552524805
1790107956170645800,7.692645751953125,0.028617680262401697,0.05405336948782205,0.9670961426615714
1790107956180590600,7.702590576171875,0.08066679725572466,3.3678999775618315,-0.9148159203261137
1790107956190534700,7.71253466796875,-0.0462901881404221,3.9847506039232012,-2.1563620413303375
1790107956200478700,7.722478759765625,0.24668738053962586,1.328930389946699,-3.982986516860127
1790107956210423800,7.732423828125,1.0742688156574964,-0.7156786648601293,-4.560428092896938
1790107956220367600,7.74236767578125,1.618609647733718,-1.5948650534003972,-3.8833705428540704
1790107956230312700,7.752312744140625,1.2955321243442595,-2.150490518948436,-3.050136927193403
1790107956240256800,7.7622568359375,1.5241345437474547,-1.2289210327088833,-2.5361399415850636
1790107956250200800,7.772200927734375,2.1871021936394275,-0.05027297416627407,-1.3313123166471719
1790107956260145700,7.782145751953125,1.9646862077862024,0.2501058106809854,-0.37397944310903547
1790107956270089700,7.79208984375,2.3346675211697816,-0.5977794306665659,0.22404197961986064
1790107956280033500,7.802033447265625,2.488654552310705,-0.5871265192270279,-0.4753057281643152
1790107956289978600,7.811978515625,1.8732909496366976,-0.05379413402974605,-2.189513200303912
1790107956299922700,7.821922607421875,1.5932934201695024,-0.2794441333681345,-2.5123247662335633
1790107956309866800,7.83186669921875,0.9697206459462642,-0.9399316568821668,-2.355237430989742
1790107956319811600,7.8418115234375,0.06158997553773224,-1.2669932814717293,-2.3462059832721947
1790107956329756000,7.851755859375,-0.5252328115023672,-1.6293816555082796,-2.254913600975275
1790107956339699700,7.86169970703125,-0.649199236780405,-2.0498340959787367,-1.7140327000945805
1790107956349644500,7.87164453125,-0.768082221314311,-1.623715300309658,-1.317691787573695
1790107956359588600,7.881588623046875,0.24408640426099298,-1.8815216023653745,-0.5389350275099277
1790107956369532700,7.89153271484375,0.6059318305272609,-1.279888418880105,-0.7150719311386347
1790107956379477800,7.901477783203125,0.24574878451526164,-0.15194412713646888,-1.5919769307434557
1790107956389421800,7.911421875,-0.5677121361177414,0.19344635034799576,-1.4841379027932882
1790107956399365600,7.92136572265625,-0.7964437348585576,0.4122252948731184,-0.919285759216547
1790107956409310500,7.931310546875,-0.7704355064421892,0.20734861897230147,-0.06739128222763538
1790107956419254800,7.9412548828125,-0.4051717961650341,0.7140081012994051,1.1181050347745418
1790107956429199600,7.95119970703125,0.45168578312397,1.9359715699553488,1.1636124019742011
1790107956439143700,7.961143798828125,0.37236269209478046,1.9159288988798855,0.879395062854886
1790107956449087700,7.971087646484375,0.14419391486849634,1.2685925333619117,0.41179567128419875
1790107956459032800,7.98103271484375,0.5415204408932477,0.6390022524148226,-0.33984628736078737
1790107956468976600,7.9909765625,0.6497030946493149,0.3960375456601381,-1.049511391019821
1790107956478920700,8.000920654296875,0.6107908879309892,0.6785083333730697,-1.275641867351532
1790107956488865500,8.010865478515624,0.5634399021586403,1.2361655970096588,-0.8645446997255086
1790107956498809600,8.0208095703125,0.5630050544053316,2.195602749350667,-0.03633037353157997
1790107956508753700,8.030753662109374,0.31689795797169207,2.9128175377368923,0.09224398393332958
1790107956518698800,8.04069873046875,0.507609914919734,2.0117998411387203,-0.6806687262773513
1790107956528642600,8.050642578125,0.4502542890161276,1.1370558189600706,-1.3351035256236792
1790107956538586600,8.060586669921875,0.18539397679567335,0.558813447934389,-0.5573825383484363
1790107956548531700,8.07053173828125,0.5187514866590499,-0.8396101649552583,0.005512041419744491
1790107956558475800,8.080475830078125,0.6180255153596401,-2.676130596077442,-0.6442226174116135
1790107956568419600,8.090419677734374,0.6499357343614101,-2.870131073176861,-1.535036315381527
1790107956578364700,8.10036474609375,0.23222468328727408,-1.8430208990573882,-0.7119172664999961
1790107956588308500,8.11030859375,-0.12678045978546143,-0.3853635914325714,-0.6717728876382112
1790107956598252800,8.120252685546875,0.7073404601037502,0.05721066447496414,-1.0432757115006446
1790107956608197600,8.13019775390625,0.8191057215869426,0.5273328525215387,-0.24180501532554624
1790107956618141700,8.1401416015625,0.8508417530655861,0.22903438107967375,0.3801742060959339
1790107956628086500,8.15008642578125,0.6211152980685234,-0.5573574039071798,0.5917793134689331
1790107956638030800,8.16003076171875,-0.10649054508381522,-0.9445300905883312,0.7433914321720599
1790107956647974700,8.169974609375,-0.8075520619153976,-0.47671851757168765,0.9485358190983534
1790107956657919700,8.179919677734375,-1.2488859623730182,0.22706571135520934,0.8111801892846823
1790107956667863600,8.189863525390624,-1.1435177084505557,0.7697177135616541,0.564119737648964
1790107956677807600,8.1998076171875,-0.6234650760650634,1.118078731289506,0.5648895529776812
1790107956687752700,8.209752685546874,0.14489596219062803,1.192225332996249,0.4671370347559452
1790107956697696800,8.21969677734375,0.7182149053394794,0.9833511118918656,0.1246767655044794
1790107956707640600,8.229640625,0.725832394605875,0.6734025346666574,-0.6699246294230222
1790107956717585400,8.23958544921875,0.42732524884939194,0.3320423356115818,-1.5485282496392725
1790107956727529500,8.249529541015624,0.345626624327898,-0.0909574512541294,-1.983493199586868
1790107956737473500,8.2594736328125,0.13655600386857986,-0.415569929125905,-1.8851824629604816
1790107956747418400,8.26941845703125,-0.06418634870648383,-0.6724439187675714,-1.5884586934894322
1790107956757362400,8.279362548828125,-0.17589198895692823,-0.7316729373276233,-1.1320131486177443
1790107956767306200,8.28930615234375,-0.10976970375180244,-0.6762304515689611,-0.707227062857151
1790107956777251600,8.29925146484375,-0.022181436669826506,-0.5531716426551342,-0.2516799281299114
1790107956787195400,8.3091953125,-0.018946692532300947,-0.2829296373963356,-0.21066344260871409
1790107956797139500,8.319139404296875,0.017077976050972936,-0.09550970773100853,-0.4166033638268709
1790107956807084300,8.329084228515624,0.11608254016041755,-0.05321779544651508,-0.6161544607907533
1790107956817028600,8.339028564453125,0.47146132769584653,-0.21843524565398692,-0.543002130818367
1790107956826972400,8.348972412109376,0.6309656609535217,-0.5311877743840218,-0.38169747014045713
1790107956836917500,8.35891748046875,0.473664975219965,-0.8065431771337985,-0.4913783265650272
1790107956846861300,8.368861328125,0.1785737753868103,-1.0270844551563263,-0.9135048377275466
1790107956856806400,8.378806396484375,0.17479538935925812,-1.1318524050980805,-1.1975018120944498
1790107956866750500,8.38875048828125,0.5617921714842319,-1.0926906075328588,-1.320526718738675
1790107956876694500,8.398694580078125,1.0365583859443663,-0.9280436506897211,-1.5453268232494592
1790107956886639400,8.408639404296874,1.0239420654773712,-0.7170540448665619,-1.6731664366990326
1790107956896583400,8.41858349609375,0.6316647491335868,-0.47037177889347076,-1.6170400603294373
1790107956906527500,8.428527587890626,0.3290647445729002,-0.2902384991049766,-1.691702210342884
1790107956916472300,8.438472412109375,0.15162848531603812,-0.26575053905844687,-2.059837603598833
1790107956926416400,8.44841650390625,0.04706687160134315,-0.375414444348216,-2.3483523476511237
1790107956936360400,8.4583603515625,-0.08843819844219833,-0.4355184921771288,-2.4183044202774764
1790107956946305500,8.468305419921874,-0.1885562402188778,-0.3253787860691547,-2.193649861717224
1790107956956249600,8.47824951171875,0.047714448789879675,-0.2872176899790764,-1.7380314153194427
1790107956966193400,8.488193359375,0.520781019725278,-0.24847499460875985,-0.9291010507881641
1790107956976138200,8.49813818359375,0.6296925722777843,-0.3895093129351735,-0.06411795964539051
1790107956986082300,8.508082275390626,0.43900041600875556,-0.5903203468322754,0.3893061915785074
1790107956996026600,8.518026611328125,0.1812403642475605,-0.6946463982254266,0.4456926801890135
1790107957005971500,8.527971435546876,-0.15513452067561448,-0.6589148673698305,0.2484738255649805
1790107957015915500,8.53791552734375,-0.4916740946412086,-0.5067433612182736,-0.030832945159077644
1790107957025859300,8.547859375,-0.5979401741862297,-0.32959903411269187,-0.4201707009196281
1790107957035804400,8.557804443359375,-0.3019920652627945,-0.18673048609644174,-0.6645517042130231
1790107957045748500,8.56774853515625,-0.08358560731187463,0.058874798294901845,-0.8538082016557454
1790107957055693300,8.577693359375,-0.3825473649680614,0.33916619614213706,-1.3285598030686379
1790107957065637400,8.587637451171876,-0.46063145225420593,0.552101383075118,-1.4171084396153688
1790107957075581400,8.59758154296875,-0.6290389306746423,0.3310971637159586,-0.5488000034421682
1790107957085526500,8.607526611328124,-0.8326024781502783,-0.024485914219915864,0.5297907670676708
1790107957095470300,8.61747021484375,-1.0122283929385245,-0.0940925344094634,0.9762070853561162
1790107957105414400,8.627414306640626,-0.8015982680775224,0.007887830640375614,0.889344794461131
1790107957115359500,8.637359375,-0.535530772024393,0.2786012528032064,0.6205319452226161
1790107957125303600,8.647303466796876,-0.5187456414401531,0.5188534857288003,0.33058512254059313
1790107957135247400,8.657247314453125,-0.7407832955002784,0.6017173546373844,-0.1270773969054222
1790107957145192400,8.6671923828125,-1.156299010220915,0.5900961826875806,-0.31392215703129767
1790107957155136300,8.67713623046875,-0.9505286003507674,0.7351210319548845,0.0832756645798683
1790107957165080600,8.68708056640625,-0.6081786596059798,0.9001157793223857,1.0646189437806606
1790107957175025400,8.697025390625,-0.6808218710124492,0.8432558279812336,1.8970844976782797
1790107957184969500,8.706969482421876,-0.9822177239477634,0.7179463175311684,2.3662603447854518
1790107957194913300,8.716913330078125,-1.0956991416990756,0.5448021659776568,2.482857848730683
1790107957204858600,8.726858642578126,-1.4256091414570808,0.6696458124816417,2.0513748956799507
1790107957214802400,8.736802490234375,-2.203472021421045,1.0286416214704512,1.3279238432526588
1790107957224746500,8.74674658203125,-2.5984675106823443,1.4231731464818118,1.4969985534101724
1790107957234691300,8.75669140625,-2.468853288775682,1.5797548702910542,2.096936623415351
1790107957244635400,8.766635498046876,-2.049179285331815,1.4145295290380715,2.627171042597294
1790107957254579500,8.776579345703125,-0.7741817072331905,0.9085036684393882,3.025726124036312
1790107957264524500,8.786524658203126,0.7459834944918752,0.5130418768405914,3.363226725053787
1790107957274468400,8.79646826171875,1.3818706836260854,0.10577420437484979,3.357900561594963
1790107957284413400,8.806413330078126,1.424873812919855,-0.17188012296706437,2.8678409164130687
1790107957294357500,8.816357421875,0.9946307769276201,-0.25044278755038973,2.552161686581373
1790107957304301600,8.826301513671876,0.30270868909955023,0.0031336218506097793,1.8968916054546832
1790107957314246400,8.836246337890625,0.16972294493317602,0.11950666939020156,1.4773247156471012
1790107957324190500,8.8461904296875,0.16761062895432113,0.12386691042631864,1.6826427055746316
1790107957334134300,8.85613427734375,0.04557181073799729,0.024838088658452034,2.2026509142965076
1790107957344079600,8.86607958984375,-0.07019859473332762,-0.17201865465492008,2.45953250272274
1790107957354023400,8.8760234375,0.07834113078713417,-0.40714755321741103,2.7845892172306774
1790107957363967500,8.885967529296876,0.3597825023870915,-0.5815130632594228,3.3961259550929066
1790107957373912300,8.895912353515625,0.6164999132275581,-0.6222714823663235,4.037150068724155
1790107957383856600,8.905856689453126,0.8009388543207198,-0.6975149393990635,4.167885403615236
1790107957393800400,8.915800537109375,0.6694540893018245,-0.8459002050101757,3.637546355015039
1790107957403745500,8.92574560546875,0.527097290199995,-0.9868395385295152,2.8719594576478005
1790107957413689300,8.935689453125,0.6062251143854112,-0.8992036329135298,2.1580103930592536
1790107957423633400,8.94563330078125,0.5978501578152179,-0.5832479242280125,1.6440519858956335
1790107957433578500,8.95557861328125,0.4731821601390838,-0.20411825874894857,1.364859781461954
1790107957443522600,8.9655224609375,0.35536826614141465,0.16326602387875316,1.0910206284940243
1790107957453467400,8.97546728515625,0.25339959152936936,0.5273679238349199,0.8201631216853856
1790107957463411500,8.985411376953126,0.24065000007152557,0.8773927831217646,0.734334850013256
1790107957473355500,8.99535546875,0.38992282563950864,1.2012459670588373,0.7341641696214676
1790107957483300400,9.00530029296875,0.5195709132831543,1.3810735418990254,0.7591045496106147
1790107957493244400,9.015244384765625,0.5977227320432663,1.4250810259297488,0.5986135434031487
1790107957503188500,9.0251884765625,0.6828373024880886,1.3827967124298215,0.19443536138534545
1790107957513133600,9.035133544921875,0.7834931409358978,1.3691855357065796,-0.4050082031011581
1790107957523077400,9.045077392578126,0.9693617495059966,1.313460433614254,-0.9365279859185218
1790107957533021400,9.055021484375,1.2567951280623673,1.1592273187577724,-1.4855489386349916
1790107957542966300,9.06496630859375,1.4772493123233317,0.9341606722652912,-1.947172762927413
1790107957552910300,9.074910400390625,1.6078239036947488,0.4052653927326202,-2.4323475586771965
1790107957562854700,9.084854736328126,1.6474246771991252,-0.1795890899091959,-2.6179490407437083
1790107957572799500,9.094799560546875,1.7560405347406862,-0.5860428156435489,-2.6384289341926572
1790107957582743300,9.104743408203126,1.4750783980250357,-0.9040537032932042,-2.7310183705627917
1790107957592687400,9.114687255859375,1.0609276880472898,-1.1767080303907393,-2.8393600873380898
1790107957602632400,9.124632568359376,1.1174708285242319,-1.233022622808814,-2.8746687166064975
1790107957612576500,9.134576416015625,1.2435077764660118,-1.0154121375411749,-2.6969337301313874
1790107957622520300,9.144520263671875,1.0573498295605182,-0.8977151479214429,-2.3420868575155733
1790107957632465400,9.15446533203125,0.9218290139585733,-0.7761866173148155,-2.082672535741329
1790107957642409200,9.1644091796875,0.817051711666584,-0.674270549672842,-1.8975334104895591
1790107957652353500,9.174353515625,0.623833324855566,-0.7928536744773388,-1.9358564191430805
1790107957662298400,9.18429833984375,0.43652913052439685,-1.2129174078911542,-2.0226263555794954
1790107957672242400,9.194242431640625,0.3957271645367145,-1.5776526373147963,-2.00687699778378
1790107957682187300,9.204187255859376,0.3414426166415214,-1.8981676167398691,-1.9894997465252875
1790107957692131600,9.214131591796875,0.2564776838004589,-2.3404198010861874,-2.005332690951228
1790107957702075400,9.224075439453125,0.19359131177663802,-2.649958628466725,-1.9862690940409897
1790107957712020500,9.2340205078125,0.12154897060645743,-2.6255057397335766,-1.767115470984578
1790107957721964300,9.24396435546875,0.07205989509318024,-2.4964608421474694,-1.5121516988784074
1790107957731908400,9.253908447265625,0.22304770788550377,-2.2538532782673832,-1.2867781783938408
1790107957741853400,9.263853515625,0.11548044608142226,-1.9722341389477251,-1.035686279284954
1790107957751797500,9.273797607421875,-0.0684884663471952,-1.5671370885193348,-0.9008756577789783
1790107957761741300,9.2837412109375,-0.27863581265993415,-0.981112393054366,-0.656976300522685
1790107957771686400,9.293686279296875,-0.7652947094876319,-0.3310924875408411,-0.6013993747293949
1790107957781630200,9.303630126953125,-1.0753402442812918,0.6205582487076521,-0.24218787716329096
1790107957791574500,9.313574462890625,-1.0220622430801392,1.3087620466649532,-0.16471651494801043
1790107957801519400,9.323519287109375,-0.7052338432133197,1.6996218974262476,-0.3020084318757057
1790107957811463400,9.33346337890625,-0.5354266905954107,1.6193682110160588,-0.5654857653051615
1790107957821407200,9.3434072265625,0.04264669880522415,1.5060931294918058,-0.755220986175537
1790107957831352600,9.3533525390625,0.7146072362363338,1.4041940129846333,-1.671955307343602
1790107957841296400,9.36329638671875,0.3754956563582644,1.3190098844349383,-2.600230428701639
1790107957851240400,9.373240478515624,0.8813479504883289,0.7938917853534221,-2.4676164404571055
1790107957861185300,9.383185302734375,2.1441268291354176,0.691723204255104,-1.3296458447396755
1790107957871129300,9.39312939453125,2.7383167108774185,0.9619611178606748,-0.4986515324383974
1790107957881073400,9.403073486328125,1.612676019901037,0.9143132315009832,-0.5366565611839295
1790107957891018500,9.4130185546875,0.6930944926083088,0.6432458813339471,-0.9310440015494823
1790107957900962300,9.42296240234375,0.9716027333658188,0.24340426721572875,-2.1978327003598213
1790107957910907400,9.432907470703125,1.4662486103594303,0.0845657043904066,-3.9862610084861516
1790107957920851500,9.4428515625,1.1866565198879688,-0.20253332764506338,-5.264157376766205
1790107957930795500,9.45279541015625,0.060333180409669875,-0.4740501751452684,-4.720399459144473
1790107957940740400,9.462740234375,-0.428211457099393,-0.7590934436947107,-3.992300288650393
1790107957950684400,9.472684326171875,-0.5979752454996109,-0.9418418744176625,-3.0394062743425367
1790107957960628200,9.482628173828125,-1.0673054794508963,-0.8459645024180412,-1.6796587213277816
1790107957970573300,9.4925732421875,-1.0247674103856086,-0.6730734488427639,-0.36835049731135366
1790107957980517400,9.502517333984375,-0.11682846315689384,-0.5527881962954998,0.6195037712186574
1790107957990461400,9.51246142578125,0.4299251291494816,-0.20773615698516368,1.4617092133641243
1790107958000406500,9.522406494140625,0.19395130419544873,0.5047580326199531,2.064758693388104
1790107958010350600,9.5323505859375,-0.2256255224842578,1.1284773757070303,2.3927193126440045
1790107958020294400,9.54229443359375,-0.31435587227344514,1.5113807145059108,2.391957680621743
1790107958030239200,9.5522392578125,-0.1707305145405233,1.5748562845945357,2.346258005720377
1790107958040183300,9.562183349609375,-0.11730075684376061,1.6541846728533505,2.2837170861333607
1790107958050127600,9.572127685546874,-0.20354696166701614,1.7714467781871557,2.0512012926787135
1790107958060072400,9.582072509765625,-0.2795873412311077,1.8442980793863535,1.574738211172819
1790107958070016500,9.5920166015625,-0.26747137150168415,1.9060691836446522,1.1995330256611108
1790107958079960300,9.601960205078125,-0.36708193868026134,1.9008517412573098,0.7732359508156776
1790107958089905400,9.611905517578125,-0.3284987447205931,1.564042629635334,0.22915713067650795
1790107958099849500,9.621849365234375,-0.02485043668337166,1.0589105030059813,-0.33235797743201256
1790107958109794300,9.631794189453124,0.19056231934428214,0.67835869576931,-0.6373176603287458
1790107958119738400,9.64173828125,0.1058357253037393,0.23779519516229627,-0.9768494749128818
1790107958129682200,9.65168212890625,-0.11811908748932182,-0.3381318846583366,-1.3617074549108743
1790107958139627500,9.66162744140625,-0.4232570495624095,-0.8016027981221675,-1.7823855208307504
1790107958149571300,9.6715712890625,-0.594328997951746,-1.1634387989729642,-2.1271078897953033
1790107958159515400,9.681515380859375,-0.5645649971984327,-1.5606547407627105,-2.441930795058608
1790107958169460200,9.691460205078124,-0.295493350893259,-1.8079601070702076,-2.448020344105363
1790107958179404500,9.701404541015625,-0.2041569833241403,-1.7861679619789121,-2.1210814691126347
1790107958189348400,9.711348388671874,-0.3471909510351717,-1.5484318035274742,-1.8638275402426718
1790107958199293400,9.72129345703125,-0.2941979042552411,-1.2697732675790785,-1.6098194614261387
1790107958209237200,9.7312373046875,0.036114100432395935,-0.9770546420961618,-1.1283581332415342
1790107958219181300,9.741181396484375,0.07629062799811363,-0.8060258752614259,-0.9259341111898421
1790107958229126400,9.75112646484375,-0.017783347841352222,-0.8998451456874609,-0.938226606529951
1790107958239070500,9.761070556640625,-0.1124279631756246,-0.9736363580852746,-0.8398544951051473
1790107958249014300,9.77101416015625,-0.20665201501026748,-0.7174176174819469,-0.8092828312307596
1790107958258959400,9.78095947265625,-0.33940146620273587,-0.4950035313248634,-0.847710469302535
1790107958268903400,9.7909033203125,-0.4655249964494258,-0.11576631381809711,-1.0267027623623608
1790107958278847500,9.800847412109375,-0.6124188544590026,0.5019426829382777,-1.2939771499872208
1790107958288792300,9.810792236328124,-0.76448448908329,1.027582760067284,-1.6846224812150001
1790107958298736400,9.820736328125,-0.8845522994875907,1.4628335412189364,-1.8951935693651436
1790107958308681500,9.830681396484374,-0.6035024844884872,1.823185440991819,-1.7676064693719147
1790107958318625500,9.84062548828125,-0.615128478743881,1.928645172590017,-1.5169389331549405
1790107958328569300,9.8505693359375,-0.6478304326452314,1.8333228041246532,-1.106406998196244
1790107958338514400,9.860514404296875,-0.7467933495700358,1.4445003044098614,-0.7275777769684791
1790107958348458200,9.870458251953124,-0.5513048258699477,1.159655188781023,-0.14864333202540875
1790107958358402600,9.880402587890625,-0.037352117794752115,1.0209636341884731,0.3660392977595329
1790107958368347400,9.890347412109374,0.12690671651363372,0.9894923911258577,0.5614350286096335
1790107958378291500,9.90029150390625,0.12237667186856269,1.3862278559222816,0.3014776859998703
1790107958388235300,9.9102353515625,0.12243366275280713,1.5191434574618934,0.018144728499650955
1790107958398180600,9.9201806640625,0.053373716660588974,1.6097046028748154,0.5104506913036108
1790107958408124400,9.93012451171875,-0.4050456125020981,1.705331799505651,1.4819389314442872
1790107958418068500,9.940068359375,-0.5516774585746228,1.7076333544462918,2.353960250660777
1790107958428013300,9.950013427734374,-0.481886713989824,1.5438085276409983,2.9249942977428436
1790107958437957400,9.959957275390625,-0.4642646941900253,1.0262266692832112,2.9459792181044815
1790107958447901400,9.9699013671875,-0.2554968560695648,0.5591469176724553,3.0418589281916617
1790107958457846500,9.979846435546875,-0.2327612926483154,0.4821931495904922,2.8311861332327126
1790107958467790300,9.989790283203124,-0.7599265335179864,0.6648603317707776,2.513600192996859
1790107958477734400,9.999734375,-1.8822981396958232,1.0834297349736093,2.748921691522002
1790107958487679500,10.009679443359374,-2.6465233933210373,1.3612941979348658,4.038034450343251
1790107958497623600,10.01962353515625,-2.156057943817228,1.1027695184767246,4.934984459111094
1790107958507568400,10.029568359375,-0.5109608327828348,-0.6626069998860359,4.549762321975827
1790107958517512400,10.039512451171875,1.272778879135847,-2.61053291926831,3.823685597220063
1790107958527456300,10.049456298828124,0.9889841493427752,-2.028796276386082,3.537205573865771
1790107958537401300,10.0594013671875,-0.7397568750619888,-0.1162193182826042,4.72346352289021
1790107958547345400,10.069345458984374,-1.7760335214555263,1.0267015933185815,5.602407334846258
1790107958557289500,10.07928955078125,-1.0624528517879546,-0.04052168774157762,4.485969356501102
1790107958567234300,10.089234375,0.16802534723505377,-0.5212015101596713,3.401168625435233
1790107958577178400,10.099178466796875,1.042778794829175,-0.19664573091119528,2.2334370977044102
1790107958587122400,10.109122314453124,0.9478617922943084,0.11136954016387463,1.7038959214836358
1790107958597067300,10.1190673828125,0.7601637032747268,0.4172439998179674,2.103306742969155
1790107958607011300,10.12901123046875,0.7162204435866326,0.6751195677176117,2.290918980336189
1790107958616955400,10.138955322265625,0.4697906910698861,0.5757859177842736,1.7520114253550767
1790107958626900500,10.148900390625,0.34855858612656593,0.2754983183518052,0.9986889662772417
1790107958636844300,10.15884423828125,0.49373278073668475,0.1341562492504716,0.7333715579390525
1790107958646788400,10.168788330078126,0.9362755455274134,0.13022212467193603,1.0518535702317953
1790107958656733200,10.178733154296875,1.3034744616508482,0.07253215224742889,1.2260498611867428
1790107958666677500,10.188677490234374,1.1743933237075805,-0.08339812191575766,0.9465677338957786
1790107958676621300,10.198621337890625,1.05980832862854,-0.2642106161400676,0.30665479637682436
1790107958686566400,10.20856640625,1.101824931102991,-0.25078444059491156,-0.38947921005785463
1790107958696510200,10.21851025390625,1.3740835368812083,-0.05269552513808012,-0.4574059143364429
1790107958706455600,10.22845556640625,1.6621312479436396,0.23293840278089045,-0.37101357904076576
1790107958716399400,10.2383994140625,1.4350094224870205,0.46358255714476104,-0.4546428793638944
1790107958726344200,10.24834423828125,0.9845324306309222,0.5823422075599431,-0.3418348308295011
1790107958736289300,10.258289306640625,0.8496586807608604,0.593586655151844,-0.1811304741322994
1790107958746233300,10.2682333984375,0.8053332168221473,0.45232203520089387,0.1418745685428381
1790107958756177200,10.27817724609375,0.8635235399842262,0.31535189757347104,0.6792004072904586
1790107958766122000,10.2881220703125,0.98959088306427,0.07116612459123134,1.0653431664019823
1790107958776066000,10.298066162109375,1.0095464603781699,-0.26944004122614856,1.410686882135272
1790107958786010400,10.30801025390625,0.5855085626363754,-0.6302198110222816,1.4596481891810893
1790107958795955200,10.317955078125,0.25463527080416676,-0.9493646711379289,1.0698287873834371
1790107958805899300,10.327899169921874,0.3324713746786117,-1.2346668828845024,0.5473042119264603
1790107958815843000,10.337843017578125,0.8582593358457088,-1.2689970225095748,0.005194061511754989
1790107958825788200,10.3477880859375,1.0625672719478607,-1.0901976216733456,-0.27989246165752407
1790107958835732200,10.357732177734375,0.9348527461826801,-0.8046762142181396,-0.4687444699525833
1790107958845676300,10.36767626953125,0.8378700432896613,-0.7212772155195474,-0.9472101234525442
1790107958855621000,10.37762109375,0.6175403621912002,-0.7130255200028419,-1.584419647231698
1790107958865565200,10.387565185546874,0.4892962595939636,-0.8134884662270545,-2.1064894646584986
1790107958875509200,10.39750927734375,0.5194739557147026,-0.7717717234820127,-2.4510353080123664
1790107958885454000,10.4074541015625,0.6874620396792889,-0.3587380348354578,-2.6868530656218526
1790107958895398100,10.417398193359375,0.5552677381515503,0.05046294378042221,-2.799015801990032
1790107958905343200,10.42734326171875,0.12437811135146766,0.19695348168611526,-3.0660961283475157
1790107958915287300,10.437287353515625,-0.4410872322201729,0.6218856979191303,-3.3180671483784914
1790107958925231000,10.447231201171874,-1.2145090609967708,1.1128893459528684,-3.347364554533362
1790107958935176200,10.45717626953125,-1.8622528382718562,1.6024071393430233,-3.16706000983119
1790107958945120000,10.4671201171875,-1.8384417545735834,2.3569565098673104,-2.2188363254219294
1790107958955064300,10.477064208984375,-0.1780091455076821,3.1005338200002908,-1.3016402319610119
1790107958965009200,10.487009033203124,2.5216508129835127,3.490931313946843,-1.0863532212048768
1790107958974953200,10.496953125,3.087121965241432,3.710244511479139,-1.7100474298506974
1790107958984897000,10.50689697265625,0.8568237500846385,3.3071547092199323,-2.589919462567568
1790107958994842400,10.51684228515625,-1.7805612280130385,3.0033664081901312,-1.566304729348421
1790107959004786200,10.5267861328125,-1.796705722606182,3.103199824339151,-0.3182698308467865
1790107959014730200,10.536730224609375,0.4715688797235489,2.3616057969778774,-0.8262211065500974
1790107959024675000,10.546675048828124,1.7987164779067037,0.9314023134678602,-2.2171464726388455
1790107959034619100,10.556619140625,1.0905144325375555,-0.3428156585603952,-2.6730349681496617
1790107959044563200,10.566563232421874,0.9901356574654578,-1.04181089964509,-2.3081571153849363
1790107959054508300,10.57650830078125,1.4106956499636172,-1.3677256922870873,-1.9502415028482674
1790107959064452000,10.5864521484375,1.895509795707464,-1.7073235578447579,-2.3424708883970973
1790107959074396200,10.596396240234375,1.3958195678710936,-1.8672715432167053,-2.643097510525584
1790107959084341200,10.60634130859375,0.5958663635868579,-1.683026151934266,-2.4467490089952943
1790107959094285300,10.616285400390625,0.3086404172360897,-1.5207634598791597,-1.9672019899994133
1790107959104230100,10.626230224609374,0.48038339675478636,-1.5211960060775278,-1.5807944424718618
1790107959114174200,10.63617431640625,0.5616179839611053,-1.6116010841459034,-1.2553648029983042
1790107959124118000,10.646117919921876,0.05791552480868995,-1.5748562845945357,-0.5183668712556362
1790107959134063400,10.6560634765625,-0.7367606889206916,-1.2716489983230828,0.7083037521779537
1790107959144007200,10.666007080078124,-1.007995212348178,-0.7399865921646356,1.9236340664297342
1790107959153951200,10.675951171875,-0.6902958018004894,-0.2744745282620191,2.8102877221107483
1790107959163896000,10.68589599609375,-0.2610650115907192,0.07166530628502368,3.489866315063834
1790107959173840400,10.69584033203125,0.22148002017736435,0.34624680205285546,3.851961259111762
1790107959183784200,10.7057841796875,0.7921089935898781,0.4096533985584974,3.535270221889019
1790107959193729300,10.715729248046875,1.4528735804796218,0.21963994526863098,2.546495915904641
1790107959203673000,10.725673095703126,1.4742261651098727,0.2923269958168268,1.392348092368245
1790107959213617200,10.7356171875,0.9755974290251731,0.5919020630657672,0.30033143857419486
1790107959223562200,10.745562255859374,0.17786182772517203,0.9799240600526332,-0.601373071244359
1790107959233506300,10.75550634765625,-0.3680184888780117,1.1824077033370732,-1.3730243832170963
1790107959243450000,10.7654501953125,-0.0835854611814022,0.9415092814624308,-1.751772355902195
1790107959253395200,10.775395263671875,0.022214169895648957,0.6437731200784444,-1.7435668376147746
1790107959263339300,10.78533935546875,-0.07330474405512213,0.36349428945183754,-1.7874878124058247
1790107959273284000,10.7952841796875,-0.19845453389883042,0.005320902761816978,-1.7348159604042768
1790107959283228200,10.805228271484374,-0.779420338539034,-0.14525895028412342,-1.6974755330473184
1790107959293172200,10.815172119140625,-1.2288251711189746,-0.18438450749218463,-1.9183739539444447
1790107959303117300,10.825117431640624,-1.3542004402816294,-0.11883563826084136,-2.463066522067785
1790107959313061000,10.83506103515625,-1.0581927101254462,0.0106704470962286,-3.0072423728406426
1790107959323005200,10.845005126953126,-0.5966612402915954,0.2714484584391117,-3.4938282044321296
1790107959332950000,10.854949951171875,-0.08495682259984313,0.54280982311666,-3.926941973555088
1790107959342894000,10.86489404296875,0.18793313988447188,0.6498223371148109,-4.243963850167393
1790107959352838400,10.87483837890625,0.11687157164625823,0.6333996101021766,-4.1206501897096635
1790107959362783200,10.884783203125,0.05420753713622689,0.6969371395111084,-3.3485493804037567
1790107959372727000,10.89472705078125,0.08224091470465064,0.7322995447933673,-2.341279632785916
1790107959382671000,10.904671142578126,0.08964446895942091,0.6159305889070034,-1.1586392897367477
1790107959392616200,10.9146162109375,0.1642296082139015,0.4360398857027292,-0.08891630081534385
1790107959402560300,10.924560302734376,0.20980112669095397,0.21989567359536885,0.818131323596835
1790107959412504300,10.93450439453125,0.1247989305794239,0.048314533574879165,1.5095342098563909
1790107959422449200,10.94444921875,0.04014847051501274,0.04652560433149337,2.063584973433614
1790107959432393000,10.95439306640625,-0.24048867202997207,0.19107406825870274,2.3438673111915587
1790107959442337300,10.964337158203126,-0.6419067416846752,0.34824586691558357,2.4267986923784015
1790107959452282000,10.9742822265625,-0.9300668270803988,0.5773083050459623,2.523476274845004
1790107959462226200,10.98422607421875,-1.2397545614123344,0.885672535689175,2.3800503852069377
1790107959472170200,10.994170166015625,-1.1352667435862123,0.9823448574587702,2.1927385920912026
1790107959482115300,11.004115234375,-1.136938476190716,0.9574880640998482,1.834526042434573
1790107959492059100,11.01405908203125,-0.949974327468872,0.6869371390223503,1.0895791975140572
1790107959502004200,11.024004150390626,-0.7067487778209149,0.34346389333605765,0.7669266215384006
1790107959511948000,11.033947998046875,-0.6613724896550178,0.2748690805375576,0.626074966302514
1790107959521892000,11.04389208984375,-0.4871919807910919,0.3828916483610868,0.25291969905793665
1790107959531837200,11.053837158203125,0.1328792150519788,0.4351981741815805,-0.2473626494526863
1790107959541781200,11.06378125,0.5771029917322099,0.8815718223720789,-0.8071896583437919
1790107959551725000,11.07372509765625,0.42430911589860915,1.6231757866054772,-1.3657225357711313
1790107959561670100,11.083670166015626,1.0329835961975156,2.1438813299417494,-1.4667355170935392
1790107959571614200,11.0936142578125,1.8120634507358073,2.5846862380892035,-1.0168541530430317
1790107959581558300,11.103558349609376,1.4151707495510577,2.39118932659775,-0.9314099122524261
1790107959591503000,11.113503173828125,0.5080021291077137,2.149542424443364,-0.7423445534676313
1790107959601447200,11.123447265625,0.1732756689786911,2.0256775598436594,-0.01805821925997734
1790107959611391000,11.133390869140625,0.19082637710794806,1.7301470918104052,0.8864438123226165
1790107959621336300,11.14333642578125,0.08208440896868706,1.3458371010839938,1.6047510721206664
1790107959631280000,11.153280029296875,0.13758812339529394,0.9383455567345023,2.1526497428089377
1790107959641224200,11.16322412109375,-0.01846402358189225,0.9072802641242742,2.6706694080621003
1790107959651169000,11.1731689453125,-0.4775193856257945,0.9722472418144344,2.98697524535954
1790107959661113300,11.18311328125,-0.6237679314691573,0.9185933930382132,3.6371389432579275
1790107959671058200,11.19305810546875,-0.03940028249621391,0.6101482061132788,4.586986429476737
1790107959681002200,11.203002197265626,0.26169373794831335,-0.024979542955756186,5.558654702359438
1790107959690946000,11.212946044921875,0.22251111679077148,-0.9264525821059941,5.883490467593074
1790107959700891100,11.22289111328125,-0.08721081207171082,-1.5082900550141929,5.840421725717187
1790107959710835200,11.232835205078125,-0.6190987706143408,-1.1453308953523635,5.944253856113552
1790107959720779300,11.242779296875,-0.6191828687012195,-0.5919365498572587,5.569007169547676
1790107959730724400,11.252724365234375,-0.4252640785358846,-0.5034145090565085,4.667100415155291
1790107959740668400,11.26266845703125,-0.002041150438785553,-0.5548685097008943,3.5237393585711714
1790107959750612200,11.2726123046875,0.3043172202747315,-0.4594149160712957,2.4643098001271486
1790107959760557000,11.28255712890625,0.2449836453616619,-0.3027288551047444,1.6021458580583332
1790107959770501400,11.29250146484375,0.12030271513871849,-0.29603491042405367,1.2955202877759933
1790107959780445400,11.302445556640626,0.14353044599108397,-0.40960225289314983,1.6364134538412094
1790107959790390300,11.312390380859375,0.2665618554413319,-0.5188450101613998,2.3217197767913342
1790107959800334300,11.322334228515626,0.5872282260358334,-0.5014397018522024,2.8109710281997917
1790107959810278100,11.332278076171875,0.7570178064644336,-0.542690580651164,2.738442967605591
1790107959820223200,11.34222314453125,0.7303203536748886,-0.6977250750184059,2.4014105686217544
1790107959830167300,11.352167236328125,0.8277906208891421,-0.8420528819322586,1.8470523465305566
1790107959840112000,11.362112060546876,0.794414347922802,-0.9173121210560202,1.0884177525192498
1790107959850056200,11.37205615234375,0.827891085588932,-0.8094532193616032,0.513872482445836
1790107959860000300,11.382000244140626,1.0001671490710229,-0.6107371119171381,0.19829963559806346
1790107959869945300,11.3919453125,1.1350924099326134,-0.3440130516514182,0.07094692888259888
1790107959879889200,11.40188916015625,1.191781680881977,-0.07184270867854356,0.014637012639641761
1790107959889833200,11.411833251953125,1.0706944643020628,0.21425942127406597,-0.1273953768134117
1790107959899778300,11.4217783203125,0.8639701147079467,0.5105851313382387,-0.30348493416905403
1790107959909722400,11.431722412109375,0.7729764230966567,0.7647638905465602,-0.40616555644273755
1790107959919666200,11.441666259765626,0.7180617606043815,1.0574570893272757,-0.5261690694391727
1790107959929611300,11.451611328125,0.6457213315367698,1.2456138088345527,-0.6755448073923588
1790107959939555000,11.46155517578125,0.5464134005665778,1.3104326102256774,-0.865260154518485
1790107959949499400,11.47149951171875,0.5788040965616703,1.2619067719876766,-0.9351800784409046
1790107959959444200,11.4814443359375,0.9301876769810914,0.9510451715707778,-0.8998603432565927
1790107959969388300,11.49138818359375,1.5482219601690768,0.32879414747059343,-1.0130828178107738
1790107959979332000,11.50133203125,1.8879554348051546,-0.017660159853100776,-1.246325756496191
1790107959989277400,11.51127734375,1.74286658039093,-0.2882973019093275,-1.449583306762576
1790107959999221200,11.52122119140625,1.0910650521576404,-0.7502659941166638,-1.852620502051711
1790107960009166300,11.531166259765625,0.3482511641452089,-0.9757119953155517,-2.1326532489627597
1790107960019110100,11.541110107421876,0.15744802178237585,-0.7405085702121257,-2.166208312562108
1790107960029054200,11.55105419921875,0.11054353766851127,-0.5843646532982587,-2.1780022107303143
1790107960038999300,11.560999267578126,-0.37213706664536145,-0.7209639117866754,-2.424722470626235
1790107960048943400,11.570943359375,-0.877701702940464,-0.7826233723640441,-2.495141576242447
1790107960058887200,11.58088720703125,-1.5780045194923877,-0.5533803169697523,-2.2944793031662702
1790107960068832300,11.590832275390625,-2.2206126874446865,-0.27631168056130406,-1.622791755723953
1790107960078776300,11.6007763671875,-2.032031897306442,0.06031798284053802,-0.6456313151657581
1790107960088720400,11.610720458984375,-0.6049708034753799,0.8148328665733336,0.3473515484243631
1790107960098665200,11.620665283203126,1.721920822995901,1.628801225271821,1.1841373036086558
1790107960108609300,11.630609375,3.3578923782885073,1.951040544271469,1.0310966134071349
1790107960118553000,11.640552978515625,3.382850293934345,1.758795970928669,-0.012542086187005043
1790107960128498400,11.65049853515625,1.125379994213581,1.4438736969441175,-0.862139976671338
1790107960138442200,11.660442138671876,-1.5075450818657874,1.6600409976661203,-1.0075690228253602
1790107960148386300,11.67038623046875,-1.4148527696430682,2.334814236164093,-0.6733171944707632
1790107960158331100,11.6803310546875,0.6278653568506241,2.7916116632133723,-0.5031535200327635
1790107960168275500,11.690275390625,1.936235773849487,2.6517648011058568,-1.4838725298553703
1790107960178220300,11.70022021484375,1.4249742045544087,1.7865163370251655,-2.0946254238635302
1790107960188164400,11.710164306640625,0.9412719655752182,0.8466998309552669,-2.28972421759367
1790107960198108200,11.720108154296875,0.5350689997315407,-0.043236499658226964,-2.9537808317661285
1790107960208053200,11.73005322265625,0.027913112189620733,-0.864497353452444,-3.1607723078638315
1790107960217997300,11.739997314453126,0.17233455220367758,-1.228973639678955,-3.246578367704153
1790107960227941400,11.74994140625,1.0457810453850775,-1.199452361640334,-3.461657873189449
1790107960237886200,11.75988623046875,1.4263666818261145,-1.0560387469619512,-3.345318727919459
1790107960247830300,11.769830322265625,1.024443512193486,-0.9702391168624163,-2.7551427579939363
1790107960257774300,11.7797744140625,0.7323696874201298,-1.0059060580492019,-1.9817975015848874
1790107960267719200,11.78971923828125,0.7856768416505306,-1.0447685804069042,-1.221079087036848
1790107960277663200,11.799663330078126,1.1382091537136585,-1.1076000073730945,-0.6576847410529851
1790107960287607300,11.809607177734375,1.043703508458659,-1.0274755003005265,0.012191957575082778
1790107960297552400,11.819552490234376,0.55229822082147,-0.7137333760112523,0.7323743635952472
1790107960307496200,11.82949609375,0.2761058557908982,-0.4213303923487663,1.2585796733915806
1790107960317440300,11.839440185546875,0.48220009078793225,-0.32390462186336516,1.4071400033086539
1790107960327385000,11.849385009765625,0.8605530728060752,-0.3891419409275055,1.3259358843058346
1790107960337329200,11.8593291015625,0.7018273227054626,-0.23942250410318372,1.3538210855752228
1790107960347273500,11.8692734375,-0.12386954077482223,0.22851474111974238,1.474307998174429
1790107960357218300,11.87921826171875,-1.0078759698826818,0.8710054201722145,1.4625287130534648
1790107960367162000,11.889162109375,-1.350721365994215,1.7324720276266334,1.3160761690706013
1790107960377107200,11.899107177734376,-0.7369582573194057,2.3647300664782525,1.1967021861493587
1790107960387051300,11.90905126953125,0.10712298863530158,2.6910633767932652,1.0869248836129903
1790107960396995300,11.918995361328125,0.6689608258921652,2.7070506349980827,0.8324678919851779
1790107960406940200,11.928940185546875,1.1892799271941183,2.6840368391573426,0.5018804313570261
1790107960416884200,11.93888427734375,1.2929367010235786,2.4985832411289213,0.08350596620440483
1790107960426828000,11.948828125,0.936745354996249,1.9045447505563498,-0.5616302589207888
1790107960436773400,11.9587734375,0.27433950370550153,1.1743757880508898,-1.2606634939283132
1790107960446717200,11.96871728515625,-0.34648356995079665,0.5386836830973625,-2.0341016893178225
1790107960456661200,11.9786611328125,-0.392082086032629,0.046097734308242794,-2.4797744957625865
1790107960466606300,11.9886064453125,-0.29072715940475463,-0.10811083062887192,-2.6211756015747785
1790107960476550400,11.99855029296875,-0.4717616988819092,-0.10300620096623897,-2.615057410955429
1790107960486494200,12.008494140625,-0.6154162096440792,-0.08842062625288963,-2.7049469407171007
1790107960496439300,12.018439208984375,-0.3893056070566177,-0.20044892258644104,-2.8541344626218077
1790107960506383000,12.028383056640624,0.12036467445902525,-0.530754643663764,-3.023980157151818
1790107960516327400,12.038327392578125,0.5192424485137686,-1.231188977640867,-3.605893910166621
1790107960526272300,12.048272216796875,0.9103121791660785,-1.9554431631445883,-3.982261125195026
1790107960536216300,12.05821630859375,1.4726280822634696,-2.138071182358265,-3.1808617406904696
1790107960546161200,12.0681611328125,1.7222411409914493,-1.9624650246053934,-2.21111362221539
1790107960556105500,12.07810546875,1.665668774420023,-1.501215878844261,-0.5370920299917459
1790107960566049300,12.08804931640625,1.6062836885154246,-0.9386512616828083,0.9339087433308363
1790107960575994400,12.097994384765625,1.3073591941297054,-0.6492635341882705,1.5473463463783264
1790107960585938200,12.107938232421875,0.49839485426358876,-0.33264439315795896,1.9084078557252884
1790107960595882200,12.11788232421875,-0.44437348734922705,0.06798311064094305,2.2960224409550425
1790107960605827300,12.127827392578125,-0.8504151982165873,0.6760428200423717,2.991705781012773
1790107960615771400,12.137771484375,-1.2109680273890495,1.2446747744187712,3.448744615602493
1790107960625715200,12.147715087890624,-2.1745452021442353,1.329446815036237,3.044813101822138
1790107960635660300,12.157660400390625,-2.3171264576517046,0.9358271441727876,1.77087920743227
1790107960645604400,12.167604248046874,-0.7167465863525867,1.0092559529989957,0.1862158145725727
1790107960655548400,12.17754833984375,0.9329811070919036,1.727532525397837,-1.8855992270678281
1790107960665493200,12.1874931640625,0.8638543063085525,2.9233889083728193,-4.278437197655439
1790107960675437300,12.197437255859375,0.193886933722347,4.1799905596897,-5.4848564756989475
1790107960685381000,12.207381103515624,-0.2187645506735891,5.051535201305151,-4.055053974205255
1790107960695326200,12.217326171875,-0.11637713919281958,4.607557508340478,-1.1263532231599092
1790107960705270300,12.227270263671874,0.4108112633567303,2.4086957571938634,-0.35658582523763177
1790107960715215000,12.237215087890625,1.3556407022178172,0.2444625440970063,0.40447278105020523
1790107960725158400,12.247158447265624,1.9043220477163791,-0.6700058779656887,1.3968378050029278
1790107960735102500,12.2571025390625,1.6754162614524364,-0.8393181962713598,1.8388357223272322
1790107960745047300,12.26704736328125,0.9433983100794255,-0.48403848519623277,1.8260557357311247
1790107960754991400,12.276991455078125,-0.34572248591780663,0.2227031322315335,1.8212872061550616
1790107960764935400,12.286935302734374,-1.6540344507277012,0.9527250874817371,2.301251573780179
1790107960774880500,12.296880615234375,-2.3629987126410006,1.6294032828181981,3.3723809223681687
1790107960784824300,12.30682421875,-2.6301801612854003,1.844078591416776,4.923967975056171
1790107960794768400,12.316768310546875,-2.42499792656675,1.3480182445153592,6.722427263331413
1790107960804713500,12.32671337890625,-1.406675308406353,-0.04656973573416471,7.67998342423141
1790107960814657500,12.336657470703125,0.25350356336049734,-1.5302154710963367,7.9368632590919725
1790107960824601300,12.346601318359374,1.2607355362512171,-2.6319059621647,6.638743602472544
1790107960834546400,12.35654638671875,0.9640799366455525,-2.4002424016252157,5.024289466983079
1790107960844490200,12.366490234375,-0.13615151472091674,-1.2895555341526865,4.272888915878534
1790107960854434600,12.3764345703125,-0.5024211141049861,-0.3888479264169931,3.8522558581441637
1790107960864379400,12.38637939453125,0.35021731311902404,-0.22398791134506463,3.3382647177547216
1790107960874323500,12.396323486328125,1.0515407779555768,0.15471592993736266,3.007407792535424
1790107960884267300,12.406267333984376,1.3452631005883215,0.23229367513656615,2.6071558440506455
1790107960894212600,12.416212646484375,1.420437291777134,0.18394523929208517,2.271077384790778
1790107960904156400,12.426156494140624,1.424376823183149,0.024074118548631666,2.125699776563048
1790107960914101200,12.436101318359375,1.3529589157879351,0.00865092396736145,2.359226792886853
1790107960924045300,12.44604541015625,1.3269582130908966,0.08804711676537991,2.8065362606227398
1790107960933989400,12.4559892578125,1.1285165386736393,0.18649141664355992,3.060518035954237
1790107960943934500,12.4659345703125,0.7439701088428496,0.20397914253920316,3.0564661302149294
1790107960953878500,12.47587841796875,0.5310953103275969,0.11382657792717217,2.8693028056591747
1790107960963822300,12.485822265625,0.46090029579084363,-0.025143209084868428,2.1686603818893433
1790107960973767200,12.49576708984375,0.38814818064980205,-0.1710182454407215,1.1730389864891766
1790107960983711500,12.50571142578125,0.6187842247724533,-0.17340192570686339,0.5459533818393946
1790107960993655600,12.515655517578125,1.0770622457683086,-0.11975041501820087,0.11347206540107727
1790107961003600400,12.525600341796874,1.3710931228935719,0.05273702619224786,-0.2744587461709976
1790107961013544400,12.53554443359375,1.3414473416924475,-0.024291268430650232,-0.5186556250691413
1790107961023488300,12.54548828125,1.0970961490154265,-0.12764701348692178,-0.6782265938222408
1790107961033433300,12.555433349609375,1.0058861843049525,-0.2638753928363323,-0.9081202220797538
1790107961043377400,12.56537744140625,0.8890835131764412,-0.3589218669697642,-1.1809680259227753
1790107961053321500,12.575321533203125,0.5253250198304653,-0.23288988746404646,-1.4690870486557484
1790107961063266300,12.585266357421874,0.21832594006061554,0.08196107484996318,-1.9096423659563064
1790107961073210400,12.59521044921875,0.22895017339494078,0.37521862951517104,-2.2530086441367865
