time,seconds_elapsed,z,y,x
1790107948528414000,0.0504140625,-0.773895263671875,-0.7015838623046875,-0.0003204345703125
1790107948538359000,0.060359130859375,-0.7586669921875,-0.6906890869140625,-0.0067596435546875
1790107948548303000,0.07030322265625,-0.74066162109375,-0.7003173828125,0.01019287109375
1790107948558247200,0.0802470703125,-0.725677490234375,-0.7046356201171875,0.021209716796875
1790107948568192000,0.09019189453125,-0.730560302734375,-0.701446533203125,0.0138092041015625
1790107948578136000,0.100135986328125,-0.7364044189453125,-0.6829833984375,0.0248260498046875
1790107948588079900,0.110079833984375,-0.744384765625,-0.6622467041015625,0.0485992431640625
1790107948598025000,0.12002490234375,-0.74346923828125,-0.64599609375,0.065673828125
1790107948607969000,0.129968994140625,-0.7342071533203125,-0.6387939453125,0.08160400390625
1790107948617913000,0.1399130859375,-0.73486328125,-0.6362457275390625,0.106414794921875
1790107948627858000,0.14985791015625,-0.7326507568359375,-0.6304779052734375,0.1233978271484375
1790107948637802200,0.15980224609375,-0.7271270751953125,-0.6314697265625,0.1212005615234375
1790107948647746000,0.16974609375,-0.73028564453125,-0.6430511474609375,0.108642578125
1790107948657691000,0.17969091796875,-0.719818115234375,-0.6558074951171875,0.0868988037109375
1790107948667635000,0.189635009765625,-0.723358154296875,-0.6624908447265625,0.0560150146484375
1790107948677579000,0.1995791015625,-0.7545928955078125,-0.659271240234375,0.036102294921875
1790107948687524000,0.209524169921875,-0.7801055908203125,-0.6511993408203125,0.0281524658203125
1790107948697468200,0.21946826171875,-0.7901458740234375,-0.64599609375,0.025054931640625
1790107948707412000,0.229411865234375,-0.7855377197265625,-0.632354736328125,0.0429840087890625
1790107948717357000,0.239357177734375,-0.7906341552734375,-0.62493896484375,0.059600830078125
1790107948727301000,0.249301025390625,-0.8143463134765625,-0.6241455078125,0.0497283935546875
1790107948737246200,0.25924609375,-0.838592529296875,-0.633514404296875,0.023162841796875
1790107948747190300,0.269190185546875,-0.818084716796875,-0.6532440185546875,-0.0069427490234375
1790107948757134000,0.279134033203125,-0.7641143798828125,-0.6733856201171875,-0.0071868896484375
1790107948767079200,0.2890791015625,-0.722564697265625,-0.6826629638671875,0.0130157470703125
1790107948777023000,0.29902294921875,-0.681671142578125,-0.6779022216796875,0.0213775634765625
1790107948786967300,0.30896728515625,-0.657989501953125,-0.6983184814453125,0.01251220703125
1790107948796912000,0.318912109375,-0.6380615234375,-0.66278076171875,0.007843017578125
1790107948806856200,0.328856201171875,-0.6241607666015625,-0.606658935546875,0.021636962890625
1790107948816800000,0.338800048828125,-0.6018524169921875,-0.5366973876953125,0.026824951171875
1790107948826745300,0.348745361328125,-0.6524810791015625,-0.5946197509765625,0.085296630859375
1790107948836689200,0.358689208984375,-0.693939208984375,-0.6252899169921875,0.120635986328125
1790107948846633200,0.36863330078125,-0.6852569580078125,-0.5824432373046875,0.0962371826171875
1790107948856578000,0.378578125,-0.6624298095703125,-0.5676422119140625,0.078826904296875
1790107948866522000,0.388522216796875,-0.6239471435546875,-0.568084716796875,0.0536041259765625
1790107948876466200,0.398466064453125,-0.5184478759765625,-0.5790557861328125,0.0128173828125
1790107948886411300,0.408411376953125,-0.5047149658203125,-0.6035614013671875,-0.058685302734375
1790107948896355000,0.41835498046875,-0.551971435546875,-0.6498260498046875,-0.0827484130859375
1790107948906300200,0.428300048828125,-0.6108551025390625,-0.663909912109375,-0.0328369140625
1790107948916244200,0.438244140625,-0.64410400390625,-0.64422607421875,-0.0084075927734375
1790107948926188300,0.448188232421875,-0.6647491455078125,-0.606781005859375,0.00714111328125
1790107948936133000,0.458133056640625,-0.6223602294921875,-0.5630035400390625,-0.01300048828125
1790107948946077200,0.4680771484375,-0.6515045166015625,-0.5854034423828125,-0.02197265625
1790107948956021000,0.47802099609375,-0.7064208984375,-0.6518402099609375,-0.0587921142578125
1790107948965966300,0.48796630859375,-0.7273101806640625,-0.65838623046875,-0.0894012451171875
1790107948975910100,0.49791015625,-0.7451629638671875,-0.61334228515625,-0.07781982421875
1790107948985854200,0.507854248046875,-0.7618255615234375,-0.6084747314453125,-0.0685577392578125
1790107948995799000,0.517799072265625,-0.758880615234375,-0.6174468994140625,-0.0732879638671875
1790107949005743400,0.527743408203125,-0.7947845458984375,-0.6037139892578125,-0.1374359130859375
1790107949015687200,0.537687255859375,-0.8384246826171875,-0.6141204833984375,-0.2147674560546875
1790107949025632300,0.54763232421875,-0.865020751953125,-0.647003173828125,-0.25628662109375
1790107949035576000,0.557576171875,-0.8761138916015625,-0.6551666259765625,-0.2584686279296875
1790107949045520100,0.56752001953125,-0.87078857421875,-0.662872314453125,-0.2537384033203125
1790107949055465200,0.57746533203125,-0.8455657958984375,-0.6547393798828125,-0.2090301513671875
1790107949065409300,0.5874091796875,-0.817230224609375,-0.6389312744140625,-0.14227294921875
1790107949075353000,0.59735302734375,-0.7931365966796875,-0.6336517333984375,-0.1173095703125
1790107949085298200,0.607298095703125,-0.780059814453125,-0.648193359375,-0.0997161865234375
1790107949095242200,0.6172421875,-0.8002777099609375,-0.6432037353515625,-0.1015472412109375
1790107949105187000,0.62718701171875,-0.8206634521484375,-0.6396942138671875,-0.1469879150390625
1790107949115131100,0.637131103515625,-0.826507568359375,-0.6458892822265625,-0.1765899658203125
1790107949125075200,0.6470751953125,-0.8049468994140625,-0.626953125,-0.149810791015625
1790107949135020300,0.657020263671875,-0.7730255126953125,-0.612213134765625,-0.1256866455078125
1790107949144964000,0.666964111328125,-0.7497100830078125,-0.6038665771484375,-0.11767578125
1790107949154908200,0.676908203125,-0.7231597900390625,-0.583587646484375,-0.0919647216796875
1790107949164853000,0.68685302734375,-0.6808013916015625,-0.5338287353515625,-0.06103515625
1790107949174797300,0.69679736328125,-0.6462249755859375,-0.488128662109375,-0.02581787109375
1790107949184741400,0.706741455078125,-0.6120452880859375,-0.465057373046875,-0.007232666015625
1790107949194686200,0.716686279296875,-0.5543060302734375,-0.4150543212890625,-0.020263671875
1790107949204630000,0.726630126953125,-0.4443206787109375,-0.2562408447265625,-0.2866058349609375
1790107949214574000,0.736573974609375,-0.3953704833984375,-0.2266845703125,-0.3568115234375
1790107949224519200,0.746519287109375,-0.33001708984375,-0.222381591796875,-0.27972412109375
1790107949234463200,0.756463134765625,-0.26190185546875,-0.2563629150390625,-0.1387481689453125
1790107949244407300,0.7664072265625,-0.1732330322265625,-0.291046142578125,-0.117889404296875
1790107949254352100,0.77635205078125,-0.07366943359375,-0.1010589599609375,-0.2209625244140625
1790107949264296200,0.786296142578125,-0.118927001953125,0.11468505859375,-0.091583251953125
1790107949274240300,0.796240234375,-0.0902099609375,0.253173828125,-0.0127716064453125
1790107949284185000,0.80618505859375,-0.0589141845703125,0.359161376953125,0.0863037109375
1790107949294129200,0.816129150390625,-0.062164306640625,0.449554443359375,0.094879150390625
1790107949304074200,0.82607421875,-0.0753173828125,0.5532073974609375,-0.00689697265625
1790107949314018300,0.836018310546875,-0.0857696533203125,0.5958099365234375,-0.1043853759765625
1790107949323962000,0.845962158203125,-0.09625244140625,0.657318115234375,-0.185211181640625
1790107949333907200,0.8559072265625,-0.16400146484375,0.7339630126953125,-0.2877655029296875
1790107949343851000,0.86585107421875,-0.2832794189453125,0.772369384765625,-0.4654998779296875
1790107949353795300,0.87579541015625,-0.3267974853515625,0.78363037109375,-0.7256317138671875
1790107949363740200,0.885740234375,-0.281158447265625,0.76092529296875,-0.9487152099609375
1790107949373684200,0.895684326171875,-0.2753448486328125,0.7340850830078125,-1.0795440673828125
1790107949383628000,0.9056279296875,-0.3820343017578125,0.6959381103515625,-1.1268463134765625
1790107949393573400,0.915573486328125,-0.48193359375,0.6679840087890625,-1.207366943359375
1790107949403517200,0.92551708984375,-0.55145263671875,0.664398193359375,-1.302001953125
1790107949413461200,0.935461181640625,-0.6060791015625,0.6356964111328125,-1.444580078125
1790107949423406000,0.945406005859375,-0.5863037109375,0.5975189208984375,-1.6305084228515625
1790107949433350100,0.95535009765625,-0.495391845703125,0.4932861328125,-1.841461181640625
1790107949443294200,0.965294189453125,-0.37152099609375,0.3130035400390625,-2.02734375
1790107949453239300,0.9752392578125,-0.0657196044921875,-0.04150390625,-2.2323150634765625
1790107949463183000,0.98518310546875,0.097320556640625,-0.0080108642578125,-2.493743896484375
1790107949473127200,0.995127197265625,0.0063629150390625,-0.25445556640625,-2.54278564453125
1790107949483072300,1.005072265625,-0.1141815185546875,-0.363922119140625,-2.549652099609375
1790107949493016300,1.015016357421875,-0.2120819091796875,-0.30499267578125,-2.445068359375
1790107949502961200,1.024961181640625,-0.240020751953125,-0.3108978271484375,-2.218017578125
1790107949512905200,1.0349052734375,-0.085235595703125,-0.34588623046875,-2.1100616455078125
1790107949522849000,1.04484912109375,0.3605499267578125,-0.4402618408203125,-2.11297607421875
1790107949532794000,1.054794189453125,0.65008544921875,-0.5301971435546875,-2.1530914306640625
1790107949542738200,1.06473828125,0.7489166259765625,-0.646331787109375,-2.095001220703125
1790107949552682200,1.07468212890625,0.7914276123046875,-0.630645751953125,-1.8937530517578125
1790107949562627000,1.084626953125,0.770721435546875,-0.629058837890625,-1.773162841796875
1790107949572571400,1.0945712890625,0.615234375,-0.6010284423828125,-1.7853546142578125
1790107949582515200,1.10451513671875,0.4057464599609375,-0.6114501953125,-1.675689697265625
1790107949592460000,1.1144599609375,0.084320068359375,-0.564544677734375,-1.585113525390625
1790107949602404000,1.124404052734375,-0.050201416015625,-0.58013916015625,-1.5859527587890625
1790107949612348200,1.13434814453125,0.054840087890625,-0.625640869140625,-1.597320556640625
1790107949622293200,1.144293212890625,0.6573333740234375,-0.7554779052734375,-1.559356689453125
1790107949632237300,1.1542373046875,0.9925537109375,-0.8123321533203125,-1.56085205078125
1790107949642181000,1.16418115234375,0.8620147705078125,-0.7349395751953125,-1.49432373046875
1790107949652126000,1.1741259765625,0.369171142578125,-0.5084381103515625,-1.4588775634765625
1790107949662070300,1.1840703125,0.1421051025390625,-0.469390869140625,-1.5235443115234375
1790107949672015000,1.19401513671875,0.1796417236328125,-0.43609619140625,-1.44915771484375
1790107949681959200,1.203959228515625,0.17047119140625,-0.3382720947265625,-1.3188629150390625
1790107949691903200,1.2139033203125,0.07781982421875,-0.2487640380859375,-1.18359375
1790107949701848300,1.223848388671875,0.01348876953125,-0.108734130859375,-1.0506134033203125
1790107949711792000,1.233792236328125,-0.0411376953125,0.1059417724609375,-0.720489501953125
1790107949721735400,1.2437353515625,-0.087646484375,0.4105987548828125,-0.264373779296875
1790107949731680500,1.253680419921875,0.03509521484375,0.4373016357421875,-0.227874755859375
1790107949741624600,1.26362451171875,0.09844970703125,0.6579132080078125,-0.090667724609375
1790107949751568600,1.273568603515625,0.0301971435546875,0.559814453125,-0.58740234375
1790107949761513500,1.283513427734375,0.00860595703125,0.2138671875,-1.175262451171875
1790107949771457500,1.29345751953125,0.0789642333984375,0.201324462890625,-0.9245758056640625
1790107949781401300,1.3034013671875,0.4175872802734375,0.28790283203125,-0.1199798583984375
1790107949791346400,1.313346435546875,0.371246337890625,0.3369293212890625,-0.0557708740234375
1790107949801290500,1.32329052734375,0.4119873046875,0.3896942138671875,-0.363433837890625
1790107949811234600,1.333234619140625,0.542724609375,0.2021942138671875,-0.6805267333984375
1790107949821179600,1.3431796875,0.3209991455078125,0.419891357421875,-1.001434326171875
1790107949831123700,1.353123779296875,0.09100341796875,0.356719970703125,-0.936798095703125
1790107949841067500,1.363067626953125,0.2369232177734375,0.417266845703125,-0.8745574951171875
1790107949851012400,1.373012451171875,0.1416778564453125,0.2992401123046875,-1.0232086181640625
1790107949860956400,1.382956298828125,0.201080322265625,0.388336181640625,-1.056121826171875
1790107949870900700,1.392900634765625,0.2551116943359375,0.34466552734375,-0.960906982421875
1790107949880845600,1.402845458984375,0.217926025390625,0.321075439453125,-0.9230194091796875
1790107949890789600,1.41278955078125,0.2007904052734375,0.2735443115234375,-0.9513397216796875
1790107949900734500,1.422734375,0.2217254638671875,0.209869384765625,-1.0224761962890625
1790107949910678500,1.432678466796875,0.2739410400390625,0.113372802734375,-1.2776031494140625
1790107949920622600,1.44262255859375,0.380859375,0.004547119140625,-1.518341064453125
1790107949930567400,1.4525673828125,0.4962005615234375,0.0653228759765625,-1.4339141845703125
1790107949940511500,1.462511474609375,0.4166107177734375,0.0255584716796875,-1.347137451171875
1790107949950455600,1.47245556640625,0.291839599609375,-0.076171875,-1.4064788818359375
1790107949960400600,1.482400634765625,0.3670654296875,0.011566162109375,-1.3735809326171875
1790107949970344400,1.492344482421875,0.4799957275390625,-0.1573486328125,-1.496551513671875
1790107949980288500,1.50228857421875,0.4997406005859375,-0.2471923828125,-1.61187744140625
1790107949990233300,1.5122333984375,0.4559326171875,-0.1818389892578125,-1.4949188232421875
1790107950000177700,1.522177734375,0.4503021240234375,-0.1913604736328125,-1.1461181640625
1790107950010121500,1.53212158203125,0.2359466552734375,-0.14727783203125,-0.91363525390625
1790107950020066600,1.542066650390625,0.2426300048828125,0.10064697265625,-0.3025665283203125
1790107950030010400,1.55201025390625,0.105682373046875,0.2147674560546875,0.10784912109375
1790107950039954400,1.561954345703125,-0.0176544189453125,0.332794189453125,0.2416534423828125
1790107950049899500,1.5718994140625,0.1722259521484375,0.4749755859375,0.458709716796875
1790107950059843600,1.581843505859375,0.4153289794921875,0.5198822021484375,0.414764404296875
1790107950069787400,1.591787353515625,0.55267333984375,0.48748779296875,0.1409149169921875
1790107950079732500,1.601732421875,0.473419189453125,0.4054412841796875,-0.0358428955078125
1790107950089676500,1.611676513671875,0.3531951904296875,0.4229888916015625,-0.06475830078125
1790107950099621600,1.62162158203125,0.439117431640625,0.395050048828125,-0.0902099609375
1790107950109565400,1.6315654296875,0.54681396484375,0.3374481201171875,-0.11090087890625
1790107950119509500,1.641509521484375,0.519500732421875,0.233551025390625,-0.2670440673828125
1790107950129454600,1.65145458984375,0.54449462890625,0.0248260498046875,-0.4405670166015625
1790107950139398700,1.661398681640625,0.40875244140625,-0.1715850830078125,-0.8655242919921875
1790107950149342500,1.671342529296875,0.2347412109375,0.029510498046875,-1.1491241455078125
1790107950159287600,1.68128759765625,0.3342132568359375,0.3150482177734375,-1.665191650390625
1790107950169231400,1.6912314453125,0.31781005859375,0.466583251953125,-1.9459686279296875
1790107950179175700,1.70117578125,0.1046905517578125,0.392364501953125,-1.9213714599609375
1790107950189120500,1.71112060546875,0.0584259033203125,0.1645355224609375,-1.75909423828125
1790107950199064600,1.721064697265625,0.1416168212890625,0.05023193359375,-1.5611724853515625
1790107950209008400,1.73100830078125,0.437164306640625,-0.016204833984375,-1.431396484375
1790107950218953700,1.74095361328125,0.923309326171875,0.048431396484375,-1.6822357177734375
1790107950228897500,1.7508974609375,0.543243408203125,0.3824462890625,-2.5004730224609375
1790107950238841600,1.760841552734375,0.21685791015625,0.95001220703125,-2.7524566650390625
1790107950248786400,1.770786376953125,0.3637847900390625,1.0399322509765625,-1.7135772705078125
1790107950258730500,1.78073046875,0.290771484375,0.8894195556640625,-0.95294189453125
1790107950268674600,1.790674560546875,0.228271484375,0.8021697998046875,-0.7921295166015625
1790107950278619600,1.80061962890625,0.2464599609375,0.785919189453125,-0.75146484375
1790107950288563500,1.8105634765625,0.362335205078125,0.7171173095703125,-0.5941619873046875
1790107950298508300,1.82050830078125,0.44635009765625,0.4892120361328125,-0.368682861328125
1790107950308452600,1.83045263671875,0.1441192626953125,0.44598388671875,-0.5423736572265625
1790107950318396700,1.840396728515625,0.0462188720703125,0.286895751953125,-0.5507659912109375
1790107950328341500,1.850341552734375,0.003448486328125,0.2946014404296875,-0.639495849609375
1790107950338285600,1.86028564453125,0.048187255859375,0.4179840087890625,-0.7508697509765625
1790107950348229400,1.8702294921875,0.1331634521484375,0.615692138671875,-0.77020263671875
1790107950358174500,1.880174560546875,0.280731201171875,0.9636077880859375,-0.7141876220703125
1790107950368118500,1.890118408203125,0.5037689208984375,1.275360107421875,-0.615081787109375
1790107950378062600,1.9000625,0.5705413818359375,1.05206298828125,-0.4398651123046875
1790107950388007400,1.91000732421875,0.34576416015625,0.749664306640625,-0.4630889892578125
1790107950397951500,1.919951416015625,0.1314544677734375,0.533905029296875,-0.6239471435546875
1790107950407895600,1.9298955078125,0.15185546875,0.4981536865234375,-0.70184326171875
1790107950417840400,1.93984033203125,0.1029205322265625,0.4883575439453125,-0.8411712646484375
1790107950427784400,1.949784423828125,0.0823211669921875,0.53900146484375,-0.7521514892578125
1790107950437728500,1.959728515625,0.1390380859375,0.5782470703125,-0.6179046630859375
1790107950447673600,1.969673583984375,0.2197265625,0.630462646484375,-0.5644073486328125
1790107950457617400,1.979617431640625,0.2409515380859375,0.7413330078125,-0.5751800537109375
1790107950467562500,1.9895625,0.25372314453125,0.5145111083984375,-0.6338348388671875
1790107950477506300,1.99950634765625,0.2884979248046875,-0.195037841796875,-0.5337371826171875
1790107950487450600,2.00945068359375,0.2691192626953125,0.288055419921875,-0.8116607666015625
1790107950497395500,2.0193955078125,0.394256591796875,1.0629730224609375,-0.9908447265625
1790107950507339500,2.029339599609375,0.34844970703125,0.8630218505859375,-0.891998291015625
1790107950517283300,2.039283447265625,0.3277740478515625,0.7987518310546875,-0.7956695556640625
1790107950527228700,2.049228759765625,0.3332672119140625,0.7166900634765625,-0.7903900146484375
1790107950537172500,2.05917236328125,0.2847747802734375,0.747100830078125,-0.8797149658203125
1790107950547116500,2.069116455078125,0.2880706787109375,0.7290496826171875,-0.8360137939453125
1790107950557061400,2.079061279296875,0.2585296630859375,0.803009033203125,-0.864776611328125
1790107950567005400,2.08900537109375,0.215850830078125,1.0444793701171875,-1.0077667236328125
1790107950576949500,2.098949462890625,0.2008056640625,0.8766021728515625,-1.023651123046875
1790107950586894600,2.10889453125,0.15313720703125,0.898529052734375,-1.05078125
1790107950596838400,2.11883837890625,0.215118408203125,1.036590576171875,-0.953338623046875
1790107950606782500,2.128782470703125,0.272979736328125,0.945556640625,-0.7425689697265625
1790107950616727600,2.1387275390625,0.10595703125,0.67816162109375,-0.8240814208984375
1790107950626671600,2.148671630859375,0.129791259765625,0.2530059814453125,-0.807220458984375
1790107950636615400,2.158615478515625,-0.083770751953125,-0.01446533203125,-0.605712890625
1790107950646560500,2.168560546875,-0.537750244140625,-0.0491943359375,-0.65106201171875
1790107950656504600,2.178504638671875,-0.02447509765625,0.221710205078125,-0.3789215087890625
1790107950666448600,2.18844873046875,0.408843994140625,0.6575775146484375,-0.4856109619140625
1790107950676393500,2.1983935546875,0.341400146484375,0.7053680419921875,-0.8147430419921875
1790107950686337500,2.208337646484375,0.222686767578125,0.4210357666015625,-1.0113372802734375
1790107950696282600,2.21828271484375,0.300506591796875,0.3035736083984375,-1.0387115478515625
1790107950706226700,2.228226806640625,0.296600341796875,0.1910400390625,-0.9793243408203125
1790107950716171500,2.238171630859375,0.291168212890625,0.2095184326171875,-0.8218536376953125
1790107950726116400,2.248116455078125,0.2303314208984375,0.248260498046875,-0.7209320068359375
1790107950736060400,2.258060302734375,0.1324310302734375,0.1716766357421875,-0.53680419921875
1790107950746004200,2.268004150390625,0.0675048828125,0.5662841796875,-0.655426025390625
1790107950755949600,2.277949462890625,0.127410888671875,1.0811309814453125,-0.7144622802734375
1790107950765893400,2.287893310546875,0.175689697265625,1.4752197265625,-0.80206298828125
1790107950775837400,2.29783740234375,0.2401123046875,1.3751373291015625,-0.8413238525390625
1790107950785782300,2.3077822265625,0.2908782958984375,1.26666259765625,-0.763397216796875
1790107950795726300,2.317726318359375,0.373138427734375,1.095062255859375,-0.689239501953125
1790107950805670400,2.32767041015625,0.2208251953125,1.3484039306640625,-0.834442138671875
1790107950815615500,2.337615478515625,0.2035980224609375,1.3835601806640625,-0.7204742431640625
1790107950825559300,2.347559326171875,0.2686767578125,1.4268951416015625,-0.5078125
1790107950835503400,2.35750341796875,0.320220947265625,-0.05596923828125,-0.3672637939453125
1790107950845448400,2.367448486328125,-0.0409698486328125,0.4600677490234375,-0.6869964599609375
1790107950855392500,2.377392578125,-0.0059814453125,1.0288543701171875,-0.5772247314453125
1790107950865336300,2.38733642578125,0.311126708984375,1.0359954833984375,-0.357177734375
1790107950875281400,2.397281494140625,0.4286041259765625,1.063629150390625,-0.237091064453125
1790107950885225200,2.40722509765625,0.5696868896484375,1.0531768798828125,-0.2242431640625
1790107950895170600,2.417170654296875,0.468780517578125,0.8915863037109375,-0.31744384765625
1790107950905114400,2.4271142578125,0.3427276611328125,1.2166748046875,-0.1427154541015625
1790107950915058400,2.437058349609375,0.3625946044921875,1.138275146484375,0.0032806396484375
1790107950925003300,2.447003173828125,0.4156646728515625,0.7408294677734375,-0.1510162353515625
1790107950934947600,2.456947509765625,0.4219207763671875,0.4684906005859375,-0.4088592529296875
1790107950944891400,2.466891357421875,0.421783447265625,0.4083404541015625,-0.6802978515625
1790107950954836500,2.47683642578125,0.4104461669921875,0.532440185546875,-0.87042236328125
1790107950964780300,2.4867802734375,0.35302734375,0.6600341796875,-0.9549102783203125
1790107950974724400,2.496724365234375,0.32415771484375,0.632080078125,-0.9705657958984375
1790107950984669400,2.50666943359375,0.3141326904296875,0.5047760009765625,-0.85943603515625
1790107950994613500,2.516613525390625,0.2806396484375,0.4226226806640625,-0.7068939208984375
1790107951004557300,2.526557373046875,0.2610931396484375,0.3729248046875,-0.5576324462890625
1790107951014502400,2.53650244140625,0.2573699951171875,0.295806884765625,-0.3989105224609375
1790107951024446500,2.546446533203125,0.1764984130859375,0.1000518798828125,-0.288909912109375
1790107951034390500,2.556390625,0.1129913330078125,-0.0728759765625,-0.2912750244140625
1790107951044335400,2.56633544921875,0.072998046875,0.2639617919921875,-0.7274627685546875
1790107951054279400,2.576279541015625,0.1189117431640625,0.4953460693359375,-1.1274871826171875
1790107951064223200,2.58622314453125,0.199432373046875,0.547760009765625,-1.351715087890625
1790107951074168300,2.596168212890625,0.1055908203125,0.4840087890625,-1.4027862548828125
1790107951084112400,2.6061123046875,0.10791015625,0.4205780029296875,-1.2659454345703125
1790107951094056400,2.616056396484375,0.2963104248046875,0.620452880859375,-1.155181884765625
1790107951104001300,2.626001220703125,0.243682861328125,0.715240478515625,-1.12054443359375
1790107951113945600,2.635945556640625,0.0860443115234375,0.720977783203125,-1.07080078125
1790107951123890400,2.645890380859375,0.1044921875,0.79278564453125,-1.0163116455078125
1790107951133834200,2.655834228515625,0.1955718994140625,0.89093017578125,-0.96759033203125
1790107951143778300,2.6657783203125,0.2058258056640625,0.859832763671875,-0.9759063720703125
1790107951153723400,2.675723388671875,0.1372833251953125,0.9474945068359375,-1.0915069580078125
1790107951163667500,2.68566748046875,0.089874267578125,0.8908538818359375,-1.11602783203125
1790107951173611500,2.695611572265625,0.09942626953125,0.6739654541015625,-1.133544921875
1790107951183556400,2.705556396484375,0.2329254150390625,0.6832733154296875,-1.1448822021484375
1790107951193500200,2.715500244140625,0.3351898193359375,0.730224609375,-1.0361328125
1790107951203444500,2.725444580078125,0.3289642333984375,0.8377532958984375,-0.8128509521484375
1790107951213389300,2.735389404296875,0.212310791015625,0.8907623291015625,-0.6275177001953125
1790107951223333400,2.74533349609375,0.1137542724609375,0.743255615234375,-0.552520751953125
1790107951233277400,2.75527734375,0.1863861083984375,0.580810546875,-0.5990447998046875
1790107951243222500,2.765222412109375,0.3086395263671875,0.4737091064453125,-0.6948394775390625
1790107951253166300,2.775166259765625,0.3674468994140625,0.5982818603515625,-0.5664215087890625
1790107951263110400,2.7851103515625,0.20367431640625,0.6168060302734375,-0.2828521728515625
1790107951273055200,2.79505517578125,0.4649200439453125,0.4416961669921875,-0.0937042236328125
1790107951282999300,2.804999267578125,0.674224853515625,0.2274627685546875,-0.295806884765625
1790107951292944400,2.8149443359375,0.5222930908203125,0.02276611328125,-0.5706329345703125
1790107951302888400,2.824888427734375,0.377685546875,-0.135589599609375,-0.5445098876953125
1790107951312832300,2.834832275390625,0.4241485595703125,-0.2084503173828125,-0.4694671630859375
1790107951322777300,2.84477734375,0.4987945556640625,-0.3639373779296875,-0.449005126953125
1790107951332721400,2.854721435546875,0.2725982666015625,-0.397003173828125,-0.4480133056640625
1790107951342665500,2.86466552734375,0.2158660888671875,-0.51300048828125,-0.5920257568359375
1790107951352610300,2.8746103515625,0.3980712890625,-0.6622467041015625,-0.906280517578125
1790107951362554400,2.884554443359375,0.294830322265625,-0.6592254638671875,-1.1885833740234375
1790107951372498200,2.894498291015625,0.3023834228515625,-0.605194091796875,-1.036102294921875
1790107951382443500,2.904443603515625,0.43585205078125,-0.5839996337890625,-0.639068603515625
1790107951392387300,2.91438720703125,0.4893341064453125,-0.5053253173828125,-0.455810546875
1790107951402331400,2.924331298828125,0.466949462890625,-0.394805908203125,-0.5797882080078125
1790107951412276500,2.9342763671875,0.4647369384765625,-0.3196563720703125,-0.8164520263671875
1790107951422220500,2.944220458984375,0.431884765625,-0.1810302734375,-1.06787109375
1790107951432164400,2.954164306640625,0.5474853515625,-0.1461334228515625,-0.9226531982421875
1790107951442109400,2.964109375,0.55242919921875,0.0700225830078125,-0.6917266845703125
1790107951452053200,2.97405322265625,0.3734588623046875,0.36993408203125,-0.448974609375
1790107951461997300,2.983997314453125,0.3321990966796875,0.7226409912109375,-0.239013671875
1790107951471942400,2.9939423828125,0.2779998779296875,0.9009246826171875,-0.107635498046875
1790107951481886500,3.003886474609375,0.078125,1.0645751953125,-0.24658203125
1790107951491830300,3.013830322265625,-0.115264892578125,1.2169342041015625,-0.6897430419921875
1790107951501775600,3.023775634765625,-0.2338714599609375,1.150238037109375,-1.00799560546875
1790107951511719400,3.033719482421875,-0.1091156005859375,1.1783905029296875,-1.1708221435546875
1790107951521664300,3.043664306640625,-0.023406982421875,1.168426513671875,-1.3206024169921875
1790107951531608300,3.0536083984375,-0.069915771484375,1.2237701416015625,-1.2458648681640625
1790107951541552400,3.063552490234375,-0.0515289306640625,1.4015350341796875,-1.1743927001953125
1790107951551497500,3.07349755859375,0.0574951171875,1.3790283203125,-1.3214263916015625
1790107951561441500,3.083441650390625,0.5455474853515625,1.50018310546875,-1.9072265625
1790107951571385300,3.09338525390625,1.0223236083984375,0.135498046875,-1.723419189453125
1790107951581330200,3.103330078125,0.8300628662109375,0.2621612548828125,-1.325531005859375
1790107951591274500,3.1132744140625,0.331390380859375,0.2912445068359375,-1.128143310546875
1790107951601218600,3.123218505859375,-0.4781036376953125,0.810943603515625,-1.3363189697265625
1790107951611163400,3.133163330078125,-0.9242401123046875,1.159820556640625,-0.85491943359375
1790107951621107500,3.143107421875,-0.755401611328125,1.107177734375,-0.3944091796875
1790107951631051300,3.15305126953125,-0.740264892578125,1.0184326171875,-0.091796875
1790107951640996400,3.162996337890625,-0.0051422119140625,0.6739349365234375,-0.3447723388671875
1790107951650940400,3.1729404296875,0.44219970703125,-0.0130615234375,-0.6246795654296875
1790107951660884500,3.182884521484375,-0.14788818359375,0.2893218994140625,-0.53936767578125
1790107951670829300,3.192829345703125,0.1400299072265625,0.6093292236328125,-0.5174407958984375
1790107951680773400,3.2027734375,0.391265869140625,0.438232421875,-0.71478271484375
1790107951690717400,3.212717529296875,0.22802734375,0.4206085205078125,-0.6479339599609375
1790107951700662300,3.222662353515625,0.0120697021484375,0.5828094482421875,-0.5157623291015625
1790107951710606300,3.2326064453125,0.0987548828125,0.741607666015625,-0.6249847412109375
1790107951720550700,3.242550537109375,0.2482757568359375,0.6836700439453125,-0.8097076416015625
1790107951730494700,3.25249462890625,0.2066650390625,0.5359649658203125,-0.7370147705078125
1790107951740438800,3.262438720703125,0.0326995849609375,0.431243896484375,-0.568756103515625
1790107951750383600,3.272383544921875,-0.039703369140625,0.43121337890625,-0.6275482177734375
1790107951760327700,3.28232763671875,0.0535125732421875,0.1485748291015625,-0.8405609130859375
1790107951770271500,3.292271484375,-0.1280670166015625,0.478302001953125,-0.6014404296875
1790107951780216600,3.302216552734375,-0.15509033203125,0.7603912353515625,-0.6270904541015625
1790107951790160600,3.31216064453125,0.073333740234375,0.7194671630859375,-0.765899658203125
1790107951800104700,3.322104736328125,0.1419830322265625,0.913818359375,-0.8806304931640625
1790107951810049500,3.332049560546875,0.1103668212890625,0.971343994140625,-0.9244842529296875
1790107951819993900,3.341993896484375,0.0775146484375,0.9797515869140625,-0.8093719482421875
1790107951829937700,3.351937744140625,0.05987548828125,1.0852813720703125,-0.7052459716796875
1790107951839882500,3.361882568359375,0.0564727783203125,1.0553131103515625,-0.59796142578125
1790107951849826600,3.37182666015625,0.0186767578125,0.975433349609375,-0.5696868896484375
1790107951859770600,3.3817705078125,-0.0168914794921875,0.942535400390625,-0.6426544189453125
1790107951869715700,3.3917158203125,0.00250244140625,0.9652862548828125,-0.6373443603515625
1790107951879659800,3.40165966796875,-0.0260467529296875,0.9104156494140625,-0.5964813232421875
1790107951889603600,3.411603515625,-0.0941162109375,0.822021484375,-0.5481719970703125
1790107951899548400,3.42154833984375,-0.0538482666015625,0.6058349609375,-0.617828369140625
1790107951909492700,3.43149267578125,0.0262451171875,0.3687896728515625,-0.701812744140625
1790107951919437600,3.4414375,0.07037353515625,0.38037109375,-0.7003936767578125
1790107951929381600,3.451381591796875,0.0916748046875,0.4597930908203125,-0.847503662109375
1790107951939325700,3.46132568359375,0.0776824951171875,0.529388427734375,-1.0018157958984375
1790107951949270800,3.471270751953125,0.0680084228515625,0.595611572265625,-1.0089874267578125
1790107951959214600,3.481214599609375,0.0185394287109375,0.6410369873046875,-1.0987091064453125
1790107951969158700,3.49115869140625,0.05499267578125,0.7871551513671875,-0.971832275390625
1790107951979103500,3.501103515625,0.0517730712890625,1.09906005859375,-0.751861572265625
1790107951989047600,3.511047607421875,-0.119842529296875,1.37860107421875,-0.4297027587890625
1790107951998991600,3.52099169921875,-0.2140350341796875,1.6343536376953125,0.116302490234375
1790107952008936700,3.530936767578125,0.1283416748046875,1.5444488525390625,0.6014556884765625
1790107952018880500,3.540880615234375,0.51239013671875,0.948822021484375,0.3624725341796875
1790107952028824600,3.550824462890625,0.47906494140625,0.3754119873046875,-0.720245361328125
1790107952038769700,3.560769775390625,0.1941375732421875,0.243927001953125,-1.3042449951171875
1790107952048713700,3.570713623046875,0.1567535400390625,0.5578765869140625,-1.053009033203125
1790107952058657500,3.580657470703125,0.1820526123046875,0.60693359375,-0.5514373779296875
1790107952068602600,3.5906025390625,0.1102752685546875,0.617950439453125,-0.467987060546875
1790107952078546400,3.60054638671875,0.1080322265625,0.655242919921875,-0.554412841796875
1790107952088490800,3.61049072265625,0.181121826171875,0.69207763671875,-0.660919189453125
1790107952098435600,3.620435546875,0.1510772705078125,0.7332611083984375,-0.687744140625
1790107952108379600,3.630379638671875,-0.05218505859375,0.719482421875,-0.5256195068359375
1790107952118323500,3.640323486328125,-0.1402435302734375,0.6819610595703125,-0.4217376708984375
1790107952128268800,3.650268798828125,-0.07025146484375,0.59503173828125,-0.48626708984375
1790107952138212600,3.660212646484375,0.2930145263671875,0.2555084228515625,-0.5898895263671875
1790107952148157700,3.67015771484375,0.2023773193359375,0.1541748046875,-0.7220001220703125
1790107952158101500,3.6801015625,0.0228729248046875,0.334228515625,-0.824066162109375
1790107952168045600,3.690045654296875,-0.0630645751953125,0.7472991943359375,-0.878387451171875
1790107952177990700,3.69999072265625,-0.0584564208984375,1.2176055908203125,-0.8555755615234375
1790107952187934700,3.709934814453125,-0.004150390625,1.296722412109375,-0.8164520263671875
1790107952197878500,3.71987841796875,0.0888519287109375,1.213531494140625,-0.8666534423828125
1790107952207824000,3.729823974609375,0.111328125,1.1291046142578125,-0.8583526611328125
1790107952217767700,3.739767578125,0.0154876708984375,1.1397705078125,-0.84405517578125
1790107952227711700,3.749711669921875,-0.065032958984375,1.245269775390625,-0.6436614990234375
1790107952237656600,3.759656494140625,0.0598297119140625,1.0098876953125,-0.6262054443359375
1790107952247600600,3.7696005859375,0.0443267822265625,0.696441650390625,-0.9763946533203125
1790107952257544700,3.779544677734375,0.0063323974609375,0.8197174072265625,-0.5676422119140625
1790107952267489800,3.78948974609375,0.3698883056640625,0.947906494140625,-0.715423583984375
1790107952277433600,3.79943359375,0.3538055419921875,0.8224639892578125,-0.859222412109375
1790107952287377700,3.809377685546875,0.218780517578125,0.548675537109375,-0.9489593505859375
1790107952297322800,3.81932275390625,0.14508056640625,0.7030029296875,-0.8403472900390625
1790107952307266800,3.829266845703125,0.1347503662109375,0.7376861572265625,-0.7179718017578125
1790107952317210600,3.839210693359375,0.078369140625,1.0889129638671875,-0.2548675537109375
1790107952327155700,3.84915576171875,-0.24298095703125,1.464691162109375,0.2760467529296875
1790107952337099500,3.859099609375,-0.6580352783203125,1.16094970703125,0.0422515869140625
1790107952347043800,3.8690439453125,-0.6809234619140625,0.4420013427734375,-0.7856903076171875
1790107952356988700,3.87898876953125,-0.2064361572265625,-0.2794189453125,-1.6884307861328125
1790107952366932700,3.8889326171875,0.3913421630859375,-0.7013397216796875,-1.596099853515625
1790107952376877600,3.898877685546875,0.5797576904296875,0.196685791015625,-1.325225830078125
1790107952386821600,3.908821533203125,0.524078369140625,0.46148681640625,-0.9174041748046875
1790107952396765700,3.918765625,0.5411834716796875,0.3397674560546875,-0.51177978515625
1790107952406710500,3.92871044921875,0.4178009033203125,0.3924407958984375,-0.5808868408203125
1790107952416654600,3.938654541015625,0.3432159423828125,0.4743499755859375,-0.7099609375
1790107952426598700,3.9485986328125,0.1094970703125,0.6355133056640625,-0.86920166015625
1790107952436543700,3.958543701171875,-0.0546417236328125,0.7862701416015625,-1.071929931640625
1790107952446487600,3.968487548828125,0.019500732421875,0.819580078125,-1.245361328125
1790107952456431600,3.978431640625,0.126220703125,0.8407745361328125,-1.2027130126953125
1790107952466376400,3.98837646484375,0.1653289794921875,0.8478851318359375,-1.1252899169921875
1790107952476320800,3.99832080078125,0.245452880859375,0.90875244140625,-0.9347381591796875
1790107952486264800,4.008264892578125,0.267242431640625,0.83447265625,-0.8892974853515625
1790107952496209700,4.018209716796875,0.2258758544921875,0.796051025390625,-0.8871002197265625
1790107952506153500,4.028153564453125,0.19476318359375,0.941802978515625,-0.896759033203125
1790107952516097500,4.03809765625,-0.0357818603515625,0.9509124755859375,-0.9952392578125
1790107952526042600,4.048042724609375,-0.1873779296875,0.9475860595703125,-0.8103485107421875
1790107952535986700,4.057986572265625,-0.084442138671875,0.8767242431640625,-0.6473388671875
1790107952545930800,4.0679306640625,0.0520782470703125,0.8176727294921875,-0.7153472900390625
1790107952555875600,4.07787548828125,0.09417724609375,0.81805419921875,-0.8016357421875
1790107952565819600,4.087819580078125,-0.1120147705078125,0.916351318359375,-0.9278564453125
1790107952575763700,4.097763671875,-0.2270355224609375,0.5781707763671875,-0.891510009765625
1790107952585708500,4.10770849609375,0.0376129150390625,0.4832611083984375,-0.681121826171875
1790107952595652600,4.117652587890625,0.142730712890625,0.517242431640625,-0.606536865234375
1790107952605597700,4.12759765625,0.1515655517578125,0.428680419921875,-0.6120452880859375
1790107952615541800,4.137541748046875,0.1031036376953125,0.3909912109375,-0.66705322265625
1790107952625485600,4.147485595703125,0.0523223876953125,0.3508758544921875,-0.5498046875
1790107952635430700,4.1574306640625,0.07763671875,0.2738037109375,-0.41412353515625
1790107952645374500,4.16737451171875,0.14599609375,0.281097412109375,-0.501190185546875
1790107952655318800,4.17731884765625,0.2012481689453125,0.2845611572265625,-0.55609130859375
1790107952665263600,4.187263671875,0.270233154296875,0.2915191650390625,-0.462310791015625
1790107952675207700,4.197207763671875,0.3301544189453125,0.254547119140625,-0.439697265625
1790107952685151500,4.2071513671875,0.301605224609375,0.2271270751953125,-0.5440826416015625
1790107952695096800,4.217096923828125,0.226593017578125,0.3277587890625,-0.6400299072265625
1790107952705040600,4.22704052734375,0.180419921875,0.3993072509765625,-0.841766357421875
1790107952714985500,4.2369853515625,0.1014251708984375,0.4024810791015625,-1.061004638671875
1790107952724930300,4.246930419921875,0.02569580078125,0.7328643798828125,-0.9421539306640625
1790107952734874400,4.256874267578125,0.0930023193359375,0.794647216796875,-0.7972869873046875
1790107952744818200,4.266818115234375,0.3638916015625,1.0072021484375,-0.69171142578125
1790107952754763300,4.27676318359375,0.431243896484375,0.99114990234375,-0.7115325927734375
1790107952764707300,4.286707275390625,0.407135009765625,0.75274658203125,-0.8870086669921875
1790107952774651400,4.2966513671875,0.3128509521484375,0.36865234375,-1.169525146484375
1790107952784596200,4.30659619140625,0.290008544921875,0.2398834228515625,-1.154998779296875
1790107952794540300,4.316540283203125,0.2933502197265625,0.3035430908203125,-0.94451904296875
1790107952804484400,4.326484375,0.3980560302734375,0.5167999267578125,-0.8361663818359375
1790107952814429200,4.33642919921875,0.3775482177734375,0.7506103515625,-0.800567626953125
1790107952824373200,4.346373291015625,0.2488250732421875,0.738494873046875,-0.6805877685546875
1790107952834318300,4.356318359375,0.31756591796875,0.4603118896484375,-0.65277099609375
1790107952844262400,4.366262451171875,0.4012603759765625,0.159027099609375,-0.7176055908203125
1790107952854206200,4.376206298828125,0.4383544921875,0.16607666015625,-0.802032470703125
1790107952864151300,4.3861513671875,0.4535980224609375,0.38165283203125,-0.8917236328125
1790107952874095000,4.39609521484375,0.3463287353515625,0.3973541259765625,-0.9923095703125
1790107952884039400,4.406039306640625,0.3756561279296875,0.3990478515625,-1.0804901123046875
1790107952893984300,4.415984375,0.4972381591796875,0.5383453369140625,-1.1266021728515625
1790107952903928300,4.42592822265625,0.4109649658203125,0.4326629638671875,-0.9742279052734375
1790107952913872100,4.4358720703125,0.392974853515625,0.15899658203125,-0.863739013671875
1790107952923817500,4.4458173828125,0.428863525390625,-0.03656005859375,-0.89447021484375
1790107952933761300,4.45576123046875,0.3365325927734375,0.06451416015625,-1.017425537109375
1790107952943705300,4.465705322265625,0.2842559814453125,0.1725616455078125,-0.842742919921875
1790107952953650200,4.475650146484375,0.1222686767578125,-0.0504608154296875,-0.51275634765625
1790107952963594200,4.48559423828125,0.2412567138671875,-0.22161865234375,-0.25640869140625
1790107952973538300,4.495538330078125,0.54583740234375,-0.08148193359375,0.269622802734375
1790107952983483400,4.5054833984375,0.4879302978515625,0.1580963134765625,0.3167266845703125
1790107952993427200,4.51542724609375,0.5073699951171875,0.2899017333984375,-0.138885498046875
1790107953003371300,4.525371337890625,0.52423095703125,0.33685302734375,-0.5633087158203125
1790107953013316400,4.53531640625,0.4422760009765625,0.2994537353515625,-0.826751708984375
1790107953023260400,4.545260498046875,0.3756561279296875,0.2248687744140625,-1.062744140625
1790107953033205200,4.555205322265625,0.2973175048828125,0.246612548828125,-0.953887939453125
1790107953043149300,4.5651494140625,0.438262939453125,0.28643798828125,-1.050445556640625
1790107953053093000,4.575093017578125,0.4637603759765625,0.3096771240234375,-1.2169952392578125
1790107953063038500,4.58503857421875,0.53704833984375,0.2277984619140625,-0.687164306640625
1790107953072982300,4.594982177734375,1.0401763916015625,0.468475341796875,-0.1970062255859375
1790107953082926300,4.60492626953125,1.0470733642578125,0.4399871826171875,-2.018768310546875
1790107953092871200,4.61487109375,0.3197174072265625,0.7724609375,-2.1910552978515625
1790107953102815500,4.6248154296875,-0.487396240234375,0.8144683837890625,-1.1374969482421875
1790107953112759300,4.63475927734375,-0.5311737060546875,0.0329132080078125,-0.261932373046875
1790107953122704400,4.644704345703125,0.3419036865234375,0.4478302001953125,0.6588134765625
1790107953132648200,4.654648193359375,-0.1814727783203125,0.917388916015625,2.613861083984375
1790107953142592300,4.66459228515625,-0.4971771240234375,0.0077362060546875,1.192352294921875
1790107953152537300,4.674537353515625,0.413055419921875,-0.050445556640625,-1.0355682373046875
1790107953162481400,4.6844814453125,1.7513275146484375,0.45947265625,-2.7484283447265625
1790107953172425200,4.69442529296875,1.355682373046875,1.0871734619140625,-2.1323394775390625
1790107953182370300,4.704370361328125,0.001007080078125,1.01654052734375,-0.56500244140625
1790107953192314400,4.714314453125,0.25677490234375,0.9570770263671875,-0.2151641845703125
1790107953202258400,4.724258544921875,0.646240234375,1.36639404296875,-0.6912384033203125
1790107953212203300,4.734203369140625,0.5558929443359375,1.4512481689453125,-1.1343536376953125
1790107953222147300,4.744147216796875,0.4360504150390625,1.341156005859375,-1.1193695068359375
1790107953232091100,4.754091064453125,0.5782928466796875,1.3298492431640625,-0.8790435791015625
1790107953242036200,4.7640361328125,0.601654052734375,1.3094940185546875,-0.1584014892578125
1790107953251980300,4.773980224609375,0.4559478759765625,1.291168212890625,-0.4263153076171875
1790107953261924400,4.78392431640625,0.5967559814453125,1.045013427734375,-0.809356689453125
1790107953271869400,4.793869384765625,0.702362060546875,1.136077880859375,-1.0102996826171875
1790107953281813500,4.8038134765625,0.6065521240234375,1.036163330078125,-1.0686492919921875
1790107953291758300,4.81375830078125,0.4897308349609375,0.640045166015625,-1.0162506103515625
1790107953301702100,4.8237021484375,0.5151519775390625,0.405609130859375,-1.0005340576171875
1790107953311646200,4.833646240234375,0.4825592041015625,0.4507904052734375,-0.8806915283203125
1790107953321591300,4.84359130859375,0.2947998046875,0.6120758056640625,-0.645477294921875
1790107953331535400,4.853535400390625,0.09326171875,0.439239501953125,-0.738922119140625
1790107953341479400,4.8634794921875,-0.0575103759765625,0.6161956787109375,-0.69061279296875
1790107953351424300,4.87342431640625,0.04876708984375,0.6744232177734375,-0.47393798828125
1790107953361368300,4.883368408203125,0.2914276123046875,0.635101318359375,-0.4910125732421875
1790107953371312400,4.8933125,0.2247772216796875,0.602294921875,-0.4949188232421875
1790107953381257200,4.90325732421875,0.1108551025390625,0.207794189453125,-0.2324981689453125
1790107953391201300,4.913201171875,0.06134033203125,0.2061767578125,-0.14788818359375
1790107953401145300,4.923145263671875,-0.0668792724609375,0.6490020751953125,-0.454986572265625
1790107953411090400,4.93309033203125,0.017791748046875,0.911407470703125,-0.5319976806640625
1790107953421034200,4.9430341796875,0.23602294921875,1.0678863525390625,-0.4109039306640625
1790107953430978300,4.952978271484375,0.533660888671875,1.0748291015625,-0.33648681640625
1790107953440923100,4.962923095703125,0.8361053466796875,0.9437255859375,-0.3507080078125
1790107953450867500,4.972867431640625,0.796142578125,0.7852020263671875,-0.640167236328125
1790107953460811300,4.982811279296875,0.4901885986328125,0.840118408203125,-0.9222412109375
1790107953470756400,4.99275634765625,0.419830322265625,0.9434356689453125,-0.745635986328125
1790107953480700200,5.0027001953125,0.3823394775390625,0.9849090576171875,-0.7540130615234375
1790107953490645500,5.0126455078125,0.40081787109375,0.9322662353515625,-0.784576416015625
1790107953500589300,5.02258935546875,0.4606781005859375,0.9101715087890625,-0.630340576171875
1790107953510533400,5.032533447265625,0.52496337890625,0.8868865966796875,-0.384429931640625
1790107953520478200,5.042478271484375,0.623565673828125,0.8377838134765625,-0.2277069091796875
1790107953530422300,5.05242236328125,0.5576019287109375,0.8751373291015625,-0.3798065185546875
1790107953540366300,5.062366455078125,0.3310546875,0.8975372314453125,-0.6153106689453125
1790107953550311400,5.0723115234375,0.2008514404296875,0.988189697265625,-0.8068084716796875
1790107953560255200,5.082255126953125,0.1977386474609375,1.0637359619140625,-0.9464569091796875
1790107953570199300,5.09219921875,0.121307373046875,0.9785919189453125,-0.55841064453125
1790107953580144400,5.102144287109375,0.16082763671875,1.0303192138671875,-0.2453460693359375
1790107953590088400,5.11208837890625,0.437042236328125,0.6679840087890625,-0.704833984375
1790107953600032300,5.1220322265625,0.4203033447265625,0.45001220703125,-1.219268798828125
1790107953609977300,5.131977294921875,0.1630706787109375,0.5925445556640625,-1.33447265625
1790107953619921200,5.141921142578125,0.1058197021484375,0.8182373046875,-1.172332763671875
1790107953629865500,5.151865478515625,-0.0051422119140625,1.00518798828125,-1.0256195068359375
1790107953639810300,5.161810302734375,0.0907135009765625,0.898193359375,-0.88262939453125
1790107953649754400,5.17175439453125,0.44744873046875,0.63751220703125,-0.3889312744140625
1790107953659698200,5.1816982421875,0.4762115478515625,0.3638153076171875,-0.77435302734375
1790107953669643500,5.1916435546875,0.132080078125,-0.012603759765625,-1.004180908203125
1790107953679587300,5.20158740234375,0.052337646484375,0.2646942138671875,-0.5312042236328125
1790107953689531400,5.211531494140625,0.2589569091796875,0.43145751953125,-0.4035186767578125
1790107953699476200,5.221476318359375,0.5570831298828125,0.2972259521484375,0.0095672607421875
1790107953709420300,5.231420166015625,0.528472900390625,0.31719970703125,0.072662353515625
1790107953719364600,5.241364501953125,0.102508544921875,0.404205322265625,-0.506591796875
1790107953729308700,5.25130859375,-0.3304290771484375,0.35467529296875,-0.663116455078125
1790107953739252500,5.26125244140625,-0.4600677490234375,0.480133056640625,-0.5225830078125
1790107953749197800,5.27119775390625,-0.3886566162109375,0.600067138671875,-0.596954345703125
1790107953759141600,5.2811416015625,-0.2662811279296875,0.566070556640625,-0.6205596923828125
1790107953769085700,5.291085693359375,-0.091217041015625,0.4449615478515625,-0.819305419921875
1790107953779030500,5.301030517578125,0.09552001953125,0.441314697265625,-0.7571258544921875
1790107953788974800,5.310974853515625,0.04425048828125,0.4146728515625,-0.74383544921875
1790107953798918700,5.320918701171875,-0.0383453369140625,0.4720458984375,-0.8575286865234375
1790107953808863700,5.33086376953125,-0.2024993896484375,0.538604736328125,-0.9190216064453125
1790107953818807600,5.3408076171875,0.23876953125,0.5559539794921875,-0.8398284912109375
1790107953828751600,5.350751708984375,0.19390869140625,0.5878448486328125,-0.6047210693359375
1790107953838696700,5.36069677734375,-0.2532806396484375,0.9962615966796875,-0.4302215576171875
1790107953848640800,5.370640869140625,0.0179290771484375,0.793914794921875,-0.5512237548828125
1790107953858584600,5.38058447265625,0.5362548828125,0.74652099609375,-0.9293060302734375
1790107953868530000,5.390530029296875,0.7081756591796875,1.0786285400390625,-0.8269805908203125
1790107953878473700,5.4004736328125,0.6971282958984375,0.872711181640625,-0.1740264892578125
1790107953888417800,5.410417724609375,0.4762115478515625,0.540679931640625,-0.311767578125
1790107953898362600,5.420362548828125,0.2476043701171875,0.4396514892578125,-1.1719970703125
1790107953908306700,5.430306640625,0.1668853759765625,0.2733001708984375,-1.429412841796875
1790107953918251800,5.440251708984375,-0.41357421875,-0.0685882568359375,-1.1090850830078125
1790107953928195800,5.45019580078125,-0.6673583984375,-0.55975341796875,-0.6051177978515625
1790107953938139600,5.4601396484375,-0.429046630859375,-0.4161529541015625,-0.606536865234375
1790107953948084500,5.47008447265625,-0.4427032470703125,0.21710205078125,-0.946441650390625
1790107953958028800,5.48002880859375,-0.207366943359375,0.5581817626953125,-1.05047607421875
1790107953967972900,5.489972900390625,0.2384033203125,0.7104644775390625,-1.07562255859375
1790107953977917700,5.499917724609375,0.492919921875,0.689483642578125,-0.9500579833984375
1790107953987861800,5.50986181640625,0.495208740234375,0.6627960205078125,-1.2383880615234375
1790107953997805600,5.5198056640625,0.3153839111328125,0.6172943115234375,-1.3952789306640625
1790107954007750700,5.529750732421875,0.5304107666015625,0.641357421875,-1.1373291015625
1790107954017694700,5.53969482421875,0.6520538330078125,0.5204010009765625,-1.310577392578125
1790107954027638800,5.549638671875,-0.6706390380859375,0.0245208740234375,-0.8909149169921875
1790107954037583600,5.55958349609375,0.4266510009765625,0.4095916748046875,-0.5157470703125
1790107954047527700,5.569527587890625,-0.0348663330078125,0.5413665771484375,-0.6889495849609375
1790107954057471700,5.5794716796875,0.0642242431640625,0.7161102294921875,-0.9559326171875
1790107954067416600,5.58941650390625,0.1166229248046875,0.7151641845703125,-0.9530029296875
1790107954077360600,5.599360595703125,0.2169036865234375,0.8000946044921875,-0.8834228515625
1790107954087304700,5.6093046875,0.156158447265625,1.0917205810546875,-0.7878875732421875
1790107954097249800,5.619249755859375,0.0895843505859375,1.1070709228515625,-1.0655670166015625
1790107954107193600,5.629193603515625,0.05816650390625,0.5432891845703125,-0.75213623046875
1790107954117137700,5.6391376953125,0.0484466552734375,0.149566650390625,-0.7027587890625
1790107954127082500,5.64908251953125,-0.0255126953125,0.4219970703125,-0.726806640625
1790107954137026800,5.65902685546875,-0.027801513671875,0.77374267578125,-0.851593017578125
1790107954146971600,5.6689716796875,0.0980072021484375,0.70123291015625,-0.79736328125
1790107954156915700,5.678915771484375,0.2144012451171875,0.4997406005859375,-0.819549560546875
1790107954166859500,5.688859619140625,0.172149658203125,0.389556884765625,-0.99493408203125
1790107954176804900,5.698804931640625,0.0979156494140625,0.4788818359375,-0.9830322265625
1790107954186748700,5.708748779296875,0.10052490234375,0.4800567626953125,-0.916778564453125
1790107954196692700,5.718692626953125,0.09832763671875,0.511871337890625,-0.77801513671875
1790107954206637600,5.728637451171875,0.078765869140625,0.7317047119140625,-0.691131591796875
1790107954216581600,5.73858154296875,0.0714111328125,0.672607421875,-0.69012451171875
1790107954226525700,5.748525634765625,0.0810546875,0.603546142578125,-0.7622833251953125
1790107954236470800,5.758470703125,0.0757293701171875,0.6827850341796875,-0.7779693603515625
1790107954246414600,5.76841455078125,0.0980072021484375,0.6197052001953125,-0.7915496826171875
1790107954256358700,5.778358642578125,0.030181884765625,0.410430908203125,-0.64495849609375
1790107954266303700,5.7883037109375,1.2751922607421875,0.7941436767578125,-0.7599029541015625
1790107954276247800,5.798247802734375,0.288818359375,0.379638671875,-1.0336761474609375
1790107954286191600,5.808191650390625,-0.3408203125,-0.2000732421875,-0.3658294677734375
1790107954296136700,5.81813671875,0.642974853515625,-1.069610595703125,-0.8150787353515625
1790107954306080500,5.82808056640625,0.037261962890625,-0.22271728515625,-1.3209686279296875
1790107954316024800,5.83802490234375,0.3343048095703125,1.10797119140625,-1.166778564453125
1790107954325969700,5.8479697265625,-0.0136871337890625,1.2166748046875,-0.7296600341796875
1790107954335913700,5.857913818359375,-0.388031005859375,1.5485687255859375,-0.49554443359375
1790107954345857500,5.867857421875,-0.3671417236328125,1.314300537109375,-0.5023651123046875
1790107954355803000,5.877802978515625,-0.01470947265625,0.757476806640625,-0.9962615966796875
1790107954365746700,5.88774658203125,0.264984130859375,0.45587158203125,-0.775238037109375
1790107954375690800,5.897690673828125,0.1686553955078125,0.8125,-0.752471923828125
1790107954385635600,5.907635498046875,0.40447998046875,1.3970489501953125,-0.7180938720703125
1790107954395579600,5.91757958984375,0.6930999755859375,1.040008544921875,-0.6104888916015625
1790107954405524700,5.927524658203125,0.47967529296875,0.4300079345703125,-0.750885009765625
1790107954415468800,5.93746875,0.422393798828125,0.2722015380859375,-0.9432220458984375
1790107954425412600,5.94741259765625,0.445648193359375,0.6178436279296875,-0.872406005859375
1790107954435357700,5.957357666015625,0.3154296875,0.4766693115234375,-0.66064453125
1790107954445301800,5.9673017578125,0.3213653564453125,0.2696685791015625,-0.7375946044921875
1790107954455245800,5.977245849609375,0.4214630126953125,0.3494110107421875,-0.7855072021484375
1790107954465190700,5.987190673828125,0.3668212890625,0.558502197265625,-0.7444305419921875
1790107954475134700,5.997134765625,0.370849609375,0.5423431396484375,-0.7523956298828125
1790107954485078500,6.00707861328125,0.33770751953125,0.5022125244140625,-0.6489410400390625
1790107954495023600,6.017023681640625,0.2477264404296875,0.5304718017578125,-0.5247039794921875
1790107954504967700,6.0269677734375,0.2620391845703125,0.544464111328125,-0.528961181640625
1790107954514911700,6.036911865234375,0.3991546630859375,0.56610107421875,-0.5887451171875
1790107954524856600,6.046856689453125,0.5311126708984375,0.591766357421875,-0.586517333984375
1790107954534800600,6.056800537109375,0.5185699462890625,0.5392608642578125,-0.5669097900390625
1790107954544744700,6.06674462890625,0.5245208740234375,0.52349853515625,-0.533477783203125
1790107954554689500,6.076689453125,0.5493316650390625,0.5431060791015625,-0.5764312744140625
1790107954564633600,6.086633544921875,0.6048736572265625,0.734405517578125,-0.630340576171875
1790107954574577700,6.09657763671875,0.365936279296875,0.927764892578125,-0.534698486328125
1790107954584522800,6.106522705078125,0.3268890380859375,0.921051025390625,-0.5467987060546875
1790107954594466600,6.116466552734375,0.4630279541015625,0.752685546875,-0.6866302490234375
1790107954604410600,6.12641064453125,0.320220947265625,0.5085296630859375,-0.574981689453125
1790107954614355500,6.13635546875,0.309051513671875,0.405426025390625,-0.5706634521484375
1790107954624299800,6.1462998046875,0.2469940185546875,0.9745635986328125,-0.529205322265625
1790107954634244600,6.15624462890625,0.632659912109375,1.1144866943359375,-0.6125640869140625
1790107954644188700,6.166188720703125,0.5928192138671875,0.70709228515625,-0.4803009033203125
1790107954654132500,6.176132568359375,0.2770233154296875,0.67474365234375,-0.55633544921875
1790107954664077800,6.186077880859375,0.2754058837890625,0.6500244140625,-0.4624481201171875
1790107954674021600,6.196021728515625,0.3648834228515625,0.44757080078125,-0.4119415283203125
1790107954683965700,6.205965576171875,0.2884368896484375,0.565032958984375,-0.3553924560546875
1790107954693910500,6.21591064453125,0.157257080078125,0.642059326171875,-0.3744354248046875
1790107954703854600,6.2258544921875,0.069976806640625,0.7280426025390625,-0.4694976806640625
1790107954713798700,6.235798583984375,0.1596221923828125,0.773345947265625,-0.5361785888671875
1790107954723744000,6.245743896484375,0.2160491943359375,0.9537811279296875,-0.5872344970703125
1790107954733687800,6.255687744140625,0.4244537353515625,1.14849853515625,-0.864013671875
1790107954743632000,6.2656318359375,0.201019287109375,1.1100006103515625,-0.7163848876953125
1790107954753577000,6.275576904296875,-0.15203857421875,0.8250579833984375,-0.17803955078125
1790107954763521000,6.28552099609375,0.0787200927734375,0.255035400390625,-0.0182342529296875
1790107954773464800,6.29546484375,0.2313079833984375,0.0598297119140625,-0.0145416259765625
1790107954783410000,6.305409912109375,0.2099761962890625,0.0578765869140625,-0.040313720703125
1790107954793354000,6.31535400390625,0.18341064453125,0.0765533447265625,-0.04241943359375
1790107954803298000,6.325298095703125,0.3379364013671875,0.1261138916015625,-0.1486053466796875
1790107954813243000,6.335242919921875,0.6150360107421875,0.231597900390625,-0.29937744140625
1790107954823187000,6.34518701171875,1.051666259765625,0.4659576416015625,-0.49774169921875
1790107954833132000,6.355132080078125,1.3517913818359375,0.8255462646484375,-0.9437103271484375
1790107954843076000,6.365076171875,1.0725555419921875,1.16815185546875,-1.4582366943359375
1790107954853020000,6.37502001953125,0.6881561279296875,1.64459228515625,-1.77783203125
1790107954862965000,6.384965087890625,0.48931884765625,2.16046142578125,-1.7262115478515625
1790107954872908800,6.39490869140625,0.228179931640625,2.0450439453125,-1.43389892578125
1790107954882853000,6.40485302734375,0.1939239501953125,1.4951629638671875,-1.0001220703125
1790107954892798000,6.4147978515625,0.2452239990234375,1.0665130615234375,-0.5843048095703125
1790107954902742000,6.424741943359375,0.14178466796875,0.8171234130859375,-0.4028167724609375
1790107954912685800,6.434685791015625,-0.0545196533203125,0.64117431640625,-0.3050689697265625
1790107954922631000,6.444630859375,-0.085723876953125,0.5962371826171875,-0.223358154296875
1790107954932575000,6.454574951171875,0.0029754638671875,0.584320068359375,-0.1343994140625
1790107954942519000,6.46451904296875,0.07891845703125,0.5787200927734375,-0.08526611328125
1790107954952464000,6.4744638671875,0.126861572265625,0.6343841552734375,-0.117034912109375
1790107954962408000,6.484407958984375,0.20281982421875,0.7527923583984375,-0.2344970703125
1790107954972352000,6.49435205078125,0.2661895751953125,0.86529541015625,-0.3826904296875
1790107954982296800,6.504296875,0.2311553955078125,0.9362335205078125,-0.4311981201171875
1790107954992241000,6.514240966796875,0.090423583984375,0.908294677734375,-0.430511474609375
1790107955002185000,6.52418505859375,0.038055419921875,0.8587188720703125,-0.443634033203125
1790107955012130000,6.534130126953125,0.010528564453125,0.839111328125,-0.4802093505859375
1790107955022074000,6.54407421875,-0.0172576904296875,0.713226318359375,-0.5248565673828125
1790107955032019000,6.55401904296875,0.04046630859375,0.74114990234375,-0.5283966064453125
1790107955041962800,6.563962646484375,0.11627197265625,0.801025390625,-0.5316619873046875
1790107955051906800,6.57390673828125,0.152587890625,0.7364501953125,-0.56591796875
1790107955061852000,6.583851806640625,0.1521759033203125,0.649505615234375,-0.6286163330078125
1790107955071796000,6.5937958984375,0.2051849365234375,0.670379638671875,-0.723907470703125
1790107955081739800,6.60373974609375,0.3752288818359375,0.7639617919921875,-0.7675018310546875
1790107955091684900,6.613684814453125,0.4877471923828125,0.902587890625,-0.8673858642578125
1790107955101629000,6.62362890625,0.533294677734375,1.077117919921875,-0.93878173828125
1790107955111573000,6.633572998046875,0.513031005859375,1.17913818359375,-0.992523193359375
1790107955121517800,6.643517822265625,0.4398651123046875,1.23541259765625,-1.0199432373046875
1790107955131462000,6.6534619140625,0.4117279052734375,1.3221282958984375,-0.891387939453125
1790107955141405700,6.66340576171875,0.2183990478515625,1.0959014892578125,-0.68603515625
1790107955151351000,6.67335107421875,0.2794036865234375,1.06549072265625,-0.516448974609375
1790107955161294800,6.683294921875,0.1845245361328125,1.0223388671875,-0.48138427734375
1790107955171239000,6.693239013671875,0.0387420654296875,0.7591400146484375,-0.54510498046875
1790107955181183700,6.703183837890625,-0.1156005859375,0.4938812255859375,-0.65301513671875
1790107955191128000,6.713128173828125,-0.3880615234375,0.3971405029296875,-0.795989990234375
1790107955201071900,6.72307177734375,-0.412200927734375,0.2264862060546875,-0.9576873779296875
1790107955211017000,6.733016845703125,-0.26251220703125,-0.080352783203125,-1.10345458984375
1790107955220960800,6.742960693359375,-0.1851806640625,0.040924072265625,-1.1748504638671875
1790107955230906000,6.752906005859375,-0.1015777587890625,0.17413330078125,-1.176422119140625
1790107955240850000,6.762849853515625,0.012542724609375,0.1860198974609375,-1.12237548828125
1790107955250794000,6.7727939453125,0.0910186767578125,0.1444549560546875,-1.00836181640625
1790107955260738800,6.78273876953125,0.113861083984375,0.123748779296875,-0.99053955078125
1790107955270683000,6.792682861328125,0.1382598876953125,0.119537353515625,-1.0272064208984375
1790107955280627000,6.802626953125,0.091217041015625,0.279998779296875,-0.998504638671875
1790107955290572000,6.812572021484375,0.040069580078125,0.5772705078125,-0.9517669677734375
1790107955300515800,6.822515869140625,0.0534210205078125,0.791290283203125,-0.977691650390625
1790107955310460000,6.8324599609375,0.0955047607421875,0.915924072265625,-0.9116973876953125
1790107955320405000,6.842405029296875,0.1727752685546875,1.1244659423828125,-0.8066864013671875
1790107955330349000,6.85234912109375,0.232330322265625,1.3455963134765625,-0.659942626953125
1790107955340292900,6.86229296875,0.285888671875,0.8564605712890625,-0.230255126953125
1790107955350238000,6.872238037109375,0.281890869140625,-1.6953277587890625,0.8938140869140625
1790107955360182000,6.88218212890625,0.1171417236328125,1.4378662109375,-1.159698486328125
1790107955370126000,6.8921259765625,0.18865966796875,1.22467041015625,-1.2640228271484375
1790107955380071000,6.90207080078125,0.3499908447265625,1.195037841796875,-1.046112060546875
1790107955390015000,6.912014892578125,0.5151214599609375,1.3195953369140625,-1.1402435302734375
1790107955399958800,6.921958740234375,0.5749359130859375,1.31097412109375,-1.0245208740234375
1790107955409904000,6.931904052734375,0.5374603271484375,1.2981109619140625,-0.8058319091796875
1790107955419848000,6.941847900390625,0.566162109375,1.2367401123046875,-0.7758636474609375
1790107955429792000,6.9517919921875,0.5720367431640625,1.1466064453125,-0.7360687255859375
1790107955439736800,6.96173681640625,0.4817962646484375,1.0760955810546875,-0.7502593994140625
1790107955449681200,6.97168115234375,0.2827911376953125,0.9542236328125,-0.8588104248046875
1790107955459626000,6.9816259765625,0.139892578125,0.8330535888671875,-0.9201812744140625
1790107955469570000,6.991570068359375,0.0097503662109375,0.7116241455078125,-1.164703369140625
1790107955479513900,7.001513916015625,-0.15374755859375,0.5334625244140625,-1.4818115234375
1790107955489459000,7.011458984375,-0.071533203125,0.5008544921875,-1.480255126953125
1790107955499403000,7.021403076171875,0.0953216552734375,0.5221710205078125,-1.26287841796875
1790107955509347000,7.03134716796875,0.1451263427734375,0.487762451171875,-1.0513458251953125
1790107955519292000,7.0412919921875,0.1559600830078125,0.4888763427734375,-0.95697021484375
1790107955529235700,7.051235595703125,0.1333160400390625,0.402069091796875,-0.8511199951171875
1790107955539180000,7.061179931640625,0.1015777587890625,0.170166015625,-0.7069549560546875
1790107955549124900,7.071124755859375,0.12139892578125,-0.0753021240234375,-0.504150390625
1790107955559069000,7.08106884765625,0.0546875,-0.2477264404296875,-0.4052886962890625
1790107955569013000,7.091012939453125,0.029693603515625,-0.22802734375,-0.4007568359375
1790107955578958000,7.1009580078125,0.10369873046875,-0.087249755859375,-0.4975128173828125
1790107955588902000,7.11090185546875,0.138458251953125,0.029998779296875,-0.658416748046875
1790107955598846000,7.120845947265625,0.1750946044921875,0.2183074951171875,-0.819915771484375
1790107955608790800,7.130790771484375,0.2641754150390625,0.433502197265625,-1.030914306640625
1790107955618734800,7.14073486328125,0.381378173828125,0.6455841064453125,-1.2369384765625
1790107955628679000,7.150678955078125,0.4040374755859375,0.761260986328125,-1.35760498046875
1790107955638624000,7.1606240234375,0.278564453125,0.753631591796875,-1.3493499755859375
1790107955648567800,7.17056787109375,0.1836700439453125,0.6666259765625,-1.2604827880859375
1790107955658513000,7.180512939453125,0.2509307861328125,0.5968170166015625,-1.1148223876953125
1790107955668457000,7.19045703125,0.4107208251953125,0.5680694580078125,-0.9391632080078125
1790107955678401000,7.200401123046875,0.4742279052734375,0.516021728515625,-0.823638916015625
1790107955688345900,7.210345947265625,0.3825531005859375,0.461273193359375,-0.749359130859375
1790107955698290000,7.2202900390625,0.2266082763671875,0.382293701171875,-0.693878173828125
1790107955708233700,7.230233642578125,0.106536865234375,0.29498291015625,-0.6703643798828125
1790107955718178800,7.2401787109375,0.0282135009765625,0.2730712890625,-0.656036376953125
1790107955728122600,7.25012255859375,-0.04443359375,0.307586669921875,-0.66619873046875
1790107955738066700,7.260066650390625,-0.0910491943359375,0.36614990234375,-0.722320556640625
1790107955748011500,7.270011474609375,-0.1417083740234375,0.39520263671875,-0.775299072265625
1790107955757955800,7.279955810546875,-0.1515655517578125,0.3952789306640625,-0.8460693359375
1790107955767899600,7.289899658203125,0.0946502685546875,0.321502685546875,-0.8390350341796875
1790107955777844700,7.2998447265625,0.0575408935546875,0.0971221923828125,-0.78546142578125
1790107955787788500,7.30978857421875,-0.097442626953125,0.38983154296875,-1.04888916015625
1790107955797732600,7.319732666015625,0.07489013671875,0.3119964599609375,-0.9983062744140625
1790107955807677700,7.329677734375,0.336273193359375,0.455413818359375,-0.8706817626953125
1790107955817621800,7.339621826171875,0.3015899658203125,0.5087738037109375,-0.7326812744140625
1790107955827565600,7.349565673828125,0.2525634765625,0.420989990234375,-0.552886962890625
1790107955837510700,7.3595107421875,0.238433837890625,0.2722930908203125,-0.5346527099609375
1790107955847454700,7.369454833984375,0.1786346435546875,0.1178131103515625,-0.5728912353515625
1790107955857399800,7.37939990234375,0.1113739013671875,0.0518798828125,-0.6365509033203125
1790107955867343600,7.389343505859375,0.0706024169921875,0.0813446044921875,-0.716583251953125
1790107955877287700,7.39928759765625,0.07208251953125,0.1358184814453125,-0.7950897216796875
1790107955887232800,7.409232666015625,0.1004180908203125,0.212158203125,-0.8433685302734375
1790107955897176800,7.4191767578125,0.1330718994140625,0.2941436767578125,-0.811553955078125
1790107955907120600,7.42912060546875,0.1715545654296875,0.3496246337890625,-0.7748870849609375
1790107955917065700,7.439065673828125,0.1892242431640625,0.342803955078125,-0.8222503662109375
1790107955927009500,7.449009521484375,0.1824798583984375,0.318695068359375,-0.831329345703125
1790107955936953900,7.458953857421875,0.196380615234375,0.3082733154296875,-0.771240234375
1790107955946898700,7.468898681640625,0.189849853515625,0.2850799560546875,-0.732513427734375
1790107955956842800,7.4788427734375,0.1249237060546875,0.2830810546875,-0.720947265625
1790107955966786600,7.48878662109375,0.0532379150390625,0.276885986328125,-0.712646484375
1790107955976732000,7.49873193359375,0.027435302734375,0.2768707275390625,-0.7033233642578125
1790107955986675700,7.50867578125,-0.009521484375,0.2747650146484375,-0.7034912109375
1790107955996619800,7.518619873046875,0.00506591796875,0.2738037109375,-0.7568817138671875
1790107956006564600,7.528564697265625,0.038848876953125,0.2998809814453125,-0.7698974609375
1790107956016508700,7.5385087890625,0.10888671875,0.372100830078125,-0.7849884033203125
1790107956026452700,7.54845263671875,0.1901092529296875,0.414520263671875,-0.8207244873046875
1790107956036397600,7.5583974609375,0.2345733642578125,0.38922119140625,-0.8506011962890625
1790107956046341600,7.568341552734375,0.226593017578125,0.3504180908203125,-0.8423309326171875
1790107956056285700,7.57828564453125,0.2119293212890625,0.3710479736328125,-0.84686279296875
1790107956066230800,7.588230712890625,0.2195892333984375,0.3853759765625,-0.880218505859375
1790107956076174800,7.5981748046875,0.2565155029296875,0.309112548828125,-0.9312591552734375
1790107956086118700,7.60811865234375,0.267669677734375,0.2189178466796875,-0.925689697265625
1790107956096063500,7.6180634765625,0.1603546142578125,0.2127685546875,-0.8257598876953125
1790107956106007600,7.628007568359375,0.0878448486328125,0.34625244140625,-0.762237548828125
1790107956115952600,7.63795263671875,0.13861083984375,0.5498046875,-0.760986328125
1790107956125896700,7.647896728515625,0.202545166015625,0.7462921142578125,-0.801605224609375
1790107956135840800,7.6578408203125,0.219390869140625,0.8780670166015625,-0.8997650146484375
1790107956145785600,7.66778564453125,0.100799560546875,0.8079071044921875,-0.9381103515625
1790107956155729700,7.677729736328125,-0.07080078125,0.422454833984375,-0.7444915771484375
1790107956165673700,7.687673828125,-0.084808349609375,0.503692626953125,-0.764007568359375
1790107956175618600,7.69761865234375,-0.09197998046875,0.8506622314453125,-0.949249267578125
1790107956185562600,7.707562744140625,-0.115966796875,0.9277801513671875,-1.065887451171875
1790107956195506700,7.717506591796875,-0.0935211181640625,0.6705322265625,-1.24261474609375
1790107956205451800,7.72745166015625,-0.0158843994140625,0.4737091064453125,-1.2929229736328125
1790107956215395600,7.7373955078125,0.0309906005859375,0.3936614990234375,-1.216094970703125
1790107956225339600,7.747339599609375,-0.0110321044921875,0.3446502685546875,-1.1243438720703125
1790107956235284500,7.757284423828125,0.0038604736328125,0.4451141357421875,-1.06585693359375
1790107956245228800,7.767228759765625,0.0637054443359375,0.5717010498046875,-0.9369354248046875
1790107956255172600,7.777172607421875,0.037841796875,0.6094512939453125,-0.83349609375
1790107956265117700,7.78711767578125,0.0789947509765625,0.531707763671875,-0.7667388916015625
1790107956275061500,7.7970615234375,0.102447509765625,0.5419769287109375,-0.832611083984375
1790107956285005600,7.807005615234375,0.050048828125,0.6053619384765625,-1.0023651123046875
1790107956294950700,7.81695068359375,0.03369140625,0.591461181640625,-1.030181884765625
1790107956304894700,7.826894775390625,-0.0180206298828125,0.5327301025390625,-1.0090789794921875
1790107956314838500,7.836838623046875,-0.1005401611328125,0.507110595703125,-1.0032501220703125
1790107956324783600,7.84678369140625,-0.15264892578125,0.476959228515625,-0.9892730712890625
1790107956334727700,7.856727783203125,-0.1610260009765625,0.4396514892578125,-0.9299163818359375
1790107956344672800,7.8666728515625,-0.1683502197265625,0.4878692626953125,-0.8859710693359375
1790107956354616600,7.876616455078125,-0.0600128173828125,0.4663238525390625,-0.803009033203125
1790107956364560600,7.886560546875,-0.0191192626953125,0.5319366455078125,-0.8176422119140625
1790107956374505700,7.896505615234375,-0.0521087646484375,0.6505279541015625,-0.904266357421875
1790107956384449800,7.90644970703125,-0.1308746337890625,0.6889495849609375,-0.89080810546875
1790107956394393600,7.9163935546875,-0.1496429443359375,0.714111328125,-0.8310546875
1790107956404338700,7.926338623046875,-0.1432647705078125,0.6964874267578125,-0.7415313720703125
1790107956414282500,7.936282470703125,-0.1025390625,0.75238037109375,-0.617034912109375
1790107956424226800,7.946226806640625,-0.01043701171875,0.8816986083984375,-0.608367919921875
1790107956434171600,7.956171630859375,-0.0127410888671875,0.884429931640625,-0.6332550048828125
1790107956444115700,7.96611572265625,-0.0302276611328125,0.8228759765625,-0.6770477294921875
1790107956454059500,7.9760595703125,0.01568603515625,0.762420654296875,-0.7503814697265625
1790107956464004900,7.9860048828125,0.0313262939453125,0.74072265625,-0.819976806640625
1790107956473948700,7.99594873046875,0.031219482421875,0.772064208984375,-0.8407135009765625
1790107956483892700,8.005892822265626,0.0302734375,0.8310699462890625,-0.7968292236328125
1790107956493837600,8.015837646484375,0.034423828125,0.93084716796875,-0.7105865478515625
1790107956503782000,8.025781982421876,0.0148468017578125,1.00518798828125,-0.6964263916015625
1790107956513725700,8.0357255859375,0.041290283203125,0.9131622314453125,-0.7755279541015625
1790107956523670800,8.0456708984375,0.04156494140625,0.8228759765625,-0.843414306640625
1790107956533614600,8.055614501953125,0.01959228515625,0.7625885009765625,-0.76544189453125
1790107956543559700,8.0655595703125,0.0599822998046875,0.618560791015625,-0.7094268798828125
1790107956553503700,8.075503662109375,0.078125,0.428955078125,-0.777862548828125
1790107956563447800,8.08544775390625,0.0883941650390625,0.4061431884765625,-0.871490478515625
1790107956573392600,8.095392578125,0.047576904296875,0.50775146484375,-0.7905426025390625
1790107956583336700,8.105336669921876,0.0092010498046875,0.6530914306640625,-0.7896881103515625
1790107956593280800,8.11528076171875,0.091583251953125,0.6949920654296875,-0.8307342529296875
1790107956603225600,8.1252255859375,0.099639892578125,0.73974609375,-0.752105712890625
1790107956613169700,8.135169677734375,0.1002349853515625,0.7055206298828125,-0.6923065185546875
1790107956623113700,8.14511376953125,0.0755157470703125,0.620513916015625,-0.6752166748046875
1790107956633058800,8.155058837890625,0.000701904296875,0.5761871337890625,-0.6641998291015625
1790107956643002600,8.165002685546876,-0.07244873046875,0.619781494140625,-0.6470184326171875
1790107956652946700,8.17494677734375,-0.120452880859375,0.687744140625,-0.664459228515625
1790107956662891500,8.1848916015625,-0.1130523681640625,0.739105224609375,-0.6931915283203125
1790107956672835600,8.194835693359375,-0.062530517578125,0.770782470703125,-0.6964874267578125
1790107956682780000,8.20477978515625,0.0149383544921875,0.775146484375,-0.709228515625
1790107956692724700,8.214724853515625,0.07366943359375,0.751251220703125,-0.7463836669921875
1790107956702668500,8.22466845703125,0.0748748779296875,0.717041015625,-0.8296356201171875
1790107956712612600,8.234612548828125,0.0450286865234375,0.679290771484375,-0.921722412109375
1790107956722557400,8.244557373046876,0.0369873046875,0.6327056884765625,-0.9689788818359375
1790107956732501500,8.25450146484375,0.0153045654296875,0.595611572265625,-0.9622802734375
1790107956742445600,8.264445556640625,-0.005859375,0.5650482177734375,-0.9356231689453125
1790107956752390400,8.274390380859375,-0.01763916015625,0.55450439453125,-0.8927459716796875
1790107956762334500,8.28433447265625,-0.0111083984375,0.55572509765625,-0.852996826171875
1790107956772279600,8.294279541015625,-0.00244140625,0.5641632080078125,-0.809814453125
1790107956782223400,8.304223388671875,-0.00250244140625,0.5877838134765625,-0.8087310791015625
1790107956792167400,8.31416748046875,0.0009613037109375,0.6029052734375,-0.8328399658203125
1790107956802112300,8.3241123046875,0.0118865966796875,0.6030731201171875,-0.85638427734375
1790107956812056600,8.334056640625,0.0503997802734375,0.582122802734375,-0.85205078125
1790107956822000400,8.34400048828125,0.0702667236328125,0.54608154296875,-0.838714599609375
1790107956831945500,8.353945556640625,0.05865478515625,0.5134429931640625,-0.8532562255859375
1790107956841889300,8.36388916015625,0.032989501953125,0.4857025146484375,-0.9001007080078125
1790107956851833300,8.373833251953124,0.03656005859375,0.469146728515625,-0.9332427978515625
1790107956861778400,8.3837783203125,0.0796051025390625,0.4669342041015625,-0.95013427734375
1790107956871722500,8.393722412109375,0.1318511962890625,0.477386474609375,-0.9774017333984375
1790107956881666300,8.403666259765625,0.135009765625,0.4926910400390625,-0.9945831298828125
1790107956891611400,8.413611328125,0.100189208984375,0.5120086669921875,-0.9926300048828125
1790107956901555500,8.423555419921875,0.0751190185546875,0.524658203125,-1.003814697265625
1790107956911499500,8.43349951171875,0.0630950927734375,0.5211334228515625,-1.045013427734375
1790107956921444400,8.4434443359375,0.0587158203125,0.5032501220703125,-1.0784149169921875
1790107956931388400,8.453388427734374,0.0512847900390625,0.489532470703125,-1.0899658203125
1790107956941333500,8.46333349609375,0.04736328125,0.492279052734375,-1.0718994140625
1790107956951277600,8.473277587890625,0.077850341796875,0.486968994140625,-1.030548095703125
1790107956961221400,8.483221435546875,0.1328582763671875,0.4814605712890625,-0.9531097412109375
1790107956971166500,8.49316650390625,0.15142822265625,0.4579010009765625,-0.869537353515625
1790107956981110300,8.5031103515625,0.1402130126953125,0.4288330078125,-0.82733154296875
1790107956991054600,8.5130546875,0.1221771240234375,0.410247802734375,-0.8250732421875
1790107957000999400,8.52299951171875,0.0950164794921875,0.4066009521484375,-0.848297119140625
1790107957010943500,8.532943603515625,0.0664825439453125,0.415313720703125,-0.8796844482421875
1790107957020887300,8.54288720703125,0.06085205078125,0.4268646240234375,-0.922119140625
1790107957030832600,8.55283251953125,0.0966796875,0.4352569580078125,-0.9494476318359375
1790107957040776400,8.5627763671875,0.1248779296875,0.454193115234375,-0.9709930419921875
1790107957050720500,8.572720458984374,0.1004638671875,0.475830078125,-1.0219573974609375
1790107957060665300,8.582665283203125,0.0981903076171875,0.4895172119140625,-1.034027099609375
1790107957070609400,8.592609375,0.0856475830078125,0.45867919921875,-0.9487152099609375
1790107957080553500,8.602553466796875,0.0680999755859375,0.4147186279296875,-0.8418121337890625
1790107957090498600,8.61249853515625,0.0521697998046875,0.400665283203125,-0.7990875244140625
1790107957100442400,8.6224423828125,0.0758209228515625,0.4043731689453125,-0.8105926513671875
1790107957110386400,8.632386474609374,0.1049957275390625,0.4251251220703125,-0.8406829833984375
1790107957120331500,8.64233154296875,0.108306884765625,0.442138671875,-0.8732147216796875
1790107957130275600,8.652275634765624,0.0868377685546875,0.4423370361328125,-0.9231719970703125
1790107957140219400,8.662219482421875,0.045654296875,0.4322357177734375,-0.9456939697265625
1790107957150164500,8.67216455078125,0.0671234130859375,0.4378204345703125,-0.9087982177734375
1790107957160108300,8.6821083984375,0.1016845703125,0.4456024169921875,-0.81231689453125
1790107957170053400,8.692053466796875,0.0938873291015625,0.4311981201171875,-0.7307586669921875
1790107957179997400,8.70199755859375,0.0636444091796875,0.410552978515625,-0.68572998046875
1790107957189941500,8.71194140625,0.0536346435546875,0.38592529296875,-0.6760711669921875
1790107957199886300,8.72188623046875,0.0217742919921875,0.39239501953125,-0.721954345703125
1790107957209830400,8.731830322265624,-0.057891845703125,0.4233245849609375,-0.7977447509765625
1790107957219774500,8.7417744140625,-0.1022491455078125,0.4586029052734375,-0.78289794921875
1790107957229719300,8.75171923828125,-0.09613037109375,0.47052001953125,-0.724273681640625
1790107957239663400,8.761663330078125,-0.0617218017578125,0.450653076171875,-0.67254638671875
1790107957249607400,8.771607421875,0.0592498779296875,0.3970947265625,-0.6339111328125
1790107957259552500,8.781552490234375,0.2061614990234375,0.355682373046875,-0.6009979248046875
1790107957269496300,8.791496337890624,0.266082763671875,0.3134002685546875,-0.602447509765625
1790107957279440400,8.8014404296875,0.2683258056640625,0.2844390869140625,-0.6529083251953125
1790107957289385200,8.81138525390625,0.223602294921875,0.2762298583984375,-0.685272216796875
1790107957299329500,8.82132958984375,0.152252197265625,0.3025054931640625,-0.7520599365234375
1790107957309273600,8.831273681640624,0.13690185546875,0.315460205078125,-0.7947235107421875
1790107957319218400,8.841218505859375,0.1336212158203125,0.3176116943359375,-0.77362060546875
1790107957329162200,8.851162353515624,0.1170654296875,0.3097991943359375,-0.7203521728515625
1790107957339106300,8.861106201171875,0.100677490234375,0.2924957275390625,-0.69378662109375
1790107957349051400,8.871051513671874,0.111083984375,0.2717742919921875,-0.66009521484375
1790107957358995500,8.880995361328125,0.1345672607421875,0.2579498291015625,-0.5969696044921875
1790107957368940300,8.890940185546874,0.1546478271484375,0.258758544921875,-0.5305328369140625
1790107957378884400,8.90088427734375,0.1670379638671875,0.25726318359375,-0.5156707763671875
1790107957388828400,8.910828369140624,0.1476287841796875,0.249542236328125,-0.567657470703125
1790107957398773500,8.9207734375,0.12762451171875,0.24365234375,-0.643096923828125
1790107957408717300,8.93071728515625,0.1304473876953125,0.2618408203125,-0.7128448486328125
1790107957418661400,8.940661376953125,0.124053955078125,0.3037872314453125,-0.76190185546875
1790107957428606500,8.9506064453125,0.1051177978515625,0.35260009765625,-0.7867431640625
1790107957438550500,8.960550537109375,0.0868377685546875,0.4005584716796875,-0.81072998046875
1790107957448494300,8.970494384765624,0.070404052734375,0.448486328125,-0.8340911865234375
1790107957458439400,8.980439453125,0.06304931640625,0.495330810546875,-0.8382415771484375
1790107957468383200,8.99038330078125,0.0722198486328125,0.5400848388671875,-0.83319091796875
1790107957478327600,9.00032763671875,0.079376220703125,0.5708160400390625,-0.825042724609375
1790107957488272400,9.0102724609375,0.0812530517578125,0.58843994140625,-0.8351898193359375
1790107957498216400,9.020216552734375,0.083984375,0.5980987548828125,-0.869476318359375
1790107957508160300,9.03016015625,0.0883331298828125,0.611572265625,-0.922882080078125
1790107957518105600,9.040105712890625,0.1016845703125,0.6214447021484375,-0.9686126708984375
1790107957528049400,9.05004931640625,0.1265106201171875,0.621795654296875,-1.0154266357421875
1790107957537993500,9.059993408203125,0.1462554931640625,0.61529541015625,-1.0526885986328125
1790107957547938300,9.069938232421874,0.158172607421875,0.578125,-1.0917205810546875
1790107957557882600,9.079882568359375,0.16162109375,0.535675048828125,-1.099456787109375
1790107957567826400,9.089826416015624,0.1726226806640625,0.5115966796875,-1.0897216796875
1790107957577771500,9.099771484375,0.144287109375,0.496124267578125,-1.08709716796875
1790107957587715300,9.10971533203125,0.10284423828125,0.4843292236328125,-1.0862579345703125
1790107957597660400,9.119660400390625,0.109588623046875,0.49346923828125,-1.0783538818359375
1790107957607604500,9.1296044921875,0.1230926513671875,0.5295562744140625,-1.049072265625
1790107957617548500,9.139548583984375,0.1047210693359375,0.554718017578125,-1.0019378662109375
1790107957627493400,9.149493408203124,0.09210205078125,0.5797882080078125,-0.964569091796875
1790107957637437400,9.1594375,0.0833587646484375,0.6024627685546875,-0.93475341796875
1790107957647381500,9.169381591796874,0.0661468505859375,0.6021575927734375,-0.9278106689453125
1790107957657326300,9.179326416015625,0.04974365234375,0.5706787109375,-0.9258575439453125
1790107957667270400,9.1892705078125,0.0484771728515625,0.54449462890625,-0.9134368896484375
1790107957677214500,9.19921435546875,0.046051025390625,0.5223846435546875,-0.90093994140625
1790107957687159600,9.20915966796875,0.040679931640625,0.487213134765625,-0.8921661376953125
1790107957697103600,9.219103515625,0.0380401611328125,0.4648284912109375,-0.88031005859375
1790107957707047400,9.22904736328125,0.0350189208984375,0.475738525390625,-0.8485870361328125
1790107957716992300,9.2389921875,0.0344696044921875,0.4961700439453125,-0.814239501953125
1790107957726936300,9.248936279296874,0.0544586181640625,0.52685546875,-0.7842254638671875
1790107957736880400,9.25888037109375,0.0476531982421875,0.56011962890625,-0.7530975341796875
1790107957746825500,9.268825439453124,0.0323028564453125,0.6047210693359375,-0.735260009765625
1790107957756769500,9.27876953125,0.0129852294921875,0.6666717529296875,-0.7076416015625
1790107957766713300,9.28871337890625,-0.036224365234375,0.734466552734375,-0.70013427734375
1790107957776658200,9.298658203125,-0.068572998046875,0.832794189453125,-0.6620025634765625
1790107957786602500,9.3086025390625,-0.064788818359375,0.904296875,-0.6526031494140625
1790107957796547300,9.31854736328125,-0.0355072021484375,0.94573974609375,-0.66485595703125
1790107957806491400,9.328491455078124,-0.0221405029296875,0.939788818359375,-0.689208984375
1790107957816435500,9.338435546875,0.0337677001953125,0.9309844970703125,-0.705322265625
1790107957826380500,9.348380615234374,0.1016693115234375,0.922882080078125,-0.795989990234375
1790107957836324400,9.358324462890625,0.0682220458984375,0.915283203125,-0.8892364501953125
1790107957846268400,9.368268310546876,0.122589111328125,0.86187744140625,-0.875396728515625
1790107957856213200,9.378213134765625,0.2567901611328125,0.851165771484375,-0.7594146728515625
1790107957866157300,9.3881572265625,0.324371337890625,0.87799072265625,-0.6751251220703125
1790107957876101400,9.398101318359375,0.215576171875,0.871917724609375,-0.6800537109375
1790107957886046500,9.40804638671875,0.1259002685546875,0.8421478271484375,-0.722564697265625
1790107957895990300,9.417990234375,0.157623291015625,0.7975921630859375,-0.8560943603515625
1790107957905934300,9.427934326171876,0.21185302734375,0.775604248046875,-1.0451202392578125
1790107957915879400,9.43787939453125,0.186767578125,0.7389984130859375,-1.1837921142578125
1790107957925823500,9.447823486328126,0.0750579833984375,0.703125,-1.13751220703125
1790107957935767300,9.457767333984375,0.029205322265625,0.66534423828125,-1.07269287109375
1790107957945712400,9.46771240234375,0.01556396484375,0.6376495361328125,-0.9850921630859375
1790107957955656200,9.47765625,-0.030181884765625,0.6381072998046875,-0.8561859130859375
1790107957965600500,9.4876005859375,-0.0238189697265625,0.6461334228515625,-0.7322540283203125
1790107957975545300,9.49754541015625,0.072357177734375,0.6486968994140625,-0.6409454345703125
1790107957985489400,9.507489501953126,0.1324462890625,0.674560546875,-0.563751220703125
1790107957995434200,9.517434326171875,0.111907958984375,0.7388153076171875,-0.509918212890625
1790107958005378600,9.527378662109374,0.071258544921875,0.7951202392578125,-0.48309326171875
1790107958015322400,9.537322265625,0.063568115234375,0.827789306640625,-0.4889068603515625
1790107958025267500,9.547267333984376,0.079345703125,0.828704833984375,-0.4984893798828125
1790107958035211300,9.557211181640625,0.0858306884765625,0.8320465087890625,-0.509002685546875
1790107958045155300,9.5671552734375,0.078277587890625,0.83990478515625,-0.53619384765625
1790107958055100400,9.577100341796875,0.0720367431640625,0.8436737060546875,-0.587799072265625
1790107958065044500,9.58704443359375,0.0741424560546875,0.8464508056640625,-0.6290130615234375
1790107958074988300,9.59698828125,0.0637054443359375,0.8421783447265625,-0.675750732421875
1790107958084933400,9.606933349609376,0.06671142578125,0.803619384765625,-0.734954833984375
1790107958094877400,9.61687744140625,0.09637451171875,0.7475128173828125,-0.7962646484375
1790107958104821500,9.626821533203126,0.1166839599609375,0.7039642333984375,-0.8315277099609375
1790107958114766300,9.636766357421875,0.1064453125,0.6542205810546875,-0.8703155517578125
1790107958124710400,9.64671044921875,0.0824127197265625,0.5905609130859375,-0.9137115478515625
1790107958134654200,9.656654296875,0.0506744384765625,0.5380859375,-0.9608612060546875
1790107958144599600,9.666599609375,0.0332489013671875,0.4952850341796875,-1.00067138671875
1790107958154543400,9.67654345703125,0.03729248046875,0.4478607177734375,-1.03802490234375
1790107958164487400,9.6864873046875,0.0665130615234375,0.4147796630859375,-1.0444183349609375
1790107958174432300,9.696432373046875,0.077484130859375,0.4083404541015625,-1.017333984375
1790107958184376600,9.70637646484375,0.064178466796875,0.4233551025390625,-0.9976654052734375
1790107958194321400,9.7163212890625,0.07098388671875,0.442352294921875,-0.9782867431640625
1790107958204265500,9.726265380859376,0.1064910888671875,0.4629364013671875,-0.935394287109375
1790107958214209300,9.736209228515625,0.1127471923828125,0.471221923828125,-0.920684814453125
1790107958224154400,9.746154296875,0.105621337890625,0.4525604248046875,-0.927642822265625
1790107958234098400,9.756098388671875,0.0986328125,0.43585205078125,-0.9232025146484375
1790107958244042500,9.76604248046875,0.09149169921875,0.452484130859375,-0.925750732421875
1790107958253987300,9.7759873046875,0.0798797607421875,0.46539306640625,-0.9354248046875
1790107958263931400,9.785931396484376,0.068511962890625,0.494140625,-0.9594268798828125
1790107958273875500,9.79587548828125,0.0547637939453125,0.5469970703125,-0.992431640625
1790107958283820300,9.8058203125,0.0404052734375,0.5901336669921875,-1.038055419921875
1790107958293764400,9.815764404296875,0.0300445556640625,0.6239166259765625,-1.06512451171875
1790107958303708400,9.82570849609375,0.0614013671875,0.6500244140625,-1.0574493408203125
1790107958313653500,9.835653564453125,0.0633544921875,0.650238037109375,-1.0369415283203125
1790107958323597300,9.845597412109376,0.0625762939453125,0.6299896240234375,-1.0000457763671875
1790107958333541400,9.855541259765625,0.0531005859375,0.57952880859375,-0.966644287109375
1790107958343486200,9.865486328125,0.07208251953125,0.53973388671875,-0.912872314453125
1790107958353430300,9.87543017578125,0.1231231689453125,0.5149688720703125,-0.8654937744140625
1790107958363374600,9.88537451171875,0.13983154296875,0.50146484375,-0.850189208984375
1790107958373319400,9.8953193359375,0.140869140625,0.5310821533203125,-0.881195068359375
1790107958383263200,9.90526318359375,0.1439361572265625,0.5330810546875,-0.9145050048828125
1790107958393207300,9.915207275390625,0.140594482421875,0.530487060546875,-0.868560791015625
1790107958403152400,9.92515234375,0.096771240234375,0.5288543701171875,-0.7735137939453125
1790107958413096400,9.935096435546875,0.082763671875,0.518585205078125,-0.68841552734375
1790107958423041300,9.945041259765626,0.0885772705078125,0.4918670654296875,-0.634033203125
1790107958432985300,9.9549853515625,0.08868408203125,0.4294891357421875,-0.635528564453125
1790107958442929400,9.964929443359376,0.109771728515625,0.3726654052734375,-0.6289215087890625
1790107958452874500,9.97487451171875,0.1141357421875,0.356170654296875,-0.6529693603515625
1790107958462818300,9.984818359375,0.064056396484375,0.3668060302734375,-0.6873779296875
1790107958472762400,9.994762451171875,-0.0475311279296875,0.4029083251953125,-0.665008544921875
1790107958482707500,10.00470751953125,-0.1256256103515625,0.4268035888671875,-0.534942626953125
1790107958492651500,10.014651611328125,-0.0787811279296875,0.397216796875,-0.4449310302734375
1790107958502595300,10.02459521484375,0.08551025390625,0.21380615234375,-0.4857330322265625
1790107958512540400,10.03454052734375,0.2654571533203125,0.01177978515625,-0.5610504150390625
1790107958522484200,10.044484130859376,0.2349700927734375,0.06878662109375,-0.591156005859375
1790107958532428500,10.054428466796875,0.0546875,0.2635955810546875,-0.4708099365234375
1790107958542373400,10.064373291015626,-0.0569305419921875,0.3813629150390625,-0.381622314453125
1790107958552317400,10.0743173828125,0.0087738037109375,0.274658203125,-0.4957427978515625
1790107958562261200,10.08426123046875,0.1259765625,0.228485107421875,-0.60650634765625
1790107958572206600,10.09420654296875,0.207305908203125,0.265045166015625,-0.7254180908203125
1790107958582150400,10.104150390625,0.1905670166015625,0.30096435546875,-0.778778076171875
1790107958592095500,10.114095458984375,0.163848876953125,0.338104248046875,-0.7369384765625
1790107958602039300,10.124039306640626,0.1508636474609375,0.3716888427734375,-0.71624755859375
1790107958611983400,10.1339833984375,0.1172332763671875,0.369842529296875,-0.7691802978515625
1790107958621928400,10.143928466796876,0.0972137451171875,0.3483734130859375,-0.843475341796875
1790107958631872500,10.15387255859375,0.1048736572265625,0.3439178466796875,-0.8675384521484375
1790107958641816300,10.16381640625,0.1427154541015625,0.3543548583984375,-0.8315887451171875
1790107958651761400,10.173761474609375,0.1731414794921875,0.360107421875,-0.809844970703125
1790107958661705500,10.18370556640625,0.153656005859375,0.3564300537109375,-0.833892822265625
1790107958671649500,10.1936494140625,0.1367950439453125,0.3503875732421875,-0.8943634033203125
1790107958681594400,10.203594482421876,0.1371307373046875,0.3641204833984375,-0.9603271484375
1790107958691538400,10.213538330078125,0.16082763671875,0.3968963623046875,-0.9619293212890625
1790107958701482200,10.223482177734375,0.18646240234375,0.4392242431640625,-0.9472808837890625
1790107958711427300,10.23342724609375,0.1606292724609375,0.4766845703125,-0.9493560791015625
1790107958721372200,10.2433720703125,0.112945556640625,0.5033721923828125,-0.9308013916015625
1790107958731316000,10.25331591796875,0.09814453125,0.51959228515625,-0.90679931640625
1790107958741261300,10.26326123046875,0.0925140380859375,0.520660400390625,-0.8657073974609375
1790107958751205000,10.273205078125,0.0963592529296875,0.5224456787109375,-0.8022613525390625
1790107958761149200,10.283149169921876,0.1062164306640625,0.513580322265625,-0.753692626953125
1790107958771094000,10.293093994140625,0.105621337890625,0.495147705078125,-0.708709716796875
1790107958781038300,10.303038330078126,0.060791015625,0.4747772216796875,-0.6934356689453125
1790107958790983200,10.312983154296875,0.026763916015625,0.4585723876953125,-0.722503662109375
1790107958800927200,10.32292724609375,0.0359649658203125,0.44549560546875,-0.764862060546875
1790107958810871000,10.33287109375,0.0912628173828125,0.457489013671875,-0.8091278076171875
1790107958820816400,10.34281640625,0.1128692626953125,0.4905853271484375,-0.82720947265625
1790107958830760200,10.35276025390625,0.1003570556640625,0.5338134765625,-0.83563232421875
1790107958840704300,10.362704345703126,0.0922393798828125,0.5552825927734375,-0.8740997314453125
1790107958850649000,10.372649169921875,0.0737457275390625,0.56768798828125,-0.929534912109375
1790107958860593200,10.38259326171875,0.066131591796875,0.56768798828125,-0.9740142822265625
1790107958870537200,10.392537109375,0.0749969482421875,0.581207275390625,-1.0009613037109375
1790107958880482300,10.402482421875,0.097442626953125,0.63189697265625,-1.0172119140625
1790107958890426000,10.412426025390625,0.089202880859375,0.6812896728515625,-1.0214691162109375
1790107958900370200,10.4223701171875,0.0506134033203125,0.7027130126953125,-1.0424346923828125
1790107958910315300,10.432315185546875,-0.0034027099609375,0.7511749267578125,-1.0630950927734375
1790107958920259300,10.44225927734375,-0.0823974609375,0.8050384521484375,-1.062469482421875
1790107958930203100,10.452203125,-0.1528167724609375,0.8582611083984375,-1.0411376953125
1790107958940148200,10.462148193359376,-0.1565399169921875,0.939208984375,-0.9408416748046875
1790107958950092000,10.472092041015625,0.0085601806640625,1.02020263671875,-0.8423919677734375
1790107958960036400,10.482036376953126,0.28466796875,1.0659332275390625,-0.814483642578125
1790107958969981200,10.491981201171875,0.3465423583984375,1.093719482421875,-0.8723907470703125
1790107958979925200,10.50192529296875,0.121856689453125,1.057647705078125,-0.956787109375
1790107958989870000,10.5118701171875,-0.1476593017578125,1.0323486328125,-0.8464813232421875
1790107958999814100,10.521814208984376,-0.149871826171875,1.048614501953125,-0.7127532958984375
1790107959009758200,10.53175830078125,0.0840606689453125,0.978179931640625,-0.7587890625
1790107959019703000,10.541703125,0.22381591796875,0.8363189697265625,-0.89599609375
1790107959029647000,10.551647216796875,0.1556854248046875,0.7095489501953125,-0.9387054443359375
1790107959039591200,10.561591064453125,0.149200439453125,0.6407928466796875,-0.898406982421875
1790107959049536300,10.571536376953125,0.197113037109375,0.60906982421875,-0.8598175048828125
1790107959059480000,10.58147998046875,0.2526702880859375,0.574615478515625,-0.8990936279296875
1790107959069424000,10.591424072265625,0.2066192626953125,0.557159423828125,-0.9305877685546875
1790107959079369000,10.601368896484376,0.1282806396484375,0.57354736328125,-0.9129486083984375
1790107959089313300,10.611313232421875,0.1020050048828125,0.5864715576171875,-0.8677825927734375
1790107959099257300,10.62125732421875,0.12359619140625,0.5817108154296875,-0.8331451416015625
1790107959109202200,10.6312021484375,0.1364288330078125,0.56695556640625,-0.8054656982421875
1790107959119146000,10.64114599609375,0.087921142578125,0.5646514892578125,-0.7364501953125
1790107959129090000,10.651090087890625,0.006988525390625,0.5892791748046875,-0.6179656982421875
1790107959139035100,10.66103515625,-0.0220184326171875,0.6370697021484375,-0.500823974609375
1790107959148979200,10.670979248046875,0.0090484619140625,0.6779937744140625,-0.4171905517578125
1790107959158923300,10.68092333984375,0.051727294921875,0.70672607421875,-0.3545379638671875
1790107959168868000,10.6908681640625,0.0998992919921875,0.7281646728515625,-0.324127197265625
1790107959178812200,10.700812255859375,0.1586456298828125,0.7280731201171875,-0.362640380859375
1790107959188757200,10.71075732421875,0.22900390625,0.70233154296875,-0.4691314697265625
1790107959198701000,10.720701171875,0.2354278564453125,0.703765869140625,-0.5918731689453125
1790107959208645000,10.73064501953125,0.1884002685546875,0.7285919189453125,-0.7079925537109375
1790107959218590200,10.740590087890626,0.1092376708984375,0.7622528076171875,-0.8049774169921875
1790107959228534300,10.7505341796875,0.05487060546875,0.7763214111328125,-0.889312744140625
1790107959238478000,10.76047802734375,0.0848541259765625,0.7444000244140625,-0.9341888427734375
1790107959248423200,10.770423095703125,0.096221923828125,0.7059783935546875,-0.94012451171875
1790107959258367000,10.780366943359375,0.0872344970703125,0.66864013671875,-0.9517822265625
1790107959268311300,10.790311279296875,0.0753021240234375,0.6229400634765625,-0.9537506103515625
1790107959278256000,10.800256103515625,0.01727294921875,0.5984039306640625,-0.957061767578125
1790107959288200200,10.8102001953125,-0.0265045166015625,0.5855255126953125,-0.9862060546875
1790107959298144000,10.82014404296875,-0.0362396240234375,0.583587646484375,-1.047882080078125
1790107959308089300,10.83008935546875,-0.001922607421875,0.588470458984375,-1.1089935302734375
1790107959318033200,10.840033203125,0.049835205078125,0.60675048828125,-1.16400146484375
1790107959327977200,10.849977294921874,0.1067352294921875,0.6254730224609375,-1.2138519287109375
1790107959337922000,10.859922119140625,0.1390228271484375,0.6262969970703125,-1.2525177001953125
1790107959347866400,10.869866455078125,0.135467529296875,0.613525390625,-1.2468719482421875
1790107959357810200,10.87981005859375,0.132080078125,0.608306884765625,-1.1753387451171875
1790107959367755300,10.88975537109375,0.1379852294921875,0.6000823974609375,-1.0796661376953125
1790107959377699000,10.899698974609375,0.1427764892578125,0.57659912109375,-0.9655914306640625
1790107959387644400,10.90964453125,0.1559906005859375,0.547027587890625,-0.8623199462890625
1790107959397588200,10.919588134765625,0.1675262451171875,0.5141143798828125,-0.774993896484375
1790107959407532300,10.9295322265625,0.166046142578125,0.4861297607421875,-0.70916748046875
1790107959417477000,10.93947705078125,0.164154052734375,0.475921630859375,-0.6569671630859375
1790107959427421200,10.949421142578124,0.1412353515625,0.480987548828125,-0.63250732421875
1790107959437365200,10.959365234375,0.1049957275390625,0.487518310546875,-0.62811279296875
1790107959447310300,10.969310302734375,0.0792083740234375,0.50152587890625,-0.622314453125
1790107959457254100,10.979254150390625,0.050018310546875,0.5240478515625,-0.640899658203125
1790107959467198200,10.9891982421875,0.061126708984375,0.525787353515625,-0.663848876953125
1790107959477143300,10.999143310546875,0.058990478515625,0.5156707763671875,-0.7043609619140625
1790107959487087400,11.00908740234375,0.0734405517578125,0.4806365966796875,-0.78466796875
1790107959497031200,11.01903125,0.090789794921875,0.4384002685546875,-0.8222198486328125
1790107959506976000,11.02897607421875,0.08575439453125,0.424346923828125,-0.841400146484375
1790107959516920000,11.038920166015625,0.0933380126953125,0.4276885986328125,-0.884429931640625
1790107959526864400,11.048864501953124,0.147430419921875,0.42425537109375,-0.940521240234375
1790107959536809200,11.058809326171875,0.1844024658203125,0.460113525390625,-1.0027313232421875
1790107959546753300,11.068753173828124,0.1610870361328125,0.525177001953125,-1.06488037109375
1790107959556698000,11.078697998046875,0.2173919677734375,0.567108154296875,-1.0801544189453125
1790107959566642200,11.08864208984375,0.2944488525390625,0.6006011962890625,-1.0387725830078125
1790107959576586200,11.098586181640625,0.2535858154296875,0.5691680908203125,-1.03424072265625
1790107959586531000,11.108531005859374,0.16058349609375,0.5330810546875,-1.0189056396484375
1790107959596475100,11.11847509765625,0.1252288818359375,0.5099334716796875,-0.9486236572265625
1790107959606419200,11.128419189453124,0.1257476806640625,0.4705352783203125,-0.8594512939453125
1790107959616364300,11.1383642578125,0.114227294921875,0.4230804443359375,-0.7887725830078125
1790107959626308000,11.14830810546875,0.121185302734375,0.37420654296875,-0.73492431640625
1790107959636252200,11.158252197265625,0.1090240478515625,0.3646392822265625,-0.6835174560546875
1790107959646197000,11.168197021484374,0.06719970703125,0.3657073974609375,-0.6522369384765625
1790107959656141300,11.178141357421875,0.0559539794921875,0.3557891845703125,-0.5867156982421875
1790107959666085000,11.188085205078124,0.1164093017578125,0.3211517333984375,-0.4906158447265625
1790107959676030200,11.1980302734375,0.1454620361328125,0.2545166015625,-0.392242431640625
1790107959685974000,11.20797412109375,0.1390838623046875,0.1616973876953125,-0.359649658203125
1790107959695918000,11.21791796875,0.1052398681640625,0.102630615234375,-0.3642425537109375
1790107959705863200,11.22786328125,0.047637939453125,0.1414031982421875,-0.35357666015625
1790107959715807200,11.23780712890625,0.042877197265625,0.2010955810546875,-0.3914947509765625
1790107959725752300,11.24775244140625,0.0573883056640625,0.214752197265625,-0.482757568359375
1790107959735696400,11.2576962890625,0.0950164794921875,0.2153167724609375,-0.5982818603515625
1790107959745640200,11.26764013671875,0.1204986572265625,0.231964111328125,-0.7048797607421875
1790107959755585300,11.277585205078125,0.1086883544921875,0.2557220458984375,-0.791015625
1790107959765529000,11.287529052734374,0.0904083251953125,0.264862060546875,-0.8201751708984375
1790107959775473400,11.297473388671875,0.0875396728515625,0.262298583984375,-0.782989501953125
1790107959785418200,11.307418212890624,0.0949554443359375,0.2609100341796875,-0.7103118896484375
1790107959795362300,11.3173623046875,0.1226348876953125,0.2732696533203125,-0.657196044921875
1790107959805306000,11.32730615234375,0.13494873046875,0.28045654296875,-0.660919189453125
1790107959815251500,11.33725146484375,0.126861572265625,0.2768707275390625,-0.6911468505859375
1790107959825195300,11.3471953125,0.13140869140625,0.2751922607421875,-0.743011474609375
1790107959835139300,11.357139404296875,0.1234130859375,0.2812042236328125,-0.8151702880859375
1790107959845084200,11.367084228515624,0.1226348876953125,0.3063201904296875,-0.86810302734375
1790107959855028200,11.3770283203125,0.1356353759765625,0.3409576416015625,-0.894256591796875
1790107959864972300,11.38697216796875,0.1446380615234375,0.3828125,-0.9008026123046875
1790107959874917400,11.39691748046875,0.1460418701171875,0.4256134033203125,-0.89959716796875
1790107959884861200,11.406861083984374,0.13018798828125,0.4703826904296875,-0.9065093994140625
1790107959894805200,11.41680517578125,0.1063690185546875,0.516876220703125,-0.916168212890625
1790107959904750300,11.426750244140624,0.0944671630859375,0.5596771240234375,-0.9176177978515625
1790107959914694400,11.4366943359375,0.0854644775390625,0.6067047119140625,-0.9202423095703125
1790107959924639200,11.44663916015625,0.0740966796875,0.642974853515625,-0.9254608154296875
1790107959934583300,11.456583251953125,0.060150146484375,0.666351318359375,-0.93450927734375
1790107959944527000,11.466527099609374,0.0599517822265625,0.6777496337890625,-0.9311370849609375
1790107959954472200,11.47647216796875,0.0936737060546875,0.6617279052734375,-0.917022705078125
1790107959964416300,11.486416259765624,0.15765380859375,0.6132049560546875,-0.91815185546875
1790107959974360300,11.4963603515625,0.196868896484375,0.5920257568359375,-0.931671142578125
1790107959984305400,11.506305419921874,0.1896209716796875,0.5776824951171875,-0.9423675537109375
1790107959994249200,11.516249267578125,0.13189697265625,0.5429840087890625,-0.9736480712890625
1790107960004193300,11.526193359375,0.0650482177734375,0.5318603515625,-0.992401123046875
1790107960014138000,11.53613818359375,0.0546417236328125,0.5672607421875,-0.9859771728515625
1790107960024082200,11.546082275390624,0.0584259033203125,0.5938720703125,-0.9775848388671875
1790107960034026200,11.556026123046875,0.0162506103515625,0.5893402099609375,-0.9940338134765625
1790107960043971300,11.565971435546874,-0.031219482421875,0.59088134765625,-0.9938812255859375
1790107960053915100,11.5759150390625,-0.1030426025390625,0.620697021484375,-0.967559814453125
1790107960063859200,11.585859130859374,-0.1736297607421875,0.654632568359375,-0.8941650390625
1790107960073804300,11.59580419921875,-0.162841796875,0.694549560546875,-0.7898101806640625
1790107960083748400,11.605748291015624,-0.0255126953125,0.77764892578125,-0.68310546875
1790107960093693200,11.615693115234375,0.208099365234375,0.8675994873046875,-0.5911712646484375
1790107960103637200,11.62563720703125,0.3778839111328125,0.907623291015625,-0.5995025634765625
1790107960113581000,11.6355810546875,0.38671875,0.894805908203125,-0.6986846923828125
1790107960123526400,11.6455263671875,0.160308837890625,0.869293212890625,-0.7782440185546875
1790107960133470200,11.65547021484375,-0.1087646484375,0.8981170654296875,-0.78594970703125
1790107960143414300,11.665414306640624,-0.100189208984375,0.9740447998046875,-0.7442474365234375
1790107960153359000,11.675359130859375,0.11077880859375,1.0269927978515625,-0.7197113037109375
1790107960163303400,11.685303466796874,0.2495574951171875,1.01727294921875,-0.814239501953125
1790107960173247200,11.695247314453125,0.2030029296875,0.9318084716796875,-0.8729248046875
1790107960183192300,11.7051923828125,0.15777587890625,0.836944580078125,-0.8913421630859375
1790107960193136000,11.71513623046875,0.1179351806640625,0.745391845703125,-0.9598236083984375
1790107960203080200,11.725080078125,0.0655517578125,0.659393310546875,-0.983551025390625
1790107960213025300,11.735025390625,0.07940673828125,0.618804931640625,-0.9962310791015625
1790107960222969300,11.74496923828125,0.1688690185546875,0.617462158203125,-1.0229644775390625
1790107960232913200,11.7549130859375,0.208892822265625,0.6269073486328125,-1.01666259765625
1790107960242858200,11.764858154296874,0.16937255859375,0.629638671875,-0.96282958984375
1790107960252802300,11.77480224609375,0.141082763671875,0.61920166015625,-0.891021728515625
1790107960262746400,11.784746337890626,0.1484832763671875,0.60772705078125,-0.821044921875
1790107960272691200,11.794691162109375,0.186798095703125,0.5932159423828125,-0.771575927734375
1790107960282635300,11.80463525390625,0.178619384765625,0.592987060546875,-0.7114410400390625
1790107960292580400,11.814580322265625,0.128173828125,0.6165008544921875,-0.646240234375
1790107960302524400,11.8245244140625,0.098846435546875,0.6377410888671875,-0.600799560546875
1790107960312468200,11.83446826171875,0.1197357177734375,0.6389923095703125,-0.5936737060546875
1790107960322413300,11.844413330078124,0.1599273681640625,0.6237640380859375,-0.609527587890625
1790107960332357000,11.854357177734375,0.145843505859375,0.6309661865234375,-0.61358642578125
1790107960342301400,11.864301513671874,0.062652587890625,0.6712646484375,-0.60760498046875
1790107960352246300,11.874246337890625,-0.0281219482421875,0.729949951171875,-0.614654541015625
1790107960362190300,11.8841904296875,-0.0644073486328125,0.8114166259765625,-0.6350250244140625
1790107960372134100,11.894134033203125,-0.0030975341796875,0.869842529296875,-0.6522674560546875
1790107960382079500,11.90407958984375,0.0815887451171875,0.8973236083984375,-0.6682586669921875
1790107960392023300,11.914023193359375,0.1374664306640625,0.893218994140625,-0.698883056640625
1790107960401967400,11.92396728515625,0.1890411376953125,0.88555908203125,-0.73687744140625
1790107960411912200,11.933912109375,0.1981658935546875,0.8618011474609375,-0.7834014892578125
1790107960421856300,11.943856201171876,0.1603851318359375,0.7964630126953125,-0.852935791015625
1790107960431800300,11.95380029296875,0.0910186767578125,0.7169342041015625,-0.9281768798828125
1790107960441745400,11.963745361328124,0.0254058837890625,0.6464385986328125,-1.0114288330078125
1790107960451689200,11.973689208984375,0.01824951171875,0.5899658203125,-1.061614990234375
1790107960461634000,11.983634033203124,0.02618408203125,0.5677337646484375,-1.08087158203125
1790107960471578400,11.993578369140625,0.0052032470703125,0.561767578125,-1.084991455078125
1790107960481522400,12.0035224609375,-0.0120849609375,0.5567779541015625,-1.09881591796875
1790107960491467300,12.01346728515625,0.008209228515625,0.538970947265625,-1.1185455322265625
1790107960501411000,12.0234111328125,0.0569000244140625,0.4989166259765625,-1.14031982421875
1790107960511355100,12.033355224609375,0.0944671630859375,0.42041015625,-1.2044830322265625
1790107960521300200,12.04330029296875,0.1332244873046875,0.338348388671875,-1.2482147216796875
1790107960531244300,12.053244384765625,0.192291259765625,0.3101654052734375,-1.1724395751953125
1790107960541188400,12.063188232421876,0.2220611572265625,0.3171539306640625,-1.0800323486328125
1790107960551133200,12.07313330078125,0.223358154296875,0.3522796630859375,-0.916015625
1790107960561077200,12.0830771484375,0.2271728515625,0.3966827392578125,-0.7728271484375
1790107960571021300,12.093021240234375,0.208526611328125,0.4122161865234375,-0.7171173095703125
1790107960580966100,12.102966064453126,0.1385040283203125,0.4296875,-0.6870880126953125
1790107960590910200,12.11291015625,0.0546722412109375,0.4554443359375,-0.6540374755859375
1790107960600854300,12.122854248046876,0.0246124267578125,0.503021240234375,-0.588897705078125
1790107960610799400,12.13279931640625,-0.0041656494140625,0.5478973388671875,-0.547515869140625
1790107960620743200,12.1427431640625,-0.0998382568359375,0.5449676513671875,-0.59368896484375
1790107960630687200,12.152687255859375,-0.1170654296875,0.49462890625,-0.7285003662109375
1790107960640632000,12.162632080078126,0.040008544921875,0.49249267578125,-0.8950347900390625
1790107960650576400,12.172576416015625,0.2019195556640625,0.55511474609375,-1.11151123046875
1790107960660521200,12.182521240234376,0.1916351318359375,0.6644134521484375,-1.360992431640625
1790107960670465300,12.19246533203125,0.12469482421875,0.7782135009765625,-1.489410400390625
1790107960680409000,12.2024091796875,0.086395263671875,0.8530426025390625,-1.3483734130859375
1790107960690354400,12.2123544921875,0.0999298095703125,0.79461669921875,-1.05401611328125
1790107960700298200,12.22229833984375,0.1554412841796875,0.5577239990234375,-0.9795989990234375
1790107960710242300,12.2322421875,0.25360107421875,0.3252410888671875,-0.9055938720703125
1790107960720187100,12.242187255859376,0.312835693359375,0.2216796875,-0.8072052001953125
1790107960730130400,12.25213037109375,0.2942657470703125,0.195648193359375,-0.76416015625
1790107960740074500,12.262074462890626,0.2248382568359375,0.224395751953125,-0.7669525146484375
1790107960750019300,12.272019287109375,0.097808837890625,0.289794921875,-0.7687225341796875
1790107960759963400,12.28196337890625,-0.03265380859375,0.35845947265625,-0.7209625244140625
1790107960769907500,12.291907470703125,-0.103851318359375,0.4229888916015625,-0.61279296875
1790107960779852300,12.301852294921876,-0.1320953369140625,0.4422149658203125,-0.4554290771484375
1790107960789796400,12.31179638671875,-0.1137237548828125,0.390869140625,-0.2725982666015625
1790107960799741400,12.321741455078126,-0.0138397216796875,0.249664306640625,-0.17523193359375
1790107960809685500,12.331685546875,0.1501617431640625,0.100677490234375,-0.1491241455078125
1790107960819629300,12.34162939453125,0.2462005615234375,-0.0085906982421875,-0.2815093994140625
1790107960829574400,12.351574462890625,0.2081451416015625,0.01904296875,-0.4459686279296875
1790107960839518200,12.361518310546876,0.0883636474609375,0.137542724609375,-0.52197265625
1790107960849462300,12.371462158203125,0.044708251953125,0.23565673828125,-0.5637359619140625
1790107960859407400,12.381407470703126,0.1252899169921875,0.2594451904296875,-0.6147308349609375
1790107960869351400,12.391351318359375,0.18988037109375,0.3054962158203125,-0.6468658447265625
1790107960879295200,12.401295166015625,0.213226318359375,0.321319580078125,-0.685791015625
1790107960889240600,12.411240478515625,0.2156829833984375,0.3248138427734375,-0.7177886962890625
1790107960899184400,12.421184326171876,0.2122650146484375,0.3175811767578125,-0.72991943359375
1790107960909128400,12.43112841796875,0.202117919921875,0.3258056640625,-0.7029876708984375
1790107960919073300,12.4410732421875,0.1971893310546875,0.34442138671875,-0.653839111328125
1790107960929017300,12.451017333984375,0.1749267578125,0.3655548095703125,-0.6240386962890625
1790107960938961400,12.46096142578125,0.1334228515625,0.37896728515625,-0.620208740234375
1790107960948906500,12.470906494140625,0.10870361328125,0.3819122314453125,-0.6347198486328125
1790107960958850300,12.480850341796875,0.09820556640625,0.38006591796875,-0.7013397216796875
1790107960968794400,12.49079443359375,0.08734130859375,0.3775634765625,-0.797821044921875
1790107960978739500,12.500739501953126,0.1070709228515625,0.3901214599609375,-0.8563385009765625
1790107960988683500,12.51068359375,0.1496734619140625,0.4091644287109375,-0.894439697265625
1790107960998628400,12.52062841796875,0.175628662109375,0.44097900390625,-0.9274139404296875
1790107961008572400,12.530572509765625,0.1699676513671875,0.4479522705078125,-0.9450836181640625
1790107961018516200,12.54051611328125,0.143768310546875,0.45263671875,-0.95355224609375
1790107961028461600,12.550461669921875,0.13385009765625,0.4541473388671875,-0.9687347412109375
1790107961038405400,12.5604052734375,0.1218414306640625,0.4598236083984375,-0.987945556640625
1790107961048349400,12.570349365234375,0.0854644775390625,0.4877471923828125,-1.0084991455078125
1790107961058294300,12.580294189453125,0.055694580078125,0.5344085693359375,-1.044525146484375
1790107961068238600,12.590238525390625,0.058837890625,0.5784454345703125,-1.0705413818359375
1790107961078182400,12.600182373046875,0.060516357421875,0.6373748779296875,-1.0665283203125
1790107961088127500,12.61012744140625,0.0336761474609375,0.6943817138671875,-1.036529541015625
1790107961098071300,12.6200712890625,0.0187835693359375,0.751556396484375,-1.0239105224609375
1790107961108015400,12.630015380859374,0.020111083984375,0.824249267578125,-1.031585693359375
1790107961117960400,12.63996044921875,0.0910797119140625,0.859283447265625,-1.0089874267578125
1790107961127904500,12.649904541015625,0.158538818359375,0.877197265625,-0.9817352294921875
1790107961137848300,12.659848388671875,0.1644134521484375,0.8704833984375,-0.9655303955078125
1790107961147793400,12.66979345703125,0.06829833984375,0.8043975830078125,-0.9829864501953125
1790107961157737500,12.679737548828125,-0.00360107421875,0.752685546875,-1.0039825439453125
1790107961167682300,12.689682373046875,0.0051422119140625,0.7382659912109375,-0.988189697265625
1790107961177626400,12.69962646484375,0.0006103515625,0.7052154541015625,-0.9109344482421875
1790107961187570400,12.7095703125,0.0306396484375,0.6586456298828125,-0.7844085693359375
1790107961197515500,12.719515625,0.0744781494140625,0.6580352783203125,-0.68060302734375
1790107961207459300,12.729459228515625,0.123443603515625,0.688934326171875,-0.65631103515625
1790107961217403400,12.7394033203125,0.2388763427734375,0.7369537353515625,-0.67486572265625
1790107961227348200,12.74934814453125,0.2686920166015625,0.7394256591796875,-0.7448272705078125
1790107961237292300,12.759292236328125,0.182586669921875,0.7436370849609375,-0.82427978515625
1790107961247236600,12.769236572265624,0.07867431640625,0.7899627685546875,-0.839324951171875
1790107961257181400,12.779181396484375,0.0485992431640625,0.8562774658203125,-0.7618408203125
1790107961267125200,12.789125244140624,0.1805572509765625,0.934814453125,-0.6956634521484375
1790107961277069300,12.7990693359375,0.2751312255859375,0.920379638671875,-0.751556396484375
1790107961287014400,12.809014404296875,0.1925048828125,0.7963714599609375,-0.8658905029296875
1790107961296958500,12.81895849609375,0.119842529296875,0.676788330078125,-0.9156036376953125
1790107961306902500,12.828902587890624,0.1062774658203125,0.6038665771484375,-0.9453277587890625
1790107961316847400,12.838847412109375,0.135101318359375,0.56500244140625,-0.9550628662109375
1790107961326791200,12.848791259765624,0.15899658203125,0.567413330078125,-0.972625732421875
1790107961336736500,12.858736572265625,0.15911865234375,0.601470947265625,-0.963897705078125
1790107961346680300,12.868680419921875,0.16143798828125,0.6312103271484375,-0.9264984130859375
1790107961356624400,12.878624267578125,0.166717529296875,0.6339263916015625,-0.8895721435546875
1790107961366569200,12.8885693359375,0.1425018310546875,0.6433258056640625,-0.84808349609375
1790107961376513500,12.898513427734375,0.1138458251953125,0.6796417236328125,-0.7920379638671875
1790107961386457300,12.908457275390624,0.10614013671875,0.7269134521484375,-0.75372314453125
1790107961396402400,12.91840234375,0.1020965576171875,0.7681121826171875,-0.73370361328125
