time,seconds_elapsed,z,y,x
1790107948543330800,0.065330810546875,-7.452221547305584,-6.287627733078598,1.0490574367072432
1790107948553275100,0.075275146484375,-7.448133985731006,-6.28956483862102,1.0663268436770885
1790107948563219000,0.085218994140625,-7.4443965527683496,-6.291611249756813,1.0802631607014685
1790107948573164000,0.0951640625,-7.441103356441855,-6.293887377995253,1.089652628076449
1790107948583107800,0.10510791015625,-7.4379568751096725,-6.296335355669259,1.0969691616348922
1790107948593052000,0.115052001953125,-7.434521639963984,-6.299141645261645,1.1041241479560733
1790107948602997000,0.1249970703125,-7.431234288856387,-6.301475641167164,1.1129000865425913
1790107948612941000,0.134941162109375,-7.428242121303081,-6.303511530908942,1.1213155212536454
1790107948622884900,0.144884765625,-7.424529822781682,-6.306767902356386,1.1275729742132126
1790107948632830000,0.154829833984375,-7.420347568660974,-6.311126097565889,1.1307126604784279
1790107948642774000,0.16477392578125,-7.4157216624259945,-6.316656843686103,1.1301795765150338
1790107948652719000,0.174718994140625,-7.4110443182647225,-6.323243820860982,1.124010678621754
1790107948662663000,0.184662841796875,-7.407812496736645,-6.329582376232743,1.1095420082863419
1790107948672607000,0.19460693359375,-7.406488554656505,-6.334634983447193,1.0893632166758178
1790107948682552000,0.204552001953125,-7.40606886793971,-6.338697410580515,1.0683815111845731
1790107948692496100,0.21449609375,-7.405685421580076,-6.342242535841464,1.049843399453163
1790107948702440000,0.22443994140625,-7.404779997172951,-6.345724532738328,1.0350795455634594
1790107948712385300,0.23438525390625,-7.4028499058932065,-6.350213660851121,1.0212697044629604
1790107948722329000,0.2443291015625,-7.397880885308981,-6.358435545751452,1.006004915313795
1790107948732273200,0.254273193359375,-7.3859350114494555,-6.374834307366609,0.9898701383970677
1790107948742218200,0.26421826171875,-7.364525728195905,-6.402088809517026,0.973343293422833
1790107948752162300,0.274162353515625,-7.334911511176824,-6.438810228192806,0.9545581481277942
1790107948762106000,0.284106201171875,-7.300120768302679,-6.481546961635351,0.9317541225802153
1790107948772051200,0.29405126953125,-7.264276132461428,-6.52541357589066,0.905347688626498
1790107948781995300,0.303995361328125,-7.231119128268957,-6.564724426537752,0.8863963929843157
1790107948791939300,0.313939208984375,-7.202880291256308,-6.59678662123084,0.8782438469931483
1790107948801884200,0.32388427734375,-7.181500234097242,-6.621824031853675,0.8648030584007501
1790107948811828200,0.333828125,-7.1690312131464475,-6.6383198241025205,0.8414814387198537
1790107948821773300,0.343773193359375,-7.1647525129139416,-6.64680649741888,0.8103487799618393
1790107948831717400,0.35371728515625,-7.1601873969554894,-6.655546853235363,0.7783270634096116
1790107948841661200,0.3636611328125,-7.152647064578533,-6.667503248488902,0.7446014655489475
1790107948851606000,0.37360595703125,-7.145438156113028,-6.680244656640291,0.6981603246305137
1790107948861550000,0.383550048828125,-7.144283725380897,-6.688819592761993,0.6239221721827983
1790107948871494400,0.393494384765625,-7.165517652067542,-6.676805914363265,0.49598410332743076
1790107948881439200,0.403439208984375,-7.207101123821735,-6.641867287451029,0.3371489380355924
1790107948891383300,0.41338330078125,-7.255371525993943,-6.595047084087133,0.18795191765017807
1790107948901327000,0.4233271484375,-7.299267366343736,-6.548751781380176,0.07022103032742161
1790107948911272200,0.433272216796875,-7.333623809453845,-6.510579579374194,-0.026557795440393963
1790107948921216300,0.44321630859375,-7.359075061574578,-6.481017969325184,-0.10400716730286366
1790107948931160300,0.453160400390625,-7.382176535698771,-6.4534612693578,-0.16339017998138441
1790107948941105200,0.463105224609375,-7.408771112635732,-6.421544036093354,-0.2103924253812991
1790107948951049200,0.47304931640625,-7.440325357806683,-6.3832362250089645,-0.2573752536946908
1790107948960993300,0.4829931640625,-7.476097512933611,-6.339246861156821,-0.3038093620841391
1790107948970938000,0.492938232421875,-7.5137588428080075,-6.29238223412931,-0.3460323190519586
1790107948980882200,0.502882080078125,-7.5513821787595745,-6.244757144123316,-0.3873381063759327
1790107948990827000,0.512826904296875,-7.589159828490018,-6.195757843154668,-0.4331484751101583
1790107949000771300,0.522771240234375,-7.62602737763822,-6.146054777830839,-0.489994397925958
1790107949010715100,0.532715087890625,-7.659003180044889,-6.099356155019998,-0.5548947401206941
1790107949020660200,0.54266015625,-7.685076947978138,-6.060246964424848,-0.6191738816771656
1790107949030604000,0.55260400390625,-7.703629672756791,-6.030803427797555,-0.6737067783102393
1790107949040548000,0.562548095703125,-7.716435378316044,-6.0095268310129635,-0.7159587239105254
1790107949050493200,0.5724931640625,-7.727666966426372,-5.9918999889075755,-0.742077938420698
1790107949060437200,0.582437255859375,-7.73897278881669,-5.975640343502164,-0.7552560574889182
1790107949070381000,0.592381103515625,-7.750130142647028,-5.960328208079933,-0.7618062097847461
1790107949080326100,0.602326171875,-7.759932574737071,-5.9464785464257,-0.770208785014227
1790107949090270200,0.612270263671875,-7.767324438554048,-5.934715043395757,-0.7862631901711225
1790107949100214300,0.62221435546875,-7.769422872138023,-5.928082473513483,-0.8150329922553151
1790107949110159000,0.6321591796875,-7.762921235159039,-5.931099190986156,-0.854107842189446
1790107949120103200,0.642103271484375,-7.748139845612645,-5.943977961781621,-0.8976900134801864
1790107949130047000,0.652046875,-7.728423337751627,-5.9623132444173095,-0.9448143143571913
1790107949139992300,0.661992431640625,-7.708928363686799,-5.9800201660215855,-0.9910480230700224
1790107949149936000,0.67193603515625,-7.691834021022915,-5.994857669669389,-1.0333237879373132
1790107949159880200,0.681880126953125,-7.675610615974664,-6.007913550597429,-1.077200046803802
1790107949169825000,0.691824951171875,-7.657427893552184,-6.02009031060338,-1.136967629219964
1790107949179769300,0.701769287109375,-7.632520246788859,-6.034193654757738,-1.2261850318737326
1790107949189713200,0.711713134765625,-7.596325482335686,-6.053159051990509,-1.3511051046147942
1790107949199658200,0.721658203125,-7.54784640584886,-6.07583440965712,-1.5114989340581
1790107949209602000,0.73160205078125,-7.486390943410992,-6.100934948644042,-1.703800352154672
1790107949219547400,0.74154736328125,-7.407246679547429,-6.129848908439278,-1.9308127258874475
1790107949229491200,0.7514912109375,-7.308400520870089,-6.155230017933249,-2.2069912815883757
1790107949239435300,0.761435302734375,-7.188024667429923,-6.170436939415335,-2.535426824879646
1790107949249380000,0.771380126953125,-7.061600765997171,-6.174043439474701,-2.8610096090883017
1790107949259324200,0.78132421875,-6.94280136809349,-6.162641755494475,-3.1606562802687286
1790107949269268200,0.791268310546875,-6.829565449535846,-6.1288020297348496,-3.4590760400027034
1790107949279213300,0.80121337890625,-6.718094202563166,-6.062687927836179,-3.7790757633820173
1790107949289157000,0.8111572265625,-6.599601678651571,-5.96499678441286,-4.127282467330992
1790107949299101200,0.82110107421875,-6.453096527698635,-5.840774192416667,-4.518106662257016
1790107949309046300,0.83104638671875,-6.256745103558898,-5.693164295092225,-4.960989253461361
1790107949318990300,0.840990234375,-6.001706512650847,-5.521162299311161,-5.446710577178001
1790107949328934100,0.85093408203125,-5.681631678208708,-5.3205567248582835,-5.964990939193964
1790107949338879200,0.860879150390625,-5.289938883754611,-5.091756152534485,-6.500842613735794
1790107949348823000,0.870822998046875,-4.853906012314558,-4.830667175546288,-7.019588839697837
1790107949358767400,0.880767333984375,-4.419695972387492,-4.530165056580305,-7.49094612249732
1790107949368712200,0.890712158203125,-4.005531818406284,-4.190430120639503,-7.909892834579944
1790107949378656300,0.90065625,-3.600123510071635,-3.8194787931799885,-8.283785183927415
1790107949388601000,0.91060107421875,-3.1816692576810714,-3.4224674340516326,-8.621720669230818
1790107949398545200,0.920545166015625,-2.737916313382983,-3.004137392562628,-8.92464972308278
1790107949408489200,0.9304892578125,-2.265361637492478,-2.567827165485918,-9.18938494761884
1790107949418434000,0.94043408203125,-1.7813402495615183,-2.113119842583686,-9.4091423817873
1790107949428378000,0.950378173828125,-1.316803460431844,-1.6455737886354327,-9.577501052629946
1790107949438322200,0.960322265625,-0.8869984505306929,-1.174558816467598,-9.695566875562072
1790107949448267300,0.970267333984375,-0.5284156062569468,-0.7036885134674609,-9.767087220418453
1790107949458211000,0.980211181640625,-0.25750521848360075,-0.2501429278209805,-9.800077051350474
1790107949468155100,0.990155029296875,-0.05749486997751519,0.16895685593150556,-9.80502619819045
1790107949478100000,1.000099853515625,0.08080079889893531,0.5597847406519577,-9.790327226230502
1790107949488044300,1.010044189453125,0.18835081730727105,0.9089392833776772,-9.7626185505718
1790107949497988400,1.01998828125,0.3085215766293928,1.2201629220400005,-9.725554017546772
1790107949507933200,1.02993310546875,0.4237586789416149,1.508728154170513,-9.68062824962735
1790107949517877000,1.039876953125,0.46259139068294314,1.7810953348897396,-9.632451370957494
1790107949527821000,1.049821044921875,0.435574021756649,2.023792769010365,-9.58566273177564
1790107949537766100,1.05976611328125,0.40877117236386984,2.22383822536245,-9.542422724986075
1790107949547710200,1.069710205078125,0.3786757842317223,2.397286620559543,-9.501579842466116
1790107949557655000,1.079655029296875,0.3483015426255762,2.565175481933355,-9.458803946056962
1790107949567599400,1.089599365234375,0.3028558424852788,2.723690219631791,-9.415953815367818
1790107949577543200,1.099543212890625,0.25272766535086555,2.855047778074443,-9.37844270761907
1790107949587488300,1.10948828125,0.23715824896562843,2.963952973951399,-9.34500513291955
1790107949597432000,1.11943212890625,0.2840045731514692,3.0388077239274978,-9.319621685338019
1790107949607376100,1.129376220703125,0.3793548160044476,3.068648735439777,-9.306441301247476
1790107949617321200,1.1393212890625,0.48135162073243404,3.059019614090025,-9.304895240849255
1790107949627265300,1.149265380859375,0.5774157474758104,3.0212893106326457,-9.311755189746618
1790107949637209000,1.159208984375,0.6721350720141083,2.9613752324178813,-9.324639221239089
1790107949647154200,1.169154296875,0.7720180263932794,2.8807579733923077,-9.342140975660085
1790107949657098200,1.17909814453125,0.8603876531112938,2.770600731627643,-9.367705040505529
1790107949667042300,1.189042236328125,0.9293677389003336,2.634113701342046,-9.40043359015286
1790107949676987100,1.198987060546875,0.9828045108597725,2.47916220908314,-9.437068499588966
1790107949686931200,1.20893115234375,1.035973206467554,2.3102546721860766,-9.474169857493042
1790107949696875000,1.218875,1.1150966467387973,2.134380218885839,-9.506386950486897
1790107949706820400,1.2288203125,1.2200491594672203,1.9712698239602147,-9.528689967709779
1790107949716763400,1.238763427734375,1.3236990651644767,1.8653822223387657,-9.536172432419658
1790107949726707500,1.24870751953125,1.4146015713609754,1.7900497718483208,-9.537558918341993
1790107949736652500,1.258652587890625,1.488223564671725,1.7536317200332878,-9.533118305546045
1790107949746596600,1.2685966796875,1.5443426345176994,1.707839982934296,-9.532508064693213
1790107949756540400,1.27854052734375,1.6071417666494845,1.5740012752003967,-9.54515711838603
1790107949766485500,1.288485595703125,1.6891083944573997,1.369362061317265,-9.56253846129775
1790107949776429300,1.29842919921875,1.7884790154002606,1.177360795211047,-9.57003553905487
1790107949786374700,1.308374755859375,1.8651685795880852,1.0379428260400891,-9.571532499614358
1790107949796318500,1.318318359375,1.9054414071351289,0.9390536319386213,-9.573811550462246
1790107949806262500,1.328262451171875,1.9298031104534863,0.8553764008205383,-9.576773322877287
1790107949816207400,1.338207275390625,1.9385015268243848,0.7616394018504768,-9.582928338375687
1790107949826151700,1.348151611328125,1.9082514961197972,0.6666472151875495,-9.59607014402151
1790107949836095500,1.358095458984375,1.877727909170836,0.5785111414970829,-9.60780208286941
1790107949846040600,1.36804052734375,1.857244800851494,0.49211584705933925,-9.616592707568406
1790107949855984400,1.377984375,1.8492200459584593,0.41482466371655463,-9.621782092905043
1790107949865928400,1.387928466796875,1.8307291343696415,0.3519020148029551,-9.627825464722514
1790107949875873500,1.39787353515625,1.7996812312856316,0.30411745991893113,-9.635302084213494
1790107949885817600,1.407817626953125,1.7687471638396381,0.2709672142608091,-9.642015902638434
1790107949895761400,1.417761474609375,1.7355381371989844,0.24849225627081467,-9.648654902261494
1790107949905706500,1.42770654296875,1.7066782456785439,0.22770589068857952,-9.65431541224122
1790107949915650600,1.437650634765625,1.6954323367819188,0.19074114650990812,-9.657097151914238
1790107949925594600,1.4475947265625,1.7253528432711958,0.13984427742478436,-9.652668814077973
1790107949935539500,1.45753955078125,1.7719282780937848,0.08962662277547642,-9.64482453031838
1790107949945483500,1.4674833984375,1.8141658298425376,0.040194401149125765,-9.637300564554334
1790107949955427300,1.47742724609375,1.8536410772711038,-0.007097058717775507,-9.629867199683188
1790107949965372700,1.48737255859375,1.909583036984503,-0.0646881196495844,-9.618716860115528
1790107949975316500,1.49731640625,1.9743400251857934,-0.14759191414318046,-9.604717560857534
1790107949985261600,1.507261474609375,2.0309205750636754,-0.2552143676000647,-9.590652210626006
1790107949995205400,1.517205322265625,2.0828910007975994,-0.37675917348805815,-9.575488543763756
1790107950005149700,1.527149658203125,2.1416844044193626,-0.5119885318627581,-9.556224455845355
1790107950015094500,1.537094482421875,2.19644109987095,-0.6318315570678562,-9.536603225052357
1790107950025038600,1.54703857421875,2.2118848988488313,-0.7122820812243967,-9.527360180410742
1790107950034982400,1.556982421875,2.192571711091697,-0.7459681507922709,-9.52924818611443
1790107950044927500,1.566927490234375,2.1513938975289464,-0.7229304626192897,-9.54040144829154
1790107950054871600,1.57687158203125,2.1055982149071992,-0.6493147529188543,-9.555900630718469
1790107950064815600,1.586815673828125,2.0676200741685924,-0.5422924847116694,-9.57085445422232
1790107950074760400,1.596760498046875,2.0431151629872617,-0.4176712122540921,-9.582357845011353
1790107950084704500,1.60670458984375,2.031231979100406,-0.2796019360120408,-9.589908114260435
1790107950094648600,1.616648681640625,2.0598547008641064,-0.11686075799129902,-9.587163199466467
1790107950104593400,1.626593505859375,2.1511375846803187,0.08980995258628391,-9.56738940846026
1790107950114537500,1.636537353515625,2.230031965436041,0.33869174703080207,-9.54372094810307
1790107950124481500,1.6464814453125,2.2452181363910437,0.6449767967797816,-9.524358075985312
1790107950134426600,1.656426513671875,2.2449343510136006,1.004427656059712,-9.493249821016192
1790107950144370400,1.666370361328125,2.260604944484681,1.3932196145057678,-9.44028629259169
1790107950154314500,1.676314453125,2.283891565917432,1.789775338821113,-9.367544881507754
1790107950164259300,1.68625927734375,2.2838750531740484,2.158349123494327,-9.289555048376322
1790107950174203400,1.696203369140625,2.2005508732773364,2.480126085679233,-9.229135358726978
1790107950184148500,1.7061484375,2.0026877294003964,2.7786805777087804,-9.189045924922823
1790107950194092500,1.716092529296875,1.7300057836435734,3.0863141559898852,-9.146153124135733
1790107950204036400,1.726036376953125,1.443985779016465,3.4115219694063064,-9.080022071102261
1790107950213981700,1.735981689453125,1.2129114896070212,3.743162153957784,-8.982648323065042
1790107950223925500,1.745925537109375,1.0908700410421936,4.020557245841622,-8.877809645974635
1790107950233869600,1.75586962890625,1.0301697808858006,4.1471024355664845,-8.826703728115557
1790107950243814400,1.765814453125,0.9938258902855217,4.178337239524722,-8.816132065218687
1790107950253758500,1.775758544921875,1.00360625667423,4.22752066488862,-8.791542982885241
1790107950263702500,1.78570263671875,1.0340333975113927,4.315578595308959,-8.745110317534207
1790107950273647600,1.795647705078125,1.048050890013203,4.420072696745396,-8.691082959270476
1790107950283591400,1.80559130859375,1.022706824593991,4.522335385867953,-8.641348329764604
1790107950293535500,1.815535400390625,0.9753047296889126,4.635127652311325,-8.586893685999511
1790107950303480600,1.82548046875,0.9478482021603732,4.7512484786555165,-8.526289287433027
1790107950313424600,1.835424560546875,0.9445648696407675,4.8800502151355145,-8.453596976187825
1790107950323368400,1.845368408203125,0.980885379365459,5.035762462633848,-8.357594516503811
1790107950333313500,1.8553134765625,1.0551269658792763,5.215243415993452,-8.237616722470522
1790107950343257300,1.86525732421875,1.1713685690589248,5.421783641192317,-8.087183584418892
1790107950353201700,1.87520166015625,1.3254049922995268,5.639952344864606,-7.9123104171156875
1790107950363146500,1.885146484375,1.4750998792044818,5.8351031610429285,-7.742481673720478
1790107950373090600,1.895090576171875,1.5522861408680677,5.987109247499704,-7.6102119688689704
1790107950383035400,1.905035400390625,1.4907302867956458,6.093293493980169,-7.537897258764505
1790107950392979700,1.914979736328125,1.401741213005036,6.161754451265931,-7.499218276280164
1790107950402923500,1.924923583984375,1.3794021015554665,6.2056660737067455,-7.467083600872755
1790107950412868600,1.93486865234375,1.4087668738581238,6.231397896334529,-7.44012545132041
1790107950422812400,1.9448125,1.4401814182974397,6.230582488298416,-7.4347887664675705
1790107950432756500,1.954756591796875,1.468996155501902,6.202571030300855,-7.4525541402608155
1790107950442701600,1.96470166015625,1.510202464506775,6.161351131162047,-7.478465411108732
1790107950452645600,1.974645751953125,1.5640614804662762,6.113844699099659,-7.506330738633871
1790107950462589400,1.98458935546875,1.6201239978194235,6.0617982855200765,-7.536589683297276
1790107950472534500,1.994534423828125,1.6578804586313665,6.018304011708498,-7.563187767365575
1790107950482478600,2.004478515625,1.6623523433484135,5.993865736022591,-7.581592023584246
1790107950492422700,2.014422607421875,1.628349682112038,5.973406300839781,-7.60508454285264
1790107950502367500,2.024367431640625,1.597323260207474,5.947714810222387,-7.63175218502581
1790107950512311600,2.0343115234375,1.5728450909025966,5.927592644169926,-7.6524641336649655
1790107950522255400,2.04425537109375,1.5312274246178565,5.902437744647264,-7.680298481529951
1790107950532200400,2.054200439453125,1.4519728322476149,5.855935521191358,-7.731116814619302
1790107950542144500,2.06414453125,1.335776894840598,5.801005661129951,-7.7932298641830675
1790107950552088600,2.074088623046875,1.1652489902000873,5.7580736973762505,-7.852209291896224
1790107950562033400,2.084033447265625,0.9629682490766048,5.7467707975953815,-7.887820703503489
1790107950571977700,2.093977783203125,0.7874458971496671,5.771091584381461,-7.889539782381057
1790107950581922600,2.103922607421875,0.6498723137363791,5.820542720770836,-7.865707655894756
1790107950591866400,2.113866455078125,0.5385603489786386,5.894035242483019,-7.819252194190025
1790107950601810400,2.123810546875,0.4573411054719239,6.000761925277113,-7.742873303386569
1790107950611755500,2.133755615234375,0.42291652902904897,6.111136609184742,-7.658038718926906
1790107950621699600,2.143699462890625,0.4217409459110349,6.209433317285776,-7.578617391687631
1790107950631643600,2.1536435546875,0.5023781517460942,6.292973185759783,-7.504431627014279
1790107950641588500,2.16358837890625,0.6474870991002768,6.32315321996808,-7.46785809237659
1790107950651532300,2.1735322265625,0.748306895938143,6.310927944645285,-7.4687752072215075
1790107950661476600,2.1834765625,0.8089355521630496,6.308950507092476,-7.464124166545272
1790107950671421400,2.19342138671875,0.8256526590123772,6.333754108959436,-7.441252409523725
1790107950681365500,2.203365478515625,0.8281195605825632,6.375097342216968,-7.405587221902609
1790107950691309600,2.2133095703125,0.822611099359393,6.412274687966704,-7.374037068384886
1790107950701254700,2.223254638671875,0.8294496401425451,6.431587291201949,-7.356430684545636
1790107950711198500,2.233198486328125,0.8421401218242943,6.4477212644010775,-7.34085025357604
1790107950721143600,2.2431435546875,0.8670292830828576,6.465851379853486,-7.321982471498846
1790107950731088400,2.25308837890625,0.9020989159636199,6.4978101141721005,-7.289380763101577
1790107950741032400,2.263032470703125,0.9335594915017486,6.5376733380049465,-7.249666007828712
1790107950750976300,2.272976318359375,0.9803951846957206,6.6004392985194915,-7.18633364560306
1790107950760921600,2.282921630859375,1.0523065746963023,6.708601567074656,-7.075147060790657
1790107950770865400,2.292865478515625,1.1373656886268406,6.850213685289025,-6.92469171090722
1790107950780810200,2.302810302734375,1.1935315932892263,7.009951242780685,-6.753253778749704
1790107950790754300,2.31275439453125,1.20655152612105,7.171396773234009,-6.579185498088598
1790107950800698400,2.322698486328125,1.2091479723550378,7.303963415205478,-6.431210859104991
1790107950810643500,2.3326435546875,1.1989094869352876,7.384271462151408,-6.340783569204807
1790107950820587500,2.34258740234375,1.1963666705846785,7.413499310201406,-6.307070100173354
1790107950830531300,2.35253125,1.2574962620690464,7.421734054583311,-6.2854550652146335
1790107950840476200,2.36247607421875,1.369443894381821,7.432434312295913,-6.249313492253423
1790107950850420500,2.37242041015625,1.534968072450906,7.432097043165564,-6.2111366140723225
1790107950860364500,2.382364501953125,1.722150247837603,7.419411749115586,-6.177129130530357
1790107950870309400,2.392309326171875,1.868081398294866,7.3932520564645525,-6.166075237074494
1790107950880253400,2.40225341796875,1.9453905556857585,7.367139125564694,-6.173419170096516
1790107950890197200,2.412197265625,1.998178435282409,7.332649411463737,-6.197573952665925
1790107950900142300,2.422142333984375,2.1185499048084018,7.282545364123583,-6.216644563838839
1790107950910086400,2.43208642578125,2.2585532726518807,7.230156420716643,-6.228493991586566
1790107950920030500,2.442030517578125,2.3828806401968,7.165981762447953,-6.256278070569038
1790107950929975300,2.451975341796875,2.4582173284709454,7.084729712650179,-6.319350320553779
1790107950939919400,2.46191943359375,2.460105041913688,6.990198494562506,-6.423038658565282
1790107950949863400,2.471863525390625,2.386951104506105,6.885401903048157,-6.5623243796586985
1790107950959808300,2.481808349609375,2.2506866309300064,6.771589061385392,-6.726838650032877
1790107950969752300,2.49175244140625,2.0815809411123394,6.641936261034012,-6.908118761768937
1790107950979696400,2.5016962890625,1.9203798869393764,6.489476001068949,-7.097128006452322
1790107950989641500,2.511641357421875,1.805502338654548,6.312685017445683,-7.284270288220047
1790107950999585300,2.521585205078125,1.7577540606603026,6.1114563426584,-7.465304316240549
1790107951009530400,2.5315302734375,1.7619339766934512,5.891622920644283,-7.63902772898674
1790107951019474400,2.541474365234375,1.7886884203672408,5.656203806963562,-7.808861733078956
1790107951029418500,2.55141845703125,1.799098462961614,5.417317893955111,-7.9741008105963465
1790107951039363300,2.56136328125,1.7285069233879446,5.1943233775615685,-8.136440075019001
1790107951049307400,2.571307373046875,1.5718370829038322,4.981811092215776,-8.299471997880936
1790107951059251200,2.581251220703125,1.399759829929471,4.776481411850452,-8.449631579688191
1790107951069196500,2.591196533203125,1.2921698083043098,4.584578783813119,-8.572183608123659
1790107951079140400,2.601140380859375,1.2674654290281235,4.420907686264813,-8.661378141358494
1790107951089084400,2.61108447265625,1.229449878888577,4.3059640870064495,-8.72453514701724
1790107951099029200,2.621029296875,1.1798758467718957,4.234545448958873,-8.766235523149371
1790107951108973600,2.6309736328125,1.1581170194283128,4.1701393200218675,-8.799948407658935
1790107951118917400,2.64091748046875,1.159456962795183,4.101356875696778,-8.832039828446508
1790107951128862500,2.650862548828125,1.1796313704915344,4.024254054532945,-8.864774807834625
1790107951138806300,2.66080615234375,1.2118036744955927,3.9407495496332645,-8.89788797288537
1790107951148750300,2.670750244140625,1.284433661094308,3.8423388597637413,-8.930681404462456
1790107951158695400,2.6806953125,1.397663734433055,3.719956342676282,-8.965424216541647
1790107951168639500,2.690639404296875,1.5292932416848837,3.5594591989889737,-9.008990386545658
1790107951178583300,2.700583251953125,1.6890158938683568,3.3549171618700027,-9.058815616944432
1790107951188528400,2.7105283203125,1.857437546944618,3.1239971131742,-9.108290134209394
1790107951198472400,2.720472412109375,1.9912633951969443,2.900003941132128,-9.153975196063518
1790107951208417500,2.73041748046875,2.096235197147727,2.716836115953326,-9.186673935094475
1790107951218361300,2.740361328125,2.210344975930452,2.5905294111594555,-9.196407393601536
1790107951228305400,2.750305419921875,2.3571197376050055,2.5114830547124147,-9.181873841336369
1790107951238250500,2.76025048828125,2.5148291502699256,2.4622063981071114,-9.153335144594312
1790107951248194600,2.770194580078125,2.686481309700012,2.406147095624357,-9.11941300124824
1790107951258138400,2.780138427734375,2.8828792033299804,2.36643219422102,-9.069695907399058
1790107951268083500,2.79008349609375,3.0569542059928176,2.3853030450381336,-9.007539018693565
1790107951278027300,2.80002734375,3.1586911176756023,2.442744887920469,-8.956900133824348
1790107951287971600,2.8099716796875,3.1908918440565466,2.511746966345608,-8.926349512737989
1790107951297916400,2.81991650390625,3.2050773135364055,2.5904499161824583,-8.898733191537856
1790107951307860500,2.829860595703125,3.2314661387681958,2.6648835181370374,-8.86715322740376
1790107951317804300,2.83980419921875,3.2755814670875667,2.737225993031263,-8.828849507972597
1790107951327749400,2.849749267578125,3.352434112882614,2.8174261956885456,-8.774603538522124
1790107951337693400,2.859693359375,3.45502559556812,2.9186025508791205,-8.701433672893048
1790107951347637500,2.869637451171875,3.5340795507997274,3.011703151641786,-8.637724878570436
1790107951357582300,2.879582275390625,3.576021334472298,3.0666674984946845,-8.601046714514494
1790107951367526400,2.8895263671875,3.6104599029079076,3.1009777643755077,-8.574317113021015
1790107951377470500,2.899470458984375,3.64870750823766,3.1438489378526806,-8.542457162901758
1790107951387415300,2.909415283203125,3.6774469882488248,3.207948485058546,-8.506224989047647
1790107951397359400,2.919359375,3.6739749282240863,3.3019115478694436,-8.471700788155198
1790107951407303400,2.929303466796875,3.661730363678932,3.4100790771216154,-8.434065761765837
1790107951417248500,2.93924853515625,3.6579774408861994,3.5195541818410154,-8.39060772831142
1790107951427192600,2.949192626953125,3.613415537843108,3.626362113177776,-8.364397766777872
1790107951437137400,2.959137451171875,3.540018000937998,3.741448335777223,-8.345072888582944
1790107951447081200,2.969081298828125,3.4597824347063897,3.878481601768732,-8.316110997992753
1790107951457025300,2.979025390625,3.38548941026628,4.049040120743215,-8.265237135323881
1790107951466970400,2.988970458984375,3.2731387501105664,4.255259735685587,-8.206685577633976
1790107951476914400,2.99891455078125,3.0914161553040147,4.483502089604735,-8.155475030356644
1790107951486858200,3.008858154296875,2.8515897465750575,4.710520162425935,-8.11479055326879
1790107951496803300,3.01880322265625,2.5679195199444886,4.917603116199374,-8.086614260098338
1790107951506747400,3.028747314453125,2.231136419546604,5.101300225949287,-8.072740633046626
1790107951516691500,3.03869140625,1.8234914382010696,5.249050993049145,-8.080392609104514
1790107951526636300,3.04863623046875,1.2869403832182287,5.3686348193287845,-8.105058263805509
1790107951536580400,3.058580322265625,0.5932988877190276,5.48518673056662,-8.107474092775583
1790107951546524200,3.068524169921875,-0.1602968170759268,5.6154258063733575,-8.03813869074285
1790107951556469500,3.078469482421875,-0.8145280384078621,5.764498761987686,-7.891607820826769
1790107951566413300,3.088413330078125,-1.0958983175329864,5.869629700022935,-7.77925569936633
1790107951576357400,3.098357421875,-1.1507301240473986,5.976033726733923,-7.68981215980649
1790107951586302200,3.10830224609375,-1.1748507120862604,6.160846104249358,-7.538837169963121
1790107951596246500,3.11824658203125,-1.1578931475445629,6.389184319758415,-7.349012517243623
1790107951606191400,3.12819140625,-1.1397693887677043,6.5548442530363795,-7.204533903682232
1790107951616135400,3.138135498046875,-1.1525376118607817,6.635095601359009,-7.128642504134774
1790107951626079200,3.148079345703125,-1.2639252722032368,6.748416860112547,-7.002268287062645
1790107951636024600,3.158024658203125,-1.3505520007766783,6.90343264977932,-6.832937556317448
1790107951645968400,3.167968505859375,-1.1869064760610462,7.0317024713397025,-6.731774937391281
1790107951655912400,3.177912353515625,-0.9381481344662607,7.129280217516422,-6.66810472151339
1790107951665857300,3.187857177734375,-0.7381014360051602,7.226531800478696,-6.588082505771517
1790107951675801300,3.19780126953125,-0.5361473695527762,7.315520582008362,-6.508925382426381
1790107951685745400,3.207745361328125,-0.3388243604345247,7.384256264582276,-6.44424803533256
1790107951695690500,3.2176904296875,-0.17715934201162306,7.436205647528171,-6.390763113382459
1790107951705634300,3.22763427734375,-0.08739767641332,7.4666305964082476,-6.3570584121793505
1790107951715577600,3.23757763671875,-0.07301613180551211,7.484332841837405,-6.336388549116253
1790107951725522700,3.247522705078125,-0.11215343881687148,7.491793679237365,-6.326992944261431
1790107951735466800,3.257466796875,-0.16740622895602136,7.49972973293364,-6.316362829175591
1790107951745410600,3.26741064453125,-0.21587010787371544,7.503092487365007,-6.310894626897573
1790107951755355600,3.277355712890625,-0.2117896701596677,7.48641432428658,-6.330806949591636
1790107951765299500,3.287299560546875,-0.11164559889258817,7.450544554004073,-6.37552287415266
1790107951775243500,3.297243408203125,0.02782959634134313,7.423014742043614,-6.408467696899176
1790107951785188600,3.307188720703125,0.16564378586076198,7.402882639119029,-6.429642002353072
1790107951795132700,3.317132568359375,0.28362025000900026,7.385261057710647,-6.445766038680076
1790107951805076500,3.327076416015625,0.39083299928698684,7.366485630092025,-6.461621194937825
1790107951815021800,3.337021728515625,0.4620464336186647,7.3581450872480865,-6.466420704174041
1790107951824965600,3.346965576171875,0.5067127468843012,7.360068748787045,-6.460882943791151
1790107951834910700,3.35691064453125,0.5500261111710221,7.361573892652988,-6.455623415827751
1790107951844854500,3.3668544921875,0.5963864784708246,7.361486214369535,-6.4516077504456035
1790107951854798600,3.376798583984375,0.6533123711876571,7.360644502848387,-6.447053155881166
1790107951864743700,3.38674365234375,0.7231519233502447,7.367810156694055,-6.431392645412683
1790107951874687700,3.396687744140625,0.8038771727949381,7.386520117861032,-6.400273284527659
1790107951884631600,3.406631591796875,0.8970475508581847,7.404893394419551,-6.366574428543448
1790107951894576600,3.41657666015625,0.9897311683177947,7.4222951955974095,-6.332483358371257
1790107951904520700,3.426520751953125,1.0824851475998758,7.432830033615231,-6.304890418046712
1790107951914464800,3.43646484375,1.152314470629394,7.424094938495755,-6.302807182031869
1790107951924409600,3.44640966796875,1.174880084311217,7.393484111654758,-6.334541459944844
1790107951934353700,3.456353759765625,1.1633487095367163,7.353315767395496,-6.383240901184082
1790107951944297500,3.46629736328125,1.1474861006248742,7.316756845805049,-6.427964424529671
1790107951954242800,3.476242919921875,1.1353672813512383,7.279109544456005,-6.472703729966282
1790107951964186600,3.4861865234375,1.119552018712461,7.226843935167789,-6.533738336643577
1790107951974130700,3.496130615234375,1.1620252058479934,7.16242436222732,-6.596950287359952
1790107951984075500,3.506075439453125,1.257913318437338,7.093074347147345,-6.654048139110207
1790107951994019800,3.516019775390625,1.3241694591552018,7.02937548969686,-6.7085670802831645
1790107952003963600,3.525963623046875,1.3519354179590939,6.989955917978286,-6.74412179326713
1790107952013908700,3.53590869140625,1.374741562398523,6.984442122992872,-6.745225370594858
1790107952023852500,3.5458525390625,1.4003253548577428,6.996606608039141,-6.727330817463994
1790107952033797600,3.555797607421875,1.4035567379944025,7.017436045578122,-6.704921417257189
1790107952043741700,3.56574169921875,1.3839819766916335,7.025243504458666,-6.700814566460251
1790107952053685800,3.575685791015625,1.3505465939491987,7.015418276014923,-6.7179089091241355
1790107952063630600,3.585630615234375,1.2945032196879387,7.003848249730467,-6.740978234544396
1790107952073574700,3.59557470703125,1.2033758917596191,7.002566977748274,-6.759164464098215
1790107952083518700,3.605518798828125,1.084125535218045,7.017158397680521,-6.764212395137548
1790107952093463600,3.615463623046875,0.9653938687883317,7.030930317923426,-6.767897805652022
1790107952103407600,3.62540771484375,0.8467732615176587,7.036776705864072,-6.777694392523169
1790107952113351700,3.6353515625,0.7838007455803453,7.042388116005062,-6.779438605841994
1790107952123296800,3.645296875,0.7256638331059366,7.045006189548969,-6.783190067330002
1790107952133240600,3.655240478515625,0.6743243256866932,7.038453699165582,-6.79528031809628
1790107952143184600,3.6651845703125,0.6692203536111861,7.0125681472808115,-6.822495657280087
1790107952153129500,3.67512939453125,0.6909069194361567,6.969672423884272,-6.864159793055057
1790107952163073500,3.685073486328125,0.6869898190576583,6.913531434467434,-6.921090471544861
1790107952173017900,3.695017822265625,0.6748854667007923,6.8556935780048365,-6.979570133042335
1790107952182962700,3.704962646484375,0.6969933266777545,6.818317494812607,-7.013923069021105
1790107952192906500,3.714906494140625,0.7410074596449733,6.7997302832424635,-7.027441306763887
1790107952202850600,3.7248505859375,0.7914819477327167,6.783428552260995,-7.037685637402534
1790107952212795600,3.734795654296875,0.8683844240188598,6.760781251645088,-7.0503989885032174
1790107952222739700,3.74473974609375,0.9239088889725505,6.734428666770458,-7.06854020987153
1790107952232683800,3.754683837890625,0.939716479761526,6.709606944724917,-7.090028988102078
1790107952242628600,3.764628662109375,0.8620005682006477,6.686951460802555,-7.121238949880004
1790107952252572400,3.774572509765625,0.754510134492442,6.649034694862365,-7.168780453255772
1790107952262517800,3.784517822265625,0.7037872976668179,6.622341333726048,-7.19858697797656
1790107952272461600,3.794461669921875,0.6496632010303437,6.591347645047307,-7.232043841898441
1790107952282405600,3.804405517578125,0.5602550250448286,6.5514417511165135,-7.275654435566067
1790107952292350500,3.8143505859375,0.4288173505706712,6.4999699225544925,-7.330545132660865
1790107952302294800,3.824294677734375,0.28576544534415005,6.446867277920246,-7.384213594484328
1790107952312238600,3.834238525390625,0.21304810925554482,6.419913220021129,-7.410107914197445
1790107952322183700,3.84418359375,0.3012422332761809,6.444866459491848,-7.385347566950321
1790107952332127500,3.85412744140625,0.5941341694993898,6.539929007977247,-7.2833186865836375
1790107952342071600,3.864071533203125,1.0257527681611478,6.673495766901969,-7.112151388061046
1790107952352016600,3.8740166015625,1.3651906208515165,6.768615598532557,-6.96365301746428
1790107952361960700,3.883960693359375,1.4489426707714794,6.805880038043856,-6.910206089437008
1790107952371904500,3.893904541015625,1.3651846295021473,6.80978932044208,-6.923397579443455
1790107952381849600,3.903849609375,1.3152413256816564,6.799119457867741,-6.943523252627253
1790107952391793700,3.913793701171875,1.290865739968419,6.76751085216105,-6.978885073387622
1790107952401737700,3.92373779296875,1.2718141257569193,6.733733085721731,-7.014962933462858
1790107952411682600,3.9336826171875,1.2400487220533192,6.698866355001926,-7.053923655498028
1790107952421626600,3.943626708984375,1.2238917333047836,6.6570315388351675,-7.096222582045197
1790107952431570400,3.9535703125,1.2332478098668158,6.60516165086627,-7.142922373899817
1790107952441515800,3.963515869140625,1.250648880392313,6.5364306444674725,-7.202872107949853
1790107952451459600,3.97345947265625,1.2648249975219368,6.44838761935532,-7.279347444865107
1790107952461403600,3.983403564453125,1.267261430888623,6.345113122841715,-7.3691224083364
1790107952471348500,3.993348388671875,1.2310168359443545,6.246469208738207,-7.458994986963272
1790107952481292800,4.003292724609375,1.167559459099546,6.160922676616907,-7.539908014065027
1790107952491237600,4.013237548828125,1.1129118500456214,6.0799319081038234,-7.613556018599867
1790107952501181700,4.023181640625,1.0661180962972343,6.000889351049065,-7.682651766657829
1790107952511125500,4.03312548828125,1.0242261431157589,5.921769637104869,-7.749451512733101
1790107952521070600,4.043070556640625,0.9662345573961734,5.8416205801129335,-7.81743316206932
1790107952531014700,4.0530146484375,0.8838638788320123,5.775205449441075,-7.876305622276663
1790107952540958700,4.062958740234375,0.795685244641453,5.7266468779772515,-7.92103499084115
1790107952550903600,4.072903564453125,0.7315552292320877,5.686185688251257,-7.9562880905300375
1790107952560847600,4.08284765625,0.8052467806477099,5.634408154740929,-7.9859525764316315
1790107952570791700,4.092791748046875,1.0376594790540634,5.5659086190104485,-8.007141494932771
1790107952580736500,4.102736572265625,1.2490769549004732,5.492238987165689,-8.027796160426735
1790107952590680600,4.1126806640625,1.3711189879871903,5.425135874229669,-8.053466023734211
1790107952600624600,4.122624755859375,1.4298919333428144,5.367397386488318,-8.081882555401325
1790107952610569700,4.13256982421875,1.483011821372807,5.31278725990057,-8.108350291088223
1790107952620513800,4.142513671875,1.573646178152412,5.255521065846085,-8.128563642555475
1790107952630457600,4.15245751953125,1.6967806826509535,5.200855409678817,-8.13894475131631
1790107952640402400,4.16240234375,1.838945174051076,5.153793214252591,-8.138002502030133
1790107952650346800,4.1723466796875,1.9950594264790416,5.107817645019293,-8.130210240718721
1790107952660290800,4.182290771484375,2.155191828507185,5.064816123160719,-8.116228477117419
1790107952670235600,4.192235595703125,2.301917051951587,5.037237211361528,-8.093072642457484
1790107952680179700,4.2021796875,2.407457009179145,5.0262885318458075,-8.06913530203104
1790107952690123500,4.21212353515625,2.457591013266146,5.01850679192841,-8.05885999173224
1790107952700068600,4.222068603515625,2.484892861689627,5.0035260804176325,-8.059801656496525
1790107952710012700,4.2320126953125,2.543213533233106,4.960530403777956,-8.068186038482189
1790107952719958300,4.241958251953125,2.6540447287365794,4.890263566114008,-8.07537974937856
1790107952729902300,4.25190234375,2.8077020895317197,4.781319791792333,-8.088644889143108
1790107952739846100,4.26184619140625,2.9864705107077953,4.646567037953436,-8.103136355832218
1790107952749791500,4.27179150390625,3.208276694099605,4.500785817360878,-8.10063518666625
1790107952759735300,4.2817353515625,3.457549853348732,4.348370857842267,-8.081298618033529
1790107952769679400,4.291679443359375,3.6649542941614985,4.208412059792876,-8.063980403485894
1790107952779624200,4.301624267578125,3.787548700433969,4.088534803524613,-8.069001446518302
1790107952789568300,4.311568359375,3.8417283266499638,3.974331793500483,-8.100380335122347
1790107952799512300,4.32151220703125,3.911387553809583,3.853322610592842,-8.125475613412261
1790107952809457400,4.33145751953125,4.052710625949501,3.721798755672574,-8.117522024059296
1790107952819401200,4.341401123046875,4.210998569154739,3.602924538967013,-8.090538740065693
1790107952829345300,4.35134521484375,4.324763772283494,3.5199463960289954,-8.067016994702815
1790107952839290400,4.361290283203125,4.38796724743247,3.467993798212707,-8.055382086488605
1790107952849234400,4.371234375,4.414826028263569,3.4351816619351503,-8.054766584938765
1790107952859178200,4.38117822265625,4.4474040635243055,3.4046748799905178,-8.049795810788869
1790107952869123300,4.391123291015625,4.497021496391296,3.3740485633194446,-8.035110282832383
1790107952879067400,4.4010673828125,4.585710710452497,3.3337007708400486,-8.00175278763175
1790107952889011500,4.411011474609375,4.727466621051729,3.275860868550837,-7.942932349872589
1790107952898956300,4.420956298828125,4.894935649578273,3.2177979711607096,-7.86484314801991
1790107952908900400,4.430900390625,5.035353881832957,3.1697794979229568,-7.7953908416092395
1790107952918845400,4.440845458984375,5.137647550615668,3.114712859739363,-7.750712326449156
1790107952928789500,4.45078955078125,5.233121017989516,3.0350533398300406,-7.718370730292797
1790107952938733300,4.4607333984375,5.306104421135783,2.9480908034309743,-7.702235003527998
1790107952948678100,4.47067822265625,5.328842322644591,2.8805639121249316,-7.712077767628431
1790107952958622200,4.480622314453125,5.281252888473868,2.8494822529017925,-7.756234889262914
1790107952968566500,4.49056640625,5.208624874636531,2.8684342061311003,-7.798247400084137
1790107952978511400,4.500511474609375,5.14161528520286,2.938449407121539,-7.81663061351478
1790107952988455200,4.510455078125,5.086806421172619,3.0250574309945106,-7.819448593544959
1790107952998399200,4.520399169921875,5.060445652991533,3.0906790732011196,-7.8108882704705
1790107953008344300,4.53034423828125,5.037305600422621,3.1316002816542983,-7.809549130821227
1790107953018288400,4.540288330078125,4.982506673264504,3.156017514552176,-7.834830871593952
1790107953028232400,4.550232421875,4.880200729522109,3.174154059745371,-7.891692576500773
1790107953038177300,4.56017724609375,4.7220811286211015,3.202487881565094,-7.975989985343814
1790107953048121000,4.57012109375,4.527829307109117,3.236616653399169,-8.07424460786879
1790107953058065400,4.5800654296875,4.33113096922785,3.2905949118241664,-8.159880571839214
1790107953068010200,4.59001025390625,4.1970378483414645,3.3916891416892407,-8.188510453996061
1790107953077954300,4.599954345703125,4.121654690577089,3.4582647236198185,-8.198949430423975
1790107953087898400,4.6098984375,4.0231738580808045,3.41822935809046,-8.264394254758953
1790107953097843500,4.619843505859375,3.8681881712913513,3.3385166466891762,-8.370292670035361
1790107953107787300,4.629787353515625,3.742358436359465,3.3077269561499354,-8.439438102453947
1790107953117731300,4.6397314453125,3.731039169965684,3.3988103718712925,-8.408198330059648
1790107953127676200,4.64967626953125,3.712323655840754,3.755876381841302,-8.26331931900382
1790107953137620200,4.6596201171875,3.7055323882654307,4.361268625599146,-7.963587599888443
1790107953147565300,4.6695654296875,3.720213240046799,5.010720375835895,-7.564591204422712
1790107953157509400,4.67950927734375,3.739058810292184,5.452119158223271,-7.24321639329791
1790107953167453200,4.689453125,3.765068280817568,5.607397982740402,-7.109972874978184
1790107953177398300,4.699398193359375,3.737317519582808,5.652969062826037,-7.088498709794878
1790107953187342300,4.70934228515625,3.6554555211931463,5.733077787807583,-7.066813532209396
1790107953197286400,4.719286376953125,3.564742692349851,5.845494206675887,-7.020910443690418
1790107953207231200,4.729231201171875,3.4875603762090206,5.941842118796706,-6.978671138375997
1790107953217175300,4.73917529296875,3.4308582457780834,6.0227335185885424,-6.937311538505554
1790107953227119000,4.749119140625,3.404815749765932,6.1030877427637575,-6.879677095660567
1790107953237064400,4.759064453125,3.3997055671453476,6.238468857634067,-6.759728527721762
1790107953247008300,4.76900830078125,3.401222109188139,6.442021006932854,-6.5652417284101245
1790107953256952300,4.778952392578125,3.4139985886529085,6.6401026158660645,-6.357989555549621
1790107953266897200,4.788897216796875,3.4568659627377984,6.793958129581808,-6.169492352041602
1790107953276841500,4.798841552734375,3.5232360852241515,6.907973215818405,-6.003088906919956
1790107953286785300,4.808785400390625,3.595996493269503,6.994108946004509,-5.858466500973701
1790107953296730400,4.81873046875,3.664636021992564,7.055247013056277,-5.74145749361813
1790107953306674200,4.828674072265625,3.7436157429441805,7.084170909723639,-5.654225200366974
1790107953316618200,4.8386181640625,3.836048527447879,7.0857760068327185,-5.589892136666179
1790107953326563300,4.848563232421875,3.8863153641343113,7.104978719952702,-5.5304807472765445
1790107953336507400,4.85850732421875,3.9042251148343086,7.133858192956447,-5.480464378219843
1790107953346451200,4.868451171875,3.896609379133582,7.172053775838017,-5.435849575945735
1790107953356396300,4.878396240234375,3.8852380902916193,7.215490766504407,-5.386282119700312
1790107953366340400,4.88834033203125,3.8793078234598037,7.2657567264080045,-5.322606058603525
1790107953376285400,4.898285400390625,3.860280466906726,7.330754391497373,-5.246780710029602
1790107953386229200,4.908229248046875,3.809634860035777,7.417024561718105,-5.1618637079834935
1790107953396173300,4.91817333984375,3.7315687467977403,7.514128845164179,-5.077760944929719
1790107953406118400,4.928118408203125,3.62618675661087,7.613170234152674,-5.006075764900445
1790107953416062500,4.9380625,3.5185081799194213,7.709671291008592,-4.934714994519949
1790107953426006300,4.94800634765625,3.4078143470600244,7.801213848674297,-4.868083590748906
1790107953435951400,4.957951416015625,3.3125387403458353,7.879383130025863,-4.807575930555164
1790107953445895200,4.967895263671875,3.2709716352045533,7.939213037088513,-4.737093988835811
1790107953455839500,4.977839599609375,3.2670679057642817,7.973909087416529,-4.681182131999731
1790107953465784300,4.987784423828125,3.2727246163517236,7.993758866268396,-4.643222988222539
1790107953475728400,4.997728271484375,3.2664448054298756,8.005305511677264,-4.627722344490885
1790107953485672200,5.007672119140625,3.235472159539163,8.004108410847186,-4.65149251165688
1790107953495617300,5.0176171875,3.192615891370177,7.989979932251572,-4.705085277895629
1790107953505561300,5.027561279296875,3.146770085996389,7.964308315378427,-4.778912146128714
1790107953515505400,5.03750537109375,3.095773473730683,7.9273647783845655,-4.872727032640576
1790107953525450200,5.0474501953125,3.0355723952680824,7.8648536694139235,-5.009967511641979
1790107953535394300,5.057394287109375,2.9728812535554168,7.76642485936582,-5.197596700143814
1790107953545338400,5.06733837890625,2.8822867903947826,7.631286905601621,-5.442999447700381
1790107953555283200,5.077283203125,2.7781998084545134,7.4537079864710565,-5.735346317261457
1790107953565227300,5.087227294921875,2.679829158334434,7.229947746402025,-6.0594374016076324
1790107953575171300,5.09717138671875,2.487537238718569,7.032047923776507,-6.366543448883295
1790107953585116400,5.107116455078125,2.2611510340601204,6.884470175155997,-6.6076978913456195
1790107953595060200,5.117060302734375,2.038017109195888,6.747091748988628,-6.818623784282803
1790107953605005300,5.12700537109375,1.797152443460375,6.578927723935246,-7.046866138201952
1790107953614949000,5.13694921875,1.5394311893396078,6.372866222164035,-7.292951022803783
1790107953624893200,5.14689306640625,1.2717903064899145,6.131658003687858,-7.546902402997016
1790107953634838300,5.15683837890625,1.0048138788983225,5.858519107943773,-7.79990335059762
1790107953644782300,5.1667822265625,0.7742783725406974,5.593420310792326,-8.017762257668375
1790107953654726100,5.17672607421875,0.611450703546591,5.3479328075617545,-8.197323290526866
1790107953664671500,5.18667138671875,0.4869530940013006,5.094349091637135,-8.365457504963874
1790107953674615300,5.196615234375,0.37686515461318193,4.847250938339531,-8.516602590677142
1790107953684559400,5.206559326171875,0.29749495477294546,4.629057684747875,-8.640240076261758
1790107953694504200,5.216504150390625,0.28697739668348804,4.468054637365043,-8.724936129033566
1790107953704448300,5.2264482421875,0.36859460826553403,4.373667796184122,-8.769580741924047
1790107953714391800,5.236391845703125,0.5108395444907248,4.308551180890202,-8.794647963163255
1790107953724336600,5.246336669921875,0.6601024697192013,4.247706251566112,-8.814286729612945
1790107953734280700,5.25628076171875,0.756466529257223,4.200389204595983,-8.829205481803417
1790107953744224800,5.266224853515625,0.7846582391925155,4.177550180800259,-8.837577588829397
1790107953754169600,5.276169677734375,0.7719407233733684,4.187931874082983,-8.833782872721553
1790107953764113700,5.28611376953125,0.7536294061351567,4.220574206751585,-8.81981747573316
1790107953774057700,5.2960576171875,0.7533749199174344,4.266420888908208,-8.797752943441271
1790107953784002800,5.3060029296875,0.7904640759270638,4.329089234267175,-8.763820278701186
1790107953793946600,5.315946533203125,0.8505049953918904,4.399786864563822,-8.72289439407289
1790107953803890700,5.325890625,0.9355565105378627,4.460124428887665,-8.683457286697626
1790107953813835500,5.33583544921875,0.9787282743968069,4.502139570057392,-8.656976691529154
1790107953823779600,5.345779541015625,0.9490939644377678,4.546294353604316,-8.63717776608169
1790107953833724700,5.355724609375,0.8682577288992702,4.618205451343953,-8.607478793388605
1790107953843668700,5.365668701171875,0.7504029914345591,4.697649867197871,-8.575509537675977
1790107953853612500,5.375612548828125,0.7083179998990148,4.7478731570035215,-8.551398009726405
1790107953863557600,5.3855576171875,0.8109192733261734,4.732073238064348,-8.551041451373695
1790107953873501700,5.395501708984375,0.9464976643342524,4.710140515458583,-8.549217158555985
1790107953883445800,5.40544580078125,1.0506162835218011,4.734104743891955,-8.523781104004383
1790107953893390600,5.415390625,1.177747967897728,4.757494679568707,-8.494088561052083
1790107953903334700,5.425334716796875,1.3293454004883765,4.729196221323311,-8.487514443358778
1790107953913278500,5.435278564453125,1.4121988941334187,4.6873058755770325,-8.497366559809446
1790107953923223800,5.445223876953125,1.4016983967766166,4.699230414387584,-8.492517366212606
1790107953933167600,5.455167724609375,1.3395124281071125,4.748023086868226,-8.475397889107466
1790107953943111700,5.465111572265625,1.2091485568769276,4.798823884300887,-8.466382808002828
1790107953953056500,5.475056396484375,1.0498154885329305,4.847667117924988,-8.459809859353303
1790107953963000800,5.485000732421875,0.9375994876075535,4.9031616261318325,-8.440988839027286
1790107953972944600,5.494944580078125,0.8973591010253876,4.9764925275415175,-8.402361878991126
1790107953982889700,5.5048896484375,0.9120366648711263,5.047658067610859,-8.358214109706879
1790107953992833500,5.51483349609375,0.9530266277115792,5.087559869888425,-8.32939718054533
1790107954002777600,5.524777587890625,0.9819739052545279,5.122305020055174,-8.30470229974985
1790107954012722700,5.53472265625,1.0217051002055406,5.121878319075703,-8.300173424148559
1790107954022666800,5.544666748046875,1.0621304149005562,5.107005744114518,-8.304262154766917
1790107954032611600,5.554611572265625,1.0885549690328538,5.1045951758414505,-8.302320957571268
1790107954042555600,5.5645556640625,1.0940654030174017,5.115820918732881,-8.294683594560622
1790107954052499700,5.574499755859375,1.1008909381885081,5.129387671792506,-8.285397295299171
1790107954062444800,5.58444482421875,1.099605866814032,5.136553325638174,-8.281126193851232
1790107954072388600,5.594388671875,1.0785562106531112,5.141523515266179,-8.28081113655269
1790107954082332700,5.604332763671875,1.0456363031521438,5.157904741224646,-8.274843168058991
1790107954092277800,5.61427783203125,1.0303059744860976,5.179582904547453,-8.263217027673125
1790107954102221800,5.624221923828125,1.0211235739905387,5.211650359937549,-8.244174473550915
1790107954112165600,5.63416552734375,1.009408878538385,5.260078583019972,-8.214805755725502
1790107954122110700,5.64411083984375,1.0020569814056157,5.322548190936446,-8.175373909047245
1790107954132054500,5.654054443359375,0.9820639946907758,5.392195143136382,-8.132045639452338
1790107954141998800,5.663998779296875,0.9530534426532685,5.470042352926731,-8.083359642216562
1790107954151943700,5.673943603515625,0.9286354791030287,5.55447303276062,-8.02844088807106
1790107954161887700,5.6838876953125,0.9172522806275636,5.626692465797066,-7.979309485155343
1790107954171831600,5.69383154296875,0.89071060292162,5.6802253185421225,-7.94431006796658
1790107954181776600,5.703776611328125,0.8532724142786114,5.71814500709176,-7.921181121313571
1790107954191720700,5.713720703125,0.8166317326888441,5.7468280807405705,-7.904266811391711
1790107954201664800,5.723664794921875,0.7891008978150784,5.776369817045331,-7.885507750385999
1790107954211609600,5.733609619140625,0.7679288573835045,5.816169327992201,-7.858298256421088
1790107954221553700,5.7435537109375,0.7483719970636069,5.860497714540362,-7.827189416930079
1790107954231497700,5.753497802734375,0.7251310414034873,5.902550557371973,-7.79772074586153
1790107954241442600,5.763442626953125,0.6952840385418385,5.937085864180326,-7.774184971973299
1790107954251386600,5.77338671875,0.6663442867182194,5.974622690892219,-7.747920649904012
1790107954261330700,5.78333056640625,0.7434606980159878,6.022385143542289,-7.703800937670469
1790107954271275800,5.79327587890625,1.0677415327806026,6.037085869067907,-7.654013116672635
1790107954281219800,5.8032197265625,1.3092973225854336,6.06263181373477,-7.596090504536032
1790107954291164700,5.81316455078125,1.6552236605122685,6.071143621492386,-7.5214236783474675
1790107954301108500,5.8231083984375,2.0029044408909975,6.025981706729531,-7.473036956319213
1790107954311052500,5.833052490234375,2.3346058541104195,5.91499736649096,-7.465439925318956
1790107954320997600,5.84299755859375,2.6714105818182228,5.7690773219496005,-7.466705999732017
1790107954330941700,5.852941650390625,2.918962324102223,5.6400195648819205,-7.472630713605881
1790107954340885800,5.8628857421875,2.9908044482588765,5.5890697143673895,-7.482499196669459
1790107954350830800,5.872830810546875,2.952797373686731,5.607826437285542,-7.48356010389924
1790107954360774700,5.882774658203125,2.903860908821225,5.631728121876717,-7.484757204729318
1790107954370718700,5.89271875,2.8546520567551252,5.652788445562124,-7.487811331602931
1790107954380663600,5.90266357421875,2.78814661745131,5.686883607387542,-7.487055544799566
1790107954390607600,5.912607666015625,2.786163626940548,5.742196913808584,-7.44545862904191
1790107954400551700,5.9225517578125,2.8353286398649216,5.812752213025092,-7.371786074587702
1790107954410496800,5.932496826171875,2.9028230902060863,5.853661146518588,-7.312908353683352
1790107954420440600,5.942440673828125,3.0031399059578776,5.871978893497586,-7.257507368978858
1790107954430384600,5.952384521484375,3.1051538810163732,5.887247774299979,-7.201995325115322
1790107954440329700,5.962329833984375,3.2044244025856257,5.901472114485502,-7.146652792599797
1790107954450273800,5.972273681640625,3.3012513303950426,5.904651329043507,-7.099803363141417
1790107954460217600,5.982217529296875,3.3747426830634475,5.900161031886935,-7.068918980056047
1790107954470162700,5.99216259765625,3.4330291600763796,5.894924300277233,-7.0451803770720955
1790107954480106500,6.0021064453125,3.5019431218266486,5.894466035115719,-7.011566861283779
1790107954490050800,6.01205078125,3.5849624735578893,5.9090726526170965,-6.9571040342122314
1790107954499995600,6.02199560546875,3.6688439950764176,5.942997134050726,-6.88409198949337
1790107954509939700,6.031939697265625,3.735217040172219,5.985813946992159,-6.810914525079727
1790107954519884500,6.041884521484375,3.790212366685271,6.021666766139864,-6.748645992693304
1790107954529828900,6.051828857421875,3.8471424606531857,6.057535367378592,-6.6840218370914455
1790107954539772700,6.061772705078125,3.9149280028954148,6.0950207561641925,-6.610178602245449
1790107954549717800,6.0717177734375,3.990775271040201,6.144084939062595,-6.518765223917365
1790107954559661600,6.08166162109375,4.08580830117017,6.2217825112491845,-6.384825540027022
1790107954569605600,6.091605712890625,4.180526858523487,6.317859205213189,-6.227219149345159
1790107954579550700,6.10155078125,4.252037851029634,6.425683035594225,-6.066396134704351
1790107954589494800,6.111494873046875,4.302840694288909,6.528852902689576,-5.918616726031899
1790107954599438600,6.1214384765625,4.337484722168743,6.627382250502706,-5.782252445343136
1790107954609383700,6.1313837890625,4.337617116376757,6.724343910607695,-5.669100113415718
1790107954619327700,6.14132763671875,4.291174221892654,6.8247747081279755,-5.583788559094071
1790107954629271800,6.151271728515625,4.23434612699449,6.930409504032134,-5.496374479535222
1790107954639216600,6.161216552734375,4.21599447774589,7.0313523427277795,-5.38106409279108
1790107954649160700,6.17116064453125,4.213715134637058,7.1304095138072965,-5.25092555474937
1790107954659104500,6.1811044921875,4.202749503986537,7.2228358685702085,-5.13204958447814
1790107954669049900,6.1910498046875,4.181839110165834,7.313197107496857,-5.0199341943830245
1790107954678993700,6.20099365234375,4.172520954461396,7.399044668391347,-4.900472240917384
1790107954688937700,6.210937744140625,4.166616114331782,7.4815259677231305,-4.778748479999601
1790107954698882600,6.220882568359375,4.136115469866991,7.56163001652956,-4.6781078391209245
1790107954708827000,6.230826904296875,4.064347872251272,7.636510777729749,-4.619003908245265
1790107954718772000,6.24077197265625,3.9572006259575483,7.705982957884669,-4.596606782998144
1790107954728715800,6.2507158203125,3.8461747846648096,7.753884526744485,-4.610274073822796
1790107954738659800,6.260659912109375,3.731208681313693,7.77556444363296,-4.667874906659126
1790107954748605000,6.27060498046875,3.536149927332997,7.816566316106915,-4.750506135855614
1790107954758549000,6.280549072265625,3.2780382125899195,7.88339879540801,-4.8246162049442525
1790107954768493000,6.2904931640625,2.9998423257172107,7.952793818673491,-4.891256084282696
1790107954778438000,6.30043798828125,2.7379832411393523,8.012378226542472,-4.947284553235769
1790107954788381700,6.310381591796875,2.4938968368783594,8.065466842651366,-4.989901459690929
1790107954798326000,6.320325927734375,2.269525771434605,8.1109642729789,-5.023137958860397
1790107954808270800,6.330270751953125,2.099450798193365,8.138623264276982,-5.052279297670721
1790107954818215000,6.34021484375,2.0775122303687037,8.137831237116455,-5.062609553027153
1790107954828159000,6.350158935546875,2.2816908410027623,8.092191183447838,-5.047845699137449
1790107954838104000,6.36010400390625,2.621478676174581,7.991503196296096,-5.0432250535994765
1790107954848047900,6.3700478515625,2.884490437918901,7.855548080930113,-5.112776144209504
1790107954857992000,6.379991943359375,2.988573620466888,7.708900306636094,-5.2736780693054195
1790107954867936800,6.389936767578125,2.9500597654163836,7.563579397031664,-5.500892833742499
1790107954877880800,6.399880859375,2.8170181994095445,7.419882289236783,-5.760221815320849
1790107954887825000,6.409824951171875,2.674176247139275,7.281491471156477,-5.999921382799744
1790107954897770000,6.41977001953125,2.55779092464,7.156445872339606,-6.197852769607305
1790107954907713800,6.4297138671875,2.441416854187101,7.04987058071494,-6.364684084752201
1790107954917657900,6.439657958984375,2.304443063297868,6.96935970467329,-6.502919420009851
1790107954927603000,6.44960302734375,2.168672510718554,6.919979295432567,-6.6016019125580785
1790107954937547000,6.459547119140625,2.061605928445607,6.900161080762744,-6.656423051548003
1790107954947491800,6.469491943359375,1.996374454600364,6.905995193743705,-6.670238810932636
1790107954957436000,6.479435791015625,1.9820133362926542,6.932384603497385,-6.647108695235848
1790107954967380000,6.4893798828125,2.022426010701805,6.9730497913628815,-6.592175912564993
1790107954977325000,6.499324951171875,2.10809105463624,7.024090242770314,-6.510644461303949
1790107954987268900,6.509268798828125,2.204378907132894,7.0866674027144905,-6.410168071076273
1790107954997213000,6.519212890625,2.27012286054492,7.16009328893125,-6.304757147055864
1790107955007158000,6.529157958984375,2.2857028531230985,7.242704352122545,-6.203966284051537
1790107955017102000,6.53910205078125,2.229940341629833,7.327106974905729,-6.124645494577289
1790107955027046000,6.5490458984375,2.088626183448732,7.40901544278562,-6.0757309492826455
1790107955036991000,6.558990966796875,1.8729213856719433,7.48941525966823,-6.04741144824922
1790107955046934800,6.568934814453125,1.5999407492294906,7.560437591874599,-6.037411447760462
1790107955056879000,6.578879150390625,1.2749950938805936,7.611063032740354,-6.051156479996442
1790107955066824000,6.588823974609375,0.8978256225585937,7.631245404547452,-6.093307522505522
1790107955076768000,6.59876806640625,0.4904216103620827,7.616133760133385,-6.158279468631744
1790107955086711800,6.6087119140625,0.08493641913263127,7.563454893869161,-6.241582605740428
1790107955096657200,6.6186572265625,-0.2957693365567364,7.477202259305119,-6.3383250701367855
1790107955106601000,6.62860107421875,-0.6101499231463298,7.375245275130868,-6.434581796842813
1790107955116545800,6.6385458984375,-0.8121520299915224,7.257828271496296,-6.544823209759593
1790107955126489900,6.64848974609375,-0.8324244181696325,7.121887184655666,-6.690006172198057
1790107955136434000,6.658433837890625,-0.6553096094194799,6.973716146317124,-6.8635454605489965
1790107955146379000,6.66837890625,-0.3537477888001129,6.826383896890282,-7.031763846138119
1790107955156323000,6.678322998046875,0.00923736324867641,6.708726654759049,-7.1528510627180335
1790107955166267000,6.688266845703125,0.3809739781714976,6.6343403990775345,-7.211849195131659
1790107955176211700,6.698211669921875,0.68592577002272,6.6055749078422785,-7.215696518209576
1790107955186156000,6.708156005859375,0.7835114072449505,6.617928193458915,-7.194407061943411
1790107955196100000,6.71810009765625,0.6609635435279458,6.640939651212096,-7.185500117388367
1790107955206045000,6.728044921875,0.4848830462615937,6.643966890078783,-7.196732874542474
1790107955215989000,6.737989013671875,0.34497086383290587,6.624234015604853,-7.2229440051198
1790107955225932800,6.747932861328125,0.25797718337690456,6.576968406561017,-7.269616324445605
1790107955235878000,6.7578779296875,0.2028113226025365,6.497641771867871,-7.342336692741513
1790107955245822000,6.767822021484375,0.16906859094398094,6.396221963310241,-7.431698399236798
1790107955255766000,6.77776611328125,0.15047519622822292,6.2804147329598665,-7.530216056612134
1790107955265710800,6.7877109375,0.1544813174638897,6.140916245898604,-7.644322912785411
1790107955275655000,6.797655029296875,0.17973328415285794,5.967164776101708,-7.780166968992352
1790107955285599000,6.807598876953125,0.18958565633185206,5.7648827928692095,-7.9309876450568435
1790107955295543800,6.817543701171875,0.15643674411429093,5.548704386231303,-8.084415873271226
1790107955305488000,6.82748779296875,0.0711778241621796,5.322337178534269,-8.236386303892731
1790107955315432000,6.837431884765625,-0.027933853583550078,5.090650237119197,-8.38182061074376
1790107955325377000,6.847376953125,-0.09659128328948281,4.879871059176326,-8.505759125101566
1790107955335320800,6.85732080078125,-0.14050330758909693,4.7350791418820615,-8.58659908696711
1790107955345266000,6.867265869140625,-0.10215938401171006,4.706483746516704,-8.602845288369059
1790107955355209700,6.877209716796875,0.008006490867270621,4.804653613367677,-8.549012575894594
1790107955365154000,6.887154052734375,0.1071734219145961,4.885134678792953,-8.502609136638045
1790107955375099000,6.897098876953125,0.26084636387135834,4.954719671672582,-8.458907357555628
1790107955385043000,6.90704296875,0.48620125272069126,5.022466343209147,-8.408855332663654
1790107955394986800,6.91698681640625,0.7464721547916531,5.083499196320772,-8.35291658782065
1790107955404932000,6.92693212890625,1.0454035173095761,5.154935954546928,-8.276722405934333
1790107955414876000,6.9368759765625,1.3859028617516158,5.236294387328624,-8.175016181650758
1790107955424820000,6.946820068359375,1.7296147384993732,5.315263879147172,-8.057718420481681
1790107955434764800,6.956764892578125,2.050710732682794,5.3914533848583694,-7.930775463610887
1790107955444708900,6.966708984375,2.330436605601758,5.450672466546297,-7.812144992533326
1790107955454653000,6.97665283203125,2.579618725566566,5.485289021897316,-7.70892894820869
1790107955464598000,6.986597900390625,2.8133029782786965,5.489087829658389,-7.624018960425257
1790107955474541800,6.996541748046875,3.0199606923773885,5.459972209811211,-7.565642759302258
1790107955484486000,7.00648583984375,3.1795044808626174,5.405287264421582,-7.539497679698467
1790107955494431000,7.016430908203125,3.2775136041939255,5.3351615887939925,-7.5474740654051296
1790107955504375000,7.026375,3.301495368283987,5.254149192970991,-7.593708577835559
1790107955514318800,7.03631884765625,3.2461946290835737,5.1572576754927635,-7.6834414557307955
1790107955524264000,7.046263916015625,3.1341271697834134,5.047388018497824,-7.802018735316396
1790107955534207700,7.056207763671875,2.9965204878181217,4.930681793481111,-7.929667210108041
1790107955544152000,7.066152099609375,2.855217581683397,4.82396913921237,-8.046579186829923
1790107955554097000,7.076096923828125,2.687599792335927,4.734928335234523,-8.156447090259194
1790107955564041000,7.086041015625,2.46338362519294,4.657839834856987,-8.270832178851961
1790107955573985800,7.09598583984375,2.217327236033231,4.571633669783175,-8.387731296092271
1790107955583930000,7.10593017578125,1.9832621673099695,4.469118759465218,-8.50082751391828
1790107955593874000,7.1158740234375,1.7860370290756225,4.3708954088613385,-8.595100373330713
1790107955603819000,7.125819091796875,1.6285238696351647,4.290342154982686,-8.666676832288504
1790107955613762800,7.1357626953125,1.4748339217446744,4.219040129052102,-8.72897342172563
1790107955623707000,7.145706787109375,1.2883702698908746,4.139808771426975,-8.796162459379435
1790107955633652000,7.15565185546875,1.0804838177148253,4.047309935949743,-8.866917665082216
1790107955643596000,7.165595947265625,0.8983591449134051,3.948653746886551,-8.931488044670223
1790107955653539800,7.175539794921875,0.7927423961225897,3.8532524679660796,-8.98300605046153
1790107955663485000,7.18548486328125,0.7803493630174547,3.7680233312308786,-9.020167614120245
1790107955673429000,7.195428955078125,0.8281845886427909,3.69325304466784,-9.046788494542241
1790107955683373000,7.205373046875,0.9066392628069967,3.6261852953061458,-9.066375823065638
1790107955693318000,7.21531787109375,1.0003247507855295,3.5616400501593946,-9.082095370244978
1790107955703262000,7.225261962890625,1.09898269341439,3.49359410341531,-9.097111737591028
1790107955713205800,7.235205810546875,1.1959694148954003,3.4204467418789863,-9.112660604378581
1790107955723150800,7.24515087890625,1.2823513018622994,3.3452395252034064,-9.128819712018966
1790107955733094700,7.2550947265625,1.353124189352244,3.2730694842666384,-9.144749687078594
1790107955743038700,7.265038818359375,1.4022246126078068,3.2080402549952267,-9.160382725018263
1790107955752983600,7.274983642578125,1.429271755617857,3.1475396090641614,-9.177175454387068
1790107955762927900,7.284927978515625,1.5034361852422355,3.0892528397902845,-9.185128459218143
1790107955772872700,7.294872802734375,1.5965939230196178,3.038844256545603,-9.186222684195638
1790107955782816800,7.304816650390625,1.4207216616764664,3.0040704648062584,-9.226456494906545
1790107955792760600,7.314760498046875,1.2590249329410492,2.9796719366088507,-9.257796805065869
1790107955802705700,7.32470556640625,1.1834090623993425,2.9543627233073115,-9.275864961197971
1790107955812649700,7.334649658203125,1.1732826590519398,2.9155650828793642,-9.289418854776024
1790107955822593800,7.34459375,1.2076331108126788,2.861286087942123,-9.30188495311737
1790107955832538600,7.35453857421875,1.2702519910067318,2.8059689821287987,-9.3103903311342
1790107955842482700,7.364482666015625,1.3330762575797737,2.761615168878436,-9.314868353331088
1790107955852426800,7.3744267578125,1.3701514581292866,2.7319778632447123,-9.318227016109228
1790107955862371600,7.38437158203125,1.3830001260474323,2.718781404802203,-9.320188671571016
1790107955872315600,7.394315673828125,1.3920631379470227,2.7243513138890263,-9.317211701586842
1790107955882259700,7.404259765625,1.4117502735830842,2.745568581701815,-9.308017172262073
1790107955892204800,7.414204833984375,1.4378221418201922,2.776721260334551,-9.29477716693878
1790107955902148600,7.424148681640625,1.460451468387991,2.818424851337075,-9.27868235670626
1790107955912092700,7.4340927734375,1.4811539185464382,2.8703774491533633,-9.259454509145021
1790107955922037500,7.44403759765625,1.5098095196664332,2.9314214081808925,-9.235670897975563
1790107955931981600,7.453981689453125,1.5444490175016223,3.0040169810533524,-9.206571060219407
1790107955941926000,7.46392578125,1.5749010005190966,3.092017628328502,-9.17221169449985
1790107955951870700,7.47387060546875,1.5892836000062525,3.1956843390300866,-9.134121910080314
1790107955961814500,7.483814453125,1.5769111712977288,3.311211583395302,-9.095033177751302
1790107955971758600,7.493758544921875,1.5429975035190582,3.4356513252735135,-9.05460296768546
1790107955981703700,7.50370361328125,1.4864472026489675,3.5754765600711105,-9.009818069541454
1790107955991647700,7.513647705078125,1.4167555345244705,3.718212129357457,-8.963149257346988
1790107956001592600,7.523592529296875,1.3377348970405756,3.8465316352784633,-8.921044392067193
1790107956011536600,7.53353662109375,1.2373470618791877,3.9611610540211197,-8.88530029399097
1790107956021480400,7.54348046875,1.1013671773981302,4.060101612983644,-8.85849704273939
1790107956031425800,7.55342578125,0.9297459245629608,4.141836477862298,-8.84031432031691
1790107956041369600,7.56336962890625,0.7351582221601158,4.214272183997929,-8.824389021432399
1790107956051313700,7.573313720703125,0.5376841141333804,4.289386753953993,-8.802411582902073
1790107956061258800,7.5832587890625,0.35380295305345205,4.376768392547965,-8.76864199976921
1790107956071202800,7.593202880859375,0.1811030929350294,4.475476019537449,-8.72397342148125
1790107956081146600,7.603146728515625,0.012584403516858583,4.5631329679414625,-8.680326587456465
1790107956091091700,7.613091796875,-0.15479515091972423,4.623724799287319,-8.646824715349078
1790107956101035500,7.623035400390625,-0.31420301979929205,4.668018114522099,-8.61865660548508
1790107956110979800,7.632979736328125,-0.42400728340782223,4.706639521600306,-8.592911923375725
1790107956120924700,7.642924560546875,-0.48185226373095064,4.748035069566964,-8.567051505932211
1790107956130868700,7.65286865234375,-0.5171775518732145,4.797665361915528,-8.537290573918819
1790107956140812500,7.6628125,-0.5531535224765539,4.843713119602203,-8.508986854976415
1790107956150758000,7.6727578125,-0.6452896621212363,4.859976272138953,-8.493210024651885
1790107956160701700,7.68270166015625,-0.7538382996454834,4.861728668764234,-8.483262046611308
1790107956170645800,7.692645751953125,-0.8603037011548876,4.885483638361096,-8.459450378391146
1790107956180590600,7.702590576171875,-0.9826824919153004,4.9742473789632315,-8.394139994090795
1790107956190534700,7.71253466796875,-1.0909556004337966,5.113665202003717,-8.296424300748109
1790107956200478700,7.722478759765625,-1.1638164001137017,5.246745054194331,-8.202902551963925
1790107956210423800,7.732423828125,-1.2300417073018848,5.361178073582053,-8.118814986479283
1790107956220367600,7.74236767578125,-1.3146955283671617,5.455365008276701,-8.04244603254795
1790107956230312700,7.752312744140625,-1.4037196734711528,5.530354490548372,-7.975908736801147
1790107956240256800,7.7622568359375,-1.486276229996234,5.593998987463117,-7.916345371720194
1790107956250200800,7.772200927734375,-1.562364905681461,5.656744489711523,-7.856884297969937
1790107956260145700,7.782145751953125,-1.5935852427229285,5.726569721087813,-7.799825024664401
1790107956270089700,7.79208984375,-1.5599932081140577,5.812051371279359,-7.743181930944323
1790107956280033500,7.802033447265625,-1.4839873884066939,5.902103982648253,-7.689819174069166
1790107956289978600,7.811978515625,-1.3824796093046665,5.9903667879909275,-7.640330628278851
1790107956299922700,7.821922607421875,-1.26289359106794,6.0796963457822795,-7.590308414003252
1790107956309866800,7.83186669921875,-1.1464428021170199,6.164229316946864,-7.540446943247318
1790107956319811600,7.8418115234375,-1.0475522928413004,6.24004882030189,-7.492316241806745
1790107956329756000,7.851755859375,-0.9717416303798556,6.306754458352923,-7.446541748103499
1790107956339699700,7.86169970703125,-0.9299267610225826,6.361342373108863,-7.405332370358705
1790107956349644500,7.87164453125,-0.8828698262933641,6.408078405320644,-7.3707163995295755
1790107956359588600,7.881588623046875,-0.8326108806524425,6.4545964108675715,-7.335893507951497
1790107956369532700,7.89153271484375,-0.7934276749730109,6.496404923549294,-7.3032578972846265
1790107956379477800,7.901477783203125,-0.7567609090939164,6.531444672748446,-7.2758461587458845
1790107956389421800,7.911421875,-0.7157294451992958,6.562840512487292,-7.251704820179939
1790107956399365600,7.92136572265625,-0.6710525374744087,6.590813976562023,-7.230576107433438
1790107956409310500,7.931310546875,-0.6345118091277778,6.6228598046422,-7.204547347685694
1790107956419254800,7.9412548828125,-0.6003928280353545,6.664322280365228,-7.169149871090054
1790107956429199600,7.95119970703125,-0.5540376483673229,6.710538672617077,-7.129663079354167
1790107956439143700,7.961143798828125,-0.49730983550585806,6.757365305721759,-7.089505256488919
1790107956449087700,7.971087646484375,-0.4406258252535015,6.801065331238508,-7.051366372230649
1790107956459032800,7.98103271484375,-0.38769243623893707,6.837789088001847,-7.018880983689427
1790107956468976600,7.9909765625,-0.3424973863914609,6.867969706732034,-6.991713575300574
1790107956478920700,8.000920654296875,-0.3046323506385088,6.8928545571416615,-6.968940602478384
1790107956488865500,8.010865478515624,-0.26655927989175543,6.913847076287865,-6.9496811907351015
1790107956498809600,8.0208095703125,-0.22542232806235551,6.932889045888185,-6.932142611435055
1790107956508753700,8.030753662109374,-0.17130060604605823,6.944708663019537,-6.921853272610902
1790107956518698800,8.04069873046875,-0.10269077834151685,6.943261971342563,-6.924661900290847
1790107956528642600,8.050642578125,-0.04264169840312097,6.932600876596569,-6.935965384593605
1790107956538586600,8.060586669921875,0.006740643070606165,6.919625659689307,-6.949038801178336
1790107956548531700,8.07053173828125,0.06947370539172552,6.905618761646747,-6.962612568500638
1790107956558475800,8.080475830078125,0.14811934468392282,6.882742912971973,-6.9840025625318285
1790107956568419600,8.090419677734374,0.21691484941998496,6.8530345879286525,-7.011365201231837
1790107956578364700,8.10036474609375,0.23434554789876563,6.822361217245459,-7.040656177645921
1790107956588308500,8.11030859375,0.2170120444504544,6.7900026699542995,-7.072422604262829
1790107956598252800,8.120252685546875,0.19078480298854408,6.75833327397108,-7.103444349992275
1790107956608197600,8.13019775390625,0.15802783096432685,6.727097593230009,-7.133831889471411
1790107956618141700,8.1401416015625,0.1321276660323143,6.689758919438719,-7.16938134175837
1790107956628086500,8.15008642578125,0.11944158653104676,6.6425196138799185,-7.2133923329204315
1790107956638030800,8.16003076171875,0.11337351866373792,6.594995061638951,-7.256966101709008
1790107956647974700,8.169974609375,0.09707290192712098,6.554698122563957,-7.293618546801805
1790107956657919700,8.179919677734375,0.06764606983945705,6.517400949826836,-7.327299282607436
1790107956667863600,8.189863525390624,0.03485250354834134,6.478427952831983,-7.362005854329467
1790107956677807600,8.1998076171875,0.010250415602850262,6.440714600509405,-7.395097392070293
1790107956687752700,8.209752685546874,0.001599568696480128,6.4093643534779545,-7.422291688466071
1790107956697696800,8.21969677734375,0.004234780034032883,6.3839060870945445,-7.444199568891525
1790107956707640600,8.229640625,0.008439611883551697,6.358367156690359,-7.466020355555415
1790107956717585400,8.23958544921875,0.014255376927892211,6.3295245085656635,-7.490480843073129
1790107956727529500,8.249529541015624,0.017095112132153006,6.2956806911528105,-7.518943551969528
1790107956737473500,8.2594736328125,0.013530656549648846,6.256524738806486,-7.551564549589156
1790107956747418400,8.26941845703125,0.006726083109824685,6.2136746081173415,-7.586871425291895
1790107956757362400,8.279362548828125,0.0029109815156654804,6.169504042479396,-7.622835303598642
1790107956767306200,8.28930615234375,0.0008336435207689646,6.126031980499625,-7.657814262521266
1790107956777251600,8.29925146484375,-0.0017603386166687414,6.085722766464948,-7.689886978608369
1790107956787195400,8.3091953125,-0.005593461209058296,6.047119771826267,-7.720279194262623
1790107956797139500,8.319139404296875,-0.007650680291588651,6.007990122964978,-7.750766686984896
1790107956807084300,8.329084228515624,0.0004851797116702073,5.967344808843731,-7.782106997144222
1790107956817028600,8.339028564453125,0.022791768854204565,5.927109829089045,-7.812761663126945
1790107956826972400,8.348972412109376,0.05811583315376192,5.886417753216624,-7.84328188907504
1790107956836917500,8.35891748046875,0.10154265861916355,5.841698321524262,-7.876205669033527
1790107956846861300,8.368861328125,0.14494308926798402,5.790199020433426,-7.913467185935378
1790107956856806400,8.378806396484375,0.1837365101785399,5.732608416730165,-7.954483086934685
1790107956866750500,8.38875048828125,0.21886728039570152,5.671750335663557,-7.997106423130631
1790107956876694500,8.398694580078125,0.2564600202796049,5.609605721917748,-8.039709301060437
1790107956886639400,8.408639404296874,0.3000514160564169,5.548702632665634,-8.08036221396625
1790107956896583400,8.41858349609375,0.35085626860968766,5.491462157574295,-8.117336730620265
1790107956906527500,8.428527587890626,0.40760070381239055,5.435377282258868,-8.152356021553278
1790107956916472300,8.438472412109375,0.46712260437179354,5.376323620265722,-8.188242742970585
1790107956926416400,8.44841650390625,0.5287385180683806,5.310612253949046,-8.2272858825922
1790107956936360400,8.4583603515625,0.5913697828199714,5.23619151147604,-8.270608306968212
1790107956946305500,8.468305419921874,0.653031289223954,5.152987158566713,-8.318092527198791
1790107956956249600,8.47824951171875,0.7157371901143342,5.062751591846347,-8.368192482885718
1790107956966193400,8.488193359375,0.7821144729938357,4.969990890562534,-8.417713761901854
1790107956976138200,8.49813818359375,0.8553108613036572,4.879984164161979,-8.463130528208612
1790107956986082300,8.508082275390626,0.9360194518744945,4.795735270635784,-8.50265648291111
1790107956996026600,8.518026611328125,1.0169082213178275,4.717803012910485,-8.53689719068706
1790107957005971500,8.527971435546876,1.0869278062224388,4.64630780249536,-8.5674261844635
1790107957015915500,8.53791552734375,1.1436454995486884,4.579579660351574,-8.59592396467328
1790107957025859300,8.547859375,1.1946947918497026,4.51571129155308,-8.622728969490527
1790107957035804400,8.557804443359375,1.250096507206559,4.455143133343756,-8.646348914530872
1790107957045748500,8.56774853515625,1.3082187335684894,4.395237530696392,-8.66838012907505
1790107957055693300,8.577693359375,1.367761640383303,4.327132839502394,-8.693418708741664
1790107957065637400,8.587637451171876,1.4235485556654632,4.248421998620033,-8.72323283224702
1790107957075581400,8.59758154296875,1.468954508317262,4.167009789824485,-8.754919179365038
1790107957085526500,8.607526611328124,1.5004355421215294,4.091486054545641,-8.78514714436829
1790107957095470300,8.61747021484375,1.5238390679322182,4.0232764416724445,-8.812577587607503
1790107957105414400,8.627414306640626,1.5451481056816876,3.957658306597173,-8.83854263446927
1790107957115359500,8.637359375,1.5651872696258127,3.890452317808568,-8.864815724366903
1790107957125303600,8.647303466796876,1.5808726222746072,3.817045720814168,-8.8938962729007
1790107957135247400,8.657247314453125,1.5923704601056874,3.736127140754461,-8.926147268164158
1790107957145192400,8.6671923828125,1.6040154513224958,3.6486879267543553,-8.960166442143917
1790107957155136300,8.67713623046875,1.608783980898559,3.5584304404631255,-8.995540537863969
1790107957165080600,8.68708056640625,1.6053642355829476,3.4697511632740494,-9.030726417535544
1790107957175025400,8.697025390625,1.601543069859594,3.385353216665983,-9.063378979337214
1790107957184969500,8.706969482421876,1.606355584707856,3.308203049229085,-9.090974842271208
1790107957194913300,8.716913330078125,1.621675757306069,3.239832108314335,-9.112851158514617
1790107957204858600,8.726858642578126,1.6391420020222662,3.178434805804491,-9.1313284799695
1790107957214802400,8.736802490234375,1.6357475372783838,3.122754711897671,-9.151128574460744
1790107957224746500,8.74674658203125,1.595744904974848,3.0741853267788883,-9.174605896160006
1790107957234691300,8.75669140625,1.5261356544367968,3.0344699869841336,-9.199634538954497
1790107957244635400,8.766635498046876,1.443895031993091,3.004867752663791,-9.222599234956503
1790107957254579500,8.776579345703125,1.355224084240943,2.985665331804752,-9.242270734632015
1790107957264524500,8.786524658203126,1.27577148508057,2.97501154358238,-9.257004777905344
1790107957274468400,8.79646826171875,1.2275099968671799,2.9676328315079212,-9.265893602281809
1790107957284413400,8.806413330078126,1.2065037414565682,2.9612744023919104,-9.27068434368968
1790107957294357500,8.816357421875,1.1981593261551111,2.9593326206743717,-9.272387640476227
1790107957304301600,8.826301513671876,1.1903750289544461,2.9634318726867437,-9.27208018196225
1790107957314246400,8.836246337890625,1.172825928260386,2.974101150739193,-9.270900032266974
1790107957324190500,8.8461904296875,1.142765721039474,2.9908401040941475,-9.269270385238528
1790107957334134300,8.85613427734375,1.102449054350704,3.0132544727370143,-9.266893719235062
1790107957344079600,8.86607958984375,1.057507431275025,3.040422173386812,-9.263255654993653
1790107957354023400,8.8760234375,1.0110202592577784,3.0723432060435414,-9.257911955878138
1790107957363967500,8.885967529296876,0.9598714521050452,3.1111364625573157,-9.250397342464327
1790107957373912300,8.895912353515625,0.9000772008776664,3.1598259669244286,-9.239899913847445
1790107957383856600,8.905856689453126,0.8371445785593241,3.2204052310496567,-9.224889391720295
1790107957393800400,8.915800537109375,0.7782902385305612,3.2930738691583272,-9.20436390556395
1790107957403745500,8.92574560546875,0.7244719929728657,3.3762527953654526,-9.178585905706882
1790107957413689300,8.935689453125,0.6730264678958803,3.466984621170163,-9.148630327904224
1790107957423633400,8.94563330078125,0.6187030492950231,3.562382977481186,-9.11575681682825
1790107957433578500,8.95557861328125,0.5576715113576501,3.6619442986905573,-9.08017404679358
1790107957443522600,8.9655224609375,0.4962195925837382,3.764870712418854,-9.04156637597978
1790107957453467400,8.97546728515625,0.43702860447913405,3.870780525872111,-8.999803456005454
1790107957463411500,8.985411376953126,0.3776520672071725,3.980143110127747,-8.95467661255598
1790107957473355500,8.99535546875,0.3183119164228439,4.095177018018067,-8.904975300797819
1790107957483300400,9.00530029296875,0.25884335348587484,4.216718700367212,-8.850008031335472
1790107957493244400,9.015244384765625,0.19909725224915892,4.345542648679018,-8.78902661615014
1790107957503188500,9.0251884765625,0.14076760281478054,4.482547857619822,-8.72108412978053
1790107957513133600,9.035133544921875,0.08275953175127505,4.628288746201992,-8.645372178453206
1790107957523077400,9.045077392578126,0.027822956538002472,4.78082967018783,-8.56231629410386
1790107957533021400,9.055021484375,-0.016149697066290537,4.938503865408897,-8.47238409424424
1790107957542966300,9.06496630859375,-0.04297300358356442,5.099825477221608,-8.376175298333168
1790107957552910300,9.074910400390625,-0.0566803798234323,5.26420355399549,-8.273772908478975
1790107957562854700,9.084854736328126,-0.062463105110451576,5.432766222977638,-8.164038276040554
1790107957572799500,9.094799560546875,-0.06319050606954843,5.603091809979081,-8.048089006870985
1790107957582743300,9.104743408203126,-0.060105308204237366,5.769370167416334,-7.929762487176061
1790107957592687400,9.114687255859375,-0.05236994644552469,5.92635462680757,-7.813190117672085
1790107957602632400,9.124632568359376,-0.04277354918844066,6.072303312921524,-7.7003703786998985
1790107957612576500,9.134576416015625,-0.03638092097530607,6.208584591501951,-7.590949049994349
1790107957622520300,9.144520263671875,-0.030387206118996254,6.337640595003962,-7.4835659491181366
1790107957632465400,9.15446533203125,-0.018616421681607608,6.46196664737463,-7.376518948328495
1790107957642409200,9.1644091796875,0.0004189491432141949,6.582412058919668,-7.269265611311793
1790107957652353500,9.174353515625,0.02484595915436512,6.698001847127079,-7.162857492947578
1790107957662298400,9.18429833984375,0.05128886407739482,6.809362034940719,-7.056933943229914
1790107957672242400,9.194242431640625,0.07967151174121535,6.917320305356383,-6.9508782915651794
1790107957682187300,9.204187255859376,0.11016449348935857,7.021010396933555,-6.8457023453444235
1790107957692131600,9.214131591796875,0.1424554919696413,7.118348489135504,-6.743827778756618
1790107957702075400,9.224075439453125,0.17945519786383957,7.208368951800465,-6.646622957545518
1790107957712020500,9.2340205078125,0.22186925695696844,7.290906365233659,-6.5546800023853775
1790107957721964300,9.24396435546875,0.26597119607180353,7.362227972647547,-6.472810697472095
1790107957731908400,9.253908447265625,0.3110093017918989,7.42054046088457,-6.403847051361203
1790107957741853400,9.263853515625,0.35183782699294386,7.465130128717422,-6.349677069756388
1790107957751797500,9.273797607421875,0.385271273506619,7.497423209556937,-6.309561332467198
1790107957761741300,9.2837412109375,0.4059774134594947,7.518927769878506,-6.282616042396426
1790107957771686400,9.293686279296875,0.41005427097696806,7.53374773786962,-6.264571267139911
1790107957781630200,9.303630126953125,0.40286830499563364,7.546362889292836,-6.24983897743225
1790107957791574500,9.313574462890625,0.38670061218999324,7.559362071597576,-6.235134744775295
1790107957801519400,9.323519287109375,0.3570273949926719,7.574917952647805,-6.218001823666691
1790107957811463400,9.33346337890625,0.31830292939878996,7.596813558113575,-6.193345521315932
1790107957821407200,9.3434072265625,0.288501610576082,7.623745404180884,-6.161627025493979
1790107957831352600,9.3533525390625,0.2824273869626224,7.64618753761351,-6.134039930388331
1790107957841296400,9.36329638671875,0.29353359512761235,7.656850970447063,-6.120199621084332
1790107957851240400,9.373240478515624,0.3208413253026083,7.658239794456958,-6.117093471762538
1790107957861185300,9.383185302734375,0.3741246237333864,7.655361024150252,-6.117667472258209
1790107957871129300,9.39312939453125,0.4426793237172067,7.648186017954349,-6.122063661390543
1790107957881073400,9.403073486328125,0.5014034980276599,7.6362775534957645,-6.132392163181304
1790107957891018500,9.4130185546875,0.5415652298830449,7.615402523249387,-6.154894502368569
1790107957900962300,9.42296240234375,0.5741533116137608,7.5783017498672,-6.197584474059939
1790107957910907400,9.432907470703125,0.6113202820999547,7.52151369471848,-6.262867385831475
1790107957920851500,9.4428515625,0.6449081154577434,7.449631530812383,-6.344876975998282
1790107957930795500,9.45279541015625,0.6757346308760345,7.369350956395268,-6.434784625938534
1790107957940740400,9.462740234375,0.7146179768260568,7.283891518035531,-6.52722267113924
1790107957950684400,9.472684326171875,0.750605674399808,7.195047697934508,-6.621047786784172
1790107957960628200,9.482628173828125,0.7713219338878988,7.1036582850039,-6.716656278714537
1790107957970573300,9.4925732421875,0.7911832570470869,7.009477780050039,-6.8126084695160385
1790107957980517400,9.502517333984375,0.8264097609899937,6.914331060412525,-6.905030732625723
1790107957990461400,9.51246142578125,0.8689291253548115,6.822914759474992,-6.990219537350535
1790107958000406500,9.522406494140625,0.9034908817786723,6.740544519302248,-7.065347551310062
1790107958010350600,9.5323505859375,0.9244333512380719,6.668987934088706,-7.1302452631562945
1790107958020294400,9.54229443359375,0.9377462026018649,6.606459289461374,-7.1864961426883935
1790107958030239200,9.5522392578125,0.948845907960832,6.5519625601202245,-7.23476888294816
1790107958040183300,9.562183349609375,0.9590118396010249,6.505403638041019,-7.275327687829733
1790107958050127600,9.572127685546874,0.9711872844327241,6.465204898643493,-7.309466104274987
1790107958060072400,9.582072509765625,0.9860258840590714,6.429314670094847,-7.33907739868462
1790107958070016500,9.5920166015625,0.9945608534965663,6.394777609720826,-7.368043965449929
1790107958079960300,9.601960205078125,0.9918187882468104,6.358097107577324,-7.400088039964437
1790107958089905400,9.611905517578125,0.9827147136844694,6.316773163542151,-7.436603122413158
1790107958099849500,9.621849365234375,0.9699619073562323,6.2716854830592865,-7.476330152645707
1790107958109794300,9.631794189453124,0.9537165096718817,6.225172153687477,-7.517183556559681
1790107958119738400,9.64173828125,0.9380366369158029,6.177916481515765,-7.558029361689091
1790107958129682200,9.65168212890625,0.9263117853958159,6.129555478450656,-7.598741311305761
1790107958139627500,9.66162744140625,0.9202033124528824,6.078422672584653,-7.64044344100356
1790107958149571300,9.6715712890625,0.9203891173485665,6.020525779411196,-7.686125580248236
1790107958159515400,9.681515380859375,0.9302795930482447,5.952668633237481,-7.737617282554507
1790107958169460200,9.691460205078124,0.9477635926168412,5.875559090071916,-7.794224135917425
1790107958179404500,9.701404541015625,0.9640164429552852,5.79062046071589,-7.855558017802238
1790107958189348400,9.711348388671874,0.9765669316444545,5.7001265353202815,-7.919927321860194
1790107958199293400,9.72129345703125,0.9903124022718518,5.607768569618464,-7.983897397467493
1790107958209237200,9.7312373046875,1.0082065900765358,5.5169099025636905,-8.044725667917728
1790107958219181300,9.741181396484375,1.029381772313267,5.427134354570508,-8.102899624466895
1790107958229126400,9.75112646484375,1.0535754255883396,5.337947420120239,-8.15884304548502
1790107958239070500,9.761070556640625,1.0796860184006392,5.247885456401109,-8.213670614215731
1790107958249014300,9.77101416015625,1.1038784295666961,5.154770534852147,-8.269229419830442
1790107958258959400,9.78095947265625,1.122755052537471,5.058950445997715,-8.325673191586136
1790107958268903400,9.7909033203125,1.137397691200301,4.961629304930567,-8.382060264718532
1790107958278847500,9.800847412109375,1.1494678490266204,4.8622655521199105,-8.438452014026046
1790107958288792300,9.810792236328124,1.1607245715782046,4.759651565341652,-8.495223118039965
1790107958298736400,9.820736328125,1.1791891796819864,4.65569843891412,-8.550109723481535
1790107958308681500,9.830681396484374,1.2056437636263668,4.551376186913251,-8.602429108783602
1790107958318625500,9.84062548828125,1.2364246863372623,4.44801255081147,-8.65198487459123
1790107958328569300,9.8505693359375,1.2614942456640303,4.344764650043845,-8.700691330093145
1790107958338514400,9.860514404296875,1.2675329413063823,4.238735886386037,-8.751964421212673
1790107958348458200,9.870458251953124,1.2581930121615528,4.133325546887517,-8.80357478146255
1790107958358402600,9.880402587890625,1.2447780886627733,4.029155855099857,-8.853634405139088
1790107958368347400,9.890347412109374,1.2443727227322756,3.9281978188350792,-8.898943034896254
1790107958378291500,9.90029150390625,1.259078270563483,3.8219089429363606,-8.943048718604445
1790107958388235300,9.9102353515625,1.2890981457740067,3.7085952829673885,-8.986373481068014
1790107958398180600,9.9201806640625,1.3253874566428363,3.5925960371762513,-9.028121787995099
1790107958408124400,9.93012451171875,1.3540470032855867,3.4809579092040654,-9.067517978838085
1790107958418068500,9.940068359375,1.3633112368457019,3.3779505391940474,-9.105011550930142
1790107958428013300,9.950013427734374,1.3505330038152634,3.2797599218159914,-9.142737178212403
1790107958437957400,9.959957275390625,1.3339575704589486,3.1856229637429117,-9.17838541469872
1790107958447901400,9.9699013671875,1.3319887546040117,3.0954522789523002,-9.209472042357921
1790107958457846500,9.979846435546875,1.3520502765104174,3.010647797369957,-9.234628110924362
1790107958467790300,9.989790283203124,1.3881051941014826,2.932277732749283,-9.254474382644892
1790107958477734400,9.999734375,1.416177296245098,2.8677517768248912,-9.270429492145777
1790107958487679500,10.009679443359374,1.414557001566887,2.8242198013514277,-9.284030731996893
1790107958497623600,10.01962353515625,1.383479287866503,2.7925968748584387,-9.29826851618588
1790107958507568400,10.029568359375,1.3495296719916163,2.7593296882897613,-9.313177331504225
1790107958517512400,10.039512451171875,1.3304654905594884,2.726053149370849,-9.325711234384775
1790107958527456300,10.049456298828124,1.3152857493452728,2.7033625941351054,-9.334465618726611
1790107958537401300,10.0594013671875,1.2760576085455715,2.701208923232555,-9.340531202375889
1790107958547345400,10.069345458984374,1.217736425545439,2.7131910374492407,-9.344843804877996
1790107958557289500,10.07928955078125,1.148495204602182,2.7339982631564137,-9.347544296008348
1790107958567234300,10.089234375,1.0673821979489178,2.7618746965974568,-9.348962346112728
1790107958577178400,10.099178466796875,0.9901977629162371,2.795850615957379,-9.347357833525537
1790107958587122400,10.109122314453124,0.9209625333223491,2.840081971871853,-9.341099357652663
1790107958597067300,10.1190673828125,0.8466448858976363,2.898426316551864,-9.330203869628905
1790107958607011300,10.12901123046875,0.7632466909166425,2.969902530005574,-9.314907516297698
1790107958616955400,10.138955322265625,0.6798747994206845,3.0511300298839807,-9.295092224237322
1790107958626900500,10.148900390625,0.6047822221007197,3.1408778130874038,-9.270356426909565
1790107958636844300,10.15884423828125,0.534726725632511,3.2385254096299407,-9.241017519700527
1790107958646788400,10.168788330078126,0.4632843413831666,3.344812239702046,-9.206954506579041
1790107958656733200,10.178733154296875,0.39446284368932244,3.4589152964830396,-9.167916043132543
1790107958666677500,10.188677490234374,0.3324574557511136,3.5787829081401226,-9.124262779366969
1790107958676621300,10.198621337890625,0.2816931544039398,3.7003389112755656,-9.077363665547967
1790107958686566400,10.20856640625,0.24296790335876867,3.8215859945923087,-9.028111851122976
1790107958696510200,10.21851025390625,0.20309722687182946,3.944918944272399,-8.97589767976105
1790107958706455600,10.22845556640625,0.16643977681035174,4.074379729183018,-8.918637915447354
1790107958716399400,10.2383994140625,0.14022596108559518,4.211096184310317,-8.855359913757443
1790107958726344200,10.24834423828125,0.12308534072772599,4.354052702870964,-8.78620863611996
1790107958736289300,10.258289306640625,0.11280989343160763,4.50187273581475,-8.711532457581162
1790107958746233300,10.2682333984375,0.10192004969734698,4.653611988028883,-8.63156343333125
1790107958756177200,10.27817724609375,0.08143812868809328,4.808090602079034,-8.546697869211435
1790107958766122000,10.2881220703125,0.0520366867700126,4.96533634275496,-8.456542966511845
1790107958776066000,10.298066162109375,0.026244619571685324,5.125179698708653,-8.360753857317567
1790107958786010400,10.30801025390625,0.010648292346636298,5.2861932674854994,-8.259928507521748
1790107958795955200,10.317955078125,0.007828720864281057,5.446424161452055,-8.155170494452118
1790107958805899300,10.327899169921874,0.0202242678701994,5.603486362254619,-8.048038737988472
1790107958815843000,10.337843017578125,0.03672310602607904,5.755432242956757,-7.940028445124626
1790107958825788200,10.3477880859375,0.044301941499230446,5.90119563563168,-7.832260728845
1790107958835732200,10.357732177734375,0.049314015773893334,6.03959814414978,-7.72600984686911
1790107958845676300,10.36767626953125,0.06668970069638452,6.1667386694192885,-7.62477942340374
1790107958855621000,10.37762109375,0.1056577292551752,6.280142345759272,-7.531202729561924
1790107958865565200,10.387565185546874,0.15923306030193343,6.380605876505374,-7.44532711161673
1790107958875509200,10.39750927734375,0.21599528688965364,6.471467466169595,-7.365040691980719
1790107958885454000,10.4074541015625,0.26812344220224765,6.555530481734872,-7.288588151419162
1790107958895398100,10.417398193359375,0.3195135472975671,6.630706426489353,-7.218174306499957
1790107958905343200,10.42734326171875,0.3719702587110921,6.69430766878426,-7.156696047708392
1790107958915287300,10.437287353515625,0.4077180465817451,6.744623897570372,-7.107334343168139
1790107958925231000,10.447231201171874,0.40646537963952867,6.781839821764827,-7.071901795259118
1790107958935176200,10.45717626953125,0.36363212701994924,6.814257990288734,-7.043012385383248
1790107958945120000,10.4671201171875,0.30330923054227604,6.853537861275672,-7.007669269323348
1790107958955064300,10.477064208984375,0.2619555672222748,6.904235782855749,-6.959402374282479
1790107958965009200,10.487009033203124,0.26998868808485565,6.962302771899104,-6.901002207762002
1790107958974953200,10.496953125,0.3112975076161325,7.015479650813341,-6.8451827053844925
1790107958984897000,10.50689697265625,0.3381821170082316,7.064826157784462,-6.792956843584776
1790107958994842400,10.51684228515625,0.3325176615057513,7.120515311780571,-6.734841339224577
1790107959004786200,10.5267861328125,0.32696477661896495,7.180196165761351,-6.671452862897515
1790107959014730200,10.536730224609375,0.3527839487366378,7.231062429645657,-6.614957068693638
1790107959024675000,10.546675048828124,0.39616796710677443,7.270086280044913,-6.569573620134592
1790107959034619100,10.556619140625,0.43623756369929756,7.301113286471367,-6.532520193025469
1790107959044563200,10.566563232421874,0.4730205033039674,7.3258420695364475,-6.502206303304433
1790107959054508300,10.57650830078125,0.5223227327419444,7.340660283961892,-6.481687831410765
1790107959064452000,10.5864521484375,0.5823398329397663,7.342376440230011,-6.474625637939572
1790107959074396200,10.596396240234375,0.6304233707703649,7.3311395914226765,-6.482851614493131
1790107959084341200,10.60634130859375,0.6621372634824365,7.307604986578226,-6.506219046077132
1790107959094285300,10.616285400390625,0.691686817767471,7.272084760385751,-6.542838173422217
1790107959104230100,10.626230224609374,0.7316806822426617,7.2258297896891825,-6.589567191371321
1790107959114174200,10.63617431640625,0.7762919773854314,7.171535889443755,-6.643555971190333
1790107959124118000,10.646117919921876,0.8042959096636623,7.112194642680883,-6.703742436605691
1790107959134063400,10.6560634765625,0.8052953690297902,7.050503617921471,-6.768477066844701
1790107959144007200,10.666007080078124,0.7920677847966552,6.987505602216721,-6.835038912510871
1790107959153951200,10.675951171875,0.7790305355038494,6.923322176119685,-6.9015294465065
1790107959163896000,10.68589599609375,0.7683360499449073,6.85894994945228,-6.966696038421988
1790107959173840400,10.69584033203125,0.7581975177682936,6.79460928696692,-7.030563238176703
1790107959183784200,10.7057841796875,0.7636729535046964,6.730304864838719,-7.091557512843608
1790107959193729300,10.715729248046875,0.7928872844859958,6.66788026510775,-7.147104043498635
1790107959203673000,10.725673095703126,0.8345328616909682,6.609257980269193,-7.196641104605794
1790107959213617200,10.7356171875,0.871978429922834,6.553143878859281,-7.24336661542356
1790107959223562200,10.745562255859374,0.8933931930691004,6.4952224357664585,-7.292758130580187
1790107959233506300,10.75550634765625,0.9061152389328926,6.430704663148522,-7.348154439109563
1790107959243450000,10.7654501953125,0.9157198103632778,6.358561217957734,-7.409490659081936
1790107959253395200,10.775395263671875,0.9214007055439054,6.279509893074631,-7.475905205231904
1790107959263339300,10.78533935546875,0.9287827055539936,6.193626091822981,-7.546308528757095
1790107959273284000,10.7952841796875,0.9369164007142186,6.103634270730614,-7.618282462599873
1790107959283228200,10.805228271484374,0.9488101790603249,6.013596272408962,-7.688093665450811
1790107959293172200,10.815172119140625,0.9689044341925531,5.926427692043781,-7.753003067734837
1790107959303117300,10.825117431640624,0.9988112774826585,5.841874847134948,-7.813145694008469
1790107959313061000,10.83506103515625,1.0393382989864797,5.760253379502892,-7.868269030815362
1790107959323005200,10.845005126953126,1.0853776541709899,5.6787406329423185,-7.92112676077783
1790107959332950000,10.854949951171875,1.1316721531603484,5.590984608078003,-7.976878458616137
1790107959342894000,10.86489404296875,1.1754152871664614,5.492053109204769,-8.039038854452967
1790107959352838400,10.87483837890625,1.211611439859122,5.383228577348589,-8.106986016997695
1790107959362783200,10.884783203125,1.2410562916606664,5.268516156497597,-8.177587493443488
1790107959372727000,10.89472705078125,1.2709314977034927,5.152497913745045,-8.246627127400041
1790107959382671000,10.904671142578126,1.3105150278121231,5.03857459744513,-8.31057732926309
1790107959392616200,10.9146162109375,1.3655147382393478,4.928468209084868,-8.36755360046029
1790107959402560300,10.924560302734376,1.4330701249875129,4.821843525360524,-8.41822404951155
1790107959412504300,10.93450439453125,1.5035570351429284,4.718989884607494,-8.464091482195258
1790107959422449200,10.94444921875,1.5696538936458526,4.620671256935596,-8.506232003310322
1790107959432393000,10.95439306640625,1.625533455647528,4.5258024774566294,-8.546645262241363
1790107959442337300,10.964337158203126,1.6715630931556225,4.432675573208928,-8.586481598067284
1790107959452282000,10.9742822265625,1.7068350436754525,4.340980163069069,-8.626295722061394
1790107959462226200,10.98422607421875,1.7302661881454289,4.253481327836215,-8.665129018324613
1790107959472170200,10.994170166015625,1.734714838117361,4.173867400634289,-8.702871596741677
1790107959482115300,11.004115234375,1.7154370139345525,4.099514170439541,-8.741946300545335
1790107959492059100,11.01405908203125,1.6701805527560412,4.026497741806507,-8.784543333256243
1790107959502004200,11.024004150390626,1.5970935431048272,3.955774684807658,-8.83015006917715
1790107959511948000,11.033947998046875,1.5023356766544282,3.886552680021524,-8.87739112830162
1790107959521892000,11.04389208984375,1.402525495250523,3.8113010396823284,-8.926214488181472
1790107959531837200,11.053837158203125,1.3129188740834592,3.725325468493998,-8.975999386569857
1790107959541781200,11.06378125,1.231266865182668,3.6306001891389488,-9.026244303685425
1790107959551725000,11.07372509765625,1.155414920862764,3.5270512595981356,-9.077186555415391
1790107959561670100,11.083670166015626,1.0989034176331012,3.4175501436546445,-9.125961984500288
1790107959571614200,11.0936142578125,1.075494192733988,3.3051994834989307,-9.170024998110533
1790107959581558300,11.103558349609376,1.0716558566801249,3.190442931245267,-9.211026870584487
1790107959591503000,11.113503173828125,1.066784451251477,3.078196608246863,-9.249706437590717
1790107959601447200,11.123447265625,1.054799998947233,2.9750615202039477,-9.284761968880892
1790107959611391000,11.133390869140625,1.042336969345808,2.884227695329487,-9.314780675047636
1790107959621336300,11.14333642578125,1.0381022543855012,2.8031647383630274,-9.33996772327423
1790107959631280000,11.153280029296875,1.0508337987300007,2.7313667456090447,-9.3597947057724
1790107959641224200,11.16322412109375,1.0876246293801815,2.668609552922845,-9.373684699437021
1790107959651169000,11.1731689453125,1.136522954192385,2.614116915234923,-9.383234033548831
1790107959661113300,11.18311328125,1.1724890975214541,2.5705063215672967,-9.390853276380897
1790107959671058200,11.19305810546875,1.180985634644702,2.539274732479453,-9.398283718642592
1790107959681002200,11.203002197265626,1.1648014656282961,2.520934189146757,-9.405237191042303
1790107959690946000,11.212946044921875,1.1414353492185472,2.5121622691482304,-9.410448788210749
1790107959700891100,11.22289111328125,1.1192617305289954,2.5147522856414315,-9.412419796022773
1790107959710835200,11.232835205078125,1.0862682463351636,2.532021984872222,-9.411655825912952
1790107959720779300,11.242779296875,1.0396645352661609,2.56401052980721,-9.408259753733873
1790107959730724400,11.252724365234375,0.9880519830591976,2.609414436632395,-9.401336091950535
1790107959740668400,11.26266845703125,0.9338339245289563,2.666404736354947,-9.390879579865931
1790107959750612200,11.2726123046875,0.8773707174204289,2.734205476166308,-9.376818321287631
1790107959760557000,11.28255712890625,0.8208849331539124,2.8105054565146563,-9.359359236964583
1790107959770501400,11.29250146484375,0.7663002332683653,2.8934441442251204,-9.338690542945265
1790107959780445400,11.302445556640626,0.7149401945177465,2.9818723692625757,-9.314916868647932
1790107959790390300,11.312390380859375,0.664632733559981,3.077498396849632,-9.287499869412184
1790107959800334300,11.322334228515626,0.6154089761856943,3.1812995475858448,-9.255862622132897
1790107959810278100,11.332278076171875,0.5663777457088232,3.2930291532337663,-9.2198449678123
1790107959820223200,11.34222314453125,0.5137665378533304,3.412899102978408,-9.179245246398448
1790107959830167300,11.352167236328125,0.46088897067923096,3.5407676502615213,-9.133506993052363
1790107959840112000,11.362112060546876,0.41585499314498153,3.6749841052666303,-9.082508627220987
1790107959850056200,11.37205615234375,0.37474710301328445,3.813427822577953,-9.027055035546422
1790107959860000300,11.382000244140626,0.32996092622764406,3.954388783407211,-8.967959872499108
1790107959869945300,11.3919453125,0.2833225457040593,4.098120377993584,-8.904801697796582
1790107959879889200,11.40188916015625,0.2403995507081039,4.245683513566852,-8.836670410856604
1790107959889833200,11.411833251953125,0.20601393630243836,4.398619574350119,-8.762426193994283
1790107959899778300,11.4217783203125,0.17915398642756045,4.558239350681006,-8.681057239818573
1790107959909722400,11.431722412109375,0.15343043843777848,4.723793777757883,-8.592591020858288
1790107959919666200,11.441666259765626,0.12005875944816506,4.892284258286654,-8.49832634475231
1790107959929611300,11.451611328125,0.08091863485863432,5.059814953872561,-8.400124913719296
1790107959939555000,11.46155517578125,0.04345775032662786,5.224240961441398,-8.29914408110082
1790107959949499400,11.47149951171875,0.009121581107101519,5.384546089687944,-8.196155415791273
1790107959959444200,11.4814443359375,-0.011562417225091484,5.538288206157088,-8.093059782975912
1790107959969388300,11.49138818359375,-0.002166685219633655,5.684691650301217,-7.9909099065780635
1790107959979332000,11.50133203125,0.04266894260307308,5.823448963606357,-7.890245884823798
1790107959989277400,11.51127734375,0.11667982106697745,5.953427342650294,-7.791885463836788
1790107959999221200,11.52122119140625,0.20240307059520854,6.0751195393860336,-7.695604771733284
1790107960009166300,11.531166259765625,0.2896540320142172,6.191480896487832,-7.599478393408655
1790107960019110100,11.541110107421876,0.37840493140108883,6.303436712107062,-7.502925898626446
1790107960029054200,11.55105419921875,0.46241921245381234,6.408259607106447,-7.4088295648247
1790107960038999300,11.560999267578126,0.5315005301276221,6.500417081800103,-7.323418641781807
1790107960048943400,11.570943359375,0.5715434213763102,6.577188771313429,-7.251503160127997
1790107960058887200,11.58088720703125,0.5675016717048361,6.640338762709498,-7.194041151240468
1790107960068832300,11.590832275390625,0.5178859924035146,6.696063572540879,-7.145971240076422
1790107960078776300,11.6007763671875,0.4350992438517511,6.750886465096474,-7.09976069304347
1790107960088720400,11.610720458984375,0.3547767299890518,6.8112979714393616,-7.0463277935415505
1790107960098665200,11.620665283203126,0.3188363421557471,6.879443286904692,-6.981546986073255
1790107960108609300,11.630609375,0.34788287882208824,6.949703402566909,-6.910208427524566
1790107960118553000,11.640552978515625,0.4095651722857728,7.016252973273396,-6.839214736890792
1790107960128498400,11.65049853515625,0.4467129996800795,7.080980589249729,-6.769826727887987
1790107960138442200,11.660442138671876,0.44092820573356,7.147478137508034,-6.699964087110757
1790107960148386300,11.67038623046875,0.43233288441095497,7.217302199840545,-6.625256928911805
1790107960158331100,11.6803310546875,0.4585034637821838,7.279747257837653,-6.554803336504102
1790107960168275500,11.690275390625,0.5110876375002786,7.324274381828308,-6.501088697451353
1790107960178220300,11.70022021484375,0.5658043662676587,7.351402042728662,-6.4658420275032515
1790107960188164400,11.710164306640625,0.6059809668986127,7.360922735267877,-6.451356406033039
1790107960198108200,11.720108154296875,0.6214799666624515,7.3530334433227775,-6.458873357534408
1790107960208053200,11.73005322265625,0.61492988743186,7.330935008761286,-6.4845666017174715
1790107960217997300,11.739997314453126,0.606379647359997,7.2973764380306,-6.5231105596452945
1790107960227941400,11.74994140625,0.6102580962285399,7.254688219904899,-6.570197304990887
1790107960237886200,11.75988623046875,0.6221716021884233,7.203899697431922,-6.624735535386204
1790107960247830300,11.769830322265625,0.6365333780832588,7.1448846138834945,-6.686989454725384
1790107960257774300,11.7797744140625,0.651179523877427,7.078200018620491,-6.756140732362866
1790107960267719200,11.78971923828125,0.6704460960138588,7.004534478428959,-6.830620511546731
1790107960277663200,11.799663330078126,0.6936541723176837,6.925061713263392,-6.9088909151852125
1790107960287607300,11.809607177734375,0.7079545734141022,6.842691473090648,-6.989044648352265
1790107960297552400,11.819552490234376,0.704656920108199,6.759540311673283,-7.0698249889850615
1790107960307496200,11.82949609375,0.6932463221691548,6.675433456966281,-7.150410099306702
1790107960317440300,11.839440185546875,0.6920057475235313,6.59027796998918,-7.229089668267965
1790107960327385000,11.849385009765625,0.7077985060695559,6.506178129544854,-7.303359604093432
1790107960337329200,11.8593291015625,0.7284088940303772,6.427087057173252,-7.371049577006697
1790107960347273500,11.8692734375,0.7382816879428923,6.354342723479866,-7.432877379888295
1790107960357218300,11.87921826171875,0.7320934277620166,6.287357683965563,-7.490230083182453
1790107960367162000,11.889162109375,0.7191014789156616,6.224806827506423,-7.543544324740767
1790107960377107200,11.899107177734376,0.7065822621475905,6.165510588929057,-7.59325966502428
1790107960387051300,11.90905126953125,0.6929893517334014,6.108675187507272,-7.640303155750035
1790107960396995300,11.918995361328125,0.6791247847709805,6.0524359984129665,-7.686170588433742
1790107960406940200,11.928940185546875,0.6645805649813264,6.000331132644415,-7.728179592123627
1790107960416884200,11.93888427734375,0.6504073704611509,5.952798981618881,-7.766050180834531
1790107960426828000,11.948828125,0.6360953519921749,5.906089252892136,-7.8028119315207
1790107960436773400,11.9587734375,0.6182491680476814,5.8563476091235875,-7.84164230517447
1790107960446717200,11.96871728515625,0.5956296687541529,5.800712815663218,-7.884626875898242
1790107960456661200,11.9786611328125,0.5710483678683638,5.7394905774593346,-7.931112148219347
1790107960466606300,11.9886064453125,0.5475045568041503,5.675677153718471,-7.978553113830089
1790107960476550400,11.99855029296875,0.5227882678944618,5.61206422098577,-8.025075211030245
1790107960486494200,12.008494140625,0.49690286214016377,5.548547149842977,-8.070756181231141
1790107960496439300,12.018439208984375,0.46981005335748194,5.4859477780669925,-8.11505008098781
1790107960506383000,12.028383056640624,0.43763362116757776,5.423454204753041,-8.158736662501097
1790107960516327400,12.038327392578125,0.4071643582217395,5.35400365190804,-8.206049033296107
1790107960526272300,12.048272216796875,0.39617352006472645,5.273507973435521,-8.25854435968697
1790107960536216300,12.05821630859375,0.41310485418662424,5.1797559230268,-8.31684398844242
1790107960546161200,12.0681611328125,0.45543497958965595,5.072682034230232,-8.380384440460801
1790107960556105500,12.07810546875,0.5247269443394615,4.955898067802191,-8.445952014392613
1790107960566049300,12.08804931640625,0.6215213215861469,4.82877975436449,-8.512753514033555
1790107960575994400,12.097994384765625,0.7375882257860154,4.691722815236449,-8.579864225754141
1790107960585938200,12.107938232421875,0.8598661865204572,4.546439022772014,-8.646438930901885
1790107960595882200,12.11788232421875,0.9805253138814121,4.398399794119596,-8.709938466387987
1790107960605827300,12.127827392578125,1.0917805069506168,4.256909548719227,-8.766818291473388
1790107960615771400,12.137771484375,1.1701175460845232,4.1283626637831325,-8.818041113710404
1790107960625715200,12.147715087890624,1.195467091396451,4.014860787765682,-8.866914157950877
1790107960635660300,12.157660400390625,1.1691068346720188,3.9148260038256644,-8.915027908256649
1790107960645604400,12.167604248046874,1.109097040997818,3.8204473459511994,-8.963509322831035
1790107960655548400,12.17754833984375,1.0471735226567833,3.716283499382436,-9.014602381208539
1790107960665493200,12.1874931640625,1.0154439209189265,3.5922809798777102,-9.068338647571206
1790107960675437300,12.197437255859375,1.0289519295286387,3.451676577401161,-9.121269442769885
1790107960685381000,12.207381103515624,1.0660124439656733,3.3139547446236013,-9.167970403668283
1790107960695326200,12.217326171875,1.0963543907374143,3.1849703450530766,-9.210013894149661
1790107960705270300,12.227270263671874,1.1135460562959312,3.060708005568385,-9.249998114013671
1790107960715215000,12.237215087890625,1.1313366375956684,2.945062980042398,-9.285314342066645
1790107960725158400,12.247158447265624,1.1635491274796426,2.8439412776485082,-9.312816681498289
1790107960735102500,12.2571025390625,1.210344050271809,2.757971551679075,-9.332686918616295
1790107960745047300,12.26704736328125,1.2615119274511932,2.684608793826401,-9.347290028986334
1790107960754991400,12.276991455078125,1.3048996721483765,2.6192139461129904,-9.359880630490183
1790107960764935400,12.286935302734374,1.3338108554646373,2.5625615000426767,-9.371478713825345
1790107960774880500,12.296880615234375,1.344564889191091,2.5187007310062643,-9.381826504838466
1790107960784824300,12.30682421875,1.3347675716675818,2.4925682186231017,-9.390200365430116
1790107960794768400,12.316768310546875,1.3097485734842718,2.4850983211338518,-9.395701885455846
1790107960804713500,12.32671337890625,1.2709534172743557,2.4949402084514496,-9.398421665808558
1790107960814657500,12.336657470703125,1.2190798760436474,2.5175240884423253,-9.399270976114272
1790107960824601300,12.346601318359374,1.153667492673546,2.547660283508897,-9.39940892328024
1790107960834546400,12.35654638671875,1.0771271276980638,2.5869895465955137,-9.39774712754786
1790107960844490200,12.366490234375,1.002703754876554,2.6383888944432137,-9.391692065292597
1790107960854434600,12.3764345703125,0.9408595853820443,2.6998510788828134,-9.380617129048705
1790107960864379400,12.38637939453125,0.8784570513524115,2.768275211289525,-9.36671369138062
1790107960874323500,12.396323486328125,0.8105496362961828,2.8411785349369048,-9.350994144201279
1790107960884267300,12.406267333984376,0.7457721898287534,2.918775277097523,-9.33246830742955
1790107960894212600,12.416212646484375,0.6946894336495548,3.0013904319420455,-9.310179903253912
1790107960904156400,12.426156494140624,0.6572319557841867,3.0903324517205357,-9.283762436449527
1790107960914101200,12.436101318359375,0.6291411489401012,3.186411483772099,-9.253182004746794
1790107960924045300,12.44604541015625,0.6068081384377554,3.2895725830391047,-9.218506997206807
1790107960933989400,12.4559892578125,0.5869295353502035,3.3983763643682,-9.180246532395481
1790107960943934500,12.4659345703125,0.5644612810956314,3.512419799916446,-9.138635588112473
1790107960953878500,12.47587841796875,0.5349228327265009,3.631451837532222,-9.093776455688475
1790107960963822300,12.485822265625,0.5021672854743897,3.752317520315945,-9.04645590158701
1790107960973767200,12.49576708984375,0.4683772806080058,3.8736505283504723,-8.996989567628502
1790107960983711500,12.50571142578125,0.4312224024184048,3.999186541032791,-8.9437653424412
1790107960993655600,12.515655517578125,0.3907335575005039,4.132282759836316,-8.884929122591018
1790107961003600400,12.525600341796874,0.3512358059791848,4.271790014725923,-8.820365172743797
1790107961013544400,12.53554443359375,0.32536534206569195,4.417202402006089,-8.749448638999462
1790107961023488300,12.54548828125,0.31278939014170315,4.566496891416609,-8.672927124854922
1790107961033433300,12.555433349609375,0.3067352777345106,4.717539393538236,-8.591922327816485
1790107961043377400,12.56537744140625,0.30577280764421444,4.868251640792191,-8.507468851628898
1790107961053321500,12.575321533203125,0.31279519882798196,5.016055891644954,-8.42091168116033
1790107961063266300,12.585266357421874,0.3278507656732574,5.158796721628308,-8.333650161814688
1790107961073210400,12.59521044921875,0.34805260936580595,5.297392122370004,-8.24541541352272
1790107961083155500,12.605155517578124,0.3670237056870013,5.433268911802768,-8.15568954989016
1790107961093099300,12.615099365234375,0.3916231998166069,5.56594252128005,-8.064571939638256
1790107961103043300,12.625043212890626,0.4274907416094094,5.693457140558958,-7.97321818254292
1790107961112988400,12.634988525390625,0.47548159618787467,5.813810782167315,-7.883139267688989
1790107961122932500,12.644932373046874,0.5312813709516078,5.928800266394019,-7.793425094494223
1790107961132876300,12.654876220703125,0.5936033505583181,6.041597793534398,-7.701762125319242
1790107961142821400,12.6648212890625,0.6548770632211118,6.154036424234509,-7.60719174426496
1790107961152765200,12.67476513671875,0.7092318998735397,6.26438655822277,-7.51164638069868
1790107961162709500,12.68470947265625,0.7632887764926999,6.369075597709417,-7.417726572507619
1790107961172654300,12.694654296875,0.8051980461351573,6.46638504833877,-7.328568279629946
1790107961182598400,12.704598388671876,0.8273727608032524,6.5582672132223845,-7.243959320619702
1790107961192542200,12.714542236328125,0.8319630842681973,6.650431117656827,-7.158908463060856
1790107961202487600,12.724487548828124,0.8180350966807455,6.746354082363844,-7.070212526997923
1790107961212431400,12.734431396484375,0.7973462366562336,6.844434517365694,-6.977702585604787
1790107961222375400,12.74437548828125,0.7885089232712984,6.940050608080625,-6.883628463634849
1790107961232320300,12.7543203125,0.7910586808193475,7.026023841181397,-6.795557381471991
1790107961242264300,12.764264404296876,0.800167796882987,7.0986682216316455,-6.7185583129435775
1790107961252209400,12.77420947265625,0.805823192296177,7.162037408736348,-6.650280311009287
1790107961262153500,12.784153564453124,0.8145758961375802,7.220013212364911,-6.586215542855858
1790107961272097300,12.79409716796875,0.8461667469918728,7.270161098846793,-6.526802984422445
1790107961282042600,12.804042724609374,0.8915973226282745,7.30446376594305,-6.482301579394936
1790107961291986400,12.813986328125,0.9269182268563657,7.320925071400404,-6.458733072280883
1790107961301930500,12.823930419921876,0.9435288776565343,7.31992378540337,-6.457468166911601
