time,seconds_elapsed,z,y,x
1790267115635566600,0.056566650390625,9.068111419677734,3.3949239253997803,-1.5537796020507812
1790267115645566500,0.06656640625,9.049965858459473,3.4364352226257324,-1.5682544708251953
1790267115655566600,0.076566650390625,9.064773559570312,3.376054048538208,-1.6132303476333618
1790267115665566500,0.08656640625,9.094954490661621,3.270347833633423,-1.660423755645752
1790267115675566600,0.096566650390625,9.219407081604004,2.939744234085083,-1.5908544063568115
1790267115685566500,0.10656640625,9.414667129516602,2.312180519104004,-1.4792715311050415
1790267115695566600,0.116566650390625,9.649397850036621,1.4501159191131592,-0.9780948758125305
1790267115705566500,0.12656640625,9.751418113708496,0.8422332406044006,-0.6089977025985718
1790267115715566600,0.136566650390625,9.785412788391113,0.45586344599723816,-0.45638081431388855
1790267115725566500,0.14656640625,9.794200897216797,0.1997566670179367,-0.4517916440963745
1790267115735566600,0.156566650390625,9.790106773376465,0.05226566269993782,-0.5669646859169006
1790267115745566500,0.16656640625,9.776365280151367,-0.012310180813074112,-0.7700161933898926
1790267115755566600,0.176566650390625,9.754776954650879,-0.02826598286628723,-1.006927728652954
1790267115765566500,0.18656640625,9.731688499450684,-0.03486385941505432,-1.2097138166427612
1790267115775566600,0.196566650390625,9.708327293395996,-0.02711385115981102,-1.3849283456802368
1790267115785566500,0.20656640625,9.685267448425293,0.003481754334643483,-1.5381720066070557
1790267115795566600,0.216566650390625,9.652260780334473,0.028960777446627617,-1.7330355644226074
1790267115805566500,0.22656640625,9.58637809753418,0.0512235052883625,-2.0661842823028564
1790267115815566600,0.236566650390625,9.50861930847168,0.09884954243898392,-2.397244453430176
1790267115825566500,0.24656640625,9.407129287719727,0.22533364593982697,-2.7614359855651855
1790267115835566600,0.256566650390625,9.308685302734375,0.41811156272888184,-3.0567877292633057
1790267115845566500,0.26656640625,9.324454307556152,0.574086606502533,-2.9825117588043213
1790267115855566600,0.276566650390625,9.426127433776855,0.6734450459480286,-2.620109796524048
1790267115865566500,0.28656640625,9.49646282196045,0.7999788522720337,-2.312490940093994
1790267115875566600,0.296566650390625,9.511296272277832,0.978158712387085,-2.179180383682251
1790267115885566500,0.30656640625,9.50074291229248,1.1524966955184937,-2.1396336555480957
1790267115895566600,0.316566650390625,9.486080169677734,1.2904695272445679,-2.1258747577667236
1790267115905566500,0.32656640625,9.475624084472656,1.3586310148239136,-2.130038022994995
1790267115915566600,0.336566650390625,9.471083641052246,1.3531591892242432,-2.153583526611328
1790267115925566500,0.34656640625,9.472908973693848,1.321783185005188,-2.1650125980377197
1790267115935566600,0.356566650390625,9.485552787780762,1.2883033752441406,-2.1295392513275146
1790267115945566500,0.36656640625,9.516908645629883,1.2755290269851685,-1.9929537773132324
1790267115955566600,0.376566650390625,9.553911209106445,1.2882012128829956,-1.7982490062713623
1790267115965566500,0.38656640625,9.585078239440918,1.3515795469284058,-1.5715928077697754
1790267115975566600,0.396566650390625,9.607043266296387,1.4707858562469482,-1.3083884716033936
1790267115985566500,0.40656640625,9.619812965393066,1.6249662637710571,-0.9945220947265625
1790267115995566600,0.416566650390625,9.620656967163086,1.7746630907058716,-0.6811200976371765
1790267116005566500,0.42656640625,9.613571166992188,1.8974357843399048,-0.3864939510822296
1790267116015566600,0.436566650390625,9.6066312789917,1.9683327674865723,-0.09327908605337143
1790267116025566500,0.44656640625,9.593141555786133,2.01833176612854,0.2614617347717285
1790267116035566600,0.456566650390625,9.5652494430542,2.0558464527130127,0.670738160610199
1790267116045566500,0.46656640625,9.533249855041504,2.0547022819519043,1.0323446989059448
1790267116055566600,0.476566650390625,9.514599800109863,2.0055627822875977,1.2729867696762085
1790267116065566500,0.48656640625,9.496963500976562,1.9683010578155518,1.4504700899124146
1790267116075566600,0.496566650390625,9.4730863571167,1.9973056316375732,1.5626192092895508
1790267116085566500,0.50656640625,9.434579849243164,2.1021764278411865,1.6552835702896118
1790267116095566600,0.516566650390625,9.3711519241333,2.239333152770996,1.8268216848373413
1790267116105566500,0.52656640625,9.282301902770996,2.3509457111358643,2.11714768409729
1790267116115566600,0.536566650390625,9.17935848236084,2.413785457611084,2.466459035873413
1790267116125566500,0.54656640625,9.072493553161621,2.4304158687591553,2.820164442062378
1790267116135566600,0.556566650390625,8.964770317077637,2.3893144130706787,3.177178144454956
1790267116145566500,0.56656640625,8.858853340148926,2.293572425842285,3.525709390640259
1790267116155566600,0.576566650390625,8.743659019470215,2.1635329723358154,3.8778789043426514
1790267116165566500,0.58656640625,8.604729652404785,2.027799606323242,4.244650363922119
1790267116175566600,0.596566650390625,8.436043739318848,1.9107166528701782,4.6209001541137695
1790267116185566500,0.60656640625,8.22960090637207,1.819294810295105,5.013404846191406
1790267116195566600,0.616566650390625,7.966874599456787,1.7576674222946167,5.441497802734375
1790267116205566500,0.62656640625,7.622945308685303,1.72138512134552,5.924348831176758
1790267116215566600,0.636566650390625,7.1706767082214355,1.6870801448822021,6.47344970703125
1790267116225566500,0.64656640625,6.596503257751465,1.625683307647705,7.072035312652588
1790267116235566600,0.656566650390625,5.8951826095581055,1.5077080726623535,7.690515518188477
1790267116245566500,0.66656640625,5.06544303894043,1.3257687091827393,8.291804313659668
1790267116255566600,0.676566650390625,4.153304576873779,1.0882004499435425,8.816817283630371
1790267116265566500,0.68656640625,3.183135509490967,0.7663143873214722,9.2439603805542
1790267116275566600,0.696566650390625,2.2010254859924316,0.3247939348220825,9.550936698913574
1790267116285566500,0.70656640625,1.2372326850891113,-0.2995016872882843,9.72368049621582
1790267116295566600,0.716566650390625,0.4147942364215851,-0.943906307220459,9.752301216125488
1790267116305566500,0.72656640625,-0.24085967242717743,-1.5919536352157593,9.673575401306152
1790267116315566600,0.736566650390625,-0.7370918393135071,-2.297213315963745,9.505255699157715
1790267116325566500,0.74656640625,-1.0671718120574951,-3.0311756134033203,9.265175819396973
1790267116335566600,0.756566650390625,-1.23621666431427,-3.678982973098755,9.005955696105957
1790267116345566500,0.76656640625,-1.2849653959274292,-4.168596267700195,8.78305435180664
1790267116355566600,0.776566650390625,-1.2624120712280273,-4.525320529937744,8.60802936553955
1790267116365566500,0.78656640625,-1.2002339363098145,-4.792721748352051,8.47110652923584
1790267116375566600,0.796566650390625,-1.1197969913482666,-4.996283054351807,8.363826751708984
1790267116385566500,0.80656640625,-1.009100079536438,-5.157804012298584,8.27944278717041
1790267116395566600,0.816566650390625,-0.8757238388061523,-5.273242473602295,8.22170352935791
1790267116405566500,0.82656640625,-0.7450692057609558,-5.336162567138672,8.193939208984375
1790267116415566600,0.836566650390625,-0.6360233426094055,-5.341236591339111,8.199820518493652
1790267116425566500,0.84656640625,-0.5627374053001404,-5.27432107925415,8.248348236083984
1790267116435566600,0.856566650390625,-0.5346673130989075,-5.138733863830566,8.335341453552246
1790267116445566500,0.86656640625,-0.5569806098937988,-4.956916332244873,8.443288803100586
1790267116455566600,0.876566650390625,-0.6208844184875488,-4.752468109130859,8.55563735961914
1790267116465566500,0.88656640625,-0.7032559514045715,-4.537080764770508,8.665489196777344
1790267116475566600,0.896566650390625,-0.7895981073379517,-4.311428546905518,8.772599220275879
1790267116485566500,0.90656640625,-0.8839398622512817,-4.069735527038574,8.87841796875
1790267116495566600,0.916566650390625,-0.9872208833694458,-3.809650182723999,8.982335090637207
1790267116505566500,0.92656640625,-1.1036731004714966,-3.5377414226531982,9.07946491241455
1790267116515566600,0.936566650390625,-1.2343988418579102,-3.253779888153076,9.168399810791016
1790267116525566500,0.94656640625,-1.3915410041809082,-2.9701805114746094,9.241862297058105
1790267116535566600,0.956566650390625,-1.6064800024032593,-2.7506160736083984,9.274897575378418
1790267116545566500,0.96656640625,-1.8816900253295898,-2.599463701248169,9.266736030578613
1790267116555566600,0.976566650390625,-2.178612232208252,-2.4814791679382324,9.233975410461426
1790267116565566500,0.98656640625,-2.473076105117798,-2.404721736907959,9.179956436157227
1790267116575566600,0.996566650390625,-2.8078036308288574,-2.350822925567627,9.097267150878906
1790267116585566500,1.00656640625,-3.144596815109253,-2.317234992980957,8.99512767791748
1790267116595566600,1.016566650390625,-3.4602742195129395,-2.2603530883789062,8.893126487731934
1790267116605566500,1.02656640625,-3.727052927017212,-2.163696527481079,8.808965682983398
1790267116615566600,1.036566650390625,-3.966348171234131,-2.058791160583496,8.729251861572266
1790267116625566500,1.04656640625,-4.176198959350586,-1.9518036842346191,8.655646324157715
1790267116635566600,1.056566650390625,-4.3762407302856445,-1.8255031108856201,8.584080696105957
1790267116645566500,1.06656640625,-4.591971397399902,-1.6596373319625854,8.504692077636719
1790267116655566600,1.076566650390625,-4.752702713012695,-1.4675806760787964,8.451533317565918
1790267116665566500,1.08656640625,-4.874505519866943,-1.321573257446289,8.40613079071045
1790267116675566600,1.096566650390625,-4.9680986404418945,-1.1490150690078735,8.376642227172852
1790267116685566500,1.10656640625,-5.068058490753174,-0.9986119866371155,8.335943222045898
1790267116695566600,1.116566650390625,-5.176209926605225,-0.8300042748451233,8.287842750549316
1790267116705566500,1.12656640625,-5.274146556854248,-0.6512800455093384,8.241941452026367
1790267116715566600,1.136566650390625,-5.337487697601318,-0.5093177556991577,8.211103439331055
1790267116725566500,1.14656640625,-5.3602190017700195,-0.41444677114486694,8.201626777648926
1790267116735566600,1.156566650390625,-5.374935626983643,-0.3476225435733795,8.195096015930176
1790267116745566500,1.16656640625,-5.42204475402832,-0.3025888502597809,8.165797233581543
1790267116755566600,1.176566650390625,-5.512024402618408,-0.26479974389076233,8.10665512084961
1790267116765566500,1.18656640625,-5.600322246551514,-0.24471640586853027,8.04654598236084
1790267116775566600,1.196566650390625,-5.664898872375488,-0.26594430208206177,8.00053596496582
1790267116785566500,1.20656640625,-5.741657257080078,-0.3329780399799347,7.943103313446045
1790267116795566600,1.216566650390625,-5.862997055053711,-0.4529581665992737,7.847960472106934
1790267116805566500,1.22656640625,-6.023608684539795,-0.6295291185379028,7.7129902839660645
1790267116815566600,1.236566650390625,-6.207048416137695,-0.8564198017120361,7.543837547302246
1790267116825566500,1.24656640625,-6.3685455322265625,-1.1136387586593628,7.373724937438965
1790267116835566600,1.256566650390625,-6.462741851806641,-1.3847463130950928,7.2447099685668945
1790267116845566500,1.26656640625,-6.455574989318848,-1.656003713607788,7.193997859954834
1790267116855566600,1.276566650390625,-6.38637113571167,-1.9530658721923828,7.181238651275635
1790267116865566500,1.28656640625,-6.344736576080322,-2.2987921237945557,7.1154937744140625
1790267116875566600,1.296566650390625,-6.370412826538086,-2.6827995777130127,6.956350326538086
1790267116885566500,1.30656640625,-6.450530052185059,-3.0313591957092285,6.735867500305176
1790267116895566600,1.316566650390625,-6.496414661407471,-3.283007860183716,6.571821212768555
1790267116905566500,1.32656640625,-6.4975738525390625,-3.434885025024414,6.4925713539123535
1790267116915566600,1.336566650390625,-6.458170413970947,-3.526409864425659,6.482811450958252
1790267116925566500,1.34656640625,-6.398718357086182,-3.5969507694244385,6.502978801727295
1790267116935566600,1.356566650390625,-6.353217601776123,-3.669935464859009,6.506811141967773
1790267116945566500,1.36656640625,-6.330006122589111,-3.788240909576416,6.46147346496582
1790267116955566600,1.376566650390625,-6.298417568206787,-3.9680213928222656,6.383974075317383
1790267116965566500,1.38656640625,-6.257928371429443,-4.191632270812988,6.2800421714782715
1790267116975566600,1.396566650390625,-6.221161842346191,-4.436854362487793,6.146695137023926
1790267116985566500,1.40656640625,-6.1944899559021,-4.676803112030029,5.993847370147705
1790267116995566600,1.416566650390625,-6.17803955078125,-4.895077228546143,5.834418773651123
1790267117005566500,1.42656640625,-6.170527458190918,-5.090524196624756,5.672878265380859
1790267117015566600,1.436566650390625,-6.178306579589844,-5.266890525817871,5.500798225402832
1790267117025566500,1.44656640625,-6.197383403778076,-5.429838180541992,5.317864418029785
1790267117035566600,1.456566650390625,-6.216688632965088,-5.57998514175415,5.136821269989014
1790267117045566500,1.46656640625,-6.23341178894043,-5.7067179679870605,4.9747700691223145
1790267117055566600,1.476566650390625,-6.251255989074707,-5.801162242889404,4.841353893280029
1790267117065566500,1.48656640625,-6.270445823669434,-5.870197296142578,4.732090950012207
1790267117075566600,1.496566650390625,-6.2836012840271,-5.935485363006592,4.632143974304199
1790267117085566500,1.50656640625,-6.272984027862549,-6.014565944671631,4.54368257522583
1790267117095566600,1.516566650390625,-6.22958517074585,-6.108532905578613,4.477553844451904
1790267117105566500,1.52656640625,-6.167357444763184,-6.194550037384033,4.445407867431641
1790267117115566600,1.536566650390625,-6.10905647277832,-6.246646881103516,4.453001022338867
1790267117125566500,1.54656640625,-6.06074333190918,-6.261242866516113,4.498291015625
1790267117135566600,1.556566650390625,-6.009255409240723,-6.260313987731934,4.568118572235107
1790267117145566500,1.56656640625,-5.941519737243652,-6.26728630065918,4.646487236022949
1790267117155566600,1.576566650390625,-5.8588666915893555,-6.292111873626709,4.717348575592041
1790267117165566500,1.58656640625,-5.782604217529297,-6.322083473205566,4.771073341369629
1790267117175566600,1.596566650390625,-5.760126113891602,-6.337784290313721,4.777429103851318
1790267117185566500,1.60656640625,-5.791358947753906,-6.351437568664551,4.7212066650390625
1790267117195566600,1.616566650390625,-5.849456787109375,-6.376258850097656,4.614928722381592
1790267117205566500,1.62656640625,-5.904514312744141,-6.4152679443359375,4.489035129547119
1790267117215566600,1.636566650390625,-5.935213565826416,-6.462700366973877,4.37916898727417
1790267117225566500,1.64656640625,-5.948270797729492,-6.501850605010986,4.3028364181518555
1790267117235566600,1.656566650390625,-5.952901363372803,-6.516031742095947,4.274888515472412
1790267117245566500,1.66656640625,-5.954990863800049,-6.5067877769470215,4.286045074462891
1790267117255566600,1.676566650390625,-5.959430694580078,-6.492957592010498,4.300824165344238
1790267117265566500,1.68656640625,-5.976138591766357,-6.48861837387085,4.284154891967773
1790267117275566600,1.696566650390625,-6.009443283081055,-6.4930877685546875,4.230458736419678
1790267117285566500,1.70656640625,-6.049307346343994,-6.498794078826904,4.164365768432617
1790267117295566600,1.716566650390625,-6.0964674949646,-6.516043663024902,4.06751012802124
1790267117305566500,1.72656640625,-6.134634494781494,-6.543546676635742,3.9646737575531006
1790267117315566600,1.736566650390625,-6.1523284912109375,-6.570234298706055,3.8924612998962402
1790267117325566500,1.74656640625,-6.154298305511475,-6.609397888183594,3.822415351867676
1790267117335566600,1.756566650390625,-6.141717433929443,-6.661470413208008,3.7516016960144043
1790267117345566500,1.76656640625,-6.11377477645874,-6.714443206787109,3.702484130859375
1790267117355566600,1.776566650390625,-6.07467794418335,-6.764726638793945,3.675205945968628
1790267117365566500,1.78656640625,-6.024143695831299,-6.815946102142334,3.663736343383789
1790267117375566600,1.796566650390625,-5.966069221496582,-6.864157199859619,3.6687543392181396
1790267117385566500,1.80656640625,-5.908498287200928,-6.896636486053467,3.7008707523345947
1790267117395566600,1.816566650390625,-5.84871244430542,-6.915596961975098,3.759982109069824
1790267117405566500,1.82656640625,-5.784607887268066,-6.93104887008667,3.830047130584717
1790267117415566600,1.836566650390625,-5.726124286651611,-6.94278621673584,3.896101713180542
1790267117425566500,1.84656640625,-5.680018901824951,-6.940523624420166,3.9669766426086426
1790267117435566600,1.856566650390625,-5.691895008087158,-6.908232688903809,4.006126880645752
1790267117445566500,1.86656640625,-5.762611389160156,-6.8672027587890625,3.9754531383514404
1790267117455566600,1.876566650390625,-5.765907287597656,-6.854623317718506,3.992347002029419
1790267117465566500,1.88656640625,-5.68777322769165,-6.8767852783203125,4.0656418800354
1790267117475566600,1.896566650390625,-5.551798343658447,-6.950412750244141,4.127915382385254
1790267117485566500,1.90656640625,-5.386074542999268,-7.075139999389648,4.135575294494629
1790267117495566600,1.916566650390625,-5.20942497253418,-7.239761829376221,4.076534271240234
1790267117505566500,1.92656640625,-5.016091823577881,-7.440234661102295,3.9562761783599854
1790267117515566600,1.936566650390625,-4.779530048370361,-7.681050777435303,3.7852277755737305
1790267117525566500,1.94656640625,-4.525717258453369,-7.940742492675781,3.5542759895324707
1790267117535566600,1.956566650390625,-4.3146538734436035,-8.184266090393066,3.251450777053833
1790267117545566500,1.96656640625,-4.191445350646973,-8.376304626464844,2.9051156044006348
1790267117555566600,1.976566650390625,-4.158722400665283,-8.507397651672363,2.549431085586548
1790267117565566500,1.98656640625,-4.19674825668335,-8.59075927734375,2.180950880050659
1790267117575566600,1.996566650390625,-4.245650291442871,-8.658379554748535,1.7824960947036743
1790267117585566500,2.00656640625,-4.239747047424316,-8.734809875488281,1.3776869773864746
1790267117595566600,2.016566650390625,-4.170406341552734,-8.817513465881348,1.0146725177764893
1790267117605566500,2.02656640625,-4.06564474105835,-8.896190643310547,0.7061929106712341
1790267117615566600,2.036566650390625,-3.953603506088257,-8.963215827941895,0.4473811984062195
1790267117625566500,2.04656640625,-3.8163325786590576,-9.031281471252441,0.20483842492103577
1790267117635566600,2.056566650390625,-3.6538703441619873,-9.100481986999512,-0.029102731496095657
1790267117645566500,2.06656640625,-3.533234119415283,-9.146722793579102,-0.15529687702655792
1790267117655566600,2.076566650390625,-3.4733638763427734,-9.168867111206055,-0.19497109949588776
1790267117665566500,2.08656640625,-3.4257376194000244,-9.186619758605957,-0.20182247459888458
1790267117675566600,2.096566650390625,-3.361161708831787,-9.210569381713867,-0.19590385258197784
1790267117685566500,2.10656640625,-3.2987778186798096,-9.233386993408203,-0.18169067800045013
1790267117695566600,2.116566650390625,-3.2583649158477783,-9.248075485229492,-0.16289272904396057
1790267117705566500,2.12656640625,-3.2406506538391113,-9.254602432250977,-0.1445755958557129
1790267117715566600,2.136566650390625,-3.2343876361846924,-9.257007598876953,-0.13017059862613678
1790267117725566500,2.14656640625,-3.226229190826416,-9.260053634643555,-0.11506357789039612
1790267117735566600,2.156566650390625,-3.2034544944763184,-9.268150329589844,-0.09831716865301132
1790267117745566500,2.16656640625,-3.1711864471435547,-9.279333114624023,-0.08920203894376755
1790267117755566600,2.176566650390625,-3.14327073097229,-9.28875732421875,-0.09603222459554672
1790267117765566500,2.18656640625,-3.1277542114257812,-9.293767929077148,-0.11582930386066437
1790267117775566600,2.196566650390625,-3.124875545501709,-9.294455528259277,-0.1365034133195877
1790267117785566500,2.20656640625,-3.130391836166382,-9.292476654052734,-0.14458942413330078
1790267117795566600,2.216566650390625,-3.139904260635376,-9.28940486907959,-0.13540484011173248
1790267117805566500,2.22656640625,-3.1518406867980957,-9.285704612731934,-0.10946926474571228
1790267117815566600,2.236566650390625,-3.162750005722046,-9.282333374023438,-0.07541928440332413
1790267117825566500,2.24656640625,-3.1708266735076904,-9.279756546020508,-0.048627082258462906
1790267117835566600,2.256566650390625,-3.1814684867858887,-9.276144027709961,-0.04240698739886284
1790267117845566500,2.26656640625,-3.1922619342803955,-9.272369384765625,-0.05479135364294052
1790267117855566600,2.276566650390625,-3.198641300201416,-9.270035743713379,-0.07428530603647232
1790267117865566500,2.28656640625,-3.201420545578003,-9.268935203552246,-0.09019753336906433
1790267117875566600,2.296566650390625,-3.206453800201416,-9.267095565795898,-0.0999317467212677
1790267117885566500,2.30656640625,-3.229234218597412,-9.25910758972168,-0.1065794825553894
1790267117895566600,2.316566650390625,-3.2508561611175537,-9.251492500305176,-0.11046142131090164
1790267117905566500,2.32656640625,-3.2758054733276367,-9.242783546447754,-0.10219978541135788
1790267117915566600,2.336566650390625,-3.297142505645752,-9.235262870788574,-0.09563857316970825
1790267117925566500,2.34656640625,-3.309046983718872,-9.231184959411621,-0.07630540430545807
1790267117935566600,2.356566650390625,-3.3094499111175537,-9.231279373168945,-0.03734298050403595
1790267117945566500,2.36656640625,-3.2979962825775146,-9.235429763793945,0.021535880863666534
1790267117955566600,2.376566650390625,-3.2770063877105713,-9.242423057556152,0.09611642360687256
1790267117965566500,2.38656640625,-3.2549991607666016,-9.248910903930664,0.1816743165254593
1790267117975566600,2.396566650390625,-3.2454113960266113,-9.250443458557129,0.25886356830596924
1790267117985566500,2.40656640625,-3.2511215209960938,-9.246869087219238,0.30982935428619385
1790267117995566600,2.416566650390625,-3.263864040374756,-9.241460800170898,0.33616429567337036
1790267118005566500,2.42656640625,-3.265626907348633,-9.24039363861084,0.34812265634536743
1790267118015566600,2.436566650390625,-3.2499489784240723,-9.245940208435059,0.3475758731365204
1790267118025566500,2.44656640625,-3.2304625511169434,-9.252764701843262,0.3476482927799225
1790267118035566600,2.456566650390625,-3.2161777019500732,-9.25732421875,0.35850608348846436
1790267118045566500,2.46656640625,-3.210777759552002,-9.258444786071777,0.3774885833263397
1790267118055566600,2.476566650390625,-3.204890489578247,-9.259465217590332,0.4017118513584137
1790267118065566500,2.48656640625,-3.1914496421813965,-9.263242721557617,0.4211485683917999
1790267118075566600,2.496566650390625,-3.1892216205596924,-9.263755798339844,0.4267190098762512
1790267118085566500,2.50656640625,-3.2022182941436768,-9.260120391845703,0.4078769087791443
1790267118095566600,2.516566650390625,-3.2109158039093018,-9.259119033813477,0.3593200147151947
1790267118105566500,2.52656640625,-3.2036802768707275,-9.263704299926758,0.30101096630096436
1790267118115566600,2.536566650390625,-3.182889461517334,-9.27259635925293,0.24201321601867676
1790267118125566500,2.54656640625,-3.1549489498138428,-9.283429145812988,0.18608558177947998
1790267118135566600,2.556566650390625,-3.1179304122924805,-9.296842575073242,0.13274523615837097
1790267118145566500,2.56656640625,-3.0695581436157227,-9.31351089477539,0.08200481534004211
1790267118155566600,2.576566650390625,-3.01743745803833,-9.330822944641113,0.03487975150346756
1790267118165566500,2.58656640625,-2.9629759788513184,-9.348323822021484,0.002703264355659485
1790267118175566600,2.596566650390625,-2.9025075435638428,-9.367267608642578,-0.011660666204988956
1790267118185566500,2.60656640625,-2.8445675373077393,-9.385024070739746,-0.011784299276769161
1790267118195566600,2.616566650390625,-2.786592960357666,-9.402406692504883,-0.005907773040235043
1790267118205566500,2.62656640625,-2.7202889919281006,-9.421804428100586,0.004295610822737217
1790267118215566600,2.636566650390625,-2.6419904232025146,-9.444052696228027,0.012011607177555561
1790267118225566500,2.64656640625,-2.5549254417419434,-9.467978477478027,0.011621244251728058
1790267118235566600,2.656566650390625,-2.4615025520324707,-9.492697715759277,0.008210514672100544
1790267118245566500,2.66656640625,-2.357614755630493,-9.51902961730957,0.011069432832300663
1790267118255566600,2.676566650390625,-2.2403132915496826,-9.547297477722168,0.02203069068491459
1790267118265566500,2.68656640625,-2.1180033683776855,-9.575138092041016,0.0343826487660408
1790267118275566600,2.696566650390625,-2.00382399559021,-9.59965705871582,0.040802158415317535
1790267118285566500,2.70656640625,-1.9110112190246582,-9.618597030639648,0.031585562974214554
1790267118295566600,2.716566650390625,-1.841879963874817,-9.632126808166504,-0.004187500104308128
1790267118305566500,2.72656640625,-1.7959274053573608,-9.640575408935547,-0.06584005802869797
1790267118315566600,2.736566650390625,-1.768554925918579,-9.644792556762695,-0.1434316486120224
1790267118325566500,2.74656640625,-1.754786491394043,-9.646005630493164,-0.21375229954719543
1790267118335566600,2.756566650390625,-1.750856637954712,-9.645445823669434,-0.2650771737098694
1790267118345566500,2.76656640625,-1.7600125074386597,-9.642593383789062,-0.30517834424972534
1790267118355566600,2.776566650390625,-1.7848548889160156,-9.636817932128906,-0.34121114015579224
1790267118365566500,2.78656640625,-1.827401041984558,-9.627753257751465,-0.3706200122833252
1790267118375566600,2.796566650390625,-1.8875415325164795,-9.615556716918945,-0.3855513036251068
1790267118385566500,2.80656640625,-1.9663114547729492,-9.59969425201416,-0.38715559244155884
1790267118395566600,2.816566650390625,-2.064319133758545,-9.579419136047363,-0.3790878653526306
1790267118405566500,2.82656640625,-2.1756131649017334,-9.555319786071777,-0.36461982131004333
1790267118415566600,2.836566650390625,-2.2976036071777344,-9.527358055114746,-0.3476296067237854
1790267118425566500,2.84656640625,-2.429353952407837,-9.495054244995117,-0.335513710975647
1790267118435566600,2.856566650390625,-2.5724596977233887,-9.457446098327637,-0.330981582403183
1790267118445566500,2.86656640625,-2.731635808944702,-9.41277027130127,-0.32912111282348633
1790267118455566600,2.876566650390625,-2.9063284397125244,-9.360355377197266,-0.32769617438316345
1790267118465566500,2.88656640625,-3.0944364070892334,-9.300041198730469,-0.3226267397403717
1790267118475566600,2.896566650390625,-3.2728006839752197,-9.238999366760254,-0.3163057863712311
1790267118485566500,2.90656640625,-3.3716092109680176,-9.203789710998535,-0.3047874867916107
1790267118495566600,2.916566650390625,-3.392315626144409,-9.197449684143066,-0.2636280059814453
1790267118505566500,2.92656640625,-3.359388828277588,-9.211136817932129,-0.19964556396007538
1790267118515566600,2.936566650390625,-3.299227714538574,-9.234057426452637,-0.1328507363796234
1790267118525566500,2.94656640625,-3.2470905780792236,-9.253218650817871,-0.06879270821809769
1790267118535566600,2.956566650390625,-3.2226147651672363,-9.262020111083984,-0.011460194364190102
1790267118545566500,2.96656640625,-3.2311365604400635,-9.258976936340332,0.03845198079943657
1790267118555566600,2.976566650390625,-3.263246536254883,-9.247560501098633,0.0650416910648346
1790267118565566500,2.98656640625,-3.3012707233428955,-9.234126091003418,0.05399118736386299
1790267118575566600,2.996566650390625,-3.3329691886901855,-9.222880363464355,0.013666890561580658
1790267118585566500,3.00656640625,-3.3553006649017334,-9.214715003967285,-0.03704417869448662
1790267118595566600,3.016566650390625,-3.3695485591888428,-9.209240913391113,-0.08016247302293777
1790267118605566500,3.02656640625,-3.378274440765381,-9.205812454223633,-0.1033228188753128
1790267118615566600,3.036566650390625,-3.383509397506714,-9.203866958618164,-0.10532040894031525
1790267118625566500,3.04656640625,-3.384950876235962,-9.20343017578125,-0.09673432260751724
1790267118635566600,3.056566650390625,-3.3556761741638184,-9.21373462677002,-0.13007564842700958
1790267118645566500,3.06656640625,-3.278825283050537,-9.238540649414062,-0.2627643644809723
1790267118655566600,3.076566650390625,-3.216403007507324,-9.255813598632812,-0.39378175139427185
1790267118665566500,3.08656640625,-3.1894896030426025,-9.262219429016113,-0.45698145031929016
1790267118675566600,3.096566650390625,-3.1761598587036133,-9.26578140258789,-0.47717487812042236
1790267118685566500,3.10656640625,-3.182079553604126,-9.263571739196777,-0.48062434792518616
1790267118695566600,3.116566650390625,-3.2170352935791016,-9.251228332519531,-0.48562538623809814
1790267118705566500,3.12656640625,-3.2646329402923584,-9.23297119140625,-0.5146026015281677
1790267118715566600,3.136566650390625,-3.309764862060547,-9.213143348693848,-0.5777828693389893
1790267118725566500,3.14656640625,-3.3418524265289307,-9.195381164550781,-0.6688680648803711
1790267118735566600,3.156566650390625,-3.3550775051116943,-9.18308162689209,-0.7647568583488464
1790267118745566500,3.16656640625,-3.3570661544799805,-9.174962997436523,-0.8488477468490601
1790267118755566600,3.176566650390625,-3.3602054119110107,-9.167686462402344,-0.9126508831977844
1790267118765566500,3.18656640625,-3.364666223526001,-9.16271686553955,-0.9455228447914124
1790267118775566600,3.196566650390625,-3.3730006217956543,-9.159538269042969,-0.9466273188591003
1790267118785566500,3.20656640625,-3.387427568435669,-9.156147956848145,-0.9277242422103882
1790267118795566600,3.216566650390625,-3.4007394313812256,-9.15323257446289,-0.9075798392295837
1790267118805566500,3.22656640625,-3.4030914306640625,-9.153434753417969,-0.8966470956802368
1790267118815566600,3.236566650390625,-3.3995563983917236,-9.154970169067383,-0.8943949341773987
1790267118825566500,3.24656640625,-3.406729221343994,-9.152006149291992,-0.8974329829216003
1790267118835566600,3.256566650390625,-3.4094996452331543,-9.150973320007324,-0.8974294066429138
1790267118845566500,3.26656640625,-3.4078128337860107,-9.151504516601562,-0.8984274864196777
1790267118855566600,3.276566650390625,-3.396191358566284,-9.155434608459473,-0.902380645275116
1790267118865566500,3.28656640625,-3.37353253364563,-9.163537979125977,-0.9051100611686707
1790267118875566600,3.296566650390625,-3.3431427478790283,-9.175674438476562,-0.8948652148246765
1790267118885566500,3.30656640625,-3.2993950843811035,-9.194485664367676,-0.8636001944541931
1790267118895566600,3.316566650390625,-3.2352373600006104,-9.222098350524902,-0.8102612495422363
1790267118905566500,3.32656640625,-3.1499171257019043,-9.257835388183594,-0.7354605197906494
1790267118915566600,3.336566650390625,-3.047414779663086,-9.298962593078613,-0.6426177024841309
1790267118925566500,3.34656640625,-2.9304230213165283,-9.343137741088867,-0.5373859405517578
1790267118935566600,3.356566650390625,-2.797053813934326,-9.38991928100586,-0.4198906123638153
1790267118945566500,3.36656640625,-2.6584811210632324,-9.434653282165527,-0.3002755343914032
1790267118955566600,3.376566650390625,-2.5345211029052734,-9.471545219421387,-0.19085311889648438
1790267118965566500,3.38656640625,-2.4292397499084473,-9.500542640686035,-0.09419731050729752
1790267118975566600,3.396566650390625,-2.349126100540161,-9.521109580993652,-0.0218187365680933
1790267118985566500,3.40656640625,-2.2938992977142334,-9.534564018249512,0.022279631346464157
1790267118995566600,3.416566650390625,-2.258277177810669,-9.542963027954102,0.04914812743663788
1790267119005566500,3.42656640625,-2.2366831302642822,-9.547853469848633,0.0783553421497345
1790267119015566600,3.436566650390625,-2.2347514629364014,-9.547951698303223,0.11356506496667862
1790267119025566500,3.44656640625,-2.259430408477783,-9.541662216186523,0.14850936830043793
1790267119035566600,3.456566650390625,-2.307687520980835,-9.529642105102539,0.17576713860034943
1790267119045566500,3.46656640625,-2.3708207607269287,-9.513851165771484,0.19037143886089325
1790267119055566600,3.476566650390625,-2.440812110900879,-9.496147155761719,0.18976189196109772
1790267119065566500,3.48656640625,-2.511519432067871,-9.477892875671387,0.17942947149276733
1790267119075566600,3.496566650390625,-2.581489086151123,-9.459349632263184,0.16429901123046875
1790267119085566500,3.50656640625,-2.650607109069824,-9.44051742553711,0.14597249031066895
1790267119095566600,3.516566650390625,-2.718759775161743,-9.421407699584961,0.12572859227657318
1790267119105566500,3.52656640625,-2.7831809520721436,-9.402795791625977,0.10824846476316452
1790267119115566600,3.536566650390625,-2.843079090118408,-9.384940147399902,0.10096388310194016
1790267119125566500,3.54656640625,-2.905517816543579,-9.365717887878418,0.10804580897092819
1790267119135566600,3.556566650390625,-2.979001998901367,-9.342272758483887,0.13375627994537354
1790267119145566500,3.56656640625,-3.0649757385253906,-9.313770294189453,0.17317025363445282
1790267119155566600,3.576566650390625,-3.163588285446167,-9.280006408691406,0.20877721905708313
1790267119165566500,3.58656640625,-3.279184579849243,-9.23897933959961,0.24203728139400482
1790267119175566600,3.596566650390625,-3.40440034866333,-9.19292163848877,0.2657620906829834
1790267119185566500,3.60656640625,-3.522894859313965,-9.14823055267334,0.26357999444007874
1790267119195566600,3.616566650390625,-3.617626428604126,-9.111824989318848,0.24048671126365662
1790267119205566500,3.62656640625,-3.672247886657715,-9.09070873260498,0.2097216546535492
1790267119215566600,3.636566650390625,-3.6867878437042236,-9.08514404296875,0.1953217089176178
1790267119225566500,3.64656640625,-3.682666063308716,-9.086514472961426,0.2088492512702942
1790267119235566600,3.656566650390625,-3.6779284477233887,-9.087623596191406,0.24149619042873383
1790267119245566500,3.66656640625,-3.6810734272003174,-9.085077285766602,0.28536444902420044
1790267119255566600,3.676566650390625,-3.685023069381714,-9.082205772399902,0.3233128786087036
1790267119265566500,3.68656640625,-3.6841180324554443,-9.081962585449219,0.340024471282959
1790267119275566600,3.696566650390625,-3.6865408420562744,-9.080998420715332,0.33948415517807007
1790267119285566500,3.70656640625,-3.70668888092041,-9.07283878326416,0.3382875919342041
1790267119295566600,3.716566650390625,-3.7374398708343506,-9.060195922851562,0.33881157636642456
1790267119305566500,3.72656640625,-3.763303518295288,-9.049274444580078,0.34434542059898376
1790267119315566600,3.736566650390625,-3.783159017562866,-9.040007591247559,0.3692484200000763
1790267119325566500,3.74656640625,-3.7856550216674805,-9.037997245788574,0.3921935260295868
1790267119335566600,3.756566650390625,-3.7723233699798584,-9.043107032775879,0.40272286534309387
1790267119345566500,3.76656640625,-3.750805377960205,-9.052168846130371,0.4000975489616394
1790267119355566600,3.776566650390625,-3.7251439094543457,-9.063321113586426,0.38718193769454956
1790267119365566500,3.78656640625,-3.6935930252075195,-9.077229499816895,0.3628469407558441
1790267119375566600,3.796566650390625,-3.659752368927002,-9.092464447021484,0.3220260441303253
1790267119385566500,3.80656640625,-3.642575263977051,-9.100723266601562,0.2808486223220825
1790267119395566600,3.816566650390625,-3.642559051513672,-9.101590156555176,0.25139522552490234
1790267119405566500,3.82656640625,-3.6494996547698975,-9.099112510681152,0.2402079701423645
1790267119415566600,3.836566650390625,-3.6552534103393555,-9.096708297729492,0.2437569499015808
1790267119425566500,3.84656640625,-3.6576802730560303,-9.095499038696289,0.2523263692855835
1790267119435566600,3.856566650390625,-3.6592605113983154,-9.094688415527344,0.2585580050945282
1790267119445566500,3.86656640625,-3.662219762802124,-9.093448638916016,0.26024237275123596
1790267119455566600,3.876566650390625,-3.6667556762695312,-9.091656684875488,0.2589902877807617
1790267119465566500,3.88656640625,-3.6720640659332275,-9.089543342590332,0.2579529285430908
1790267119475566600,3.896566650390625,-3.678079843521118,-9.087080955505371,0.2589762508869171
1790267119485566500,3.90656640625,-3.6837615966796875,-9.084691047668457,0.2620377838611603
1790267119495566600,3.916566650390625,-3.6883280277252197,-9.08270263671875,0.2667059600353241
1790267119505566500,3.92656640625,-3.692291736602783,-9.08092975616455,0.2722068130970001
1790267119515566600,3.936566650390625,-3.6961662769317627,-9.079203605651855,0.277127206325531
1790267119525566500,3.94656640625,-3.700228214263916,-9.07745361328125,0.28025946021080017
1790267119535566600,3.956566650390625,-3.70432186126709,-9.075739860534668,0.2816295921802521
1790267119545566500,3.96656640625,-3.709527015686035,-9.073587417602539,0.28247177600860596
1790267119555566600,3.976566650390625,-3.7142446041107178,-9.071718215942383,0.2805446684360504
1790267119565566500,3.98656640625,-3.719064474105835,-9.069903373718262,0.27533483505249023
1790267119575566600,3.996566650390625,-3.7264227867126465,-9.067113876342773,0.2676103115081787
1790267119585566500,4.00656640625,-3.7356936931610107,-9.063621520996094,0.25641685724258423
1790267119595566600,4.016566650390625,-3.7522382736206055,-9.056917190551758,0.2516944408416748
1790267119605566500,4.02656640625,-3.7697994709014893,-9.049823760986328,0.2443142980337143
1790267119615566600,4.036566650390625,-3.777716875076294,-9.047220230102539,0.21690772473812103
1790267119625566500,4.04656640625,-3.790844202041626,-9.042590141296387,0.17737823724746704
1790267119635566600,4.056566650390625,-3.8221933841705322,-9.030092239379883,0.13659274578094482
1790267119645566500,4.06656640625,-3.8601667881011963,-9.014387130737305,0.10157544165849686
1790267119655566600,4.076566650390625,-3.9262778759002686,-8.986130714416504,0.06468499451875687
1790267119665566500,4.08656640625,-4.03125,-8.93929386138916,0.09180063754320145
1790267119675566600,4.096566650390625,-4.073404788970947,-8.918907165527344,0.17569683492183685
1790267119685566500,4.10656640625,-4.069753170013428,-8.917780876159668,0.28403332829475403
1790267119695566600,4.116566650390625,-4.057802200317383,-8.918149948120117,0.41377517580986023
1790267119705566500,4.12656640625,-4.033170700073242,-8.923587799072266,0.5229792594909668
1790267119715566600,4.136566650390625,-4.002254009246826,-8.933284759521484,0.5905604958534241
1790267119725566500,4.14656640625,-3.9769978523254395,-8.942496299743652,0.6209921836853027
1790267119735566600,4.156566650390625,-3.9591944217681885,-8.949565887451172,0.6328197717666626
1790267119745566500,4.16656640625,-3.945873975753784,-8.955229759216309,0.6358639597892761
1790267119755566600,4.176566650390625,-3.934044599533081,-8.960665702819824,0.6325720548629761
1790267119765566500,4.18656640625,-3.9257116317749023,-8.96480655670166,0.6256250739097595
1790267119775566600,4.196566650390625,-3.9231486320495605,-8.966784477233887,0.6132403016090393
1790267119785566500,4.20656640625,-3.922266721725464,-8.96863079071045,0.5915071368217468
1790267119795566600,4.216566650390625,-3.9204728603363037,-8.971580505371094,0.5576966404914856
1790267119805566500,4.22656640625,-3.92022442817688,-8.974451065063477,0.5113422274589539
1790267119815566600,4.236566650390625,-3.925417900085449,-8.975363731384277,0.45202675461769104
1790267119825566500,4.24656640625,-3.935957670211792,-8.973905563354492,0.38426050543785095
1790267119835566600,4.256566650390625,-3.949129104614258,-8.970663070678711,0.31932708621025085
1790267119845566500,4.26656640625,-3.9628212451934814,-8.966278076171875,0.2688586115837097
1790267119855566600,4.276566650390625,-3.9749691486358643,-8.961771011352539,0.23806874454021454
1790267119865566500,4.28656640625,-3.9841136932373047,-8.958067893981934,0.22417022287845612
1790267119875566600,4.296566650390625,-3.9894793033599854,-8.955793380737305,0.21954956650733948
1790267119885566500,4.30656640625,-3.9929659366607666,-8.954300880432129,0.21701905131340027
1790267119895566600,4.316566650390625,-3.9988157749176025,-8.951639175415039,0.21913254261016846
1790267119905566500,4.32656640625,-4.006784439086914,-8.947879791259766,0.22698624432086945
1790267119915566600,4.336566650390625,-4.015853404998779,-8.943533897399902,0.23772186040878296
1790267119925566500,4.34656640625,-4.028323650360107,-8.937552452087402,0.25131094455718994
1790267119935566600,4.356566650390625,-4.04952335357666,-8.927849769592285,0.2554417550563812
1790267119945566500,4.36656640625,-4.093719959259033,-8.909010887145996,0.2034021019935608
1790267119955566600,4.376566650390625,-4.127633571624756,-8.894851684570312,0.12102041393518448
1790267119965566500,4.38656640625,-4.1488566398620605,-8.885699272155762,0.041431788355112076
1790267119975566600,4.396566650390625,-4.163375377655029,-8.878969192504883,-0.024494219571352005
1790267119985566500,4.40656640625,-4.176857948303223,-8.872212409973145,-0.08987661451101303
1790267119995566600,4.416566650390625,-4.187472343444824,-8.866263389587402,-0.1575261950492859
1790267120005566500,4.42656640625,-4.186832904815674,-8.865543365478516,-0.20727501809597015
1790267120015566600,4.436566650390625,-4.178254127502441,-8.868971824645996,-0.23223674297332764
1790267120025566500,4.44656640625,-4.164430618286133,-8.875408172607422,-0.23458990454673767
1790267120035566600,4.456566650390625,-4.146021842956543,-8.884458541870117,-0.21743157505989075
1790267120045566500,4.46656640625,-4.1217145919799805,-8.896772384643555,-0.1711907982826233
1790267120055566600,4.476566650390625,-4.091530799865723,-8.911869049072266,-0.09139340370893478
1790267120065566500,4.48656640625,-4.057807445526123,-8.927739143371582,0.007677460554987192
1790267120075566600,4.496566650390625,-4.017021179199219,-8.945215225219727,0.13055919110774994
1790267120085566500,4.50656640625,-3.9700045585632324,-8.96264934539795,0.2835071384906769
1790267120095566600,4.516566650390625,-3.911515474319458,-8.981289863586426,0.4548279345035553
1790267120105566500,4.52656640625,-3.828279733657837,-9.00765609741211,0.6138425469398499
1790267120115566600,4.536566650390625,-3.716348886489868,-9.043532371520996,0.757407546043396
1790267120125566500,4.54656640625,-3.6023635864257812,-9.07734203338623,0.8917635679244995
1790267120135566600,4.556566650390625,-3.5044033527374268,-9.102724075317383,1.014866828918457
1790267120145566500,4.56656640625,-3.4312944412231445,-9.1165132522583,1.133924961090088
1790267120155566600,4.576566650390625,-3.3966987133026123,-9.114653587341309,1.2473676204681396
1790267120165566500,4.58656640625,-3.407294988632202,-9.097071647644043,1.3431309461593628
1790267120175566600,4.596566650390625,-3.460024833679199,-9.067377090454102,1.4075853824615479
1790267120185566500,4.60656640625,-3.536496877670288,-9.033369064331055,1.4359004497528076
1790267120195566600,4.616566650390625,-3.623565912246704,-9.001152038574219,1.4210604429244995
1790267120205566500,4.62656640625,-3.704662799835205,-8.976646423339844,1.36589515209198
1790267120215566600,4.636566650390625,-3.778949499130249,-8.958659172058105,1.2776405811309814
1790267120225566500,4.64656640625,-3.854701280593872,-8.940756797790527,1.1724027395248413
1790267120235566600,4.656566650390625,-3.9386165142059326,-8.916827201843262,1.0713952779769897
1790267120245566500,4.66656640625,-4.031839370727539,-8.88460922241211,0.9891373515129089
1790267120255566600,4.676566650390625,-4.136085510253906,-8.844184875488281,0.9184728860855103
1790267120265566500,4.68656640625,-4.240376949310303,-8.801815032958984,0.8471331596374512
1790267120275566600,4.696566650390625,-4.27656888961792,-8.782194137573242,0.8685604333877563
1790267120285566500,4.70656640625,-4.318016529083252,-8.754343032836914,0.9415944814682007
1790267120295566600,4.716566650390625,-4.359710693359375,-8.722914695739746,1.0363775491714478
1790267120305566500,4.72656640625,-4.385058879852295,-8.697855949401855,1.1353123188018799
1790267120315566600,4.736566650390625,-4.387189865112305,-8.685138702392578,1.2211939096450806
1790267120325566500,4.74656640625,-4.368287086486816,-8.686102867126465,1.280655026435852
1790267120335566600,4.756566650390625,-4.331020832061768,-8.70067310333252,1.3080239295959473
1790267120345566500,4.76656640625,-4.284344673156738,-8.722877502441406,1.3138458728790283
1790267120355566600,4.776566650390625,-4.243293762207031,-8.744109153747559,1.3059135675430298
1790267120365566500,4.78656640625,-4.219923496246338,-8.75766658782959,1.290692687034607
1790267120375566600,4.796566650390625,-4.210631370544434,-8.764745712280273,1.2728638648986816
1790267120385566500,4.80656640625,-4.203045845031738,-8.771272659301758,1.2528250217437744
1790267120395566600,4.816566650390625,-4.189820766448975,-8.781586647033691,1.2245464324951172
1790267120405566500,4.82656640625,-4.173025131225586,-8.79509162902832,1.1843180656433105
1790267120415566600,4.836566650390625,-4.157188892364502,-8.807843208312988,1.1445808410644531
1790267120425566500,4.84656640625,-4.143799781799316,-8.817712783813477,1.1168043613433838
1790267120435566600,4.856566650390625,-4.133381366729736,-8.824455261230469,1.1020641326904297
1790267120445566500,4.86656640625,-4.126950263977051,-8.828784942626953,1.0914314985275269
1790267120455566600,4.876566650390625,-4.12428092956543,-8.831247329711914,1.0815613269805908
1790267120465566500,4.88656640625,-4.1261305809021,-8.830991744995117,1.07657790184021
1790267120475566600,4.896566650390625,-4.134397506713867,-8.826773643493652,1.0794488191604614
1790267120485566500,4.90656640625,-4.147913455963135,-8.819149017333984,1.0898680686950684
1790267120495566600,4.916566650390625,-4.16386079788208,-8.809795379638672,1.1046055555343628
1790267120505566500,4.92656640625,-4.181109428405762,-8.79971694946289,1.11968195438385
1790267120515566600,4.936566650390625,-4.1971869468688965,-8.789885520935059,1.1366243362426758
1790267120525566500,4.94656640625,-4.210150241851807,-8.781450271606445,1.1537507772445679
1790267120535566600,4.956566650390625,-4.230440139770508,-8.76848316192627,1.177903175354004
1790267120545566500,4.96656640625,-4.257480621337891,-8.74825668334961,1.2297379970550537
1790267120555566600,4.976566650390625,-4.275888919830322,-8.732006072998047,1.2803224325180054
1790267120565566500,4.98656640625,-4.275975704193115,-8.726338386535645,1.318122148513794
1790267120575566600,4.996566650390625,-4.258495330810547,-8.732603073120117,1.3331284523010254
1790267120585566500,5.00656640625,-4.232748031616211,-8.748394966125488,1.311413288116455
1790267120595566600,5.016566650390625,-4.211177825927734,-8.76707935333252,1.2548654079437256
1790267120605566500,5.02656640625,-4.183823585510254,-8.790033340454102,1.1837784051895142
1790267120615566600,5.036566650390625,-4.162851810455322,-8.809578895568848,1.110124111175537
1790267120625566500,5.04656640625,-4.164769649505615,-8.812901496887207,1.0760338306427002
1790267120635566600,5.056566650390625,-4.185349941253662,-8.800664901733398,1.096143364906311
1790267120645566500,5.06656640625,-4.209541320800781,-8.785028457641602,1.1284596920013428
1790267120655566600,5.076566650390625,-4.233282566070557,-8.772254943847656,1.1389644145965576
1790267120665566500,5.08656640625,-4.249344825744629,-8.76747989654541,1.1156834363937378
1790267120675566600,5.096566650390625,-4.252068996429443,-8.771695137023926,1.0712867975234985
1790267120685566500,5.10656640625,-4.246973991394043,-8.778816223144531,1.032468318939209
1790267120695566600,5.116566650390625,-4.237967491149902,-8.785314559936523,1.0140295028686523
1790267120705566500,5.12656640625,-4.2243170738220215,-8.79196548461914,1.0133470296859741
1790267120715566600,5.136566650390625,-4.214335918426514,-8.797045707702637,1.0108110904693604
1790267120725566500,5.14656640625,-4.214698791503906,-8.799943923950195,0.9837063550949097
1790267120735566600,5.156566650390625,-4.210436820983887,-8.806952476501465,0.938194751739502
1790267120745566500,5.16656640625,-4.199240684509277,-8.817827224731445,0.8847001194953918
1790267120755566600,5.176566650390625,-4.182986259460449,-8.830503463745117,0.833794116973877
1790267120765566500,5.18656640625,-4.16418981552124,-8.843026161193848,0.7942143678665161
1790267120775566600,5.196566650390625,-4.143467426300049,-8.853925704956055,0.7810750603675842
1790267120785566500,5.20656640625,-4.1246514320373535,-8.86111831665039,0.7988893985748291
1790267120795566600,5.216566650390625,-4.1050944328308105,-8.866839408874512,0.83531254529953
1790267120805566500,5.22656640625,-4.079732894897461,-8.87469482421875,0.8751932978630066
1790267120815566600,5.236566650390625,-4.046838760375977,-8.886054992675781,0.9118663668632507
1790267120825566500,5.24656640625,-4.0080180168151855,-8.899731636047363,0.9491795897483826
1790267120835566600,5.256566650390625,-3.9690234661102295,-8.913009643554688,0.9876773357391357
1790267120845566500,5.26656640625,-3.9338486194610596,-8.92386531829834,1.0294822454452515
1790267120855566600,5.276566650390625,-3.901742696762085,-8.932774543762207,1.0734672546386719
1790267120865566500,5.28656640625,-3.8718929290771484,-8.940323829650879,1.1177890300750732
1790267120875566600,5.296566650390625,-3.8472750186920166,-8.945608139038086,1.1597131490707397
1790267120885566500,5.30656640625,-3.82413387298584,-8.950757026672363,1.195966124534607
1790267120895566600,5.316566650390625,-3.798387289047241,-8.957658767700195,1.2259728908538818
1790267120905566500,5.32656640625,-3.773636817932129,-8.965021133422852,1.248379111289978
1790267120915566600,5.336566650390625,-3.755319595336914,-8.970303535461426,1.2655490636825562
1790267120925566500,5.34656640625,-3.7468273639678955,-8.971635818481445,1.2811723947525024
1790267120935566600,5.356566650390625,-3.7488648891448975,-8.96833610534668,1.2982038259506226
1790267120945566500,5.36656640625,-3.7546496391296387,-8.96331787109375,1.316032886505127
1790267120955566600,5.376566650390625,-3.764993667602539,-8.958969116210938,1.316085696220398
1790267120965566500,5.38656640625,-3.7757692337036133,-8.959061622619629,1.284201979637146
1790267120975566600,5.396566650390625,-3.76216983795166,-8.969656944274902,1.249688982963562
1790267120985566500,5.40656640625,-3.7196662425994873,-8.991239547729492,1.2215098142623901
1790267120995566600,5.416566650390625,-3.6542258262634277,-9.02132511138916,1.1969661712646484
1790267121005566500,5.42656640625,-3.5739128589630127,-9.056549072265625,1.1732207536697388
1790267121015566600,5.436566650390625,-3.4819257259368896,-9.095406532287598,1.1489806175231934
1790267121025566500,5.44656640625,-3.386505126953125,-9.134624481201172,1.1227644681930542
1790267121035566600,5.456566650390625,-3.2975854873657227,-9.170802116394043,1.0921103954315186
1790267121045566500,5.46656640625,-3.2208242416381836,-9.202262878417969,1.0559556484222412
1790267121055566600,5.476566650390625,-3.1501729488372803,-9.230050086975098,1.0261551141738892
1790267121065566500,5.48656640625,-3.0876030921936035,-9.253589630126953,1.0040749311447144
1790267121075566600,5.496566650390625,-3.0333094596862793,-9.273846626281738,0.9824416041374207
1790267121085566500,5.50656640625,-2.983652114868164,-9.29248046875,0.958135724067688
1790267121095566600,5.516566650390625,-2.93078875541687,-9.311578750610352,0.9356032013893127
1790267121105566500,5.52656640625,-2.872845411300659,-9.33115005493164,0.9202103614807129
1790267121115566600,5.536566650390625,-2.8113961219787598,-9.350748062133789,0.9110221266746521
1790267121125566500,5.54656640625,-2.748349905014038,-9.370201110839844,0.9034980535507202
1790267121135566600,5.556566650390625,-2.686727523803711,-9.388952255249023,0.8941230773925781
1790267121145566500,5.56656640625,-2.628541946411133,-9.406525611877441,0.8822916746139526
1790267121155566600,5.576566650390625,-2.5726442337036133,-9.423110008239746,0.8699997663497925
1790267121165566500,5.58656640625,-2.5165560245513916,-9.439345359802246,0.8579514622688293
1790267121175566600,5.596566650390625,-2.458759069442749,-9.455750465393066,0.8447895646095276
1790267121185566500,5.60656640625,-2.3974125385284424,-9.472872734069824,0.8291605710983276
1790267121195566600,5.616566650390625,-2.3324697017669678,-9.490734100341797,0.8099011182785034
1790267121205566500,5.62656640625,-2.265129327774048,-9.50900936126709,0.7863186001777649
1790267121215566600,5.636566650390625,-2.1957507133483887,-9.527477264404297,0.7590956687927246
1790267121225566500,5.64656640625,-2.1237409114837646,-9.546158790588379,0.7286727428436279
1790267121235566600,5.656566650390625,-2.048722505569458,-9.565040588378906,0.695074737071991
1790267121245566500,5.66656640625,-1.9718893766403198,-9.583745956420898,0.6586941480636597
1790267121255566600,5.676566650390625,-1.8935319185256958,-9.602028846740723,0.6212554574012756
1790267121265566500,5.68656640625,-1.8121707439422607,-9.620019912719727,0.584509551525116
1790267121275566600,5.696566650390625,-1.7274452447891235,-9.637744903564453,0.5478988885879517
1790267121285566500,5.70656640625,-1.640373706817627,-9.655029296875,0.5098551511764526
1790267121295566600,5.716566650390625,-1.5518805980682373,-9.671653747558594,0.4702876806259155
1790267121305566500,5.72656640625,-1.4620968103408813,-9.687517166137695,0.4297458827495575
1790267121315566600,5.736566650390625,-1.3709827661514282,-9.702568054199219,0.38856109976768494
1790267121325566500,5.74656640625,-1.2783416509628296,-9.716805458068848,0.3463214039802551
1790267121335566600,5.756566650390625,-1.1843599081039429,-9.73018741607666,0.3018818497657776
1790267121345566500,5.76656640625,-1.0890755653381348,-9.742670059204102,0.2543306350708008
1790267121355566600,5.776566650390625,-0.9938416481018066,-9.754020690917969,0.20430906116962433
1790267121365566500,5.78656640625,-0.9019404649734497,-9.763867378234863,0.15420232713222504
1790267121375566600,5.796566650390625,-0.8153937458992004,-9.772122383117676,0.10556884855031967
1790267121385566500,5.80656640625,-0.7332797050476074,-9.779021263122559,0.058422356843948364
1790267121395566600,5.816566650390625,-0.652463436126709,-9.78491497039795,0.011381593532860279
1790267121405566500,5.82656640625,-0.5706374645233154,-9.789958953857422,-0.03819827362895012
1790267121415566600,5.836566650390625,-0.48952412605285645,-9.793992042541504,-0.09196142852306366
1790267121425566500,5.84656640625,-0.41159069538116455,-9.796862602233887,-0.14983269572257996
1790267121435566600,5.856566650390625,-0.33756545186042786,-9.798613548278809,-0.20882216095924377
1790267121445566500,5.86656640625,-0.2666339576244354,-9.799432754516602,-0.26535293459892273
1790267121455566600,5.876566650390625,-0.19764558970928192,-9.799491882324219,-0.31824201345443726
1790267121465566500,5.88656640625,-0.13057242333889008,-9.798850059509277,-0.3686102330684662
1790267121475566600,5.896566650390625,-0.0645984634757042,-9.797562599182129,-0.41711148619651794
1790267121485566500,5.90656640625,0.0030918405391275883,-9.795699119567871,-0.4633046090602875
1790267121495566600,5.916566650390625,0.07429887354373932,-9.793191909790039,-0.5081799626350403
1790267121505566500,5.92656640625,0.14809724688529968,-9.789911270141602,-0.5532446503639221
1790267121515566600,5.936566650390625,0.22234874963760376,-9.785785675048828,-0.5994588732719421
1790267121525566500,5.94656640625,0.29361024498939514,-9.780866622924805,-0.6471750140190125
1790267121535566600,5.956566650390625,0.35998791456222534,-9.77523136138916,-0.6968801617622375
1790267121545566500,5.96656640625,0.4208105206489563,-9.768986701965332,-0.7484678030014038
1790267121555566600,5.976566650390625,0.4766971170902252,-9.762290954589844,-0.8005167841911316
1790267121565566500,5.98656640625,0.5283810496330261,-9.7553071975708,-0.851569652557373
1790267121575566600,5.996566650390625,0.5763741731643677,-9.74809741973877,-0.9015429615974426
1790267121585566500,6.00656640625,0.6213882565498352,-9.740689277648926,-0.9503946900367737
1790267121595566600,6.016566650390625,0.6653091311454773,-9.7329740524292,-0.9984838962554932
1790267121605566500,6.02656640625,0.7089584469795227,-9.724742889404297,-1.0474454164505005
1790267121615566600,6.036566650390625,0.7519886493682861,-9.715855598449707,-1.0986613035202026
1790267121625566500,6.04656640625,0.7932135462760925,-9.70637321472168,-1.1521835327148438
1790267121635566600,6.056566650390625,0.8299577236175537,-9.696571350097656,-1.2075064182281494
1790267121645566500,6.06656640625,0.8607544898986816,-9.686789512634277,-1.2631696462631226
1790267121655566600,6.076566650390625,0.8859973549842834,-9.677401542663574,-1.3165504932403564
1790267121665566500,6.08656640625,0.9081141352653503,-9.668722152709961,-1.3643766641616821
1790267121675566600,6.096566650390625,0.9310390949249268,-9.660689353942871,-1.4052232503890991
1790267121685566500,6.10656640625,0.9558324813842773,-9.652600288391113,-1.4436354637145996
1790267121695566600,6.116566650390625,0.9824745655059814,-9.64339828491211,-1.4866143465042114
1790267121705566500,6.12656640625,1.0103983879089355,-9.632649421691895,-1.5367345809936523
1790267121715566600,6.136566650390625,1.0364192724227905,-9.620845794677734,-1.5923346281051636
1790267121725566500,6.14656640625,1.054031491279602,-9.609221458435059,-1.6499325037002563
1790267121735566600,6.156566650390625,1.0570108890533447,-9.599105834960938,-1.7059553861618042
1790267121745566500,6.16656640625,1.0432265996932983,-9.591413497924805,-1.7569411993026733
1790267121755566600,6.176566650390625,1.014543056488037,-9.5864896774292,-1.8000857830047607
1790267121765566500,6.18656640625,0.9715779423713684,-9.58456802368164,-1.8337068557739258
1790267121775566600,6.196566650390625,0.9122437238693237,-9.585978507995605,-1.8566617965698242
1790267121785566500,6.20656640625,0.8345940709114075,-9.590880393981934,-1.8678480386734009
1790267121795566600,6.216566650390625,0.7395318150520325,-9.598797798156738,-1.8672324419021606
1790267121805566500,6.22656640625,0.6284453868865967,-9.60880184173584,-1.8564356565475464
1790267121815566600,6.236566650390625,0.5036072731018066,-9.619731903076172,-1.8378071784973145
1790267121825566500,6.24656640625,0.3698256015777588,-9.630608558654785,-1.8124589920043945
1790267121835566600,6.256566650390625,0.23327326774597168,-9.641250610351562,-1.7782741785049438
1790267121845566500,6.26656640625,0.099222332239151,-9.652042388916016,-1.73164963722229
1790267121855566600,6.276566650390625,-0.026956932619214058,-9.663514137268066,-1.6691770553588867
1790267121865566500,6.28656640625,-0.14170078933238983,-9.675897598266602,-1.58975350856781
1790267121875566600,6.296566650390625,-0.2478761076927185,-9.688613891601562,-1.496563196182251
1790267121885566500,6.30656640625,-0.3536049425601959,-9.700273513793945,-1.396441102027893
1790267121895566600,6.316566650390625,-0.47032442688941956,-9.709158897399902,-1.296697974205017
1790267121905566500,6.32656640625,-0.6059725284576416,-9.713603973388672,-1.2037745714187622
1790267121915566600,6.336566650390625,-0.765632688999176,-9.712206840515137,-1.1212615966796875
1790267121925566500,6.34656640625,-0.9534890651702881,-9.7033052444458,-1.0521912574768066
1790267121935566600,6.356566650390625,-1.175873041152954,-9.684664726257324,-0.9974923133850098
1790267121945566500,6.36656640625,-1.4419662952423096,-9.653180122375488,-0.9524936079978943
1790267121955566600,6.376566650390625,-1.7610933780670166,-9.604382514953613,-0.908176600933075
1790267121965566500,6.38656640625,-2.12385892868042,-9.534729957580566,-0.8651809096336365
1790267121975566600,6.396566650390625,-2.4930379390716553,-9.447610855102539,-0.8353521227836609
1790267121985566500,6.40656640625,-2.8419189453125,-9.349228858947754,-0.828139066696167
1790267121995566600,6.416566650390625,-3.1640281677246094,-9.243891716003418,-0.8424868583679199
1790267122005566500,6.42656640625,-3.464186429977417,-9.134284973144531,-0.8571063280105591
1790267122015566600,6.436566650390625,-3.750588893890381,-9.021560668945312,-0.845526397228241
1790267122025566500,6.44656640625,-4.029867649078369,-8.905197143554688,-0.7924743890762329
1790267122035566600,6.456566650390625,-4.306868553161621,-8.782344818115234,-0.7012118697166443
1790267122045566500,6.46656640625,-4.586264610290527,-8.647809982299805,-0.5932587385177612
1790267122055566600,6.476566650390625,-4.873412609100342,-8.495959281921387,-0.4887928366661072
1790267122065566500,6.48656640625,-5.173354625701904,-8.321548461914062,-0.39825502038002014
1790267122075566600,6.496566650390625,-5.486838340759277,-8.12170124053955,-0.3208814263343811
1790267122085566500,6.50656640625,-5.8099188804626465,-7.8962907791137695,-0.2526378035545349
1790267122095566600,6.516566650390625,-6.147132396697998,-7.638688087463379,-0.18326550722122192
1790267122105566500,6.52656640625,-6.460934162139893,-7.376829147338867,-0.0953458771109581
1790267122115566600,6.536566650390625,-6.745987892150879,-7.117587566375732,-0.044449545443058014
1790267122125566500,6.54656640625,-7.01153564453125,-6.856290340423584,-0.005916076712310314
1790267122135566600,6.556566650390625,-7.259389877319336,-6.593266487121582,0.02203945443034172
1790267122145566500,6.56656640625,-7.492525577545166,-6.327058792114258,0.027741482481360435
1790267122155566600,6.576566650390625,-7.714383602142334,-6.054638385772705,0.005754493642598391
1790267122165566500,6.58656640625,-7.925551414489746,-5.775323390960693,-0.04071829468011856
1790267122175566600,6.596566650390625,-8.12547492980957,-5.489503383636475,-0.11137402057647705
1790267122185566500,6.60656640625,-8.314080238342285,-5.196778774261475,-0.19988423585891724
1790267122195566600,6.616566650390625,-8.490039825439453,-4.89940071105957,-0.2923681437969208
1790267122205566500,6.62656640625,-8.652398109436035,-4.599635601043701,-0.3869627118110657
1790267122215566600,6.636566650390625,-8.799406051635742,-4.3013834953308105,-0.48880964517593384
1790267122225566500,6.64656640625,-8.928954124450684,-4.01219367980957,-0.5885981917381287
1790267122235566600,6.656566650390625,-9.043405532836914,-3.7322444915771484,-0.6764146089553833
1790267122245566500,6.66656640625,-9.148317337036133,-3.452496290206909,-0.7476193904876709
1790267122255566600,6.676566650390625,-9.246549606323242,-3.167147397994995,-0.8005585074424744
1790267122265566500,6.68656640625,-9.332998275756836,-2.895110845565796,-0.8269544839859009
1790267122275566600,6.696566650390625,-9.404541015625,-2.6506474018096924,-0.8360944390296936
1790267122285566500,6.70656640625,-9.463602066040039,-2.4296555519104004,-0.8410723209381104
1790267122295566600,6.716566650390625,-9.512054443359375,-2.227526903152466,-0.8540112376213074
1790267122305566500,6.72656640625,-9.549690246582031,-2.0473361015319824,-0.8844351172447205
1790267122315566600,6.736566650390625,-9.57829761505127,-1.8902888298034668,-0.9238065481185913
1790267122325566500,6.74656640625,-9.601696014404297,-1.751059651374817,-0.9547858238220215
1790267122335566600,6.756566650390625,-9.621389389038086,-1.6293901205062866,-0.9717814326286316
1790267122345566500,6.76656640625,-9.638933181762695,-1.5220030546188354,-0.9720340371131897
1790267122355566600,6.776566650390625,-9.656343460083008,-1.421972632408142,-0.9504782557487488
1790267122365566500,6.78656640625,-9.673409461975098,-1.328425407409668,-0.9114908576011658
1790267122375566600,6.796566650390625,-9.688735008239746,-1.2478276491165161,-0.8612414598464966
1790267122385566500,6.80656640625,-9.702478408813477,-1.1842026710510254,-0.7936978936195374
1790267122395566600,6.816566650390625,-9.714995384216309,-1.1379570960998535,-0.7030667066574097
1790267122405566500,6.82656640625,-9.725577354431152,-1.107818603515625,-0.5968949198722839
1790267122415566600,6.836566650390625,-9.733513832092285,-1.0927519798278809,-0.4847571849822998
1790267122425566500,6.84656640625,-9.739490509033203,-1.0840307474136353,-0.3709396719932556
1790267122435566600,6.856566650390625,-9.744494438171387,-1.0729656219482422,-0.25288450717926025
1790267122445566500,6.86656640625,-9.747539520263672,-1.0668867826461792,-0.13274705410003662
1790267122455566600,6.876566650390625,-9.747637748718262,-1.0740840435028076,-0.017261527478694916
1790267122465566500,6.88656640625,-9.745823860168457,-1.0863782167434692,0.09526284039020538
1790267122475566600,6.896566650390625,-9.744634628295898,-1.0821253061294556,0.20366540551185608
1790267122485566500,6.90656640625,-9.744987487792969,-1.0548864603042603,0.30464640259742737
1790267122495566600,6.916566650390625,-9.745835304260254,-1.017443060874939,0.39227500557899475
1790267122505566500,6.92656640625,-9.746696472167969,-0.9767389297485352,0.4672059118747711
1790267122515566600,6.936566650390625,-9.748669624328613,-0.9230976700782776,0.5307736396789551
1790267122525566500,6.94656640625,-9.75208568572998,-0.8605807423591614,0.5715146660804749
1790267122535566600,6.956566650390625,-9.756416320800781,-0.8061822056770325,0.576873779296875
1790267122545566500,6.96656640625,-9.760298728942871,-0.7763757109642029,0.5515416860580444
1790267122555566600,6.976566650390625,-9.762807846069336,-0.7755712270736694,0.5064017176628113
1790267122565566500,6.98656640625,-9.762784957885742,-0.8010765314102173,0.465509831905365
1790267122575566600,6.996566650390625,-9.76033878326416,-0.8433223962783813,0.441560298204422
1790267122585566500,7.00656640625,-9.756672859191895,-0.8864591717720032,0.43807992339134216
1790267122595566600,7.016566650390625,-9.751965522766113,-0.9269294142723083,0.45866891741752625
1790267122605566500,7.02656640625,-9.745113372802734,-0.9717974662780762,0.5086826682090759
1790267122615566600,7.036566650390625,-9.733970642089844,-1.0303078889846802,0.5988968014717102
1790267122625566500,7.04656640625,-9.716653823852539,-1.1081467866897583,0.7273417711257935
1790267122635566600,7.056566650390625,-9.69493293762207,-1.19668447971344,0.8640658855438232
1790267122645566500,7.06656640625,-9.672325134277344,-1.2850450277328491,0.9824205636978149
1790267122655566600,7.076566650390625,-9.65106201171875,-1.3654463291168213,1.0783947706222534
1790267122665566500,7.08656640625,-9.631458282470703,-1.4387645721435547,1.1555730104446411
1790267122675566600,7.096566650390625,-9.614787101745605,-1.5061078071594238,1.207428216934204
1790267122685566500,7.10656640625,-9.600513458251953,-1.570636510848999,1.2383977174758911
1790267122695566600,7.116566650390625,-9.586945533752441,-1.6363554000854492,1.2582509517669678
1790267122705566500,7.12656640625,-9.573718070983887,-1.702414870262146,1.2712546586990356
1790267122715566600,7.136566650390625,-9.559892654418945,-1.7711180448532104,1.281398057937622
1790267122725566500,7.14656640625,-9.544629096984863,-1.8435007333755493,1.2930355072021484
1790267122735566600,7.156566650390625,-9.527579307556152,-1.9172723293304443,1.3113712072372437
1790267122745566500,7.16656640625,-9.508749008178711,-1.991866111755371,1.3366162776947021
1790267122755566600,7.176566650390625,-9.488061904907227,-2.0700440406799316,1.3645493984222412
1790267122765566500,7.18656640625,-9.465343475341797,-2.1530251502990723,1.3936119079589844
1790267122775566600,7.196566650390625,-9.440298080444336,-2.239297389984131,1.4271304607391357
1790267122785566500,7.20656640625,-9.413113594055176,-2.3250081539154053,1.4690186977386475
1790267122795566600,7.216566650390625,-9.383137702941895,-2.411325454711914,1.5207316875457764
1790267122805566500,7.22656640625,-9.350199699401855,-2.4996628761291504,1.5798249244689941
1790267122815566600,7.236566650390625,-9.314896583557129,-2.5896174907684326,1.6422466039657593
1790267122825566500,7.24656640625,-9.277700424194336,-2.680370569229126,1.705951452255249
1790267122835566600,7.256566650390625,-9.238962173461914,-2.7705390453338623,1.770896077156067
1790267122845566500,7.26656640625,-9.198248863220215,-2.8620338439941406,1.836130976676941
1790267122855566600,7.276566650390625,-9.156001091003418,-2.954482316970825,1.8997554779052734
1790267122865566500,7.28656640625,-9.11232852935791,-3.0462756156921387,1.9636914730072021
1790267122875566600,7.296566650390625,-9.066553115844727,-3.1373982429504395,2.030946969985962
1790267122885566500,7.30656640625,-9.018753051757812,-3.228022336959839,2.1005616188049316
1790267122895566600,7.316566650390625,-8.969283103942871,-3.3191492557525635,2.1692376136779785
1790267122905566500,7.32656640625,-8.918206214904785,-3.4116992950439453,2.2352375984191895
1790267122915566600,7.336566650390625,-8.864420890808105,-3.506831169128418,2.300994634628296
1790267122925566500,7.34656640625,-8.807061195373535,-3.604045867919922,2.3700013160705566
1790267122935566600,7.356566650390625,-8.746557235717773,-3.7017135620117188,2.442426919937134
1790267122945566500,7.36656640625,-8.683480262756348,-3.7982146739959717,2.5181572437286377
1790267122955566600,7.376566650390625,-8.617634773254395,-3.892500877380371,2.599076986312866
1790267122965566500,7.38656640625,-8.547451972961426,-3.9877052307128906,2.6850759983062744
1790267122975566600,7.396566650390625,-8.473234176635742,-4.087667942047119,2.76869535446167
1790267122985566500,7.40656640625,-8.398262977600098,-4.191554069519043,2.8408474922180176
1790267122995566600,7.416566650390625,-8.324504852294922,-4.29606294631958,2.901181697845459
1790267123005566500,7.42656640625,-8.25074577331543,-4.401234149932861,2.9537620544433594
1790267123015566600,7.436566650390625,-8.174002647399902,-4.508702754974365,3.004610300064087
1790267123025566500,7.44656640625,-8.094666481018066,-4.615481376647949,3.056809663772583
1790267123035566600,7.456566650390625,-8.013508796691895,-4.7195844650268555,3.111204147338867
1790267123045566500,7.46656640625,-7.931201934814453,-4.82188081741333,3.1647887229919434
1790267123055566600,7.476566650390625,-7.8487982749938965,-4.9222307205200195,3.2153382301330566
1790267123065566500,7.48656640625,-7.767727375030518,-5.0200300216674805,3.260690212249756
1790267123075566600,7.496566650390625,-7.687756538391113,-5.116854667663574,3.2994821071624756
1790267123085566500,7.50656640625,-7.6077470779418945,-5.2149152755737305,3.331249952316284
1790267123095566600,7.516566650390625,-7.527555465698242,-5.314066410064697,3.356635332107544
1790267123105566500,7.52656640625,-7.44664192199707,-5.413803577423096,3.3776679039001465
1790267123115566600,7.536566650390625,-7.3641228675842285,-5.514798164367676,3.3951547145843506
1790267123125566500,7.54656640625,-7.280731678009033,-5.616174697875977,3.4088003635406494
1790267123135566600,7.556566650390625,-7.19771671295166,-5.715207099914551,3.4204797744750977
1790267123145566500,7.56656640625,-7.114673137664795,-5.8116960525512695,3.4316179752349854
1790267123155566600,7.576566650390625,-7.030620098114014,-5.907199382781982,3.4417691230773926
1790267123165566500,7.58656640625,-6.944941520690918,-6.0019211769104,3.451826810836792
1790267123175566600,7.596566650390625,-6.858009338378906,-6.094629287719727,3.4631762504577637
1790267123185566500,7.60656640625,-6.77100133895874,-6.184713363647461,3.4746577739715576
1790267123195566600,7.616566650390625,-6.684515476226807,-6.2727556228637695,3.4842758178710938
1790267123205566500,7.62656640625,-6.596851825714111,-6.361662864685059,3.4901561737060547
1790267123215566600,7.636566650390625,-6.507829189300537,-6.452674865722656,3.490205764770508
1790267123225566500,7.64656640625,-6.418546199798584,-6.5438337326049805,3.485813617706299
1790267123235566600,7.656566650390625,-6.3287506103515625,-6.633378028869629,3.4807465076446533
1790267123245566500,7.66656640625,-6.236554145812988,-6.7226033210754395,3.4759726524353027
1790267123255566600,7.676566650390625,-6.140538692474365,-6.813015460968018,3.470876932144165
1790267123265566500,7.68656640625,-6.041629314422607,-6.903791427612305,3.4650776386260986
1790267123275566600,7.696566650390625,-5.941713809967041,-6.99338960647583,3.4581685066223145
1790267123285566500,7.70656640625,-5.843169689178467,-7.081007480621338,3.4477651119232178
1790267123295566600,7.716566650390625,-5.74806547164917,-7.166762828826904,3.430398941040039
1790267123305566500,7.72656640625,-5.656175136566162,-7.250327110290527,3.4074673652648926
1790267123315566600,7.736566650390625,-5.567914009094238,-7.3311357498168945,3.379819393157959
1790267123325566500,7.74656640625,-5.485133171081543,-7.408757209777832,3.345745801925659
1790267123335566600,7.756566650390625,-5.4097371101379395,-7.482560157775879,3.303999662399292
1790267123345566500,7.76656640625,-5.342769145965576,-7.552044868469238,3.2545080184936523
1790267123355566600,7.776566650390625,-5.2849273681640625,-7.616365432739258,3.1985793113708496
1790267123365566500,7.78656640625,-5.23499059677124,-7.675358772277832,3.139127731323242
1790267123375566600,7.796566650390625,-5.191190719604492,-7.728799343109131,3.080190658569336
1790267123385566500,7.80656640625,-5.151549339294434,-7.777359485626221,3.02400541305542
1790267123395566600,7.816566650390625,-5.112366676330566,-7.823513984680176,2.9709808826446533
1790267123405566500,7.82656640625,-5.072041988372803,-7.868565082550049,2.920696973800659
1790267123415566600,7.836566650390625,-5.032303333282471,-7.911830902099609,2.8721492290496826
1790267123425566500,7.84656640625,-4.99464225769043,-7.952827453613281,2.8242650032043457
1790267123435566600,7.856566650390625,-4.959395408630371,-7.991889476776123,2.7756946086883545
1790267123445566500,7.86656640625,-4.927244663238525,-8.02886962890625,2.725783586502075
1790267123455566600,7.876566650390625,-4.898507118225098,-8.063207626342773,2.6757595539093018
1790267123465566500,7.88656640625,-4.873303413391113,-8.093971252441406,2.6284849643707275
1790267123475566600,7.896566650390625,-4.8524603843688965,-8.120482444763184,2.584916591644287
1790267123485566500,7.90656640625,-4.836490154266357,-8.142766952514648,2.5444207191467285
1790267123495566600,7.916566650390625,-4.8242011070251465,-8.161617279052734,2.5070853233337402
1790267123505566500,7.92656640625,-4.813685417175293,-8.178908348083496,2.4706838130950928
1790267123515566600,7.936566650390625,-4.802558422088623,-8.196709632873535,2.433058261871338
1790267123525566500,7.94656640625,-4.79007625579834,-8.215442657470703,2.3941702842712402
1790267123535566600,7.956566650390625,-4.776888370513916,-8.234137535095215,2.3559951782226562
1790267123545566500,7.96656640625,-4.76450777053833,-8.25084114074707,2.322387218475342
1790267123555566600,7.976566650390625,-4.755394458770752,-8.263423919677734,2.2961783409118652
1790267123565566500,7.98656640625,-4.750048637390137,-8.2722806930542,2.275254487991333
1790267123575566600,7.996566650390625,-4.746366024017334,-8.279609680175781,2.2562055587768555
1790267123585566500,8.00656640625,-4.744606018066406,-8.285736083984375,2.2373383045196533
1790267123595566600,8.016566650390626,-4.747890472412109,-8.289488792419434,2.216371774673462
1790267123605566500,8.02656640625,-4.758979320526123,-8.2898530960083,2.1910839080810547
1790267123615566600,8.036566650390625,-4.779102325439453,-8.285880088806152,2.162122964859009
1790267123625566500,8.04656640625,-4.806397438049316,-8.277287483215332,2.1343495845794678
1790267123635566600,8.056566650390625,-4.835610389709473,-8.265240669250488,2.114961862564087
1790267123645566500,8.06656640625,-4.862178802490234,-8.251648902893066,2.1071064472198486
1790267123655566600,8.076566650390625,-4.885585308074951,-8.236862182617188,2.1108179092407227
1790267123665566500,8.08656640625,-4.905383586883545,-8.221460342407227,2.1248998641967773
1790267123675566600,8.096566650390624,-4.924036026000977,-8.205387115478516,2.1437997817993164
1790267123685566500,8.10656640625,-4.945528030395508,-8.188040733337402,2.1605823040008545
1790267123695566600,8.116566650390626,-4.973353385925293,-8.16862964630127,2.170170545578003
1790267123705566500,8.12656640625,-5.010214805603027,-8.145675659179688,2.171661138534546
1790267123715566600,8.136566650390625,-5.056427478790283,-8.117888450622559,2.1685950756073
1790267123725566500,8.14656640625,-5.111664772033691,-8.084458351135254,2.1639771461486816
1790267123735566600,8.156566650390625,-5.174142360687256,-8.046229362487793,2.157968521118164
1790267123745566500,8.16656640625,-5.240272521972656,-8.005209922790527,2.150937557220459
1790267123755566600,8.176566650390624,-5.3050408363342285,-7.964550495147705,2.1430983543395996
1790267123765566500,8.18656640625,-5.364630222320557,-7.927129745483398,2.1334831714630127
1790267123775566600,8.196566650390626,-5.4182538986206055,-7.89399528503418,2.1207892894744873
1790267123785566500,8.20656640625,-5.467592239379883,-7.863994121551514,2.1055667400360107
1790267123795566600,8.216566650390625,-5.513152122497559,-7.8364176750183105,2.0895204544067383
1790267123805566500,8.22656640625,-5.553578853607178,-7.811868190765381,2.0743348598480225
1790267123815566600,8.236566650390625,-5.588529109954834,-7.790137767791748,2.062154769897461
1790267123825566500,8.24656640625,-5.6187920570373535,-7.769640922546387,2.057239294052124
1790267123835566600,8.256566650390624,-5.644290924072266,-7.749441623687744,2.063612937927246
1790267123845566500,8.26656640625,-5.665551662445068,-7.729148864746094,2.0813846588134766
1790267123855566600,8.276566650390626,-5.683837890625,-7.708654880523682,2.1073687076568604
1790267123865566500,8.28656640625,-5.701955318450928,-7.687060832977295,2.137099027633667
1790267123875566600,8.296566650390625,-5.722343921661377,-7.663943767547607,2.1654415130615234
1790267123885566500,8.30656640625,-5.747180461883545,-7.638776779174805,2.188469409942627
1790267123895566600,8.316566650390625,-5.778684616088867,-7.610936164855957,2.202460527420044
1790267123905566500,8.32656640625,-5.817178249359131,-7.58053731918335,2.2059614658355713
1790267123915566600,8.336566650390624,-5.8614959716796875,-7.547425270080566,2.2021849155426025
1790267123925566500,8.34656640625,-5.9094624519348145,-7.510833263397217,2.199094533920288
1790267123935566600,8.356566650390626,-5.958168983459473,-7.470251083374023,2.2058913707733154
1790267123945566500,8.36656640625,-6.004021644592285,-7.4267497062683105,2.2283430099487305
1790267123955566600,8.376566650390625,-6.045490264892578,-7.381904602050781,2.26493239402771
1790267123965566500,8.38656640625,-6.0835065841674805,-7.337080001831055,2.3083760738372803
1790267123975566600,8.396566650390625,-6.120429992675781,-7.2931928634643555,2.349482536315918
1790267123985566500,8.40656640625,-6.15994930267334,-7.2496018409729,2.3809003829956055
1790267123995566600,8.416566650390624,-6.203855991363525,-7.2051167488098145,2.4018421173095703
1790267124005566500,8.42656640625,-6.2527666091918945,-7.157487869262695,2.4173672199249268
1790267124015566600,8.436566650390626,-6.305952072143555,-7.104995250701904,2.4340100288391113
1790267124025566500,8.44656640625,-6.361954689025879,-7.047112464904785,2.456444501876831
1790267124035566600,8.456566650390625,-6.4195380210876465,-6.984585285186768,2.485050678253174
1790267124045566500,8.46656640625,-6.477981090545654,-6.918995380401611,2.5166752338409424
1790267124055566600,8.476566650390625,-6.535590171813965,-6.85294771194458,2.5482447147369385
1790267124065566500,8.48656640625,-6.590037822723389,-6.789377212524414,2.5780091285705566
1790267124075566600,8.496566650390625,-6.638841152191162,-6.730421543121338,2.607222318649292
1790267124085566500,8.50656640625,-6.679636478424072,-6.6769609451293945,2.640272855758667
1790267124095566600,8.516566650390626,-6.712253570556641,-6.627824306488037,2.6810429096221924
1790267124105566500,8.52656640625,-6.739077091217041,-6.580783843994141,2.7291934490203857
1790267124115566600,8.536566650390625,-6.764029502868652,-6.533868789672852,2.779721975326538
1790267124125566500,8.54656640625,-6.7897562980651855,-6.487062931060791,2.82623553276062
1790267124135566600,8.556566650390625,-6.816248416900635,-6.441497802734375,2.866399049758911
1790267124145566500,8.56656640625,-6.846749782562256,-6.393177509307861,2.90166974067688
1790267124155566600,8.576566650390625,-6.889205455780029,-6.331414222717285,2.9363980293273926
1790267124165566500,8.58656640625,-6.947049140930176,-6.249788284301758,2.9747328758239746
1790267124175566600,8.596566650390624,-7.0214338302612305,-6.147839546203613,3.012296438217163
1790267124185566500,8.60656640625,-7.104170322418213,-6.034461498260498,3.0473616123199463
1790267124195566600,8.616566650390626,-7.182703971862793,-5.924350261688232,3.0791611671447754
1790267124205566500,8.62656640625,-7.251542568206787,-5.824008941650391,3.1090903282165527
1790267124215566600,8.636566650390625,-7.314081192016602,-5.730839729309082,3.1356141567230225
1790267124225566500,8.64656640625,-7.376594543457031,-5.639908790588379,3.1539931297302246
1790267124235566600,8.656566650390625,-7.445165634155273,-5.546741962432861,3.1580915451049805
1790267124245566500,8.66656640625,-7.5229620933532715,-5.448128700256348,3.14536452293396
1790267124255566600,8.676566650390624,-7.609277248382568,-5.343447208404541,3.1171891689300537
1790267124265566500,8.68656640625,-7.7008280754089355,-5.234588623046875,3.0768024921417236
1790267124275566600,8.696566650390626,-7.795652866363525,-5.121463775634766,3.0280020236968994
1790267124285566500,8.70656640625,-7.893982410430908,-5.001741409301758,2.972879648208618
1790267124295566600,8.716566650390625,-7.994692802429199,-4.874748229980469,2.9141197204589844
1790267124305566500,8.72656640625,-8.094659805297852,-4.742982387542725,2.8549907207489014
1790267124315566600,8.736566650390625,-8.19186019897461,-4.608709812164307,2.7970693111419678
1790267124325566500,8.74656640625,-8.285794258117676,-4.472012996673584,2.741734027862549
1790267124335566600,8.756566650390624,-8.376383781433105,-4.332280158996582,2.6903419494628906
1790267124345566500,8.76656640625,-8.462005615234375,-4.190725803375244,2.6462576389312744
1790267124355566600,8.776566650390626,-8.539544105529785,-4.052024841308594,2.612978458404541
1790267124365566500,8.78656640625,-8.606749534606934,-3.920184373855591,2.5935301780700684
1790267124375566600,8.796566650390625,-8.6648530960083,-3.794656276702881,2.58675479888916
1790267124385566500,8.80656640625,-8.71717357635498,-3.6718478202819824,2.5882046222686768
1790267124395566600,8.816566650390625,-8.766209602355957,-3.5485732555389404,2.5945303440093994
1790267124405566500,8.82656640625,-8.81368350982666,-3.424686908721924,2.600170612335205
1790267124415566600,8.836566650390624,-8.862204551696777,-3.296936273574829,2.600367784500122
1790267124425566500,8.84656640625,-8.914082527160645,-3.158421039581299,2.5949761867523193
1790267124435566600,8.856566650390626,-8.969149589538574,-3.008222818374634,2.583669900894165
1790267124445566500,8.86656640625,-9.024701118469238,-2.8539018630981445,2.565230369567871
1790267124455566600,8.876566650390625,-9.076931953430176,-2.705404281616211,2.541748046875
1790267124465566500,8.88656640625,-9.122427940368652,-2.568384885787964,2.5209288597106934
1790267124475566600,8.896566650390625,-9.160069465637207,-2.442777156829834,2.509253978729248
1790267124485566500,8.90656640625,-9.191143989562988,-2.3263583183288574,2.5062546730041504
1790267124495566600,8.916566650390624,-9.218850135803223,-2.218472719192505,2.5023117065429688
1790267124505566500,8.92656640625,-9.243951797485352,-2.121511697769165,2.4937775135040283
1790267124515566600,8.936566650390626,-9.264486312866211,-2.0370728969573975,2.4879751205444336
1790267124525566500,8.94656640625,-9.279911994934082,-1.964905858039856,2.48852801322937
1790267124535566600,8.956566650390625,-9.291888236999512,-1.902877688407898,2.4920413494110107
1790267124545566500,8.96656640625,-9.299571990966797,-1.8472976684570312,2.5051608085632324
1790267124555566600,8.976566650390625,-9.302090644836426,-1.794672966003418,2.533900260925293
1790267124565566500,8.98656640625,-9.303544044494629,-1.7386500835418701,2.567403793334961
1790267124575566600,8.996566650390625,-9.307058334350586,-1.678528904914856,2.5945332050323486
1790267124585566500,9.00656640625,-9.310776710510254,-1.6199374198913574,2.618326187133789
1790267124595566600,9.016566650390626,-9.312356948852539,-1.5666285753250122,2.645005464553833
1790267124605566500,9.02656640625,-9.31281852722168,-1.520922064781189,2.6699447631835938
1790267124615566600,9.036566650390625,-9.314181327819824,-1.479950189590454,2.688148021697998
1790267124625566500,9.04656640625,-9.317618370056152,-1.4398530721664429,2.697997570037842
1790267124635566600,9.056566650390625,-9.323954582214355,-1.4008255004882812,2.6966516971588135
1790267124645566500,9.06656640625,-9.33114242553711,-1.365787148475647,2.68975830078125
1790267124655566600,9.076566650390625,-9.338424682617188,-1.3357125520706177,2.6795694828033447
1790267124665566500,9.08656640625,-9.345964431762695,-1.312558889389038,2.6646790504455566
1790267124675566600,9.096566650390624,-9.3522310256958,-1.2967458963394165,2.650398015975952
1790267124685566500,9.10656640625,-9.35612678527832,-1.2873475551605225,2.641214609146118
1790267124695566600,9.116566650390626,-9.357686996459961,-1.2851557731628418,2.6367528438568115
1790267124705566500,9.12656640625,-9.35871696472168,-1.2922313213348389,2.6296257972717285
1790267124715566600,9.136566650390625,-9.357613563537598,-1.3119374513626099,2.6237919330596924
1790267124725566500,9.14656640625,-9.353690147399902,-1.3409547805786133,2.623112440109253
1790267124735566600,9.156566650390625,-9.347441673278809,-1.3748359680175781,2.6278390884399414
1790267124745566500,9.16656640625,-9.339491844177246,-1.414839267730713,2.634864568710327
1790267124755566600,9.176566650390624,-9.329095840454102,-1.4627180099487305,2.6455276012420654
1790267124765566500,9.18656640625,-9.316099166870117,-1.5179290771484375,2.6601858139038086
1790267124775566600,9.196566650390626,-9.301226615905762,-1.5806779861450195,2.6756362915039062
1790267124785566500,9.20656640625,-9.284441947937012,-1.6498074531555176,2.692148208618164
1790267124795566600,9.216566650390625,-9.26533031463623,-1.7241848707199097,2.711317777633667
1790267124805566500,9.22656640625,-9.244060516357422,-1.8031071424484253,2.732495069503784
1790267124815566600,9.236566650390625,-9.219792366027832,-1.88895583152771,2.7563846111297607
1790267124825566500,9.24656640625,-9.193635940551758,-1.9797728061676025,2.7799181938171387
1790267124835566600,9.256566650390624,-9.16553783416748,-2.0730068683624268,2.804628372192383
1790267124845566500,9.26656640625,-9.134209632873535,-2.1681253910064697,2.8347556591033936
1790267124855566600,9.276566650390626,-9.099150657653809,-2.2675633430480957,2.8694958686828613
1790267124865566500,9.28656640625,-9.06063175201416,-2.3723032474517822,2.906461477279663
1790267124875566600,9.296566650390625,-9.018782615661621,-2.4806101322174072,2.9459304809570312
1790267124885566500,9.30656640625,-8.971712112426758,-2.594194173812866,2.9914748668670654
1790267124895566600,9.316566650390625,-8.918603897094727,-2.7149887084960938,3.0426502227783203
1790267124905566500,9.32656640625,-8.86023998260498,-2.8436167240142822,3.095216751098633
1790267124915566600,9.336566650390624,-8.790525436401367,-2.9846835136413574,3.160494327545166
1790267124925566500,9.34656640625,-8.715803146362305,-3.129199504852295,3.2269604206085205
1790267124935566600,9.356566650390626,-8.641587257385254,-3.2685697078704834,3.287828207015991
1790267124945566500,9.36656640625,-8.567557334899902,-3.4083430767059326,3.3392441272735596
1790267124955566600,9.376566650390625,-8.49388313293457,-3.550001621246338,3.3796181678771973
1790267124965566500,9.38656640625,-8.422906875610352,-3.689685106277466,3.4075300693511963
1790267124975566600,9.396566650390625,-8.356675148010254,-3.8261706829071045,3.4200539588928223
1790267124985566500,9.40656640625,-8.294503211975098,-3.959991216659546,3.419076919555664
1790267124995566600,9.416566650390624,-8.227789878845215,-4.096999645233154,3.4188387393951416
1790267125005566500,9.42656640625,-8.15584659576416,-4.238000869750977,3.4193434715270996
1790267125015566600,9.436566650390626,-8.076109886169434,-4.382012844085693,3.427067756652832
1790267125025566500,9.44656640625,-7.988716125488281,-4.527400016784668,3.442884922027588
1790267125035566600,9.456566650390625,-7.890460968017578,-4.676281929016113,3.470360517501831
1790267125045566500,9.46656640625,-7.779048919677734,-4.829686641693115,3.511539936065674
1790267125055566600,9.476566650390625,-7.654107093811035,-4.986390590667725,3.566643238067627
1790267125065566500,9.48656640625,-7.521146774291992,-5.145615577697754,3.6228981018066406
1790267125075566600,9.496566650390625,-7.391059398651123,-5.3051652908325195,3.660306930541992
1790267125085566500,9.50656640625,-7.266546726226807,-5.460908889770508,3.6805105209350586
1790267125095566600,9.516566650390626,-7.1439528465271,-5.6112589836120605,3.6943328380584717
1790267125105566500,9.52656640625,-7.021495342254639,-5.757073402404785,3.7047383785247803
1790267125115566600,9.536566650390625,-6.900443077087402,-5.899836540222168,3.7075881958007812
1790267125125566500,9.54656640625,-6.784132480621338,-6.038149356842041,3.699551582336426
1790267125135566600,9.556566650390625,-6.674450874328613,-6.169525146484375,3.6822614669799805
1790267125145566500,9.56656640625,-6.57314395904541,-6.2915778160095215,3.657897710800171
1790267125155566600,9.576566650390625,-6.479694366455078,-6.40471887588501,3.62815523147583
1790267125165566500,9.58656640625,-6.391837120056152,-6.510414123535156,3.5957350730895996
1790267125175566600,9.596566650390624,-6.306934833526611,-6.610245704650879,3.5633723735809326
1790267125185566500,9.60656640625,-6.226280689239502,-6.704739093780518,3.528496742248535
1790267125195566600,9.616566650390626,-6.149966239929199,-6.794862747192383,3.489720344543457
1790267125205566500,9.62656640625,-6.0764288902282715,-6.8820109367370605,3.4475090503692627
1790267125215566600,9.636566650390625,-6.006231307983398,-6.966776371002197,3.3999428749084473
1790267125225566500,9.64656640625,-5.936708927154541,-7.050206184387207,3.349698066711426
1790267125235566600,9.656566650390625,-5.866143703460693,-7.133082866668701,3.2981626987457275
1790267125245566500,9.66656640625,-5.794559478759766,-7.214960098266602,3.246201515197754
1790267125255566600,9.676566650390624,-5.722877502441406,-7.294665336608887,3.1948282718658447
1790267125265566500,9.68656640625,-5.651384353637695,-7.371615409851074,3.1450796127319336
1790267125275566600,9.696566650390626,-5.578946590423584,-7.445875644683838,3.099142074584961
1790267125285566500,9.70656640625,-5.502523899078369,-7.518998622894287,3.0589683055877686
1790267125295566600,9.716566650390625,-5.421651840209961,-7.591644287109375,3.0237438678741455
1790267125305566500,9.72656640625,-5.34341287612915,-7.660492420196533,2.9891769886016846
1790267125315566600,9.736566650390625,-5.27078104019165,-7.724684238433838,2.952712059020996
1790267125325566500,9.74656640625,-5.204399108886719,-7.78382682800293,2.914902687072754
1790267125335566600,9.756566650390624,-5.145229339599609,-7.8369903564453125,2.8772528171539307
1790267125345566500,9.76656640625,-5.094862937927246,-7.882591247558594,2.842097759246826
1790267125355566600,9.776566650390626,-5.054579257965088,-7.919074058532715,2.8124513626098633
1790267125365566500,9.78656640625,-5.020109176635742,-7.9490509033203125,2.7895290851593018
1790267125375566600,9.796566650390625,-4.986930847167969,-7.975907325744629,2.772327184677124
1790267125385566500,9.80656640625,-4.953335285186768,-8.002347946166992,2.7563202381134033
1790267125395566600,9.816566650390625,-4.919679164886475,-8.029379844665527,2.737919330596924
1790267125405566500,9.82656640625,-4.887569427490234,-8.05671215057373,2.7150402069091797
1790267125415566600,9.836566650390624,-4.8572611808776855,-8.084091186523438,2.6879091262817383
1790267125425566500,9.84656640625,-4.829868793487549,-8.109925270080566,2.6593003273010254
1790267125435566600,9.856566650390626,-4.8089680671691895,-8.13127613067627,2.6318359375
1790267125445566500,9.86656640625,-4.798482418060303,-8.146045684814453,2.605168104171753
1790267125455566600,9.876566650390625,-4.800675868988037,-8.154022216796875,2.5760090351104736
1790267125465566500,9.88656640625,-4.816964149475098,-8.156264305114746,2.5382256507873535
1790267125475566600,9.896566650390625,-4.845757484436035,-8.154074668884277,2.4899940490722656
1790267125485566500,9.90656640625,-4.876462936401367,-8.150025367736816,2.4428670406341553
1790267125495566600,9.916566650390624,-4.896582126617432,-8.14873218536377,2.4066662788391113
1790267125505566500,9.92656640625,-4.908041477203369,-8.14969539642334,2.379912853240967
1790267125515566600,9.936566650390626,-4.92208194732666,-8.147964477539062,2.3567259311676025
1790267125525566500,9.94656640625,-4.9466447830200195,-8.139182090759277,2.335550308227539
1790267125535566600,9.956566650390625,-4.984235763549805,-8.12138843536377,2.317507266998291
1790267125545566500,9.96656640625,-5.0348381996154785,-8.094527244567871,2.3020455837249756
1790267125555566600,9.976566650390625,-5.09517765045166,-8.060346603393555,2.2891857624053955
1790267125565566500,9.98656640625,-5.15962028503418,-8.02206039428711,2.279306650161743
1790267125575566600,9.996566650390625,-5.223303318023682,-7.981576442718506,2.2763853073120117
1790267125585566500,10.00656640625,-5.28433084487915,-7.937704086303711,2.288905143737793
1790267125595566600,10.016566650390626,-5.3412981033325195,-7.890414237976074,2.3199751377105713
1790267125605566500,10.02656640625,-5.393928527832031,-7.8416595458984375,2.3631105422973633
1790267125615566600,10.036566650390625,-5.4459404945373535,-7.791072368621826,2.4106650352478027
1790267125625566500,10.04656640625,-5.499782085418701,-7.738394737243652,2.457648754119873
1790267125635566600,10.056566650390625,-5.555732250213623,-7.684179782867432,2.5015206336975098
1790267125645566500,10.06656640625,-5.6131815910339355,-7.629165172576904,2.5413424968719482
1790267125655566600,10.076566650390625,-5.670416355133057,-7.575087547302246,2.5758144855499268
1790267125665566500,10.08656640625,-5.727856159210205,-7.5220746994018555,2.603928327560425
1790267125675566600,10.096566650390624,-5.787618637084961,-7.468832969665527,2.6249566078186035
1790267125685566500,10.10656640625,-5.851306915283203,-7.414053440093994,2.6390156745910645
1790267125695566600,10.116566650390626,-5.919966697692871,-7.356027126312256,2.648254156112671
1790267125705566500,10.12656640625,-5.9953765869140625,-7.292669296264648,2.6538336277008057
1790267125715566600,10.136566650390625,-6.077877521514893,-7.222832202911377,2.657158374786377
1790267125725566500,10.14656640625,-6.164760112762451,-7.146795272827148,2.66259765625
1790267125735566600,10.156566650390625,-6.252419471740723,-7.064878463745117,2.6767759323120117
1790267125745566500,10.16656640625,-6.338504314422607,-6.9768147468566895,2.705145835876465
1790267125755566600,10.176566650390624,-6.424098491668701,-6.8822550773620605,2.7451605796813965
1790267125765566500,10.18656640625,-6.508169651031494,-6.784448146820068,2.790229320526123
1790267125775566600,10.196566650390626,-6.590167045593262,-6.686446189880371,2.8339931964874268
1790267125785566500,10.20656640625,-6.670571804046631,-6.589415073394775,2.8728866577148438
1790267125795566600,10.216566650390625,-6.750666618347168,-6.492546081542969,2.906154155731201
1790267125805566500,10.22656640625,-6.83047342300415,-6.395642280578613,2.934412956237793
1790267125815566600,10.236566650390625,-6.909143924713135,-6.298968315124512,2.9592413902282715
1790267125825566500,10.24656640625,-6.987415790557861,-6.201080322265625,2.9821135997772217
1790267125835566600,10.256566650390624,-7.067617893218994,-6.101566314697266,2.998342514038086
1790267125845566500,10.26656640625,-7.152000427246094,-6.000662803649902,3.001887321472168
1790267125855566600,10.276566650390626,-7.239854335784912,-5.89839506149292,2.993964433670044
1790267125865566500,10.28656640625,-7.331111907958984,-5.793468952178955,2.9767277240753174
1790267125875566600,10.296566650390625,-7.425755977630615,-5.68424654006958,2.952604055404663
1790267125885566500,10.30656640625,-7.522336006164551,-5.570558071136475,2.9246749877929688
1790267125895566600,10.316566650390625,-7.618093967437744,-5.454861640930176,2.894740104675293
1790267125905566500,10.32656640625,-7.711263656616211,-5.338778495788574,2.8643038272857666
1790267125915566600,10.336566650390624,-7.801088809967041,-5.223078727722168,2.8342292308807373
1790267125925566500,10.34656640625,-7.889496803283691,-5.105841636657715,2.802963972091675
1790267125935566600,10.356566650390626,-7.980214595794678,-4.9792256355285645,2.7737832069396973
1790267125945566500,10.36656640625,-8.07487678527832,-4.837052822113037,2.751300811767578
1790267125955566600,10.376566650390625,-8.172477722167969,-4.680363178253174,2.734081506729126
1790267125965566500,10.38656640625,-8.26827335357666,-4.517825603485107,2.7194271087646484
1790267125975566600,10.396566650390625,-8.360220909118652,-4.3563127517700195,2.701782464981079
1790267125985566500,10.40656640625,-8.44936752319336,-4.195770740509033,2.67844820022583
1790267125995566600,10.416566650390624,-8.535113334655762,-4.034776210784912,2.6538312435150146
1790267126005566500,10.42656640625,-8.615080833435059,-3.876523017883301,2.631223440170288
1790267126015566600,10.436566650390626,-8.689274787902832,-3.7237966060638428,2.6077253818511963
1790267126025566500,10.44656640625,-8.761175155639648,-3.571214437484741,2.5804288387298584
1790267126035566600,10.456566650390625,-8.831830024719238,-3.4141573905944824,2.551997423171997
1790267126045566500,10.46656640625,-8.899029731750488,-3.2546944618225098,2.5267813205718994
1790267126055566600,10.476566650390625,-8.960550308227539,-3.0990281105041504,2.5049853324890137
1790267126065566500,10.48656640625,-9.016773223876953,-2.9468729496002197,2.4867894649505615
1790267126075566600,10.496566650390625,-9.068341255187988,-2.7960708141326904,2.4733693599700928
1790267126085566500,10.50656640625,-9.114444732666016,-2.650153160095215,2.464540481567383
1790267126095566600,10.516566650390626,-9.155891418457031,-2.508903980255127,2.458750009536743
1790267126105566500,10.52656640625,-9.194902420043945,-2.3662822246551514,2.454559087753296
1790267126115566600,10.536566650390625,-9.2313871383667,-2.220211982727051,2.4540841579437256
1790267126125566500,10.54656640625,-9.262344360351562,-2.0793027877807617,2.4608664512634277
1790267126135566600,10.556566650390625,-9.287796020507812,-1.950628638267517,2.47027850151062
1790267126145566500,10.56656640625,-9.310637474060059,-1.8316131830215454,2.4754014015197754
1790267126155566600,10.576566650390625,-9.331270217895508,-1.7186388969421387,2.478721857070923
1790267126165566500,10.58656640625,-9.348730087280273,-1.6139311790466309,2.483315944671631
1790267126175566600,10.596566650390624,-9.363215446472168,-1.519492506980896,2.488318681716919
1790267126185566500,10.60656640625,-9.37482738494873,-1.4340689182281494,2.495283842086792
1790267126195566600,10.616566650390626,-9.383570671081543,-1.3568437099456787,2.505587339401245
1790267126205566500,10.62656640625,-9.39169979095459,-1.2874797582626343,2.5117228031158447
1790267126215566600,10.636566650390625,-9.401834487915039,-1.2260664701461792,2.504526376724243
1790267126225566500,10.64656640625,-9.413354873657227,-1.1715903282165527,2.4872660636901855
1790267126235566600,10.656566650390625,-9.42380142211914,-1.1253716945648193,2.4689853191375732
1790267126245566500,10.66656640625,-9.431706428527832,-1.087617039680481,2.455688238143921
1790267126255566600,10.676566650390624,-9.437017440795898,-1.0567582845687866,2.4487459659576416
1790267126265566500,10.68656640625,-9.440911293029785,-1.0319888591766357,2.4442951679229736
1790267126275566600,10.696566650390626,-9.444387435913086,-1.0136685371398926,2.438526153564453
1790267126285566500,10.70656640625,-9.445663452148438,-1.005844235420227,2.4368205070495605
1790267126295566600,10.716566650390625,-9.442768096923828,-1.01246976852417,2.4452884197235107
1790267126305566500,10.72656640625,-9.436657905578613,-1.0350184440612793,2.4593944549560547
1790267126315566600,10.736566650390625,-9.428214073181152,-1.074683666229248,2.474715232849121
1790267126325566500,10.74656640625,-9.416608810424805,-1.1287437677383423,2.4947521686553955
1790267126335566600,10.756566650390624,-9.401778221130371,-1.19316828250885,2.5205750465393066
1790267126345566500,10.76656640625,-9.385125160217285,-1.2657582759857178,2.547090768814087
1790267126355566600,10.776566650390626,-9.367660522460938,-1.34549081325531,2.570403575897217
1790267126365566500,10.78656640625,-9.349432945251465,-1.4322360754013062,2.5898258686065674
1790267126375566600,10.796566650390625,-9.328666687011719,-1.5280832052230835,2.6098520755767822
1790267126385566500,10.80656640625,-9.304824829101562,-1.6311984062194824,2.632453680038452
1790267126395566600,10.816566650390625,-9.278838157653809,-1.7373148202896118,2.656179904937744
1790267126405566500,10.82656640625,-9.249298095703125,-1.8484162092208862,2.684070110321045
1790267126415566600,10.836566650390624,-9.215188980102539,-1.9677376747131348,2.716374635696411
1790267126425566500,10.84656640625,-9.176570892333984,-2.0965735912323,2.7505085468292236
1790267126435566600,10.856566650390626,-9.13315486907959,-2.2344610691070557,2.786224842071533
1790267126445566500,10.86656640625,-9.084491729736328,-2.3803799152374268,2.8242149353027344
1790267126455566600,10.876566650390625,-9.02974796295166,-2.5332071781158447,2.866514205932617
1790267126465566500,10.88656640625,-8.967982292175293,-2.6899573802948,2.91715669631958
1790267126475566600,10.896566650390625,-8.900762557983398,-2.8479955196380615,2.972496509552002
1790267126485566500,10.90656640625,-8.831327438354492,-3.0082755088806152,3.021310567855835
1790267126495566600,10.916566650390624,-8.759827613830566,-3.1738381385803223,3.0598299503326416
1790267126505566500,10.92656640625,-8.683503150939941,-3.3454506397247314,3.094367504119873
1790267126515566600,10.936566650390626,-8.6014986038208,-3.520871639251709,3.1285884380340576
1790267126525566500,10.94656640625,-8.51362133026123,-3.699097156524658,3.163116693496704
1790267126535566600,10.956566650390625,-8.41948413848877,-3.8809585571289062,3.1970062255859375
1790267126545566500,10.96656640625,-8.320324897766113,-4.06367301940918,3.2294182777404785
1790267126555566600,10.976566650390625,-8.218932151794434,-4.241856575012207,3.2597851753234863
1790267126565566500,10.98656640625,-8.1160306930542,-4.4150071144104,3.2875723838806152
1790267126575566600,10.996566650390625,-8.010815620422363,-4.585753917694092,3.311809778213501
1790267126585566500,11.00656640625,-7.901979923248291,-4.756804943084717,3.331953763961792
1790267126595566600,11.016566650390626,-7.7883381843566895,-4.929389476776123,3.3486247062683105
1790267126605566500,11.02656640625,-7.670053958892822,-5.102254390716553,3.3626880645751953
1790267126615566600,11.036566650390625,-7.549527168273926,-5.272637367248535,3.3725852966308594
1790267126625566500,11.04656640625,-7.428591251373291,-5.4391255378723145,3.3767335414886475
1790267126635566600,11.056566650390625,-7.306163311004639,-5.603695392608643,3.3747522830963135
1790267126645566500,11.06656640625,-7.181711673736572,-5.767176151275635,3.3664653301239014
1790267126655566600,11.076566650390625,-7.0553975105285645,-5.928705215454102,3.3529396057128906
1790267126665566500,11.08656640625,-6.927823543548584,-6.0867743492126465,3.335691452026367
1790267126675566600,11.096566650390624,-6.799654960632324,-6.240829944610596,3.3146820068359375
1790267126685566500,11.10656640625,-6.67250394821167,-6.390307426452637,3.288166046142578
1790267126695566600,11.116566650390626,-6.549182891845703,-6.534223556518555,3.2530784606933594
1790267126705566500,11.12656640625,-6.431413650512695,-6.6723713874816895,3.20729923248291
1790267126715566600,11.136566650390625,-6.317934513092041,-6.804853439331055,3.154053211212158
1790267126725566500,11.14656640625,-6.207414627075195,-6.929953575134277,3.1006641387939453
1790267126735566600,11.156566650390625,-6.098740100860596,-7.046533584594727,3.053212881088257
1790267126745566500,11.16656640625,-5.991199970245361,-7.155791282653809,3.0117347240448
1790267126755566600,11.176566650390624,-5.8862104415893555,-7.259131908416748,2.971179723739624
1790267126765566500,11.18656640625,-5.784247875213623,-7.358029842376709,2.927842617034912
1790267126775566600,11.196566650390626,-5.684194564819336,-7.45335054397583,2.8823399543762207
1790267126785566500,11.20656640625,-5.586495876312256,-7.544485569000244,2.8358752727508545
1790267126795566600,11.216566650390625,-5.492232322692871,-7.630441188812256,2.7896480560302734
1790267126805566500,11.22656640625,-5.4019622802734375,-7.709852695465088,2.7472455501556396
1790267126815566600,11.236566650390625,-5.317056655883789,-7.7811479568481445,2.71164608001709
1790267126825566500,11.24656640625,-5.238448143005371,-7.844203472137451,2.6828219890594482
1790267126835566600,11.256566650390624,-5.166055202484131,-7.899559020996094,2.6606836318969727
1790267126845566500,11.26656640625,-5.101260662078857,-7.947813034057617,2.6419296264648438
1790267126855566600,11.276566650390626,-5.046997547149658,-7.989173412322998,2.621320962905884
1790267126865566500,11.28656640625,-5.003143310546875,-8.023416519165039,2.600717544555664
1790267126875566600,11.296566650390625,-4.968500137329102,-8.049874305725098,2.5853278636932373
1790267126885566500,11.30656640625,-4.942814826965332,-8.06851863861084,2.576425313949585
1790267126895566600,11.316566650390625,-4.925607204437256,-8.080352783203125,2.5722897052764893
1790267126905566500,11.32656640625,-4.915383815765381,-8.08662223815918,2.5721421241760254
1790267126915566600,11.336566650390624,-4.911284923553467,-8.08787727355957,2.576023578643799
1790267126925566500,11.34656640625,-4.912316799163818,-8.084872245788574,2.5834810733795166
1790267126935566600,11.356566650390626,-4.917742729187012,-8.078598022460938,2.5927700996398926
1790267126945566500,11.36656640625,-4.927932262420654,-8.069275856018066,2.602430582046509
1790267126955566600,11.376566650390625,-4.944893836975098,-8.056251525878906,2.6105968952178955
1790267126965566500,11.38656640625,-4.969367980957031,-8.03874683380127,2.618072032928467
1790267126975566600,11.396566650390625,-4.9984893798828125,-8.017348289489746,2.6282362937927246
1790267126985566500,11.40656640625,-5.030045032501221,-7.992437839508057,2.643855333328247
1790267126995566600,11.416566650390624,-5.065089225769043,-7.963110446929932,2.665358781814575
1790267127005566500,11.42656640625,-5.104992389678955,-7.929140567779541,2.6903865337371826
1790267127015566600,11.436566650390626,-5.149508476257324,-7.891751289367676,2.715364933013916
1790267127025566500,11.44656640625,-5.197857856750488,-7.851999759674072,2.7383873462677
1790267127035566600,11.456566650390625,-5.249307632446289,-7.810877323150635,2.757779359817505
1790267127045566500,11.46656640625,-5.303008079528809,-7.76906681060791,2.7731029987335205
1790267127055566600,11.476566650390625,-5.358787536621094,-7.726598739624023,2.7845048904418945
1790267127065566500,11.48656640625,-5.418956756591797,-7.681516170501709,2.7927796840667725
1790267127075566600,11.496566650390625,-5.487033367156982,-7.630537509918213,2.7995965480804443
1790267127085566500,11.50656640625,-5.564316272735596,-7.570924758911133,2.8088912963867188
1790267127095566600,11.516566650390626,-5.649424076080322,-7.501420497894287,2.8254356384277344
1790267127105566500,11.52656640625,-5.738336563110352,-7.42277717590332,2.853813648223877
1790267127115566600,11.536566650390625,-5.825183391571045,-7.339076519012451,2.8940608501434326
1790267127125566500,11.54656640625,-5.907428741455078,-7.254554271697998,2.9400856494903564
1790267127135566600,11.556566650390625,-5.986600875854492,-7.171069622039795,2.9844210147857666
1790267127145566500,11.56656640625,-6.065321445465088,-7.087841510772705,3.024031639099121
1790267127155566600,11.576566650390625,-6.146798133850098,-7.0021281242370605,3.0589942932128906
1790267127165566500,11.58656640625,-6.233226776123047,-6.912124156951904,3.088658571243286
1790267127175566600,11.596566650390624,-6.323792934417725,-6.818576335906982,3.1124014854431152
1790267127185566500,11.60656640625,-6.416813850402832,-6.723223686218262,3.129401922225952
1790267127195566600,11.616566650390626,-6.511914253234863,-6.626174449920654,3.1399333477020264
1790267127205566500,11.62656640625,-6.610952377319336,-6.524646759033203,3.145581007003784
1790267127215566600,11.636566650390625,-6.715695858001709,-6.414548873901367,3.1501381397247314
1790267127225566500,11.64656640625,-6.826048851013184,-6.294353008270264,3.155402421951294
1790267127235566600,11.656566650390625,-6.940097332000732,-6.164831638336182,3.162323474884033
1790267127245566500,11.66656640625,-7.053767681121826,-6.029116153717041,3.1724605560302734
1790267127255566600,11.676566650390624,-7.162879943847656,-5.892760753631592,3.184166669845581
1790267127265566500,11.68656640625,-7.266368865966797,-5.7597880363464355,3.192978858947754
1790267127275566600,11.696566650390626,-7.366456031799316,-5.629914283752441,3.195275068283081
1790267127285566500,11.70656640625,-7.467428207397461,-5.499372482299805,3.1882312297821045
1790267127295566600,11.716566650390625,-7.572423458099365,-5.3640313148498535,3.1711132526397705
1790267127305566500,11.72656640625,-7.681658744812012,-5.220130443572998,3.1484525203704834
1790267127315566600,11.736566650390625,-7.792845249176025,-5.067802906036377,3.123992443084717
1790267127325566500,11.74656640625,-7.904583930969238,-4.910374641418457,3.0945382118225098
1790267127335566600,11.756566650390624,-8.01562786102295,-4.749994277954102,3.0590262413024902
1790267127345566500,11.76656640625,-8.126483917236328,-4.585073471069336,3.0179052352905273
1790267127355566600,11.776566650390626,-8.237678527832031,-4.414612293243408,2.970223903656006
1790267127365566500,11.78656640625,-8.348215103149414,-4.238593578338623,2.9175374507904053
1790267127375566600,11.796566650390625,-8.456500053405762,-4.055585861206055,2.8653485774993896
1790267127385566500,11.80656640625,-8.560657501220703,-3.866298198699951,2.8173158168792725
1790267127395566600,11.816566650390625,-8.659061431884766,-3.6770167350769043,2.7695817947387695
1790267127405566500,11.82656640625,-8.75085163116455,-3.491189479827881,2.7211380004882812
1790267127415566600,11.836566650390624,-8.83671760559082,-3.304455041885376,2.676450252532959
1790267127425566500,11.84656640625,-8.916180610656738,-3.1152303218841553,2.639594316482544
1790267127435566600,11.856566650390626,-8.987762451171875,-2.930260181427002,2.608466148376465
1790267127445566500,11.86656640625,-9.053173065185547,-2.7534477710723877,2.5746800899505615
1790267127455566600,11.876566650390625,-9.113150596618652,-2.583056688308716,2.5394296646118164
1790267127465566500,11.88656640625,-9.167250633239746,-2.414339780807495,2.5105507373809814
1790267127475566600,11.896566650390625,-9.215408325195312,-2.2435739040374756,2.492594003677368
1790267127485566500,11.90656640625,-9.257476806640625,-2.0721802711486816,2.4850709438323975
1790267127495566600,11.916566650390624,-9.292323112487793,-1.9073898792266846,2.4869613647460938
1790267127505566500,11.92656640625,-9.320982933044434,-1.753338098526001,2.493083953857422
1790267127515566600,11.936566650390626,-9.343546867370605,-1.6115140914916992,2.504303455352783
1790267127525566500,11.94656640625,-9.360109329223633,-1.482727289199829,2.521956443786621
1790267127535566600,11.956566650390625,-9.372249603271484,-1.3652405738830566,2.543117046356201
1790267127545566500,11.96656640625,-9.388564109802246,-1.2494618892669678,2.542456865310669
1790267127555566600,11.976566650390625,-9.40635871887207,-1.1377677917480469,2.529090642929077
1790267127565566500,11.98656640625,-9.415486335754395,-1.0419714450836182,2.5363974571228027
1790267127575566600,11.996566650390625,-9.421554565429688,-0.9624254107475281,2.5452752113342285
1790267127585566500,12.00656640625,-9.426643371582031,-0.8962875008583069,2.5505759716033936
1790267127595566600,12.016566650390626,-9.431489944458008,-0.8396667242050171,2.5519285202026367
1790267127605566500,12.02656640625,-9.435222625732422,-0.7935457229614258,2.5528883934020996
1790267127615566600,12.036566650390625,-9.436416625976562,-0.7598618268966675,2.558718204498291
1790267127625566500,12.04656640625,-9.435728073120117,-0.7382075190544128,2.567582368850708
1790267127635566600,12.056566650390625,-9.433960914611816,-0.7310136556625366,2.5761213302612305
1790267127645566500,12.06656640625,-9.431477546691895,-0.7387537360191345,2.5829966068267822
1790267127655566600,12.076566650390625,-9.427311897277832,-0.7597673535346985,2.592092275619507
1790267127665566500,12.08656640625,-9.41861343383789,-0.791600227355957,2.6140925884246826
1790267127675566600,12.096566650390624,-9.406055450439453,-0.8332840800285339,2.6461591720581055
1790267127685566500,12.10656640625,-9.39114761352539,-0.8864859938621521,2.6815783977508545
1790267127695566600,12.116566650390626,-9.375423431396484,-0.9548903703689575,2.7129311561584473
1790267127705566500,12.12656640625,-9.35783863067627,-1.0422120094299316,2.7413558959960938
1790267127715566600,12.136566650390625,-9.335692405700684,-1.1477243900299072,2.7745189666748047
1790267127725566500,12.14656640625,-9.306781768798828,-1.2685552835464478,2.818680763244629
1790267127735566600,12.156566650390625,-9.27092456817627,-1.3979344367980957,2.8750836849212646
1790267127745566500,12.16656640625,-9.22900676727295,-1.5314847230911255,2.941152811050415
1790267127755566600,12.176566650390624,-9.179952621459961,-1.6730042695999146,3.0166046619415283
1790267127765566500,12.18656640625,-9.122821807861328,-1.8265551328659058,3.0997133255004883
1790267127775566600,12.196566650390626,-9.05810546875,-1.992403268814087,3.1861326694488525
1790267127785566500,12.20656640625,-8.986909866333008,-2.168210744857788,3.271803855895996
1790267127795566600,12.216566650390625,-8.909162521362305,-2.351505994796753,3.3567302227020264
1790267127805566500,12.22656640625,-8.825312614440918,-2.538834810256958,3.4407193660736084
1790267127815566600,12.236566650390625,-8.735509872436523,-2.729827404022217,3.522681951522827
1790267127825566500,12.24656640625,-8.639142036437988,-2.9252772331237793,3.602548122406006
1790267127835566600,12.256566650390624,-8.533740043640137,-3.124864101409912,3.6852242946624756
1790267127845566500,12.26656640625,-8.41832160949707,-3.328108072280884,3.7717299461364746
1790267127855566600,12.276566650390626,-8.296845436096191,-3.533344268798828,3.8533377647399902
1790267127865566500,12.28656640625,-8.172739028930664,-3.7361528873443604,3.9265637397766113
1790267127875566600,12.296566650390625,-8.047171592712402,-3.9348440170288086,3.99129319190979
1790267127885566500,12.30656640625,-7.9207024574279785,-4.134133338928223,4.0424981117248535
1790267127895566600,12.316566650390625,-7.796600818634033,-4.33577823638916,4.072398662567139
1790267127905566500,12.32656640625,-7.677718162536621,-4.538733005523682,4.077122688293457
1790267127915566600,12.336566650390624,-7.560006141662598,-4.744393348693848,4.06293249130249
1790267127925566500,12.34656640625,-7.439095497131348,-4.951051712036133,4.03947114944458
1790267127935566600,12.356566650390626,-7.314777851104736,-5.15419340133667,4.0123186111450195
1790267127945566500,12.36656640625,-7.184957981109619,-5.353540420532227,3.9857709407806396
1790267127955566600,12.376566650390625,-7.0453057289123535,-5.552949905395508,3.9621710777282715
1790267127965566500,12.38656640625,-6.8943772315979,-5.753316402435303,3.941737651824951
1790267127975566600,12.396566650390625,-6.733977317810059,-5.953286647796631,3.9220285415649414
1790267127985566500,12.40656640625,-6.5667290687561035,-6.153305530548096,3.8968312740325928
1790267127995566600,12.416566650390624,-6.394519805908203,-6.352535724639893,3.8633923530578613
1790267128005566500,12.42656640625,-6.224710941314697,-6.546167850494385,3.81720232963562
1790267128015566600,12.436566650390626,-6.0626420974731445,-6.730921268463135,3.756255626678467
1790267128025566500,12.44656640625,-5.907525062561035,-6.906486988067627,3.684016466140747
1790267128035566600,12.456566650390625,-5.753262996673584,-7.075052738189697,3.607489585876465
1790267128045566500,12.46656640625,-5.594409942626953,-7.238730430603027,3.5318186283111572
1790267128055566600,12.476566650390625,-5.430034160614014,-7.395769119262695,3.462327003479004
1790267128065566500,12.48656640625,-5.26129674911499,-7.541884899139404,3.4072163105010986
1790267128075566600,12.496566650390625,-5.091006278991699,-7.674558639526367,3.3694474697113037
1790267128085566500,12.50656640625,-4.924459457397461,-7.792425632476807,3.346369981765747
1790267128095566600,12.516566650390626,-4.765467166900635,-7.896570205688477,3.3324012756347656
1790267128105566500,12.52656640625,-4.620964527130127,-7.989014148712158,3.3155264854431152
1790267128115566600,12.536566650390625,-4.497068881988525,-8.071675300598145,3.28554630279541
1790267128125566500,12.54656640625,-4.395022392272949,-8.144994735717773,3.2424118518829346
1790267128135566600,12.556566650390625,-4.312172889709473,-8.208573341369629,3.1929402351379395
1790267128145566500,12.56656640625,-4.248799800872803,-8.261504173278809,3.140960931777954
1790267128155566600,12.576566650390625,-4.206553936004639,-8.302338600158691,3.089735984802246
1790267128165566500,12.58656640625,-4.182519912719727,-8.331745147705078,3.042849063873291
1790267128175566600,12.596566650390624,-4.169009208679199,-8.353130340576172,3.0024924278259277
1790267128185566500,12.60656640625,-4.159520626068115,-8.369344711303711,2.970327138900757
1790267128195566600,12.616566650390626,-4.1518096923828125,-8.381199836730957,2.9476025104522705
1790267128205566500,12.62656640625,-4.149470329284668,-8.387789726257324,2.932111978530884
1790267128215566600,12.636566650390625,-4.156942367553711,-8.388303756713867,2.920027732849121
1790267128225566500,12.64656640625,-4.178445816040039,-8.381924629211426,2.907630681991577
1790267128235566600,12.656566650390625,-4.214899063110352,-8.369420051574707,2.8909876346588135
1790267128245566500,12.66656640625,-4.263740062713623,-8.352014541625977,2.8696258068084717
1790267128255566600,12.676566650390624,-4.32204532623291,-8.329974174499512,2.846369504928589
1790267128265566500,12.68656640625,-4.386465549468994,-8.303839683532715,2.824101448059082
1790267128275566600,12.696566650390626,-4.454275608062744,-8.273914337158203,2.8057334423065186
1790267128285566500,12.70656640625,-4.523026943206787,-8.240416526794434,2.794309616088867
1790267128295566600,12.716566650390625,-4.590702533721924,-8.204120635986328,2.790740966796875
1790267128305566500,12.72656640625,-4.655845642089844,-8.165953636169434,2.79475998878479
1790267128315566600,12.736566650390625,-4.7192487716674805,-8.125555038452148,2.8061420917510986
1790267128325566500,12.74656640625,-4.782028675079346,-8.082348823547363,2.8245749473571777
1790267128335566600,12.756566650390624,-4.843870639801025,-8.037352561950684,2.847501277923584
1790267128345566500,12.76656640625,-4.905519008636475,-7.991045951843262,2.872185707092285
1790267128355566600,12.776566650390626,-4.968700885772705,-7.942667484283447,2.897660255432129
1790267128365566500,12.78656640625,-5.0351033210754395,-7.890987396240234,2.9241113662719727
1790267128375566600,12.796566650390625,-5.106813430786133,-7.834532737731934,2.9514293670654297
1790267128385566500,12.80656640625,-5.18468713760376,-7.771541118621826,2.982036828994751
1790267128395566600,12.816566650390625,-5.265295505523682,-7.702868461608887,3.018751859664917
1790267128405566500,12.82656640625,-5.343385696411133,-7.631995677947998,3.0612528324127197
1790267128415566600,12.836566650390624,-5.416694641113281,-7.561954021453857,3.1059045791625977
1790267128425566500,12.84656640625,-5.486516952514648,-7.4940080642700195,3.1477553844451904
1790267128435566600,12.856566650390626,-5.556634902954102,-7.426937580108643,3.183519124984741
1790267128445566500,12.86656640625,-5.631984233856201,-7.357319355010986,3.2126290798187256
1790267128455566600,12.876566650390625,-5.715868949890137,-7.281991958618164,3.2360193729400635
1790267128465566500,12.88656640625,-5.810239315032959,-7.197988986968994,3.2558345794677734
1790267128475566600,12.896566650390625,-5.9148406982421875,-7.10320520401001,3.2755939960479736
