time,seconds_elapsed,z,y,x
1789075601569378300,0.05137841796875,0.009550503155589102,-0.02912029602229595,-0.6168938809812069
1789075601579321300,0.0613212890625,0.12094400871694087,-0.07692600329220295,-0.8996721272081136
1789075601589263400,0.071263427734375,-0.17101181569993495,-0.020509704065322876,-0.8723310427527874
1789075601599206400,0.081206298828125,-1.0410954448521137,-0.12301847690343856,-0.6417126804172992
1789075601609149200,0.091149169921875,-1.2364420758634804,-0.6029857671380042,0.3099602311303839
1789075601619092200,0.10109228515625,-0.9152847068816423,-0.01761690523326397,0.32497926535755395
1789075601629034200,0.1110341796875,-0.16923077750205992,0.6640402475595474,-0.20692440221086142
1789075601638977300,0.120977294921875,0.6459773521244525,1.3990467132240534,-0.43792792793903496
1789075601648920300,0.13092041015625,0.5853238537192345,2.0119395418703556,-0.45087651256769895
1789075601658862300,0.1408623046875,0.16419862855374812,2.1758266202569008,-0.600323671789281
1789075601668805400,0.150805419921875,-0.9331418506115674,1.6905039404690265,0.06167765382118523
1789075601678748400,0.16074853515625,-1.2330512643814087,1.5037152944445609,0.832877203438431
1789075601688692000,0.17069189453125,-0.49130759941637514,2.2029390835881233,0.6600317425705492
1789075601698634000,0.180634033203125,0.49537119559347625,2.810902054616809,-0.0035860417932271956
1789075601708577000,0.190576904296875,2.4681869338214395,3.9306536875545977,-0.23743600646108387
1789075601718519800,0.200519775390625,4.043396269637346,4.773375847050548,0.01688018845655024
1789075601728462800,0.210462890625,3.4276638336509464,3.7718671471774576,0.9551672930020838
1789075601738404900,0.22040478515625,2.614408591657877,1.5187071118712425,2.013164845881611
1789075601748347600,0.23034765625,2.458434186092019,-0.01046820252239704,2.049170371372998
1789075601758290700,0.240290771484375,3.002579641726613,-0.8395914602547884,0.9620461657956242
1789075601768233700,0.250233642578125,2.8203660485327244,-1.423337104871869,0.03166796207795851
1789075601778175700,0.26017578125,2.3315759848952293,-0.9987994409143924,-0.28670597759727384
1789075601788118800,0.270118896484375,1.643752710688114,0.03303776172697544,-0.3344053018832579
1789075601798061800,0.280061767578125,1.2331570628434418,1.0433721576124428,-0.4577212638959288
1789075601808004900,0.2900048828125,1.0871703828066588,1.7856915766388177,-0.7091807542081922
1789075601817947000,0.29994677734375,0.9756453598201275,2.39311971013844,-0.4519510829966515
1789075601827890000,0.309889892578125,-0.17809622100293634,2.609917125457525,0.6570894785735756
1789075601837833000,0.3198330078125,-1.557645622074604,2.0380378597229716,1.8167346574172376
1789075601847776000,0.32977587890625,-1.6411965964645145,1.8053513858765362,0.46137657153308387
1789075601857718000,0.339718017578125,-1.3781021248728036,3.2219980531990524,-1.6870143447875976
1789075601867660800,0.349660888671875,-2.171952409172058,3.4482384196460245,-2.036821908061951
1789075601877603800,0.359603759765625,-2.115460706621408,2.814124523794651,-0.2511293085098266
1789075601887547000,0.369546875,-0.7861246584832667,3.7708214375168083,1.8509739038884638
1789075601897489000,0.379489013671875,0.296265504309535,5.474360216125846,3.606052607859671
1789075601907432000,0.389431884765625,0.8661527194440364,6.245897546330094,4.846079264211655
1789075601917375000,0.399375,1.7274083144962786,5.978989653930068,4.676452765390277
1789075601927317800,0.40931787109375,3.2331039691030976,4.164296439212561,3.227343505880236
1789075601937260000,0.419260009765625,4.475436856570839,1.8401281002253294,1.6218082976445554
1789075601947202800,0.429202880859375,5.003236157560348,0.8941068942964077,0.5296788311257958
1789075601957145900,0.439145751953125,5.087427183419465,2.0852730736285445,-1.2695575790017843
1789075601967089000,0.4490888671875,4.138240206936001,3.3959926841020582,-0.3967410177543759
1789075601977031000,0.459031005859375,1.4348931026309728,2.823160647687316,1.5361474914938211
1789075601986973700,0.4689736328125,0.036007717448472976,3.1643063272088763,-0.41317309711724515
1789075601996916700,0.478916748046875,0.052912090498209,2.7868419645935294,-2.7531854864463208
1789075602006859800,0.48885986328125,1.164661034244299,0.8459878832936286,-3.448636186791956
1789075602016801800,0.4988017578125,2.724026319718361,-0.11462298900187015,-3.3301743502795693
1789075602026744800,0.508744873046875,3.813579213747382,-0.4258990154385566,-3.3801433730632064
1789075602036688000,0.51868798828125,4.189707943844795,-1.324265905267,-3.220785754799843
1789075602046631000,0.528630859375,3.442756188842654,-1.8735206667393445,-2.4948627593010664
1789075602056573000,0.538572998046875,2.115342633199692,-2.0444617552906275,-3.181467305368185
1789075602066516000,0.548515869140625,0.7666139023274183,-2.8287007461577653,-4.11256216032207
1789075602076459000,0.558458984375,-0.16549918975830077,-2.7719208743155,-5.246210801187157
1789075602086401000,0.568401123046875,-0.32493338038921354,-3.107859048321843,-4.730179679402709
1789075602096344000,0.578343994140625,-0.8320657409250736,-5.387884294199943,-2.214349535396695
1789075602106286800,0.588286865234375,-1.73016608877182,-6.020368543022871,-2.644853998804092
1789075602116230000,0.59822998046875,-3.031232904759049,-5.631062935966253,-4.4874832681953905
1789075602126172000,0.608171875,-3.696694125032425,-5.792526586598157,-5.332343608763813
1789075602136115000,0.618114990234375,-4.369229229214787,-6.416539944195747,-5.400655512967705
1789075602146057700,0.6280576171875,-4.754644843095541,-6.796027337071299,-5.418919483932853
1789075602156000800,0.638000732421875,-5.025102536931634,-7.016997069638967,-5.258080687201023
1789075602165942800,0.64794287109375,-5.1439019348353145,-7.150163431069254,-4.906994628423452
1789075602175885800,0.6578857421875,-4.754845918625593,-6.901680253154039,-4.544741863465309
1789075602185828900,0.667828857421875,-4.759599250632524,-6.64307724776268,-4.388487179653346
1789075602195772000,0.67777197265625,-5.368104073452949,-6.340316536214948,-4.185042582382262
1789075602205714000,0.6877138671875,-5.868970359331369,-5.648332050675154,-4.025901237218082
1789075602215657000,0.697656982421875,-5.792483916500211,-4.623627184131741,-3.6979704285785555
1789075602225599700,0.707599853515625,-5.20469104231894,-3.53035410053581,-2.678015971432626
1789075602235542800,0.717542724609375,-4.087750959670544,-2.845191277709603,-1.7586881266400216
1789075602245484800,0.72748486328125,-2.954702622786164,-2.179002035422623,-0.6901701295942068
1789075602255427800,0.737427734375,-1.9018372451633214,-1.5285907925039528,-0.17121347575187681
1789075602265371000,0.747370849609375,-1.196511632013321,-0.7550108505561948,0.1236377778455615
1789075602275314000,0.75731396484375,-0.8978291296899318,-0.008268938912451267,0.09200462221950292
1789075602285256000,0.767255859375,-0.6892103446513413,0.6709326374217868,-0.08998714491724967
1789075602295199000,0.777198974609375,-0.516520951128006,1.231536475904286,0.09318038800060749
1789075602305142000,0.78714208984375,-0.4136053510546684,1.8079636142015456,0.15010142187923192
1789075602315085000,0.7970849609375,-0.5517588532477617,2.2320424284756184,0.12936813819110393
1789075602325027000,0.807027099609375,-0.32895547551214693,2.6054887876212596,0.3129062579870224
1789075602334969900,0.816969970703125,0.22849895902872083,3.021852205212414,0.42917263028174635
1789075602344912600,0.82691259765625,0.9110977765858173,3.2607252587392925,0.6869947144284844
1789075602354855700,0.836855712890625,1.6736089197695254,3.5067189579263327,1.0362950588330626
1789075602364798000,0.8467978515625,2.225834221485257,3.7058033141613005,1.509589739435911
1789075602374740700,0.85674072265625,2.555682846444845,3.6812089711308476,1.8621388565033674
1789075602384683800,0.866683837890625,2.6064228536009786,3.6812487186193463,1.8761743961185215
1789075602394626800,0.876626708984375,2.455640755981207,3.719917764231562,1.7989280748307703
1789075602404568800,0.88656884765625,2.3535148449808356,3.6779198664575814,1.9161198914073407
1789075602414511900,0.896511962890625,2.3946838907152412,3.5677211236387487,2.1218837254062293
1789075602424455000,0.906454833984375,2.3604484436362982,3.3129134188771245,2.2629244734734297
1789075602434398000,0.91639794921875,2.165269570407271,3.1368010651677847,2.2347665927425027
1789075602444340000,0.926340087890625,1.9740736293345689,2.9866923367649316,2.3107596990987656
1789075602454282800,0.93628271484375,2.0983137569874524,2.785746570572257,2.4881542015731335
1789075602464225800,0.946225830078125,2.5038743332743643,2.5736446195930243,2.5092902208432553
1789075602474168800,0.9561689453125,2.7056565502911805,2.2843442781209946,2.403707447387278
1789075602484110800,0.96611083984375,2.719761063489318,2.0185785414934156,2.0670647783733904
1789075602494054000,0.976053955078125,2.4354221438169477,1.7892782029539345,1.6583077441327272
1789075602503997000,0.985996826171875,1.9536954426944255,1.6365233439564704,1.6025971089571713
1789075602513940000,0.99593994140625,1.643213781505823,1.578421868121624,1.8785349877700208
1789075602523882000,1.005882080078125,1.3265969785630702,1.4544447753190994,1.7974384207949041
1789075602533825000,1.015824951171875,0.9844488440006971,1.2725059074133633,1.522723654036224
1789075602543767800,1.025767822265625,0.5147019190073013,1.150786822670698,1.2864441241338849
1789075602553710800,1.0357109375,0.13368833947777747,1.1656161430120466,1.0895423726350069
1789075602563653000,1.045653076171875,0.024886603975296018,1.225836510697007,0.7723606292858719
1789075602573595600,1.055595703125,-0.10289105015397071,1.163200314041972,0.5501490799635649
1789075602583538700,1.06553857421875,-0.3817214355379343,1.221830782186985,0.6959487129956483
1789075602593481700,1.075481689453125,-0.34818156950771806,1.3624322620540856,1.0556525241233408
1789075602603423700,1.085423828125,-0.04492752148509025,1.420711432543397,1.2341934201538562
1789075602613366800,1.09536669921875,0.34581951655149457,1.4042302533417939,1.2789875245176254
1789075602623309800,1.105309814453125,0.9228566034406424,1.4965940642625093,1.6133384293325244
1789075602633252900,1.1152529296875,1.724317362743616,1.619438938164711,1.83590712152943
1789075602643195000,1.12519482421875,2.3329145400226117,1.9499486573815346,1.7129897669129073
1789075602653138000,1.135137939453125,2.668325475284457,2.637140647947788,1.5128091398738324
1789075602663081000,1.1450810546875,2.697532280546427,3.357299088570475,1.7235221207126974
1789075602673024000,1.15502392578125,3.0615339349985122,4.118692041379213,1.852042117641866
1789075602682967000,1.164967041015625,3.774665837985277,4.88094424136579,1.7644699249118565
1789075602692909000,1.174908935546875,4.861598320382833,4.980668936443329,1.447576935376227
1789075602702852000,1.18485205078125,6.16723960467875,4.793323825579882,1.5359607367500663
1789075602712795100,1.194795166015625,7.381372818100452,5.515429893139005,2.665043384873867
1789075602722738000,1.204738037109375,8.428044601780176,7.090054122543335,3.0980341121390462
1789075602732680000,1.214679931640625,9.195866710853576,7.300374450802803,3.1179069796055554
1789075602742623000,1.224623046875,9.416952178755402,6.935542775267362,1.9108003038197754
1789075602752565800,1.234565673828125,9.358241046589612,6.768650669845938,0.556737810704112
1789075602762508800,1.2445087890625,9.110708885788917,6.948652432209253,-0.027761867150664327
1789075602772450800,1.254450927734375,8.05084093592763,7.249261518681049,0.0979155998289585
1789075602782393900,1.264393798828125,6.110985802537202,6.642170654311776,-0.9904127208411693
1789075602792337000,1.2743369140625,5.210002592730522,5.76762478505373,-3.023055443522334
1789075602802280000,1.284280029296875,3.275605140224099,5.279633178317547,-4.262617697232962
1789075602812222000,1.294221923828125,1.0697083758741617,4.134989972968399,-6.2264662851512425
1789075602822165000,1.3041650390625,-0.9235966081529855,3.6703923935621976,-7.435673148086667
1789075602832108000,1.31410791015625,-2.627672562378645,2.5576997392252085,-8.483118254226445
1789075602842051000,1.324051025390625,-3.726585405427217,0.5963903143957257,-8.313852405411005
1789075602851992800,1.333992919921875,-4.955053433671593,-2.6953672114670275,-4.8157823256254195
1789075602861935900,1.343935791015625,-8.430523559114336,-8.45843506386876,-2.9363205783993003
1789075602871879000,1.35387890625,-16.642947972661254,-9.729558577013016,-16.779219898891448
1789075602881822000,1.363822021484375,-19.933381848704812,-10.972698689210414,-21.731340786242484
1789075602891764000,1.373763916015625,-17.812978424984216,-8.839465594533085,-18.070779466342923
1789075602901707000,1.38370703125,-10.704919859194755,-6.256252351605892,-11.644281607234477
1789075602911650000,1.393650146484375,0.31283611536026,-3.168433636271953,-4.61641184592545
1789075602921592800,1.4035927734375,8.56867413869798,-1.228147417987883,1.6655448557794093
1789075602931535000,1.41353515625,11.584174052274227,2.387818096598983,6.691945615828037
1789075602941478000,1.423477783203125,10.219401949095726,4.5253637937784195,6.73339873920083
1789075602951421000,1.4334208984375,6.60745473023951,4.1770878239855165,4.423077723780274
1789075602961364000,1.443364013671875,2.068121009428054,4.781768120081723,2.849253704842925
1789075602971305700,1.4533056640625,-2.1699812552295623,5.33219981637895,1.5427748006790876
1789075602981248800,1.463248779296875,-6.724979870423674,5.080851312160491,1.2274375161528586
1789075602991191800,1.47319189453125,-8.96580824742317,4.356228877866268,1.0936626674354075
1789075603001134800,1.483134765625,-9.06195216140449,3.2392446638152,0.0908487301826477
1789075603011076900,1.493076904296875,-8.12997117126584,2.249700980893522,-0.779975488203764
1789075603021020000,1.50302001953125,-6.479200690770149,1.334893828395754,-1.1942314121216535
1789075603030963000,1.512962890625,-5.285087352070212,0.4237989744193852,-0.7331663907557725
1789075603040906000,1.522906005859375,-5.015024210509657,-0.21938399774618444,-0.07350538119375705
1789075603050848000,1.532847900390625,-5.542130853059888,-1.6344319246351717,-0.006563596299290657
1789075603060791000,1.542791015625,-5.077793093633652,-2.9033631884321567,-2.31566646810174
1789075603070734000,1.552734130859375,-3.0602655224978923,-4.050027378214896,-4.939126965743303
1789075603080677000,1.562677001953125,-0.18424144575968385,-4.6166944622591135,-4.719935348764062
1789075603090620200,1.5726201171875,2.204403895443678,-5.592821175855398,-3.157393771341443
1789075603100562000,1.58256201171875,3.313535350167751,-5.876109709692001,-2.7515461948066946
1789075603110505000,1.5925048828125,2.2995073604613543,-6.2096811545670025,-2.9218092379659413
1789075603120448000,1.602447998046875,0.9642010057419538,-5.42168485699296,-3.2005858473360536
1789075603130390800,1.612390869140625,0.13334120654053985,-3.656333180810511,-1.9920067609101533
1789075603140333000,1.6223330078125,-1.0540911200255154,-2.186676807834208,-0.3112345253825187
1789075603150275800,1.63227587890625,-1.4454058749474583,-0.9902836145687848,1.3786241029202937
1789075603160219000,1.642218994140625,-1.0629754143573342,0.10114661763943732,3.082122549518943
1789075603170162000,1.652161865234375,-0.973460416996479,0.9253177328571677,4.428423760983348
1789075603180104000,1.66210400390625,-1.35699679300189,0.8131728974718601,4.915723293802142
1789075603190047000,1.672046875,-1.488040901581198,1.3136799215838313,4.810718612495064
1789075603199990000,1.681989990234375,-1.5583780280023813,1.0392136496935038,4.359541947937012
1789075603209933000,1.69193310546875,-1.2132336342334746,-0.36888807478677477,3.099037443962693
1789075603219874800,1.701874755859375,0.12213920985087752,-1.1025246038049459,1.6694243275612592
1789075603229817900,1.71181787109375,1.584445366194844,-1.7984639644503593,0.41105858918130395
1789075603239761000,1.721760986328125,2.6800071452498435,-2.73701761097759,-1.0081325019270182
1789075603249704000,1.731703857421875,3.6278362773835657,-2.7723677413001653,-1.3976508749514818
1789075603259646000,1.74164599609375,3.7780776922553776,-2.140452524536848,-0.251686357870698
1789075603269589000,1.751589111328125,2.460198857676983,-1.2448298188500106,0.6245604700863361
1789075603279532000,1.761531982421875,0.3513357226897031,0.20800196831449866,1.3604431340634822
1789075603289475000,1.77147509765625,-1.6854903500907121,1.3154887245714664,2.147232393935323
1789075603299417000,1.7814169921875,-3.3968291349262,1.500483180655539,2.058737533402443
1789075603309360000,1.791360107421875,-4.213126813355088,1.765003155005723,1.173010344916582
1789075603319303000,1.801302978515625,-4.962062435650825,2.222640247749537,0.2619365337282419
1789075603329246000,1.811245849609375,-6.057299220535159,1.97593167829141,-0.8492448392629622
1789075603339188000,1.82118798828125,-6.802063110104203,1.3131595509715377,-1.8578718467086552
1789075603349130800,1.831130859375,-6.48457010884881,0.7151894200384616,-2.5307483116745946
1789075603359073800,1.84107373046875,-5.587627698865533,0.26828005753606554,-2.430278351187706
1789075603369016800,1.851016845703125,-4.5679280932635065,0.30081571495980025,-2.0415654493272304
1789075603378960000,1.8609599609375,-2.732483766940236,0.5043666952148079,-1.258813482147455
1789075603388902000,1.87090185546875,-0.9427572356969117,0.8460963121041655,0.061438511303067204
1789075603398845000,1.880844970703125,0.4593798447579145,1.1240367629110812,0.7890922761172056
1789075603408788000,1.8907880859375,1.5368969946868716,1.0128247513964772,0.71405486305058
1789075603418731000,1.90073095703125,1.5798114227838813,0.8846882008269429,0.5603542476356029
1789075603428673000,1.910673095703125,0.8675697466351091,0.7174395370528102,0.4773328500777483
1789075603438616000,1.920615966796875,-0.223866038531065,0.3453118592903018,-0.3835013046920299
1789075603448559000,1.93055908203125,-0.7998463098436593,-0.30122429576069115,-1.56352766585052
1789075603458502100,1.940502197265625,-0.4636071070641279,-0.915005597679317,-2.1654969494223595
1789075603468444000,1.95044384765625,0.1718074961222708,-0.874713919301331,-2.5670477055460212
1789075603478387000,1.960386962890625,0.6171921332754194,-1.0492059783324599,-2.6916934913903474
1789075603488330000,1.970330078125,1.3259798695780336,-1.502534267966449,-2.9846576160669325
1789075603498272800,1.980272705078125,3.3102485835820437,-1.9828814974293112,-4.063737631398439
1789075603508215000,1.990215087890625,5.097033216154575,-1.9602783282160758,-5.362975478392839
1789075603518158000,2.000157958984375,5.391038958838582,-1.5020985068976878,-6.548526740452647
1789075603528100900,2.010100830078125,4.977922852605581,-1.7190274396419525,-7.322894325646757
1789075603538044000,2.0200439453125,3.6788627002656455,-2.336828790856898,-9.741574008977413
1789075603547986000,2.02998583984375,1.8812077141106127,-2.5623347055494783,-10.471997238504885
1789075603557929000,2.039928955078125,1.0089771360576152,-1.9902128632307052,-6.778407509228587
1789075603567872000,2.0498720703125,1.3299199855059385,-1.331974287687242,-3.4626685115367173
1789075603577815000,2.05981494140625,0.6449158603727817,0.7164025952205062,-1.1319628797352312
1789075603587756800,2.0697568359375,-0.8912263704240322,1.5707187463983892,-0.4366618169933557
1789075603597699800,2.079699951171875,-2.6426515203237533,1.8166300279989838,0.1823719986259937
1789075603607643000,2.089642822265625,-3.272922769272327,2.129102570743859,1.5416396591693162
1789075603617586000,2.0995859375,-2.721110724532604,1.9210823361203073,2.7982705365806817
1789075603627529000,2.109529052734375,-1.867396630901098,1.50079823795408,3.026334026801586
1789075603637471000,2.119470947265625,-2.2408114258646963,1.1513900492608546,2.787850264853239
1789075603647414000,2.1294140625,-2.580399939072132,0.792534233264625,2.9278602085679766
1789075603657357000,2.139357177734375,-1.59478497390151,0.8835507212296128,1.6771593057274818
1789075603667300000,2.149300048828125,0.33994624060392375,-0.01171907936632633,1.8567431349396704
1789075603677242000,2.1592421875,2.574185302340984,-1.1975830606371163,2.7049884417712686
1789075603687185200,2.16918505859375,1.6804640463612972,-1.2713593677267432,2.360737197449803
1789075603697127400,2.17912744140625,-0.6237118173677474,-0.9004740912407636,2.1988731493234632
1789075603707070500,2.189070556640625,0.25060323880910873,-0.6459361433312296,1.785078997698426
1789075603717012500,2.199012451171875,0.9228022429049014,-0.5346326541408896,0.7957184162586927
1789075603726955500,2.20895556640625,0.38431028298735614,-0.5574567726284265,0.08707330329716205
1789075603736898300,2.218898193359375,0.2609760181330144,-0.9145001323752104,-0.5722516061782836
1789075603746841300,2.22884130859375,-0.24239757439121604,-0.9924512409314513,-0.7302332599133252
1789075603756784400,2.238784423828125,0.5250339279294014,-0.6992517000637948,-0.4940571903854608
1789075603766726400,2.248726318359375,1.672907347371429,-0.8307146185770631,-1.1037234582006932
1789075603776669400,2.25866943359375,-0.33967268435955045,0.1058187741689384,-2.725508667230606
1789075603786612500,2.268612548828125,-1.9464193142116069,0.9621968263126909,-3.2644705827474594
1789075603796555500,2.278555419921875,-1.791622574122995,1.1882159512244164,-1.9811141954958438
1789075603806497500,2.28849755859375,-0.1386019766129553,0.7973908795155584,-0.24806056858897207
1789075603816440300,2.2984404296875,1.1763958957016467,1.3192803719393909,0.5103939926803112
1789075603826383400,2.30838330078125,1.7325253652490675,1.6298038264431058,0.7163438507705926
1789075603836326400,2.318326416015625,1.6752679390229284,1.47327982417047,0.9749392573773861
1789075603846268400,2.328268310546875,0.6385222138129174,1.1290198850858957,1.2353969507247209
1789075603856211500,2.33821142578125,-0.8887970974504947,0.7138671584587544,0.9851280584365129
1789075603866154500,2.348154541015625,-0.8731237275004387,1.1218746164411306,0.1400216341525316
1789075603876097500,2.35809765625,-0.22822306469678877,1.4802768434509634,-1.0997779354453086
1789075603886039600,2.36803955078125,-0.018001082245260477,1.7619091345131397,-1.2131693368256091
1789075603895982600,2.377982666015625,0.0849120336100459,1.898630996467918,-0.09729951375722884
1789075603905925600,2.387925537109375,-0.05045505273491144,1.6704881574004888,0.8715677302300929
1789075603915868400,2.397868408203125,0.4989205586381256,1.7079980961054562,1.3478075243741272
1789075603925811500,2.4078115234375,1.0775418459787964,1.6047944728709755,1.94063196298182
1789075603935753500,2.41775341796875,0.530066369138658,1.6023539478510618,2.1395827559649945
1789075603945696300,2.4276962890625,-0.19555925084874032,2.0990426557838915,1.9727017564594744
1789075603955639300,2.437639404296875,-0.12227730314731597,2.3437346247226,2.3502713330149647
1789075603965582300,2.447582275390625,-0.3649345513880253,2.1779753227233885,2.070057384318113
1789075603975524400,2.4575244140625,0.1888499624684453,2.0403452598825096,2.071739638316631
1789075603985467400,2.46746728515625,0.8809455071672797,1.8291002179935574,1.3925667035549878
1789075603995410400,2.477410400390625,0.12159662740677595,1.5074161947891116,0.34301439600288863
1789075604005353500,2.487353515625,-0.030722762782871723,1.51384388974905,0.32503800980746744
1789075604015295500,2.49729541015625,0.7945791830956935,1.796129384022951,-0.2795733127057552
1789075604025238500,2.507238525390625,-0.47705432539731263,1.576346961543709,-1.118880695322156
1789075604035181600,2.517181640625,-3.190637284773588,2.1607548694618046,-2.3844337148576975
1789075604045124600,2.52712451171875,-4.2990296115681526,0.5579721748046577,2.1026474022775887
1789075604055066400,2.53706640625,6.15127338926196,-0.11739806147208437,5.8786734227001665
1789075604065009400,2.547009521484375,3.883475756794214,0.7574127971313893,3.0416245349138973
1789075604074952400,2.556952392578125,0.5775250165365636,-0.3711248573955148,2.2035084079086777
1789075604084895500,2.5668955078125,0.8764154625222086,-0.6157271752893925,2.690090147846937
1789075604094838300,2.57683837890625,2.1459122512474655,0.19834004067368805,2.7897061218529937
1789075604104780500,2.586780517578125,1.9935574974834918,-0.27396197563000024,3.278895413941145
1789075604114723300,2.596723388671875,-0.08138093687444925,-0.8537292181354016,2.879019313031435
1789075604124666400,2.606666259765625,-3.0044118255898353,-0.6946072352588176,0.3783826465040445
1789075604134609400,2.616609375,-3.0775051188513634,-1.695214748508483,-0.5028618436098099
1789075604144551400,2.626551513671875,0.9980417544148862,-2.4592671297848225,-1.0463538037717341
1789075604154494500,2.636494384765625,6.926558673822879,-4.026494234675169,-2.1443787580698728
1789075604164437500,2.6464375,5.0656385454595085,-3.0455677195817232,0.451372479391098
1789075604174380500,2.656380615234375,0.3091547964990139,-2.620170808446407,-0.2669762814611196
1789075604184322300,2.666322265625,0.8430047758296132,-3.670016253726184,-0.6688502781897783
1789075604194265300,2.676265380859375,2.051948603914678,-3.396033600634336,-0.6000064590662717
1789075604204208400,2.68620849609375,0.9238052824676036,-1.4601289584353565,-0.2874053215056658
1789075604214151400,2.6961513671875,-0.7031015073597431,-1.2996487658828497,-0.9277905527114868
1789075604224094500,2.706094482421875,-0.6037608431637287,-1.4670949980556964,-1.2439257096171379
1789075604234036500,2.716036376953125,-0.0011291501604020595,-1.2776036689437924,-2.2635697856396435
1789075604243979500,2.7259794921875,1.0730432193852961,-1.8414732312239706,-3.2277351355463266
1789075604253922600,2.735922607421875,1.4570821380853651,-2.4971280738845465,-3.8490918411552903
1789075604263865300,2.745865234375,0.68514733299613,-2.919504760415852,-3.4974762055456634
1789075604273807600,2.7558076171875,0.09831307471394539,-3.0812530732080337,-3.0315532227545976
1789075604283750700,2.765750732421875,-1.126758296829462,-3.246114257323742,-3.408506713238358
1789075604293693400,2.775693359375,-1.6705262974537909,-2.9013658771350976,-2.842043627333641
1789075604303636500,2.785636474609375,-1.160647414688766,-1.8115267135106026,-1.8516145398795603
1789075604313578200,2.795578125,-0.8797881538257002,-1.0051035825598984,-0.32613691096007824
1789075604323521300,2.805521240234375,0.5689926043823361,-0.01865525357136503,2.1283751332521437
1789075604333464300,2.81546435546875,1.5132834793873131,1.3100817509613931,4.321042413672805
1789075604343407400,2.825407470703125,2.3456885352693497,1.327389151854068,4.705718022841215
1789075604353349400,2.835349365234375,2.0330966039285063,1.7277411997124552,4.851427054980397
1789075604363292400,2.84529248046875,-0.005781067619472741,2.6894924742147324,4.241081572729349
1789075604373235500,2.8552353515625,0.7773826952315867,2.2088306258447465,1.389011641421914
1789075604383178500,2.865178466796875,1.2925136533059178,1.6233575729131697,0.6749912651628256
1789075604393121500,2.87512158203125,0.20473931325674055,1.5692423902355133,1.2644506112515925
1789075604403063600,2.8850634765625,-0.3460764139220118,0.30940979417338965,-0.47742520453631876
1789075604413006600,2.895006591796875,-1.5525003681406377,0.06805652293702587,-2.178903543484211
1789075604422949600,2.90494970703125,-1.246815878100693,0.8053744256153702,1.0964701260715723
1789075604432892700,2.914892578125,0.3245090174973011,0.9029225803714245,0.9888795199245214
1789075604442834400,2.92483447265625,0.6212088215708732,1.3022305990695953,-0.7456605461478233
1789075604452777500,2.934777587890625,0.7257146134451031,1.9765463030584156,-0.5580652599155903
1789075604462720500,2.944720458984375,-0.9589467384755611,2.0613608676433564,-1.6293448306292295
1789075604472663300,2.954663330078125,-1.4493850077114998,0.8850339455246925,-2.5656425149232147
1789075604482605600,2.96460546875,-0.7083036060474812,-0.13986858074897898,-1.5831296074211596
1789075604492548400,2.97454833984375,0.22154431758522986,-0.6703239309389144,-0.6694120037257671
1789075604502491400,2.984491455078125,-0.05289923101663589,-0.11277326948195696,1.5009393999904392
1789075604512434400,2.994434326171875,-0.7477111950673162,0.9887335355825722,4.488366480770707
1789075604522377500,3.00437744140625,-1.1748599183060229,0.6998458665646612,5.7871180055528875
1789075604532319500,3.014319580078125,-0.8437247606672346,-0.3244166995713487,4.98849919167757
1789075604542262500,3.024262451171875,-0.312678440580517,-1.6692925178751348,3.3768665433496237
1789075604552205600,3.03420556640625,-0.5548365071274339,-2.3128166316285728,3.8492636905908584
1789075604562148600,3.044148681640625,-0.10823474926948547,-2.3565070125341414,3.2309394845455883
1789075604572090400,3.05409033203125,0.7503742767967283,-2.5034394489884373,-3.7428999958902596
1789075604582033400,3.064033447265625,4.953156660139561,-1.8190329974874853,-9.980028544831276
1789075604591976400,3.0739765625,4.982767370027303,-3.352106488363445,-10.280858580577373
1789075604601919500,3.08391943359375,-1.1011056769177316,0.3749923464786261,-10.507602804893255
1789075604611861500,3.093861572265625,1.3301228146016597,1.129907627705857,-6.903216961202025
1789075604621804500,3.103804443359375,0.30703532012701035,1.233337680107355,-5.564105368980765
1789075604631747600,3.11374755859375,-2.9922762743771076,4.396067844040692,0.12925006476938725
1789075604641690400,3.1236904296875,-3.124489280605316,4.730190493057668,5.111711729848385
1789075604651632600,3.133632568359375,-0.9012743017077446,3.167095665666461,9.965316128867864
1789075604661575700,3.14357568359375,-1.086221557649225,-0.16045863830782472,10.253915628594159
1789075604671518500,3.1535185546875,-2.1318729122400284,-1.993342685689032,11.156437300014495
1789075604681461500,3.16346142578125,3.9923943966746327,-0.8295124031804502,21.6095661719203
1789075604691404300,3.173404296875,6.407315019732713,0.06761588476374746,23.729245957541465
1789075604701346300,3.18334619140625,4.474759395700693,-5.820892264860868,-1.4298837500363588
1789075604711289300,3.193289306640625,-9.79156115193963,-5.280659598755836,6.01458820605576
1789075604721232400,3.203232421875,-16.76852899352908,-3.9799402810320257,0.6798363671064377
1789075604731175400,3.213175537109375,-1.2602096126809716,-5.726004488420486,-5.295168016579747
1789075604741117400,3.223117431640625,3.025291239750385,-10.511405704307556,-1.0657494091153144
1789075604751060500,3.233060546875,10.602779335147142,-7.8439681177735325,1.6982096925407648
1789075604761003500,3.24300341796875,3.506020746529102,-6.58446022362113,-4.899477676922083
1789075604770946600,3.252946533203125,1.797236322351545,-6.335781230872869,-8.98576557830274
1789075604780888600,3.262888671875,-7.754269726669788,-17.034558934050796,8.172655297738313
1789075604790831600,3.27283154296875,-12.065389881265162,12.045281159216165,-10.449060599553585
1789075604800774700,3.282774658203125,4.203949235165119,9.33597836137712,-2.3590414994478226
1789075604810717400,3.292717529296875,-2.36905231359154,4.480558437368273,-0.5754442647397517
1789075604820660500,3.302660400390625,-2.8626456858575344,11.777517526769637,2.4465187073707577
1789075604830602500,3.3126025390625,6.250061095750332,17.9755257791996,2.1015607760846615
1789075604840545500,3.322545654296875,5.53164569940269,16.773465865409374,-1.190977963283658
1789075604850488300,3.33248828125,-1.4722025503277778,13.750069645625352,0.17507891900837422
1789075604860431400,3.342431396484375,-1.7387622138120233,10.927309395432472,-0.0533563271343708
1789075604870373400,3.352373291015625,-0.5574097186163067,9.472897353339194,-3.1719916210144756
1789075604880316400,3.36231640625,1.0500760391652584,8.54075795776844,-2.8361750275611874
1789075604890259500,3.372259521484375,3.1970763779103755,-2.406001988065243,-2.3668851986855266
1789075604900202500,3.382202392578125,-1.299975367488712,-2.7903841672450302,-7.072956272748113
1789075604910144500,3.39214453125,0.17378902532830834,0.619129677209258,-0.528925090149045
1789075604920087600,3.402087646484375,0.20690219037905333,-3.848475170561671,2.793506683179736
1789075604930030300,3.4120302734375,-0.7352138248048722,-5.7637061503052704,2.2080168252438304
1789075604939973400,3.421973388671875,-0.9335200362741947,-6.623309886497259,4.66577822664082
1789075604949916400,3.43191650390625,-0.22531667573079464,-5.6549529301196335,5.459224606314301
1789075604959858400,3.4418583984375,1.082940197890997,-0.7413835994809865,2.451912090846896
1789075604969801500,3.451801513671875,1.2349055139459668,-0.24543957243561743,1.5370394718974827
1789075604979744500,3.46174462890625,0.9321417336583137,-2.731508199906349,3.8675937125295397
1789075604989687600,3.4716875,1.458342221149057,-0.12613047144412995,0.7108481759637594
1789075604999629600,3.481629638671875,0.29190789362192154,2.427489597252011,-3.6727901023536917
1789075605009572600,3.491572509765625,-0.9530278698205947,5.439478287836909,-5.173775679573416
1789075605019515400,3.501515380859375,0.8934278259910643,4.633330247500538,-4.77059176928997
1789075605029458400,3.51145849609375,1.0858185298062861,3.6003900520533323,-2.6101912662237883
1789075605039400700,3.521400634765625,1.2216845055840908,1.491031169438362,-2.235746543690562
1789075605049343200,3.53134326171875,0.5491245592214167,0.9058551997572183,-1.1676929492861032
1789075605059286300,3.541286376953125,0.29184001601748166,1.1521925978153944,-0.17749650154411792
1789075605069229300,3.551229248046875,0.3909364231288433,-4.727403784948587,0.44207098256051536
1789075605079172400,3.56117236328125,-1.5110017981909214,-18.006180445182324,1.2069891868859528
1789075605089114400,3.5711142578125,-2.181771207875013,-25.04970194913149,1.444641174185276
1789075605099057400,3.581057373046875,3.000445552307367,-19.011037870961427,3.740485920485854
1789075605109000400,3.59100048828125,2.8741560909092425,-12.6093401065886,4.70136158119738
1789075605118943500,3.600943603515625,0.14171945104636252,-4.58291698808074,7.441326643803715
1789075605128885500,3.610885498046875,-2.950169655531645,0.9066437197864055,6.780810478717088
1789075605138828500,3.62082861328125,1.6093066895984112,13.372515266638993,3.8915094256460665
1789075605148771600,3.630771484375,1.6826806994974612,6.414475412881374,-1.6506249345451594
1789075605158714600,3.640714599609375,-0.7318987089075147,2.888830512949824,-3.6163755566924807
1789075605168657700,3.65065771484375,-0.4456019331656396,5.822999466273188,-0.5498638332813978
1789075605178599400,3.660599365234375,-1.6469639278195798,10.791475860619544,-2.1782477099239825
1789075605188542500,3.67054248046875,0.1589374931551516,8.996689123377204,-1.318753279325366
1789075605198485200,3.6804853515625,1.134799126074463,7.780067015749216,1.0650479828476904
1789075605208428300,3.69042822265625,4.520779973119497,8.997742431822418,2.363719428130984
1789075605218370600,3.70037060546875,4.103481612765789,5.613357183405757,2.6155408105582
1789075605228313300,3.710313232421875,-0.5347812688313425,-2.8599533780336377,-0.23479776691198348
1789075605238256400,3.72025634765625,-0.6857575738489627,-4.15346174146533,-0.49681788727045056
1789075605248199400,3.730199462890625,0.20822423276305196,-3.1042940493166444,-4.600950072899461
1789075605258141400,3.740141357421875,1.5138088184356688,-2.3717045816659925,-6.027464638763666
1789075605268084500,3.75008447265625,0.20106603157147765,0.32090777813494203,-2.266673596873879
1789075605278027500,3.760027587890625,0.31552944609746336,-0.9457529103815555,0.6626748044252395
1789075605287970600,3.769970458984375,1.2135330555714665,9.652362524607778,3.049585138529539
1789075605297913600,3.77991357421875,0.8553647834479808,13.043150041282177,4.0075241612672805
1789075605307855400,3.78985546875,-0.1530197935439646,11.38329024540186,3.198134362530708
1789075605317798400,3.79979833984375,0.7050340828575193,11.81997719683647,1.1815379347652195
1789075605327741400,3.809741455078125,1.8722249278403817,9.448577151075005,-0.27082302001714703
1789075605337684500,3.8196845703125,0.8946947771869599,5.120148718804121,0.22134616466462612
1789075605347626500,3.82962646484375,-0.8900314615510404,-1.8537310936421154,2.4542834961533546
1789075605357569500,3.839569580078125,-1.9605904629051685,-4.672263497006893,5.1091374954462045
1789075605367512600,3.8495126953125,2.231477780330181,-5.2606993452668185,0.2668248902916908
1789075605377455400,3.859455322265625,2.703723536401987,-5.2580543837159865,-3.3052573511660097
1789075605387397600,3.869397705078125,1.6628035942472517,-3.6232770066440105,-3.4740672729074955
1789075605397340400,3.87934033203125,0.03076908614262938,-0.6777256585627793,-2.6991104896485805
1789075605407283500,3.889283447265625,-0.8547416831135749,1.5201163941472768,-0.21009294924438
1789075605417226500,3.8992265625,2.0393866439834234,0.9398451476424932,-0.6109329267501831
1789075605427169500,3.90916943359375,2.1709970081433654,0.333349326556921,-0.8315946162819862
1789075605437111300,3.919111328125,1.383371589708328,0.4316524643987417,-0.2356377248674631
1789075605447054300,3.929054443359375,1.6464505714699624,0.43042730651795863,-0.7147153727859258
1789075605456997400,3.938997314453125,1.551783744303882,1.1116595118969679,-0.33494857844710346
1789075605466940400,3.9489404296875,1.5579152327962218,1.9794155748844147,0.15557283902764318
1789075605476882400,3.95888232421875,2.7347280387356876,1.200987316122651,-1.6082359916269777
1789075605486825500,3.968825439453125,2.921250142778456,0.022907412856817244,-2.7847786023229357
1789075605496768500,3.9787685546875,0.9803411164209246,-0.24963527055978774,-2.0248077912718054
1789075605506711600,3.988711669921875,-1.744410887223482,0.08053834857046603,-0.24892566098570823
1789075605516653600,3.998653564453125,-2.0866756339028476,0.4364490510255098,1.0763409457564352
1789075605526596600,4.0085966796875,0.7775999912440776,0.8569283795028925,-0.03600128770768642
1789075605536539600,4.01853955078125,1.5088786685571074,2.071772371542454,0.28433950419425963
1789075605546482700,4.028482666015625,0.0823480283409357,2.472203183725476,0.9337836556464433
1789075605556425500,4.038425537109375,-1.3757093845173716,1.218331834155321,1.7557523654490708
1789075605566367500,4.048367431640625,-2.1816791456773874,0.1337257488787174,2.555794490125775
1789075605576310300,4.058310302734375,-1.8947925873488187,-0.05790858361124992,2.739967400693893
1789075605586253300,4.06825341796875,0.9656769235134124,0.15524375320374964,1.13774672383368
1789075605596196400,4.0781962890625,2.5516777024567125,0.7392144387483597,-0.4065472492367029
1789075605606138400,4.088138427734375,0.96957919164896,1.3576894514411688,-0.9730191029697656
1789075605616081400,4.098081298828125,-0.9660182842969894,1.1234674385905266,-1.1708873614132405
1789075605626024400,4.1080244140625,-2.7408149574339387,0.42218671691715715,-0.8240513612955808
1789075605635967500,4.117967529296875,-0.48532121848314996,-1.0632155067235232,-1.157489535179734
1789075605645910500,4.12791064453125,2.836707819263637,-2.4343185664892197,-0.6925497182071209
1789075605655852500,4.1378525390625,2.1905434201344844,-2.5257471423864364,0.34596973867714403
1789075605665795600,4.147795654296875,-0.7550517670884728,-2.0669418826460837,1.7933213408648967
1789075605675738600,4.157738525390625,-2.8420892200410366,-1.9536913510411977,3.0383734241634603
1789075605685681400,4.167681396484375,-2.7646204881742595,-1.4305477669030426,3.6795489289641377
1789075605695624000,4.1776240234375,1.5178285754710434,-0.883367473617196,2.412466800165176
1789075605705567000,4.18756689453125,4.374560945631563,0.8708096053391694,1.435056768760085
1789075605715510000,4.197510009765625,1.8695508863255381,3.5049119085043667,1.822206074565649
1789075605725452800,4.207452880859375,-2.0041548793435098,3.8402123691290613,3.504864562231302
1789075605735395000,4.21739501953125,-2.999103197787702,2.48280757984817,4.959808519244194
1789075605745337900,4.227337890625,0.18201690157800912,1.1503034230679272,3.179098822671175
1789075605755281000,4.237281005859375,2.334991054035723,0.1579559347718954,1.111105385145545
1789075605765224000,4.247223876953125,1.808117635719478,0.9706547119259834,0.9122066146105527
1789075605775167000,4.2571669921875,-0.09451455921381711,1.7826105617582797,1.1592594674617052
1789075605785109000,4.26710888671875,0.14367343465834856,1.9878841280221937,1.8769114782214165
1789075605795052000,4.277052001953125,1.0845032094240188,1.7327572743088007,1.1903069321542978
1789075605804995000,4.2869951171875,3.1718449060201643,0.3106961807221174,0.18255203136801718
1789075605814938000,4.296938232421875,0.40508068381547924,0.47622284300923345,1.4904519082456826
1789075605824879900,4.3068798828125,-0.7686272879764438,0.9770780229717493,3.3764135388851164
1789075605834823000,4.316822998046875,2.4295687416136262,0.3752151223838329,3.3475556931912895
1789075605844766000,4.326765869140625,3.4312639039695263,-2.5528251189261675,1.056369586351514
1789075605854709000,4.336708984375,-0.604250672507286,-2.967435263109207,-0.49192543905377384
1789075605864652000,4.346652099609375,1.5927774334713816,1.765807895517349,0.6771984198182821
1789075605874594000,4.356593994140625,3.621348961190879,3.4054461566239596,2.5075462997853752
1789075605884537000,4.366537109375,4.08057770704031,4.507866131010651,2.1450655712902544
1789075605894480000,4.37647998046875,2.4900249638810754,1.3889625415831803,2.196312358924746
1789075605904423000,4.3864228515625,0.9360346494436264,-0.9725736972898245,2.4090835874676704
1789075605914365000,4.396364990234375,0.28284079006910323,-2.9360739101618525,2.6216338667362926
1789075605924308000,4.406307861328125,0.5520784405909478,-3.6481811462759968,3.700122930437326
1789075605934251000,4.4162509765625,2.0558339209154246,-2.8903783269137144,3.5892537410110235
1789075605944194000,4.426194091796875,3.495723808920383,-3.34667832583487,2.0775679060786962
1789075605954135800,4.4361357421875,2.430027006775141,-3.3391011685788627,-0.18473697419166563
1789075605964078800,4.446078857421875,-0.2155355786897242,-1.829800182956457,0.9671019878804683
1789075605974022000,4.45602197265625,0.5391169599480927,-0.7874146982938051,1.4239479302465914
1789075605983965000,4.46596484375,2.4111687231786547,-0.46390229061841964,0.4706441660940647
1789075605993908000,4.475907958984375,2.486539752113819,-0.9575169979333877,-1.0581488709837197
1789075606003850000,4.48585009765625,1.4765022933483123,-1.1868845564901829,-2.096651376733184
1789075606013793000,4.49579296875,-0.6483867513537407,-0.36308863126039503,-1.1327601675927639
1789075606023736000,4.505736083984375,-0.48503056497350333,-0.08350012098550796,0.4255488868266344
1789075606033679000,4.51567919921875,1.858083151371777,-0.5368208118349314,1.1679442936986684
1789075606043621000,4.52562109375,1.8173174257412552,-1.4913935730099677,0.6362088223040103
1789075606053564200,4.535564208984375,0.890449979224056,-2.1679215462207795,0.2395633738785982
1789075606063507200,4.545507080078125,-0.5152842489399015,-1.1358254003822803,2.2397844209045172
1789075606073449700,4.55544970703125,-1.197722907499224,-0.5215881713896989,2.4626386520445345
1789075606083392800,4.565392822265625,1.3534008143365381,-1.230630174714327,0.48782151086628434
1789075606093335000,4.5753349609375,2.75646027033329,-1.3131278406590223,-0.03883095817565918
1789075606103277800,4.58527783203125,1.888855598515272,-1.1918518235087394,-0.34426819545626636
1789075606113220900,4.595220947265625,0.637598815357685,0.5023749368757009,0.3514543075680733
1789075606123164000,4.605163818359375,0.926594620925188,1.8532032703757284,0.2512882984638214
1789075606133106000,4.61510595703125,2.385765840244293,1.5698843414008616,-0.40180911479890347
1789075606143049000,4.625049072265625,2.9600667801678178,0.7571545845866203,-1.500199395278096
1789075606152992000,4.634991943359375,2.759747621440887,-0.011360182926058768,-2.9156857866495844
1789075606162935000,4.64493505859375,2.3023289937533438,-0.25166940673589705,-2.413519524088502
1789075606172878000,4.654878173828125,2.4552312983974813,-0.5660626884102821,-1.3363497262924908
1789075606182819800,4.66481982421875,3.0908102983653545,-1.2135673962324858,-0.6775257520765066
1789075606192763000,4.674762939453125,3.1154245151400564,-1.5703876147478817,-0.9562041617691517
1789075606202706000,4.684705810546875,1.6347968124248087,-1.2851929550290107,-1.1316098285138607
1789075606212649000,4.69464892578125,0.5102281345941126,-0.5419663580298424,-1.3228829264760016
1789075606222591000,4.704591064453125,0.8338653376929461,-0.10205693741738796,-1.403748607304692
1789075606232534000,4.714533935546875,0.9471731524430215,-0.07592004112005234,-1.0426917741328476
1789075606242477000,4.72447705078125,1.366982472704351,-0.013166940087080001,-1.0119693036109207
1789075606252419800,4.734419921875,0.9624947863459586,0.17969781098067758,-0.9360907635450363
1789075606262363000,4.74436279296875,0.964607248455286,-0.048344051930308336,-1.253692485871911
1789075606272305000,4.754304931640625,1.2851834565483033,-0.19979016641676425,-1.5190759451836346
1789075606282248000,4.764248046875,-0.10276026338115334,0.08273205922245978,-0.8693509309634566
1789075606292191000,4.77419091796875,-0.11644508986249566,-0.14784487512409686,-0.8130626420304179
1789075606302134000,4.784134033203125,0.5304631133712828,-0.6088841775268315,-1.2673691290467977
1789075606312075800,4.79407568359375,0.5278616987012327,-0.8687982655167579,-1.4271198382809758
1789075606322018800,4.804018798828125,0.1546411111354828,-1.3899988988935947,-1.3519906552776693
1789075606331961900,4.8139619140625,0.07831994186863303,-2.337130696412921,-1.148062073881924
1789075606341905000,4.82390478515625,0.7740801465548575,-3.0091490832448002,-0.8707850554198027
1789075606351847000,4.833846923828125,1.2131086926795542,-2.57818401658833,-0.7318333885863423
1789075606361790000,4.8437900390625,-0.21136998344287275,-1.5761901635468005,0.5710875308349729
1789075606371733000,4.85373291015625,-0.4015583549082279,-0.8285650393277406,1.4684835298046468
1789075606381676000,4.863676025390625,0.4878571667015552,-0.15328443582952023,0.6643395227670669
1789075606391619000,4.873619140625,0.9309959246240556,1.2699106302231549,-2.0755922220915557
1789075606401561000,4.88356103515625,0.8301482168659567,2.973217353641987,-3.5866242692902683
1789075606411504000,4.893504150390625,1.251961716556549,3.733450615021586,-2.8162326019898054
1789075606421447000,4.903447021484375,1.622839540388435,3.199869808021188,-2.4995669914692638
1789075606431390000,4.913389892578125,0.21707608612999318,2.4014082305341957,-0.6661854428946972
1789075606441332000,4.92333203125,0.3755241883330047,1.5580740766197443,0.6449813268244267
1789075606451274800,4.933274658203125,2.751538596022129,0.42049920222163195,-3.6630353087976575
1789075606461217800,4.9432177734375,2.3508282362453636,-0.6144236914753913,-6.196604815372824
1789075606471160800,4.953160888671875,-1.0963982298791408,-1.403437641659379,0.3176853089570999
1789075606481104000,4.963103759765625,-2.2671314236439764,-1.695713784071803,4.663226496331394
1789075606491046000,4.9730458984375,-1.4414299570538103,-1.2913807037532328,2.7600325758621094
1789075606500989000,4.982989013671875,0.33864714070409535,-0.6293453662753105,-1.6453633607551454
1789075606510932000,4.992931884765625,0.7682873884975909,0.11567279031574726,-1.5946408892557025
1789075606520875000,5.002875,0.017541794170439242,1.3983967248827218,1.8531039016544817
1789075606530817000,5.012817138671875,-0.35873511222600935,2.3651643662422894,3.436088839907944
1789075606540760000,5.022760009765625,0.8826979037925601,1.6877233698397873,0.44282530805915593
1789075606550703000,5.032703125,-0.12978504842892288,1.087382564252615,0.3777802966967225
1789075606560646100,5.042646240234375,-1.8599885466016828,0.8930530013293028,1.9004174414932726
1789075606570589200,5.052589111328125,-0.039056583625078196,0.15483458788096904,-0.09332418038547038
1789075606580531000,5.062531005859375,-0.31776100454181433,0.6806646346241235,-0.33787527954876423
1789075606590474000,5.072473876953125,-1.1212119147486983,1.1914695461928844,1.426800689329207
1789075606600417000,5.0824169921875,0.3207071409963071,0.7701677954167128,0.5578133309811353
1789075606610359800,5.09235986328125,0.5666564165197312,0.10449556274116038,0.030699089646339415
1789075606620302000,5.102302001953125,-0.20708251538202166,-0.40959436184763903,0.8276549387454986
1789075606630244900,5.112244873046875,-0.00905307502746582,-1.0316852269500494,0.5859460772708058
1789075606640188000,5.12218798828125,-1.457112240962684,-0.9236568139076232,1.3753706540822983
1789075606650131000,5.132130859375,-1.9400433494389056,-1.0305343033492564,1.6670716269552708
1789075606660074000,5.142073974609375,0.3583379296019673,-1.1770739410936832,-0.45225510744452474
1789075606670016000,5.15201611328125,-0.504007652644068,-0.2428004561036825,-0.0093283848375082
1789075606679959000,5.161958984375,-0.636571225875616,0.20257015252411364,0.812838477885723
1789075606689902000,5.171902099609375,1.0032755634151398,-0.35442309424579144,-0.5971645136386156
1789075606699845400,5.181845458984375,0.09013429830297827,-0.597167436248064,0.08008943575918674
1789075606709787400,5.191787353515625,-0.9327814928665756,-1.0946265440315008,1.4143822295218704
1789075606719730400,5.20173046875,-0.8112728360041975,-2.01493404751122,1.3795721974253654
1789075606729673500,5.211673583984375,-1.2324468687474728,-2.4849440073549744,2.0389204877763984
1789075606739616500,5.221616455078125,-1.472215409809351,-2.8556735087573526,2.984056727564335
1789075606749559300,5.231559326171875,-0.890974733750522,-3.513915299171209,3.0217361776173113
1789075606759501300,5.241501220703125,-1.203369242823124,-3.9241339303970335,3.427735729843378
1789075606769444400,5.2514443359375,-0.2629614928618073,-3.80524626968801,1.9658903228789566
1789075606779387100,5.26138720703125,0.7465022576689719,-2.5655671115994454,-0.48216216993033884
1789075606789330200,5.271330078125,2.5408660933241247,-0.7044155125677585,-2.904194086298346
1789075606799272200,5.281272216796875,3.6003202016875147,2.020325677421689,-5.711484964680672
1789075606809215200,5.29121533203125,4.368071583612263,2.7244424993038177,-5.151698872321844
1789075606819158300,5.301158203125,2.5303143041715024,2.9429397042781114,-5.653581057244539
1789075606829101300,5.311101318359375,-0.9412687507048249,4.298338414433598,-6.4802236040771
1789075606839044400,5.32104443359375,-2.1330910558581353,4.7521086026161905,-7.990005651214719
1789075606848986400,5.330986328125,-1.7689646059826016,4.401159906482696,-10.139265167063474
1789075606858929400,5.340929443359375,-0.4110682337924838,6.676581457957625,-9.137392894575
1789075606868872400,5.35087255859375,2.348827271686494,7.595191509869694,-6.705995768490434
1789075606878815500,5.3608154296875,3.842558932255208,7.49055332378745,-5.299551346230507
1789075606888757200,5.37075732421875,4.938884973680973,7.5595818518280975,-3.995736108317971
1789075606898700300,5.3807001953125,4.470618934895098,5.287666262647509,-2.91606689492166
1789075606908643300,5.390643310546875,0.7853162647098303,3.6825913653999565,-1.7117606635093687
1789075606918586400,5.40058642578125,-3.020099516326189,3.595110065823793,-0.00010696750581264495
1789075606928529200,5.410529052734375,-2.9527020966187116,3.7795851742088793,0.6525029545009136
1789075606938471400,5.420471435546875,-0.9432745375692844,3.2098008349269627,0.46605391569435595
1789075606948414200,5.430414306640625,0.351652460488677,2.5938176390498877,1.1750813059717415
1789075606958357200,5.440357177734375,-0.28404432063996793,2.558580905973911,2.1866268312126396
1789075606968300300,5.45030029296875,-2.092015825887024,2.2442577669262884,3.9488714812904595
1789075606978242300,5.4602421875,-3.227018511709571,0.4330985715538263,5.911016772422194
1789075606988185300,5.470185302734375,-2.8567379231184717,-1.0103881718993186,6.27218232666552
1789075606998128400,5.48012841796875,-2.7319284711450336,-1.394627143216133,6.874083221176266
1789075607008071400,5.490071533203125,-2.590760589566827,-2.1418547925502063,6.066008596691489
1789075607018014500,5.500014404296875,-1.7803382329121231,-2.358406124153733,4.717146010306477
1789075607027956200,5.509956298828125,-1.8362322618305682,-1.6942396198660135,5.420667204383015
1789075607037899300,5.519899169921875,-2.1318603450194,-2.2783891691088676,5.361562688985467
1789075607047842300,5.52984228515625,-2.310964866282046,-2.7379040384232995,4.622234852990508
1789075607057785300,5.539785400390625,-1.8289111251622436,-2.624779179024696,3.9835196008235214
1789075607067727400,5.549727294921875,-2.3608055865108963,-1.7943576981753109,4.348274703991413
1789075607077670400,5.55967041015625,-2.1729595403879878,-1.3926461985319851,4.758770398592949
1789075607087613400,5.569613525390625,-1.4247785358518361,-1.470781285353005,4.639642499387264
1789075607097556500,5.579556396484375,-1.6767656302347778,-1.8389812682777642,4.276954850143194
1789075607107499300,5.589499267578125,-1.6194272477269172,-1.830769904771447,4.384688079631328
1789075607117441500,5.599441650390625,-0.6779805101066827,-0.735830641528964,2.7697885384619236
1789075607127384300,5.60938427734375,0.05410422289222479,-0.22469313700497148,1.7199936543256042
1789075607137327400,5.619327392578125,0.0012596446722745894,-1.4677160525634885,2.9008740019649264
1789075607147270400,5.6292705078125,-0.10569003322273492,-2.246886361864209,1.8442524866789578
1789075607157212200,5.639212158203125,-0.7013432655155658,-1.492252820187807,1.1248100853711367
1789075607167155200,5.6491552734375,0.03998918830007314,-0.7722548308238386,-0.8473153325051068
1789075607177098200,5.65909814453125,0.17047230199575422,0.18270634514689443,-2.300067332431674
1789075607187041300,5.669041259765625,0.7625140657931566,0.35167701040804383,-2.76080619058311
1789075607196984300,5.678984375,-0.30200697057098147,1.1402785803988575,-2.3841940608829257
1789075607206926300,5.68892626953125,-0.4439160259053111,1.1740052011728286,-1.6369366009324788
1789075607216869400,5.698869384765625,1.6054574668243526,0.4959884507089853,-1.9686060115784405
1789075607226812400,5.7088125,-0.2458148354887962,0.3702659755438566,-2.3266356058835984
1789075607236755500,5.71875537109375,-0.45225393840074535,1.3509253641337156,-2.330964574998617
1789075607246697500,5.728697509765625,0.9429401910483837,2.8273849873840806,-2.799160763418674
1789075607256640500,5.738640625,0.41809243334084745,5.215715709680318,-3.8166093752235173
1789075607266583600,5.74858349609375,1.2971309378430247,5.3281818129092455,-3.951095587080717
1789075607276526300,5.7585263671875,1.956573920740187,3.8915509267002344,-4.288536566865444
1789075607286469000,5.76846923828125,0.13765344371646643,1.9453712664633989,-3.1776638214319943
1789075607296411400,5.778411376953125,-0.6049062138065695,0.378965414828062,-1.2672206604868173
1789075607306354200,5.788354248046875,-0.5237924034357071,-1.103421260383725,0.17452362321317194
1789075607316297200,5.798297119140625,-0.448834193085134,-2.2547592871963977,1.0983096164584158
1789075607326240300,5.808240234375,0.22955489782243965,-2.823982485464215,1.326925479865074
1789075607336182300,5.818182373046875,0.0956216436728835,-2.356727961808443,1.1611866361320018
1789075607346125300,5.828125244140625,-0.6988412195667624,-1.9082839370846747,1.5278291604816914
1789075607356068400,5.838068359375,-0.8867278899610042,-2.453880176049471,1.9250228904396294
1789075607366011400,5.848011474609375,-0.8793883408531546,-3.3499335282385347,2.266836678481102
1789075607375953400,5.857953369140625,-1.0651076040804386,-3.4940444775313138,2.6157056457310914
1789075607385896400,5.867896484375,-1.6999685189068316,-3.6515164281785486,3.118397977992892
1789075607395839500,5.877839599609375,-2.1927911990612743,-4.2157431333333255,3.394975031492114
1789075607405782300,5.8877822265625,-1.6876359838172792,-4.699208787077665,3.3511364742875096
1789075607415725300,5.897725341796875,-1.0425943051077424,-4.913784434694051,3.048749856749177
1789075607425667300,5.907667236328125,-0.12477759553045034,-5.382659253028035,2.2809236560225488
1789075607435610400,5.9176103515625,0.5006652103483676,-5.106596578791737,2.08815418202281
1789075607445553400,5.927553466796875,0.44165041906088587,-3.6362200748473406,2.345476499953866
1789075607455496200,5.93749609375,0.5253416787043214,-1.9035580776065586,1.8241227218419311
1789075607465439200,5.947439208984375,0.47795244328081604,0.10791443127393723,0.5811585507333278
1789075607475381200,5.95738134765625,0.9185001617968082,1.8367255983054638,-1.5026526336491106
1789075607485324300,5.96732421875,1.9143442600369451,3.2486586811095473,-3.295715031316876
1789075607495267300,5.977267333984375,0.277386031794548,3.875676481220126,-3.349250514410436
1789075607505210400,5.98721044921875,-1.968004538553953,2.9728894368618723,-2.5241201257064936
1789075607515152400,5.99715234375,-3.0845252267464995,1.4611059867739677,-0.8365884790465236
1789075607525095200,6.00709521484375,-1.040031615012884,0.19282558810114858,0.23131430871039627
1789075607535038200,6.0170380859375,1.3276818511903286,0.4048123882681131,-0.9236775644347072
1789075607544981200,6.026981201171875,-0.43940380917787547,1.1357301233142614,-1.1863427046984434
1789075607554924300,6.03692431640625,-1.0024605937704443,1.1918892329096793,-0.08334960659891366
1789075607564866300,6.0468662109375,0.2614963887453079,1.5180816734492777,0.14027590117454528
1789075607574809300,6.056809326171875,1.9376921101376414,2.721259777614474,-1.1466247345551848
1789075607584752400,6.06675244140625,1.658075835072994,4.552400853785872,-2.6742159946277737
1789075607594695400,6.0766953125,-0.847427999099344,4.7228860152631995,-2.5707924450322985
1789075607604637400,6.086637451171875,0.2930325137376785,4.783233224198222,-2.2770444765016435
1789075607614580500,6.09658056640625,1.0913361241839825,5.493587479165196,-1.5545754208490252
1789075607624523500,6.1065234375,0.3730278414726257,4.548915349757671,-0.5329390019655227
1789075607634466300,6.11646630859375,1.6490649917520581,2.582048875322938,-2.800266678833961
1789075607644409300,6.126409423828125,0.7684251895330846,-0.16117022064328193,-1.513558643066883
1789075607654351400,6.136351318359375,0.559976500364393,-1.0779273381650447,-0.22802871116846798
1789075607664294100,6.146294189453125,0.3484139169588685,-0.6991618298232555,-1.847016106173396
1789075607674237200,6.1562373046875,-1.1373138853743672,-1.2371101843833923,1.7384212914198636
1789075607684180200,6.16618017578125,0.03976590093821287,-1.7674445568084716,1.9043419214606283
1789075607694123300,6.176123291015625,0.6689958241403102,-1.7192624174416065,-0.051777241249382495
1789075607704064500,6.186064453125,0.44571167715042825,-2.52445301092267,1.515928879329562
1789075607714007600,6.196007568359375,1.3766225538395345,-2.9953385845571754,-0.6902925869300961
1789075607723950300,6.205950439453125,0.6454745171688496,-2.4100100546628234,-1.2831401141524315
1789075607733893400,6.215893310546875,-0.15513926991596816,-1.336920219656825,-0.5370709872037172
1789075607743835400,6.22583544921875,-0.712668230997771,0.8952537262439727,-0.1370645379126072
1789075607753778400,6.2357783203125,-1.111121313367039,3.215807966387272,1.068575572451949
1789075607763721500,6.245721435546875,0.5904816748738289,3.8712440517306326,-0.8390908172562718
1789075607773664500,6.25566455078125,0.9951812504172325,3.4391467661738395,-0.5202279889523983
1789075607783606500,6.2656064453125,-0.21722367790713906,3.3416327328830957,2.832503937833011
1789075607793549600,6.275549560546875,-0.7767676320731639,2.8990350960999725,4.933716631132364
1789075607803492600,6.28549267578125,0.06895575506538153,2.4376591090887785,3.574283843155205
1789075607813435600,6.295435546875,-0.04409428553134203,2.083942701807618,2.7364713752716776
1789075607823378700,6.305378662109375,-0.8109761911451816,0.7900514765381813,2.774515274722874
1789075607833320700,6.31532080078125,-0.9798352127254009,-0.7881020960360765,2.7713550571262835
1789075607843263500,6.325263427734375,-1.0525260626658797,-1.8478315142095088,2.9186265162765976
1789075607853206300,6.335206298828125,-0.7366352359101176,-2.4073726918965574,2.125759982317686
1789075607863149300,6.3451494140625,-0.40091187369823456,-2.589991943281889,1.178528816077113
1789075607873092400,6.35509228515625,-0.696593586770445,-2.5209663378506897,0.4195055150091648
1789075607883034400,6.365034423828125,-0.6183060858666897,-2.15001588717401,-0.3592348784416914
1789075607892977400,6.374977294921875,-0.7581962025940417,-1.1286094776540994,-0.6222492705345154
1789075607902920400,6.38492041015625,-0.28835750766396523,0.17796937975287436,-0.8098831352114677
1789075607912863500,6.394863525390625,0.777616065596044,1.0630156002372502,-1.0131424390435217
1789075607922805500,6.404805419921875,0.8123056861832737,1.7921330078631639,-0.11599836900830268
1789075607932748500,6.41474853515625,0.8108452582418918,1.7655670724987982,0.5121592487871647
1789075607942691600,6.424691650390625,3.4392078487113116,-0.008756722429394721,-1.6487258229255675
1789075607952634600,6.434634521484375,3.767605398079753,-1.7532962044686078,-1.3154027998536824
1789075607962577700,6.44457763671875,1.0000140774011612,-0.8934913927465676,-0.5362894814372062
1789075607972519400,6.45451953125,-0.16482202114909886,-0.20201602577269076,-0.38765667080581184
1789075607982462500,6.46446240234375,-1.8177011643618344,-0.11404723494052886,0.41811259934604167
1789075607992405500,6.474405517578125,-3.1938252671599385,-0.13474690861999988,0.6227396843999624
1789075608002348500,6.4843486328125,-0.853370687021315,-1.4406097267121076,-0.5800602341026068
1789075608012290600,6.49429052734375,2.723162396365404,-1.764413226288557,-2.5778654521584508
1789075608022233600,6.504233642578125,3.639606210154295,-0.5318611436009407,-3.5095617801368233
1789075608032176400,6.51417626953125,2.8826924485862255,-0.4303548258036375,-4.278011081197858
1789075608042119400,6.524119384765625,1.8468033402055501,0.39499826574027536,-5.6903720340251915
1789075608052062500,6.5340625,-0.47174511307328937,2.225181895056367,-6.086836865186691
1789075608062004500,6.54400439453125,-1.72666918656677,2.3598995775818823,-5.79860093807578
1789075608071947500,6.553947509765625,-0.9380798915356398,2.2869255267858506,-5.576980048123001
1789075608081890600,6.563890625,0.12071838326752185,1.7714216437458992,-4.9050189444363115
1789075608091833600,6.57383349609375,-0.4048398607969284,1.6800485974282025,-3.1835008570224046
1789075608101775400,6.583775390625,-1.3292670745551585,2.6929034517019987,-2.213804760995507
1789075608111718400,6.593718505859375,-1.314743166901171,4.679630226382613,-3.2122254317253827
1789075608121661400,6.603661376953125,2.5931615132287145,6.40644525116086,-5.526238287401199
1789075608131604500,6.6136044921875,5.242623590350151,6.086038408285379,-3.380921956220269
1789075608141547500,6.623547607421875,4.42111752962321,4.1359529727816575,-0.6707341922402381
1789075608151489500,6.633489501953125,0.9978846641570329,2.2978987562209365,1.4933113893300294
1789075608161432600,6.6434326171875,-1.6050713901162146,1.2103729841053485,2.754913625413179
1789075608171375600,6.653375732421875,-3.3695001062348484,1.104186399537325,3.8014205739200113
1789075608181318400,6.663318359375,-2.5228257019817826,1.0405904179394245,3.7569676842093465
1789075608191261400,6.673261474609375,-1.7855436926007269,-0.44582361309230323,2.8021371488809583
1789075608201203700,6.68320361328125,-1.0357400552988052,-1.8200918588906525,1.5895044031500816
1789075608211146500,6.693146484375,-1.678846820423007,-0.5483323859304189,2.1331629520505664
1789075608221089500,6.703089599609375,-2.8694518587410447,1.4147452176153659,2.9362697249948977
1789075608231032600,6.713032470703125,-3.5223093257680533,2.250004786145687,4.0114731911540025
1789075608240974300,6.722974365234375,-2.5630168425947426,0.8128004839628934,4.596103217390179
1789075608250917400,6.73291748046875,-0.3406464978277683,-2.801304205188155,4.0537405535191295
1789075608260860400,6.7428603515625,-1.0856342592805623,-4.849752984288335,5.239878675556183
1789075608270803500,6.752803466796875,-3.329794703312218,-4.195308832591772,6.923764659190177
1789075608280746500,6.76274658203125,-3.3585146018400787,-2.3047657193809745,5.789127007287741
1789075608290688500,6.7726884765625,-2.166879928213358,-1.015810781469941,3.8001141674965617
1789075608300631600,6.782631591796875,-1.3201970483928918,-1.2729670951843262,2.1885610141456127
1789075608310574600,6.79257470703125,-0.636207653260231,-1.2101648943126202,1.506089037838578
1789075608320517600,6.802517578125,-0.6377645273134112,-0.26067922714352604,2.088734027737379
1789075608330459600,6.812459716796875,-2.56893395768404,0.4097808243304491,3.6933038980722426
1789075608340402700,6.822402587890625,-2.5818162356108427,-0.9505126721292734,3.1229438047289846
1789075608350345700,6.832345703125,-0.1717933214664459,-1.7445798140496014,1.2709955028504132
1789075608360288500,6.84228857421875,0.4247545215785503,0.42758360752463337,-0.9399550377577542
1789075608370231300,6.852231201171875,-0.8616042623594403,2.225941773512959,-0.7638993826717138
1789075608380173600,6.862173583984375,-1.121247424453497,1.3162199614554644,1.9798124652475118
1789075608390116400,6.872116455078125,0.7929229403212666,-0.289917012065649,2.216638523116708
1789075608400059400,6.882059326171875,-0.17517565738111734,-1.3528279828846455,1.8030968849480151
1789075608410002400,6.89200244140625,-0.9076970282316207,-0.281034032908082,0.9413257415890693
1789075608419944400,6.9019443359375,-0.40315789905935523,0.6275859553873538,0.8059042947083711
1789075608429887500,6.911887451171875,0.25062632742375135,-0.02393675590455532,2.214517293179035
1789075608439830500,6.92183056640625,0.9350666811943054,-0.2585994982600212,2.7017379155427217
1789075608449773600,6.931773681640625,0.7937421477496623,0.04179682224392891,1.4386118308931588
1789075608459716600,6.941716552734375,1.1456614424809812,0.22706045065820216,0.31683892126083374
1789075608469658600,6.95165869140625,-0.4508475787341594,0.3166781777411699,0.21128245128989218
1789075608479601700,6.9616015625,-1.8688474142313003,-0.3168833449244499,1.0756558861017227
1789075608489544400,6.97154443359375,-0.3866416485443711,-1.2934557564616203,1.655209339725971
1789075608499487500,6.981487548828125,-0.003068447659909725,-2.2000918774634597,1.2081482937932013
1789075608509430500,6.991430419921875,-0.4408113378882408,-3.014813684877753,0.9375333635687827
1789075608519372500,7.00137255859375,-0.015949848803877828,-4.911987614405155,1.2554349456250666
1789075608529315600,7.011315673828125,-0.7958896811723709,-4.21953901848495,3.3998937831938263
1789075608539258400,7.02125830078125,-1.5694164316281676,-2.6188626484572888,4.753462939834594
1789075608549201400,7.031201416015625,-0.6445379669710993,-2.4294956763774156,3.4296143831968307
1789075608559143400,7.041143310546875,-0.05325257449895143,-2.4528712912678716,2.35216459941566
1789075608569086500,7.05108642578125,0.8954524636864661,-2.38095990126729,1.6192501375943422
1789075608579029500,7.061029541015625,2.435643093091249,-1.4406699324667454,0.30770518221259113
1789075608588972500,7.07097265625,2.28324756892547,1.3118372163265943,0.7923147452950478
1789075608598915600,7.08091552734375,0.7105705280661583,2.7530706278949975,0.7015525243520736
1789075608608857300,7.090857421875,2.0058570070862767,2.9311189181029795,-1.3969745831251144
1789075608618800400,7.10080029296875,3.6543387921229002,3.5456028153330084,-4.2698757055372
1789075608628743400,7.110743408203125,2.709572262430191,4.3101001638978715,-5.362683217447996
1789075608638686500,7.1206865234375,0.864437732219696,4.794243278512359,-3.6326200045287607
1789075608648629500,7.13062939453125,0.07673588754758238,3.1885593094557523,-2.3498785343050956
1789075608658571500,7.140571533203125,2.595781048077345,1.8493904340893028,-3.7126743689745663
1789075608668514600,7.1505146484375,3.1280911044895645,3.0598966891855,-4.915135264781117
1789075608678457600,7.16045751953125,1.927965081371367,4.648272965088486,-5.530782360571623
1789075608688400400,7.170400390625,0.523327270141989,5.909594046142697,-4.834240942379832
1789075608698342700,7.1803427734375,-1.1507973440647123,5.4410009673595425,-2.047187380862236
1789075608708285700,7.19028564453125,1.1380720102652906,4.06742888713181,-0.6203793850094079
1789075608718228500,7.200228515625,2.8165736705124376,3.0366654512017965,-0.7965788324803114
1789075608728171500,7.210171630859375,1.3524163333438337,1.6287217302948236,0.30625030722916124
1789075608738114600,7.220114501953125,0.5285384289190173,-0.24450258384644985,1.0973556767344474
1789075608748056600,7.230056640625,-1.4233902963638305,-1.5811767197877167,2.8857617730289697
1789075608757999600,7.23999951171875,-1.1912030042111872,-2.238499641790986,3.5638872445642944
1789075608767942700,7.249942626953125,1.877881784558296,-1.7388579292714594,-0.385830624422431
1789075608777885700,7.2598857421875,1.0874236269153654,-1.3594880252957344,-2.1580182841047644
1789075608787827700,7.26982763671875,-1.7089162338636814,-2.256483626770973,1.5890750718221067
1789075608797770800,7.279770751953125,-1.292259970805794,-3.2780461036354303,2.604779470308125
1789075608807713500,7.289713623046875,-0.09639818100333213,-3.659593351650238,1.5205930717483163
1789075608817656600,7.299656494140625,0.20577873930707571,-2.8354478823304174,-0.5340455019026994
1789075608827599600,7.309599609375,-0.5945731819711625,-1.623161173558235,-0.9967185429871082
1789075608837541600,7.319541748046875,-1.4935061812497674,-1.0979378605365753,2.4373721088409424
1789075608847484700,7.329484619140625,-0.4868916826702654,-1.0228174453616141,3.1948703922986983
1789075608857427700,7.339427734375,1.1710216553173958,-1.144530100363493,0.25253157652318475
1789075608867370500,7.34937060546875,2.0068131387673316,-0.6425315955847501,-2.2883146430566907
1789075608877313500,7.3593134765625,2.188698961311579,0.2526151631534099,-3.038412294869125
1789075608887255600,7.369255615234375,0.7924070997536182,1.1231360146790743,-0.6358075480267406
1789075608897198600,7.379198486328125,0.6608544571302831,1.787891717031598,0.3119713152244687
1789075608907141600,7.3891416015625,1.2338812854647636,1.8034388302534818,-1.9897595665052532
1789075608917084700,7.399084716796875,1.2011783086501062,1.675003004476428,-3.520441193808615
1789075608927026400,7.4090263671875,1.1645837312243879,1.7711042483597992,-2.564761640435457
1789075608936969500,7.418969482421875,1.1689340353883801,2.2224989395827053,-1.0134171643316745
1789075608946912500,7.42891259765625,1.4960719400845468,2.214263610678911,-0.9685518944278358
1789075608956855600,7.43885546875,0.7108895308874547,-0.09419219539165496,-2.2507997359156606
1789075608966798600,7.448798583984375,-0.45146951002478597,-0.2992693623006344,1.6640250988662242
1789075608976740600,7.45874072265625,0.8858300643384456,0.6741542298167944,1.2336182506144047
1789075608986683600,7.46868359375,0.5677179082714021,2.0039181479781867,2.489743516591191
1789075608996626700,7.478626708984375,0.6413784800268709,4.064981493979692,3.6963936807811257
1789075609006569700,7.48856982421875,1.954933606187254,3.752053024160862,0.011191256099939345
1789075609016512500,7.498512451171875,0.7272809859789907,3.1313083129703996,0.9778010765492916
1789075609026454800,7.508454833984375,0.7525146498262881,1.9476573315739631,-0.5297825837612152
1789075609036397600,7.5183974609375,1.1794926926732063,1.2533113775998352,-2.178722341698408
1789075609046340600,7.528340576171875,-0.2689082724370062,0.4363052586406469,-0.4369868111640215
1789075609056283600,7.53828369140625,0.4984485572122037,-0.7911047849833965,-1.6252321346133947
1789075609066225400,7.548225341796875,-0.5966293838486075,-0.7260445760518311,-1.141538517332077
1789075609076168400,7.55816845703125,-2.1187670546904207,-0.9461913017988205,0.513245874980092
1789075609086111500,7.568111572265625,-1.4694447760522364,-1.482202550816536,0.24652853671610353
1789075609096054500,7.578054443359375,-1.8493854656532405,-1.281801559025049,1.0047194786131382
1789075609105997600,7.58799755859375,-0.43950683116093275,-1.2582137626886367,0.21557634909152984
1789075609115939600,7.597939697265625,0.9393053416773677,-0.7917226246207952,-1.624949810540676
1789075609125882600,7.607882568359375,-0.42423809648901223,-0.045406829434633256,-0.970545406332612
1789075609135825700,7.61782568359375,-0.562651710923016,-0.04749883327782154,-0.48980011746287344
1789075609145768700,7.627768798828125,-0.6611658611670136,-0.20627894391417503,-0.19559388377070425
1789075609155710700,7.637710693359375,-0.8205893842734396,-0.45521571081578727,0.1679243710786104
1789075609165653800,7.64765380859375,0.538402820329368,-1.1273276211500167,-0.5446826312512159
1789075609175596800,7.6575966796875,0.5550608174026012,-0.9599187983781099,-0.5327361728698015
1789075609185539800,7.667539794921875,-0.22130261778384447,-0.6885463277846574,0.4651712876409292
1789075609195482600,7.677482666015625,-0.03331453284174204,-1.4166957671612501,-0.06579787555634975
1789075609205424600,7.687424560546875,-0.01619052569195628,-1.4383248306453227,-0.49218847390413284
1789075609215367700,7.69736767578125,0.37573447008281946,-1.393599553734064,-0.7645084544807672
1789075609225310500,7.707310546875,0.15485007771104572,-1.1576578774839639,-0.6789613378375768
1789075609235253500,7.71725341796875,-0.5992660159625113,-0.9875696063697338,-0.26545184837281705
1789075609245196500,7.727196533203125,-1.6017385924316943,-0.9810393278181553,0.2641629776060581
1789075609255138600,7.737138671875,-0.20664967692270875,-0.3950923737645149,-1.6291034230887889
1789075609265081600,7.74708154296875,1.8307707815542815,0.7044675350159406,-3.401638581034541
1789075609275024600,7.757024658203125,2.369090892036259,1.1582622731178998,-3.5261113483995197
1789075609284967700,7.7669677734375,1.9327406252101063,1.7847616023123263,-2.9159435608029365
1789075609294910700,7.77691064453125,0.8324749062478541,3.027729280552268,-2.4337252767711877
1789075609304852700,7.786852783203125,-0.06015519349426031,3.6295769835710523,-1.862598290708661
1789075609314795800,7.796795654296875,-0.26949469402283427,2.9200311223775146,-2.2279928608238695
1789075609324738800,7.80673876953125,0.3523559325829148,2.3550351864159107,-2.4376456650853155
1789075609334681600,7.816681640625,-0.2839475822672248,2.5672446894228456,-1.2415496281355618
1789075609344623600,7.82662353515625,-1.331656892301142,2.8278257168889045,-0.55081075874269
1789075609354566700,7.836566650390625,-1.1635372909113764,2.3999855042546985,0.45157940014004705
1789075609364509700,7.846509765625,0.1475751182720065,2.2133529255747795,0.9852607449054718
1789075609374452500,7.856452392578125,0.7905357529237866,1.9975357534646987,0.6425210741907358
1789075609384395500,7.8663955078125,0.8052785640254616,1.4705845937371254,0.37287352769374843
1789075609394337500,7.876337646484375,-0.3474845271542668,1.1248235293745994,0.7494412337303161
1789075609404280600,7.886280517578125,-2.3163924442887307,1.5816384920805693,1.5976713429927825
1789075609414223600,7.8962236328125,-2.849725414007902,1.7334020019531249,2.5030939965516326
1789075609424166700,7.906166748046875,-2.6987141838073727,1.6477543475449083,2.9204566543132064
1789075609434109700,7.916109619140625,-0.7752092967152595,0.7751648730516433,2.7550007191747423
1789075609444051700,7.9260517578125,0.6043427347049116,-0.4950906250864267,2.5603759726971385
1789075609453994500,7.935994384765625,-0.8984241729736328,-0.6333925958395004,2.552706460982561
1789075609463937500,7.9459375,-2.6454887895762917,0.07163023497164249,3.1329800455749033
1789075609473880600,7.955880615234375,-3.369470587879419,0.905658215880394,3.7097149346470832
1789075609483823600,7.96582373046875,-2.0627251417338845,0.4705789919033646,2.425624387902021
1789075609493765600,7.975765625,-0.6258750598162413,-1.8993077266857026,2.8084967470407483
1789075609503708700,7.985708740234375,-1.4650234524786472,-2.5313831024467945,3.530616843125224
1789075609513651700,7.995651611328125,-2.0955010376542806,-0.9880220263123511,3.4928380243510007
1789075609523594500,8.005594482421875,-2.557872465443611,0.5600277921602129,3.943999491339922
1789075609533536800,8.015536865234376,-0.38865444967150686,-0.1028287985727191,3.5461247933804985
1789075609543479800,8.025479736328125,1.0346224494457243,-3.426608479379117,2.137518809172511
1789075609553422600,8.035422607421875,-1.726225242191553,-2.618172328105569,1.0951754100859163
1789075609563365600,8.04536572265625,-2.532051795488596,-0.5398422054827213,3.1494273225069045
1789075609573308700,8.05530859375,-1.215318039292097,0.7223945291116833,5.183241427055001
1789075609583250400,8.06525048828125,1.4028981279551982,-0.005284370143711567,2.0359341654419896
1789075609593193500,8.075193359375,1.1196648314371704,-1.963101568943262,-0.7454588860958814
1789075609603136500,8.085136474609374,-1.1742176748797297,-1.780946427938342,0.20571546481251715
1789075609613079600,8.09507958984375,-0.9950821739569305,-1.1369117343142627,2.648185773575306
1789075609623022600,8.105022705078126,-0.13965396988391876,-0.008096212694048881,3.831815127661824
1789075609632964600,8.114964599609374,0.9512699202373623,-0.2055138047605753,1.7909908520907163
1789075609642907600,8.12490771484375,1.8862603213250635,-0.3868927006959915,-0.7031810023367404
1789075609652850700,8.1348505859375,0.4357233670994639,-0.24086335056126115,-2.280385895884037
1789075609662793700,8.144793701171874,-1.5536220656469464,-0.19878829589784144,-0.8798907374173403
1789075609672736800,8.15473681640625,-0.5751110872626304,-0.35513036573231216,1.2058259883254765
1789075609682678800,8.1646787109375,-0.10659224275946616,-0.35190731203258035,1.3790087183237074
1789075609692621800,8.174621826171874,0.1966997991859913,-1.34688865596354,0.7671148375868797
1789075609702564900,8.18456494140625,0.4085916145458817,-3.0134564250499007,-0.29088731840252874
1789075609712508000,8.1945078125,-1.2989523080512881,-3.5370880849659443,-0.2338087558746338
1789075609722449700,8.20444970703125,-1.8878464214727282,-2.338659805676341,1.7721031962692737
1789075609732392700,8.214392822265625,-0.2030667038694024,-0.17108488093614577,2.7480817335665226
1789075609742335700,8.224335693359375,0.7106622980028391,0.08051087604165076,0.27542846798598764
1789075609752278800,8.23427880859375,1.013641912998259,0.10678805759251117,-2.037692991808057
1789075609762221800,8.244221923828125,0.6796344147935509,1.1144476813107729,-2.6864205194234847
1789075609772163800,8.254163818359375,-0.31270752054452894,1.6715642621994018,-1.7069991481959819
1789075609782107000,8.26410693359375,0.15252864902615546,1.6752461655825375,-0.3282774301201105
1789075609792050000,8.2740498046875,0.41179128737002607,1.0354723442733287,0.35629239524900913
1789075609801993000,8.283992919921875,0.9251020442798733,0.10248130030930042,-0.18549509908258913
1789075609811936000,8.29393603515625,0.8348542025998235,0.12305471726059913,-1.6357587893247603
1789075609821878000,8.3038779296875,-0.8420167877055704,0.9060989453852176,-1.6584820777863263
1789075609831821000,8.313821044921875,-0.5735751098670065,0.9457727841258049,-0.8515665602087974
1789075609841764000,8.32376416015625,0.08205284478664397,0.8606564601153135,0.34174715254604815
1789075609851707000,8.333706787109374,1.0719101237021387,0.278521757826209,0.2643114461660385
1789075609861650000,8.34364990234375,2.1210531198009845,-0.29416823976933953,-1.7189672338873148
1789075609871591700,8.353591796875,0.0010652911439538002,-0.35608547450006006,-2.6054776817053553
1789075609881534700,8.36353466796875,-2.6525521520912645,-0.9771668702989816,-0.823968943709135
1789075609891477800,8.373477783203125,-2.25758106661886,-1.8997680376738308,1.2541840687811374
1789075609901420800,8.3834208984375,-0.3973524276509881,-2.467193831130862,2.432874212899804
1789075609911363800,8.39336376953125,1.5029980860859156,-1.481775265315175,1.2271709741711616
1789075609921305900,8.403305908203125,-0.8248314057573676,-0.13664777380526066,1.5660095457941292
1789075609931249000,8.413248779296875,-1.6892204765297472,0.5966174011498689,1.4340829552918672
1789075609941192000,8.42319189453125,0.3653881403744221,0.8565098618298769,0.11129968979805707
1789075609951135000,8.433135009765625,0.8875972201414406,0.6453489910930394,0.46763007896989583
1789075609961077000,8.443076904296875,1.6066498914793133,0.4613900155365467,0.2475543726325035
1789075609971020000,8.45302001953125,0.5254024689808487,1.0002724360764026,0.33543168578892946
1789075609980963000,8.462963134765625,-0.1393032567501068,1.4284224453121424,-0.019392390473186968
1789075609990905900,8.47290576171875,0.34563860702663657,1.81272980569005,-1.7259388264656066
1789075610000849000,8.482848876953126,0.3154324154637754,2.171070365640521,-1.758950576968491
1789075610010791000,8.492791015625,0.27883418477624655,2.215214627793431,-1.9961425455406308
1789075610020734000,8.50273388671875,0.8800827528581022,2.336101937887072,-0.45995735238492486
1789075610030676700,8.5126767578125,1.8961046928606926,2.703855053827166,-2.374100536891818
1789075610040619800,8.522619873046875,1.1214566832900046,3.218782013761997,-3.084205201011896
1789075610050562800,8.532562744140625,0.7065691834703087,2.6715286552399395,-2.208355555678904
1789075610060504800,8.5425048828125,-0.3814657072111964,1.8130010238468646,-1.3323688399627804
1789075610070447900,8.55244775390625,-0.8139129752494394,0.9387269572675228,-0.09147358408272266
1789075610080391000,8.562390869140625,0.1476163270652294,0.5578507403820753,-3.1767636577218767
1789075610090334000,8.572333984375,0.02652633400633931,0.23604396758079527,-3.495509873908758
1789075610100277000,8.582277099609374,0.16751228314638136,0.10071136802732944,-2.599614927151799
1789075610110218800,8.59221875,-0.8278352637484669,-0.021554244682192802,-0.5630719821617007
1789075610120161800,8.602161865234375,-0.9561411795355379,-0.7589210097372532,2.129763957262039
1789075610130104800,8.612104736328124,0.5763220704875887,-0.4895271457403898,-1.5790695183753967
1789075610140048000,8.6220478515625,0.2558431852892041,-0.28289105895161626,0.6071756200432777
1789075610149991000,8.631990966796875,0.9183416102342307,0.047529812937974925,0.4559411024808883
1789075610159933000,8.641932861328126,0.7473056830063461,0.4061719861835241,0.24479367574751376
1789075610169876000,8.6518759765625,-0.16832447631210087,0.4539958136320114,2.3367028263896703
1789075610179818800,8.66181884765625,0.38467882403880355,0.49611353839337824,0.9372048622667789
1789075610189761800,8.67176171875,0.4259900547228753,0.8616086462736129,0.28700609305500985
1789075610199704800,8.681704833984375,0.3601518471561372,0.5937538284122944,0.15973463488221168
1789075610209646800,8.691646728515625,-0.33985271710157394,0.7991630037546157,0.9820885446101426
1789075610219590000,8.70158984375,-2.0730182799503205,0.8872586358368396,3.266559663981199
1789075610229533000,8.711532958984375,0.18114800978899,0.25634850446283813,0.8458212945550679
1789075610239476000,8.72147607421875,0.7388530580900609,0.5732306803435087,-0.7340016725361347
1789075610249419000,8.7314189453125,-0.45320992395132775,0.6264379543960094,0.8004168032079935
1789075610259360800,8.74136083984375,-1.4803499086871743,0.5425438656568526,2.1239678382039067
1789075610269303800,8.7513037109375,-2.7742051858603953,0.6461398492097854,2.840325717499852
1789075610279246800,8.761246826171876,0.8374898118004203,-0.33642332717478274,-1.0399509509921074
1789075610289190000,8.77118994140625,2.7311080946728588,0.6968132208704948,-2.7202555690079926
1789075610299133000,8.7811328125,1.357195384313911,1.4901070403307675,-0.9480541730612516
1789075610309075000,8.791074951171876,-0.31088936520665883,1.4247610001951456,0.34198271486759185
1789075610319018000,8.80101806640625,-1.6199579936027526,0.884637639683485,0.3916927944540977
1789075610328960800,8.810960693359375,2.097291135941446,-0.024628245300054547,-3.246278507974744
1789075610338903800,8.82090380859375,3.139396634618938,0.5836427687644958,-4.267110916998982
1789075610348846800,8.830846923828124,0.130789110904932,0.6044570087343454,-0.9635060092151164
1789075610358788900,8.840788818359375,-1.607331151741743,-0.3957540525436401,1.3213187458992004
1789075610368732000,8.85073193359375,-2.6481319975614546,-0.5351882421970368,1.7917209199309347
1789075610378675000,8.860675048828124,-1.7748389048434794,-1.4933651653438806,-0.3392038978040218
1789075610388618000,8.870617919921875,-0.08914631017893553,-1.5825854175418614,-2.061413474613428
1789075610398560800,8.880560791015625,1.8754174402713775,-0.2555471249520779,-3.429875079959631
1789075610408502800,8.890502685546876,1.7422842504583298,0.5410539193600415,-3.009913053354621
1789075610418445800,8.90044580078125,0.8331286939814686,1.1946914308488368,-2.1383494147777555
1789075610428388900,8.910388916015625,0.6731742788687348,1.3201461949884892,-2.6209815403074024
1789075610438332000,8.920331787109374,1.3821701049640773,1.5844968041211365,-2.2568764254808427
1789075610448275000,8.93027490234375,0.5942389815807342,1.9660697710990904,-1.3386895674169064
1789075610458217000,8.940217041015625,-1.0638710480228066,1.965376528137922,-0.06136252345740795
1789075610468160000,8.950159912109376,-1.715316894686222,1.4946148731440305,0.8531827632337808
1789075610478103000,8.96010302734375,-0.3930269656673073,0.18592939884662626,1.106390631583333
1789075610488045800,8.9700458984375,1.9726909428045152,-0.367471376389265,0.0447644398778677
1789075610497988000,8.979988037109376,0.3620081425473094,0.7688608044713735,0.5540811587154865
1789075610507931000,8.989930908203124,-2.4978172251924873,1.856861792883277,0.8262491636008024
1789075610517873700,8.999873779296875,-1.8098586341679095,1.3276058633446692,0.2979711391836405
1789075610527816700,9.009816650390626,1.1144815835803747,-0.19003391155600546,-0.48395665213167666
1789075610537759700,9.019759765625,1.3650921289131044,1.276896835848689,-2.7568063072919844
1789075610547701800,9.02970166015625,-1.0565329602196811,3.2908652531981466,-2.336668339598179
1789075610557644800,9.039644775390625,-0.8261459954872727,3.77549995072186,-0.4243371729493141
1789075610567587800,9.049587890625,0.9127885061517357,3.3287703287005423,-0.1069569844186306
1789075610577531000,9.05953076171875,1.466417244924605,3.6417753708869216,-1.3030769867658614
1789075610587474000,9.069473876953126,0.09172522075623274,3.337605377063155,-0.5321878913372755
1789075610597416000,9.079416015625,-1.7038111658096313,2.7098329591929913,2.5356349146723747
1789075610607359000,9.08935888671875,-2.3335946312412617,2.0775182217180728,4.398320883664488
1789075610617302000,9.099302001953125,-0.4822565702155232,0.3862970728904009,3.46592722107172
1789075610627245000,9.1092451171875,-1.1751149159803986,-1.9552710214480757,2.8222289197951556
1789075610637187800,9.119187744140625,-3.3099627523779867,-1.562119552618265,3.7415427360624074
1789075610647129900,9.1291298828125,-2.9827219718292355,-0.12451105354875325,4.995296012210845
1789075610657073000,9.139072998046874,-2.828755398954451,0.23515724787414072,6.571197421944141
1789075610667015700,9.149015625,-1.0684756192088127,-2.4191928935497997,6.309643165531754
1789075610676958700,9.158958740234375,-0.47481326847225425,-5.324338581484556,4.069278314390778
1789075610686901800,9.16890185546875,-2.1106527218177913,-2.8995237563997507,3.1281437114596367
1789075610696843800,9.17884375,-3.0321105643764135,-0.24287147551327942,3.084227412843704
1789075610706787000,9.188787109375,-2.4153195592477914,-0.3034583384230733,5.2465311191827055
1789075610716730000,9.198730224609376,0.07457944016605615,-3.105814975273609,6.292558759739995
1789075610726673200,9.208673095703125,0.6484624469384551,-4.233873541046679,3.7123645723730325
1789075610736616200,9.2186162109375,-1.2002157472282646,-1.365881817986071,0.057257426226139066
1789075610746558200,9.22855810546875,-1.6228054919883608,0.5500511725470424,-0.22555881392359733
1789075610756501200,9.238501220703125,0.32993571872115135,-0.0022682371929287908,2.3981547816962
1789075610766444300,9.2484443359375,1.6149766980588436,-1.7009218741089105,3.231648509597778
1789075610776387300,9.25838720703125,1.3369602594062686,-1.7783043889969585,0.5670470232725143
1789075610786330000,9.268330078125,-0.5412199235767126,-0.18671032009124755,-1.280986735510826
1789075610796273200,9.278273193359375,-1.1182079106271265,0.9341992507100104,-0.5314660068035125
1789075610806215200,9.288215087890626,0.16632862631976603,0.7499900997847319,1.5137065271049737
1789075610816158200,9.298158203125,1.2638576137945055,0.29878713174164295,1.7099264338195324
1789075610826101200,9.308101318359375,1.5080650140866636,0.5047188696533441,0.3150748341977596
1789075610836044300,9.318044189453126,0.7594236985623836,1.1000035608947276,-0.23706571184396744
1789075610845986000,9.327986083984374,-0.8017188257172704,1.2797381967544554,0.3278893075853586
1789075610855929000,9.33792919921875,-0.7823109454140067,1.0995020411133765,1.5531185000389813
1789075610865872100,9.3478720703125,0.08417349020242691,-0.12258300809562206,1.3625129260748623
1789075610875815200,9.357815185546874,0.23470365888774394,-2.047707605344057,0.43331601369678974
1789075610885758200,9.36775830078125,-0.1508390885040164,-3.876404210972786,-0.14839549474418162
1789075610895701200,9.377701171875,-0.6176163500368594,-3.4634009174644946,0.7539876449882984
1789075610905643300,9.387643310546874,-0.781420718576014,-1.7478636580258606,3.04450973496139
1789075610915586300,9.39758642578125,-1.8533987929478286,-1.8478800295263527,2.8758564650863407
1789075610925529300,9.407529296875,-1.3764559651009738,-1.505479381507635,1.7007798352897165
1789075610935472000,9.41747216796875,0.7680906968817114,-1.2996353218793868,-0.17912848666012285
1789075610945414400,9.427414306640625,2.0433555476143956,-0.09363806864023208,-1.7233014636993407
1789075610955357400,9.437357421875,0.2870660065487027,1.599457057365775,-0.6293190627902746
1789075610965300200,9.44730029296875,-1.5308395943440496,2.2607272556900977,1.090778636431694
1789075610975243300,9.4572431640625,-0.7802296090953051,1.135824231338501,0.27109716078341006
1789075610985186000,9.46718603515625,2.3250515515625474,0.5886521213591098,-1.8296049526453018
1789075610995129000,9.477129150390626,2.001987472176552,1.1102689343214034,-2.793251247113943
1789075611005071000,9.487071044921874,-0.19151713585108518,1.5192442874878644,-2.4904630630373954
1789075611015014100,9.49701416015625,-2.359933772112429,1.6669482928365469,-0.7570873645693064
1789075611024957200,9.506957275390626,-1.4518063896395266,0.7611918772786855,-0.4037240085095167
1789075611034900200,9.516900146484375,2.5708929827973246,0.19795944385826586,-1.8690683635056018
1789075611044843300,9.52684326171875,2.6606629778325557,0.7424281400978565,-3.3488036474257705
1789075611054785300,9.536785400390626,-0.9246014012813567,2.2785341305375097,-2.2539117304563523
1789075611064728300,9.546728271484374,-2.1709378253020346,2.4780028099149463,-0.7863403470605611
1789075611074671400,9.55667138671875,0.5917231993675232,1.5411206037312746,-1.230928280878067
1789075611084614400,9.566614501953126,2.7237095088541508,1.8740473209619521,-2.370342061141133
1789075611094557200,9.57655712890625,1.0596588371552527,2.9688685107827184,-1.516535028529167
1789075611104499200,9.586499267578125,-0.4767557808421552,2.9561230109781027,0.8069494198471308
1789075611114442000,9.59644189453125,-0.8159422891199588,2.219395712870359,2.9260657263666388
1789075611124385000,9.606385009765624,1.788579699295759,2.170775182086229,0.6373202906772494
1789075611134328000,9.616328125,2.8860756612837313,2.8168635933697224,-3.2043735491812226
1789075611144271000,9.62627099609375,0.5919499938607216,2.269426694974303,-2.5440704423233864
1789075611154213000,9.636213134765624,-0.5220705480791628,0.7481254749566316,-0.2537935592830181
1789075611164156200,9.64615625,-0.49871889858618373,0.0037000235617160797,1.0431263661578296
1789075611174099200,9.65609912109375,0.785044462031126,-0.20749416492283343,-2.021801302932203
1789075611184042200,9.666042236328124,1.3360602418266236,0.1505050342440605,-5.696359291741252
1789075611193985300,9.6759853515625,0.8422843526005744,-0.03693944534063339,-3.6236128144696353
1789075611203927300,9.68592724609375,-0.9650281042158603,-0.7573965766489505,-0.4508808964818716
1789075611213870300,9.695870361328126,-1.9525332670472562,-2.041162713745236,1.8558418021857737
1789075611223813400,9.7058134765625,-0.47712534480690955,-2.2494839771419763,-2.58815274515599
1789075611233756400,9.71575634765625,-0.35152678828239436,-1.2899322585105895,-2.9511355779543518
1789075611243699200,9.72569921875,-1.4223837496697902,-0.9103647861361504,1.3883938017845152
1789075611253641200,9.73564111328125,-0.9825321967244147,-0.9245306741327047,1.3432868320792912
1789075611263584300,9.745584228515625,-0.5513013187386095,-1.2571359043240546,-0.04645078552961349
1789075611273527000,9.755527099609376,-0.21868162163048982,-1.1894330719292163,-0.8000196205839514
1789075611283470000,9.765469970703125,-1.207914192776382,-0.1224023908317089,1.8105597681745886
1789075611293413000,9.7754130859375,-1.1866200603350996,0.792694684523344,4.200501140537858
1789075611303355100,9.785355224609376,1.4405740708768366,0.6586375117331743,0.04638385777324438
1789075611313298200,9.795298095703124,2.1949977691948415,0.7264484806776046,-1.9872820704758165
1789075611323241200,9.8052412109375,2.0238032904043792,0.3305377762675285,-2.914263644891977
1789075611333184300,9.815184326171876,0.5332534747421741,0.37093876023888583,-1.1161153222620486
1789075611343127300,9.825127197265624,-0.3032674920260906,0.7251987728774547,1.3160761690706013
1789075611353070300,9.8350703125,0.7647393406271934,0.6978828959286213,-0.9069663758695125
1789075611363012400,9.845012451171876,0.9920236631691455,1.3542407722920178,-0.9591770401000976
1789075611372955400,9.854955322265624,1.0907678227767348,0.9548545007258653,-0.8588537946075201
1789075611382898200,9.864898193359375,0.30979192535877226,0.6817208656787872,-0.11177870548665522
1789075611392841200,9.87484130859375,-0.2663584418237209,0.17375146979689596,-0.5045107798606157
1789075611402784000,9.884783935546874,-0.7666013351067901,-0.4467530028969049,-0.7261416066855192
1789075611412726300,9.894726318359375,-1.731963785843551,-0.5855062245488166,0.06008242051899433
1789075611422669000,9.9046689453125,-2.304043980977684,-1.0309224258840084,0.7708645455092191
1789075611432612000,9.914612060546874,-0.6792543294347823,-1.6798627194672822,-0.298926832473278
1789075611442555100,9.92455517578125,0.6087009299144148,-1.3974024531483649,-1.4158072938889263
1789075611452498200,9.934498291015625,-0.10181669892072677,-0.8602087163478136,-0.8648416368454694
1789075611462440200,9.944440185546876,-0.8029054051533341,-0.8188368415176868,-0.17384323973357677
1789075611472383200,9.95438330078125,-1.3218766720429063,-0.7349275552093982,0.5523813690602779
1789075611482326300,9.964326171875,-1.3436422213882206,-0.5696382088094949,0.6192208626240492
1789075611492269300,9.974269287109376,-0.5786787166163325,-0.17542378692328928,-0.02389057867527008
1789075611502212400,9.98421240234375,1.3757447480916976,0.430213956028223,-0.9790233118206262
1789075611512154000,9.994154052734375,1.7300854247510433,1.5685773504555225,-1.226362580397725
1789075611522097200,10.00409716796875,0.8121534182310104,2.176404127883911,-1.3382570212185383
1789075611532040200,10.014040283203125,-0.39375878707319495,2.5276158588677644,-0.9561135608762502
1789075611541983200,10.023983154296875,-0.17271452796459197,2.2490923474758864,-1.194228489512205
1789075611551926000,10.033926025390626,1.4036010155275462,2.0702309873193503,-2.5508219624102115
1789075611561868300,10.043868408203124,0.34345191063731906,2.9214520950913427,-2.8312276342868805
1789075611571811000,10.05381103515625,-1.2129095168456434,3.3762826059818267,-2.8784657708019017
1789075611581754000,10.063754150390626,-1.6918620770797133,2.7836048823684454,-1.338561557123065
1789075611591697200,10.073697265625,0.14625409880131482,1.4348235445261002,-1.8070219494372606
1789075611601640200,10.08364013671875,2.1553075638413426,0.703422409877181,-2.408996493706107
1789075611611583200,10.093583251953126,1.325019646243751,1.5387825161725281,-1.145147355479002
1789075611621525200,10.103525146484374,-0.8800710624203085,1.7053823606491088,-0.11050853942036629
1789075611631468300,10.11346826171875,-2.7011247520804402,1.9439082081735133,1.004438323584199
1789075611641411300,10.123411376953126,-3.6088393159687517,2.0980577363997694,1.856414049115777
1789075611651354400,10.133354248046874,-1.6590391271471976,2.4308108506292103,2.1917145097404718
1789075611661297400,10.14329736328125,0.8892378269553184,0.716854138380289,3.8984441933453082
1789075611671239200,10.1532392578125,1.0228142304912209,-2.0099463222265244,5.378018733745813
1789075611681182200,10.16318212890625,-2.0292247309312224,-2.838451740321517,7.289435123637318
1789075611691125200,10.173125244140625,-5.066189165079593,-2.0203414595127103,8.973507569754123
1789075611701067500,10.183067626953125,-2.1499252862811087,-2.5920178961515425,8.534523447293042
1789075611711010600,10.193010498046876,2.167054115736484,-5.69134584749341,5.049225755318999
1789075611720952600,10.20295263671875,-0.01304798988252878,-4.833412090340256,1.8555740911602974
1789075611730895600,10.2128955078125,-2.508821142026782,0.6605249329149723,-1.612232367786765
1789075611740838400,10.22283837890625,0.5476648619323968,5.952348899763822,-3.874393455672264
1789075611750781400,10.232781494140625,2.9575276170790192,4.704041906322539,-3.8791982256054878
1789075611760724500,10.242724365234375,1.33262164568007,2.2107938887417315,-6.210307177510857
1789075611770667500,10.25266748046875,-0.3435883964985609,3.800678815641999,-5.948516189733147
1789075611780609300,10.262609375,3.392462171888351,6.932387526106834,-2.2748399521946907
1789075611790552300,10.27255224609375,1.718543163256347,2.836543568612635,-2.0777999612689015
1789075611800495400,10.282495361328126,2.5170874505907297,0.09817191267758607,-4.143509671771526
1789075611810438400,10.2924384765625,0.9343371978759765,1.7686060018032788,-3.0694331638157366
1789075611820381400,10.30238134765625,-1.68557349832952,2.673210324716568,-0.3547977727770805
1789075611830323500,10.312323486328125,0.7197986673995852,3.687655955313146,1.4282804064929484
1789075611840266500,10.3222666015625,4.0386072817951435,3.4654876606106755,1.394263570600748
1789075611850209500,10.33220947265625,1.8577470512852072,3.125716776573658,0.1982896987259388
1789075611860152600,10.342152587890626,-1.5722247670471667,2.1563415830641985,-0.5778203462213277
1789075611870095600,10.352095703125,-3.095688425795734,0.3089543054908514,1.098579665571451
1789075611880037600,10.36203759765625,-3.0971041378125546,-2.3682705155640837,4.23666024915576
1789075611889980700,10.371980712890625,-1.7373358342707157,-6.122818863672018,6.894294234555959
1789075611899923500,10.38192333984375,-0.6979740813434123,-9.80222750738263,8.31344966982901
1789075611909866500,10.391866455078125,-0.9791349555015564,-9.991873296403885,6.496380373629927
1789075611919809500,10.4018095703125,-3.8229125670209525,-7.245162266668677,4.372159437447786
1789075611929752300,10.41175244140625,-5.853154366040229,-3.249086551132798,5.194989147993922
1789075611939694300,10.4216943359375,-3.7222228263035415,-2.045732505878806,9.049267451876402
1789075611949637400,10.431637451171875,0.3710486503541469,-2.603561618950963,9.782997906255721
1789075611959580400,10.441580322265626,3.424788862736523,-4.723671028161049,1.2348901702463626
1789075611969523500,10.4515234375,0.628574089641869,-1.6414181302607058,-3.5563773073256013
1789075611979466500,10.461466552734375,-4.613688850702345,4.029335595580935,-1.8584236353725194
1789075611989408500,10.471408447265626,-3.0688521490573883,4.62126103952229,-1.5276216552108526
1789075611999351600,10.4813515625,1.7236919243216513,3.382988241100311,-0.8612421510487794
1789075612009294600,10.491294677734375,3.0138027542695403,2.3152514575600622,-0.42470892887115475
1789075612019237600,10.501237548828126,0.8769067531704902,1.5297089828789234,0.20963819121420382
1789075612029180400,10.511180419921875,-1.6210919660687446,1.1275608453840016,1.7567174110889434
1789075612039122400,10.521122314453125,-1.9693948238685726,0.7811608985960483,3.4113013123929496
1789075612049065500,10.5310654296875,-0.4358744660079479,-0.3713777361780405,3.9870536201685667
1789075612059008300,10.54100830078125,0.3944154974162578,-1.5274328546404838,3.9701568459033965
1789075612068951300,10.550951416015625,-0.9094596539899706,-0.9014280309647321,2.667840906637907
1789075612078894300,10.560894287109376,-3.1109786416471,0.43223815533220766,1.7260393642306326
1789075612088837400,10.57083740234375,-2.280105617637932,0.946039326107502,1.5271522841334342
1789075612098779400,10.580779296875,3.7106311727091668,0.694343615886569,-0.5693640680432319
1789075612108722400,10.590722412109375,6.517208642125129,1.123727550831437,-1.8977374086290597
1789075612118665500,10.60066552734375,1.3113441721126435,1.9328595754146576,-0.8412959260851144
1789075612128608500,10.6106083984375,-3.098820586341619,1.1386901421636342,0.4054226291209459
1789075612138551600,10.620551513671876,-1.9057656706534325,0.4488537745684385,-1.2131833653509616
1789075612148493600,10.63049365234375,2.9394273122429846,1.0824164662778377,-5.539269618409872
1789075612158436600,10.6404365234375,1.9608369850121437,0.48093175135254856,-5.239148607715964
1789075612168379600,10.650379638671875,-0.7140377657853066,-0.14898703089654444,1.2284388021498918
1789075612178322400,10.660322509765624,1.283895170303434,-0.4430231687188148,3.3111773888647553
1789075612188265500,10.670265380859375,3.338392728048563,1.3906255063593387,0.877701702940464
1789075612198207500,10.68020751953125,2.4127638834156095,3.734812551024556,-2.141671837198734
1789075612208150300,10.690150390625,-0.033072102387994524,5.588337308439612,-2.290726672634482
1789075612218093300,10.70009326171875,-0.6042765376009047,5.022146609735489,-1.0629068791657685
1789075612228036400,10.710036376953125,1.9643663281820714,3.1838965783417223,-1.2635942866832017
1789075612237979400,10.7199794921875,3.505327503567934,2.065156168273091,-3.7622239973023532
1789075612247922400,10.72992236328125,1.7690601753115653,1.5955115346103905,-5.031612941738963
1789075612257864400,10.739864501953125,-1.4605391466714441,0.8791331970483064,-0.6215037128642201
1789075612267807500,10.749807373046876,-0.9287797098793089,-0.28702012158036233,1.9969880564540623
1789075612277750500,10.75975048828125,1.0989059749163688,0.2416150457113981,-1.587655560413003
1789075612287693600,10.769693603515625,1.9454444778300821,0.8935890079021453,-5.6835337124377485
1789075612297636600,10.77963671875,1.9265080144308506,1.1747516356259584,-5.720058731758594
1789075612307578600,10.78957861328125,-0.3633388066291809,0.30181904678344723,1.763368685671687
1789075612317521700,10.799521728515625,-0.3513816807232797,0.12478840918540954,2.9344851796656846
1789075612327464400,10.80946435546875,0.9172374483846127,0.1907908674031496,-2.882625520829856
1789075612337407200,10.8194072265625,1.3686157729946076,-0.3696002051115036,-4.339626994894445
1789075612347350300,10.829350341796875,0.9645474810920656,-1.1121692149847746,-2.760997621501982
1789075612357292300,10.839292236328125,-0.9666542441129684,-1.8060715168446302,0.679971976184845
1789075612367235300,10.8492353515625,-2.872359270620346,-1.818216712668538,6.290137670072912
1789075612377178400,10.859178466796875,-1.036562039206177,-1.0623469071954488,3.8895451398357745
1789075612387121400,10.869121337890626,1.3025553009793163,-1.625811395806074,-2.3667151028156277
1789075612397064400,10.879064453125,2.402648001462221,-2.4034061263531443,-4.4890036096304655
1789075612407007500,10.889007568359375,1.0354898799300194,-1.7367261779397725,-0.5253121603488922
1789075612416949500,10.898949462890625,-1.432153594664484,0.10384732796549796,5.059768776643276
1789075612426892500,10.908892578125,-5.098542451673746,1.8660533995985984,11.232277846157551
1789075612436835600,10.918835693359375,0.18519392417892813,0.1306932493150234,5.542639971625805
1789075612446778600,10.928778564453125,4.250880497688055,-0.2678787832587957,-3.2097324458658694
1789075612456721700,10.9387216796875,1.5246528685331344,1.6777040801286696,-0.715138566634059
1789075612466663400,10.948663330078125,-2.704260127496719,3.9163545285671946,5.6541544732183215
1789075612476606500,10.9586064453125,0.45406727143302555,3.8746903927922247,1.5062936204999684
1789075612486549500,10.968549560546874,5.848748240035772,3.339282370364666,-5.94504296066463
1789075612496492300,10.9784921875,3.1983284237980842,3.9824540174186227,-4.760213583138585
1789075612506435300,10.988435302734375,-0.18412220329418777,3.620996786752343,0.7834428720533847
1789075612516378400,10.99837841796875,-1.7452910310588776,2.473270520696044,3.255281898641586
1789075612526320400,11.0083203125,2.23935012114048,0.14824936427175997,-1.5489450137466192
1789075612536263400,11.018263427734375,2.118204452371597,0.9096475777775048,-2.2858809861689804
1789075612546206500,11.02820654296875,0.4846598319649696,0.8595230721712112,-1.4692565600037575
1789075612556149500,11.0381494140625,0.7070226263262331,-0.3289420315086841,-2.4855162542849776
1789075612566092500,11.048092529296875,0.39570159170404073,-0.7696814732044934,-3.2172821305930612
1789075612576034600,11.05803466796875,-0.435154335039854,-0.9505348839610814,-2.753228448805213
1789075612585977600,11.0679775390625,-1.1441947309292853,-1.437848445305228,-0.9948767145127058
1789075612595920600,11.077920654296875,-1.389254218006134,-1.9145751461833713,0.3158516637891531
1789075612605863700,11.08786376953125,-0.03597381517887115,-2.3856290621221063,-0.5151479092091321
1789075612615806500,11.097806396484375,0.7888345019638537,-2.438168812176585,-1.4740022932261228
1789075612625749200,11.107749267578125,-0.3962731079816818,-2.1400357604295013,-1.1655173588126897
1789075612635691500,11.11769140625,-1.8282348333358764,-2.203983624204993,0.26997838588654993
1789075612645634300,11.12763427734375,-1.7621262843951582,-2.418640520364046,0.27336861284673214
1789075612655577300,11.137577392578125,-0.20397636606022715,-2.5954811883479354,-1.7091712315380572
1789075612665520400,11.147520263671876,0.9873774447984993,-1.5545371346652508,-2.3945132103234528
1789075612675463400,11.15746337890625,0.7449155729994177,-0.3981827409952879,-1.638290353628993
1789075612685405400,11.167405517578125,-0.27802432969808577,-0.23222470155358313,-1.1016700328022242
1789075612695348500,11.177348388671875,-0.3478489765524864,-0.43115795888006686,-1.2506284221261739
1789075612705291500,11.18729150390625,0.5213114002749324,-0.1080026940792799,-1.661785795506835
1789075612715234600,11.197234619140625,0.2295613275632262,1.5007278030663729,-2.2593401852458714
1789075612725177600,11.207177490234375,-2.097176277390122,3.5016543680131433,-3.200601629427075
1789075612735120600,11.21712060546875,-2.562448979578912,4.180238104709983,-3.4785353582322593
1789075612745062700,11.227062744140625,0.05997632979601621,4.451252847906947,-4.019757619896531
1789075612755005700,11.237005615234375,1.6363085321620106,4.910700497204065,-4.385456725916266
1789075612764948500,11.246948486328124,0.4471469706505537,5.6599739731520415,-4.705711008578539
1789075612774891500,11.2568916015625,0.06123918933868408,6.6833379464805125,-4.300593499884009
1789075612784834600,11.26683447265625,0.9645604867041111,6.701219055607915,-3.3153310014128685
1789075612794776600,11.276776611328126,1.883698946404457,4.640332819738984,-1.9966852741152048
1789075612804719600,11.2867197265625,0.480186778204143,2.709578107649088,0.02248889518380165
1789075612814662700,11.29666259765625,-3.1565327705979347,2.6880916675060984,1.5455594629615543
1789075612824605700,11.306605712890626,-3.311099355192482,2.17659234393239,2.8121903408616777
1789075612834548500,11.316548583984375,-1.0471776873752474,1.3280050917953252,3.2131209192603825
1789075612844490500,11.326490478515625,-0.4233724195703864,0.18975158748328685,3.9365281325459476
1789075612854433500,11.33643359375,-0.8604781809389591,-0.13750176028609276,5.07296494282484
1789075612864376600,11.34637646484375,-1.9159449732318519,-0.5783803181916475,6.260594180202483
1789075612874319600,11.356319580078125,-2.757048299354315,-2.308967554984987,7.518346755120158
1789075612884262700,11.3662626953125,-4.187942687737942,-3.521267707760632,9.223761264473199
1789075612894205700,11.376205810546875,-5.350024811404944,-2.770363708001375,10.563180315208434
1789075612904147700,11.386147705078125,-4.623158105315268,-1.5895137555003165,8.911479275864362
1789075612914090800,11.3960908203125,-0.7845353434652089,-2.946543281728029,3.1379286078929898
1789075612924033500,11.406033447265624,0.3430909683704376,-4.569369816504419,1.6980857739001511
1789075612933976600,11.4159765625,-2.0660186303213237,-3.1647870964631437,3.1395430573523044
1789075612943919600,11.425919677734376,-4.134742427948117,0.2314493332669139,6.12848404982686
1789075612953861400,11.435861328125,-1.6927520116567611,2.131909152597189,4.314578186094761
1789075612963804400,11.445804443359375,1.6074024634122848,-0.49789574563503264,3.4559307277143
1789075612973747500,11.45574755859375,1.2904355318576097,-4.462537627509236,2.043270499679446
1789075612983690500,11.4656904296875,-1.7110937240332365,-2.2863097329750657,0.6777203978657722
1789075612993633500,11.475633544921875,-3.233632961413264,2.758037310391664,1.5851029533207415
1789075613003576600,11.48557666015625,0.7522963309004902,3.0869547919809817,2.740967517647147
1789075613013518600,11.4955185546875,2.9569439719721675,-1.5914342021688819,2.4462141714662313
1789075613023461600,11.505461669921875,0.8829621076866984,-2.9316239450156685,-0.8932195900678634
1789075613033404700,11.51540478515625,-1.255255205143988,0.4978299869224429,-2.4071102415680885
1789075613043347700,11.52534765625,-1.582511475522816,2.385751227197051,0.10797755963802337
1789075613053290500,11.53529052734375,1.4264146126210688,1.4212290266767142,2.3503818076521155
1789075613063232800,11.545232666015625,2.8736919805288315,0.1435191208794713,0.8036848650932311
1789075613073175600,11.555175537109376,1.19226098883152,0.6736515409916639,-2.613846866121888
1789075613083118600,11.56511865234375,-1.1863944348856805,1.5401263319969176,-3.5276959872424603
1789075613093061600,11.5750615234375,-0.8461211542844772,1.3005343165457248,-0.3339928851574659
1789075613103004700,11.585004638671874,1.1754463398918509,0.08451309742033482,2.069155467042327
1789075613112947700,11.59494775390625,2.3600714270174503,-1.5202099176496267,1.9059376662194727
1789075613122889500,11.604889404296875,1.9485329453647136,-3.1043127540171143,-0.16861176882088183
1789075613132832500,11.61483251953125,-1.8301511883512138,-4.10674382943213,-1.5761282042264937
1789075613142775600,11.624775634765625,-5.0119139695346355,-2.7739883282393216,0.7393862881839275
1789075613152718600,11.634718505859375,-3.4846304602369664,-1.7057915259718894,3.2478198921978474
1789075613162661600,11.64466162109375,-0.32148791611045596,-1.6592893025159834,4.225630321097373
1789075613172603600,11.654603759765624,1.347757840013504,-2.392975917753577,3.3771389305502173
1789075613182546700,11.664546630859375,0.2146951823428273,-0.7297013449937104,1.8552718933433294
1789075613192489700,11.67448974609375,-2.567394911548495,1.9666104538470506,1.3992828600674867
1789075613202432500,11.6844326171875,-2.8000986287906766,2.8378853386104104,0.24883272200524806
1789075613212375600,11.69437548828125,-1.3986752495631576,2.6980788085132836,0.04422901782691478
1789075613222318600,11.704318603515626,2.14222976334244,2.227126599383354,-1.606454368907213
1789075613232260600,11.714260498046874,2.482536946213245,2.509785018622875,-2.727239436545968
1789075613242203400,11.724203369140625,-0.6887234379172325,2.647424141553044,-1.7325094370275735
1789075613252146400,11.734146484375,-1.6855394499294458,1.2913053004294632,-0.4334995535701513
1789075613262089500,11.74408935546875,0.39680969907641406,-0.29075229384601115,0.11070260068774222
1789075613272032500,11.754032470703125,2.9034324542760848,-0.7257751114606857,-0.6953367185771465
1789075613281974500,11.763974609375,1.2407599390625952,-0.105413846629858,-1.2594412586569785
1789075613291917600,11.77391748046875,-2.354748770689964,-0.9630781391918659,0.1074538280248642
1789075613301860600,11.783860595703125,-2.6688448229834436,-1.8909861808031796,1.884670421785116
1789075613311803600,11.7938037109375,-0.07433598679900169,-2.779241426461935,2.4291256740212437
1789075613321746700,11.80374658203125,3.113042003917694,-2.4327672453939915,0.8311474570363759
1789075613331689500,11.813689453125,3.324583982926607,-0.9355682009756564,-1.4996692339241504
1789075613341631700,11.8236318359375,-0.26441797528043387,0.5144815542548895,-0.31892975606024265
1789075613351574800,11.83357470703125,-0.647300709682703,0.3889052095621824,0.8501789052426815
1789075613361517600,11.843517578125,0.36635391666665673,-0.08613339209854602,1.4617390239804982
1789075613371460600,11.853460693359375,2.057105548286438,0.341850028398633,0.6040203708827495
1789075613381403600,11.863403564453124,2.0892308713436125,1.8607272361397742,-0.33394670792818065
1789075613391345400,11.873345458984375,0.6714284581147134,3.4265725312829014,-1.1498667852163313
1789075613401288400,11.883288330078125,0.2045626415155828,3.822555131885409,-1.4631173265963793
1789075613411231500,11.8932314453125,1.1855224743567407,3.736526369205117,-1.1529437084436416
1789075613421174500,11.903174560546875,1.4560590786479413,3.691169808652997,-3.8646564900338647
1789075613431117600,11.91311767578125,1.3774725947976112,4.321435212382674,-3.435745725558698
1789075613441060600,11.923060546875,1.9568881012558936,4.3290830967873335,-3.2969343439787626
1789075613451002600,11.933002685546874,1.6772912615440785,4.0260564277797934,-4.84526677878499
1789075613460945700,11.942945556640625,1.362220957390964,3.5720156059622763,-5.049979204034805
1789075613470888700,11.952888671875,1.1261479098461569,2.62857681774199,-4.348739983415603
1789075613480831700,11.962831787109375,0.5725964740931987,1.5699679280310868,-3.341096434049308
1789075613490774500,11.9727744140625,-0.14962372136488555,0.9835849206477403,-1.930195324641466
1789075613500717600,11.982717529296876,-0.22978140005469322,0.21902619728446004,-1.9649059880167246
1789075613510659600,11.99265966796875,-0.1859970572553575,-0.19164193127453327,-2.727919527764618
1789075613520602600,12.0026025390625,-0.9721638013146817,-0.6231383283287286,0.031956396231055256
1789075613530545400,12.01254541015625,-1.1489442635439335,-0.8034715146034955,2.2065435378208753
1789075613540488400,12.022488525390624,-0.8957971854709088,-0.3437999934226274,3.8068653953224416
1789075613550431500,12.032431396484375,0.1876106299318373,0.026710312271118163,2.4850486367732283
1789075613560373500,12.04237353515625,1.0412417214550078,0.17143033337295055,0.6306734000086784
1789075613570316500,12.052316650390624,0.7839866235412657,0.27726737385094163,1.1472311760157345
1789075613580259600,12.062259521484375,-0.013932517632097005,-0.03896364464461803,3.197173993065953
1789075613590202600,12.07220263671875,-0.6413875401161611,-0.6675462098538876,4.650377243891358
1789075613600145700,12.082145751953124,-0.15185747176632283,-1.5100006583243608,3.5768192068517206
1789075613610088700,12.092088623046875,0.4337339468479156,-1.8489941282480955,1.8157272339403627
1789075613620030700,12.10203076171875,0.5450877049207687,-1.6252596071422099,1.8888491687744855
1789075613629973800,12.111973876953124,-0.3290554287552833,-1.2720973266124724,3.4969565655857324
1789075613639916500,12.12191650390625,-0.7188814064241945,-1.5276964740127323,4.087282173115015
1789075613649859600,12.131859619140625,0.5331856702029705,-1.9798615650862454,2.1574790626615283
1789075613659802600,12.141802734375,1.4363935703217983,-2.2185428954333064,0.19117723637223244
1789075613669745700,12.15174560546875,1.1000209504209457,-2.051512258324027,-0.33120296217799183
1789075613679687400,12.1616875,-0.4121533986806869,-1.1703875951975584,0.7870891196012496
1789075613689630500,12.17163037109375,0.7697839106656611,-0.7907488111525773,-0.21879881826937198
1789075613699573500,12.181573486328125,1.4963471037641167,-0.422974067902565,-1.973746881598234
1789075613709516500,12.1915166015625,1.7037863236293196,-0.1570142700076103,-2.6700340327680108
1789075613719459600,12.20145947265625,2.025266494824737,0.05270224713981151,-1.9724346299558877
1789075613729401300,12.2114013671875,-0.4381076318874955,1.1789297980934381,-0.9304653248786926
1789075613739344400,12.221344482421875,-3.6652430479750033,1.2306009486198424,1.2571604542434214
1789075613749287400,12.231287353515626,-1.249438627819717,0.5352689062178134,-4.193084726801515
1789075613759230500,12.24123046875,2.7646412387013433,1.9577070164233445,-5.685291369760036
1789075613769173500,12.251173583984375,3.6627918554306027,2.8998703778803345,-5.831654481893778
1789075613779116300,12.2611162109375,3.29421573266983,3.1195687753379344,-5.324413400286436
1789075613789058600,12.27105859375,2.861896036534011,3.1459318816065784,-5.879713871663808
1789075613799001300,12.28100146484375,2.3203885281875727,3.5239719982832667,-6.315565541318058
1789075613808944400,12.2909443359375,1.3854323216304183,3.934390535995364,-6.350166899099945
1789075613818887400,12.300887451171874,-0.5408598580926657,3.7406408187866207,-5.058482828485966
1789075613828830500,12.31083056640625,-0.6748316906869412,3.2426246616423127,-3.5958512395799156
1789075613838773500,12.3207734375,-0.3602615911409259,2.340221063643694,-2.6480630239784717
1789075613848715500,12.330715576171874,-0.9539014377847314,1.6187416035503148,-1.5235387698113918
1789075613858658600,12.340658447265625,-1.3981544405594468,1.2213035434424877,-0.9181558784037828
1789075613868601600,12.3506015625,-1.6937179340794681,1.254397419270873,0.10743979949951171
1789075613878544600,12.360544677734374,-1.4693299175009131,1.512872414368391,-0.046185412591695785
1789075613888487700,12.37048779296875,-0.18569295974224806,1.7764444403439759,-0.010568155765533447
1789075613898430500,12.380430419921876,0.05327770894020795,1.7227537666887043,0.9294979411512613
1789075613908372500,12.39037255859375,-0.7231108606874942,1.1511007109254598,1.9250772509753702
1789075613918315500,12.4003154296875,-1.7894988599672912,0.24458617047667502,2.715922508239746
1789075613928258300,12.41025830078125,-2.659609084865451,0.33006665162444115,3.0715351045310495
1789075613938201300,12.420201416015624,-2.8926795895934103,1.0256769264459609,2.8086335251629353
1789075613948144400,12.430144287109375,-2.2275471628829835,0.6457464659780263,3.34296719635725
1789075613958086400,12.44008642578125,-1.119270279161632,-0.18848025237321853,4.076910416704416
1789075613968029400,12.450029541015626,-1.040376775188744,-0.9171417329251765,5.5181005736529825
1789075613977972500,12.459972412109375,-1.8229156841397285,-1.7474691057503222,7.043072591137886
1789075613987915500,12.46991552734375,-2.3206670528680085,-2.8303490978866814,7.4416855402439825
1789075613997858600,12.479858642578124,-2.260287110707164,-3.5276036327838898,6.701437082272768
1789075614007801600,12.489801513671875,-2.115437033484876,-2.9840923833996054,5.638181243538856
1789075614017743400,12.499743408203125,-2.0244611697912216,-1.9876447663083672,4.385093153300881
1789075614027686400,12.509686279296876,-2.3679238940835,-0.6003481121107935,3.764518537980318
1789075614037629400,12.51962939453125,-1.5466373213261364,0.5348045035764575,2.637349906784296
1789075614047572500,12.529572509765625,-0.21091829415261745,0.3260875188603997,0.9271551774173974
1789075614057515300,12.539515380859376,-0.39608372288942334,0.3941846112698316,-0.23160569287240504
1789075614067458300,12.549458251953125,-0.377633873963356,0.31162732409238814,0.9942138666898012
1789075614077400300,12.559400390625,0.4159101208657026,-0.08990151246041059,1.0976070211470126
1789075614087343400,12.56934326171875,0.6997840533748269,-0.4923620769053697,0.7809533933252095
1789075614097286400,12.579286376953124,-0.03180500506162643,0.5045961200565099,1.6514251450121402
1789075614107229400,12.5892294921875,0.7995806446447968,0.8854445721521973,0.24322832612693307
