time,seconds_elapsed,z,y,x
1789075601569378300,0.05137841796875,-8.258622685620189,-5.271791817167401,0.41682844128701835
1789075601579321300,0.0613212890625,-8.2552441490978,-5.276210218131542,0.42771501535195855
1789075601589263400,0.071263427734375,-8.252537812748551,-5.279504583501815,0.43913014333564787
1789075601599206400,0.081206298828125,-8.24526460687518,-5.290421114313602,0.4443406810581684
1789075601609149200,0.091149169921875,-8.232326214846967,-5.310841971051692,0.4406218797307461
1789075601619092200,0.10109228515625,-8.215302599331736,-5.337912933328748,0.4311395464405417
1789075601629034200,0.1110341796875,-8.197606199121475,-5.365803395295143,0.4216542174756527
1789075601638977300,0.120977294921875,-8.183073231378197,-5.388534867063164,0.4139858748048544
1789075601648920300,0.13092041015625,-8.174344565999508,-5.401829817444086,0.41316776335500177
1789075601658862300,0.1408623046875,-8.168314053663611,-5.410243425524235,0.4222547771846875
1789075601668805400,0.150805419921875,-8.157791490605472,-5.424560120168328,0.44155371722076087
1789075601678748400,0.16074853515625,-8.137405120658874,-5.452651657664775,0.47076556398402897
1789075601688692000,0.17069189453125,-8.096693755564093,-5.510229986408352,0.5013055906111374
1789075601698634000,0.180634033203125,-8.037105840563774,-5.592365248781443,0.5484166666803881
1789075601708577000,0.190576904296875,-7.972007637709379,-5.677672711449861,0.617665084549412
1789075601718519800,0.200519775390625,-7.912575790053606,-5.756645125877857,0.6500545384354889
1789075601728462800,0.210462890625,-7.867411537203192,-5.823697969931364,0.5989688961794599
1789075601738404900,0.22040478515625,-7.838406976515055,-5.875106670129298,0.461392207493633
1789075601748347600,0.23034765625,-7.834614013972878,-5.891837440177798,0.27470163328247144
1789075601758290700,0.240290771484375,-7.8553271316558115,-5.870009054729342,0.08496806551306509
1789075601768233700,0.250233642578125,-7.890686614328622,-5.822265306779742,-0.09316908115530385
1789075601778175700,0.26017578125,-7.9293691039443015,-5.763772785800695,-0.2727890776594169
1789075601788118800,0.270118896484375,-7.9627990798592565,-5.705500045052171,-0.4598712450040504
1789075601798061800,0.280061767578125,-7.989444510200619,-5.651162890186906,-0.6352317939653992
1789075601808004900,0.2900048828125,-8.00731100628078,-5.607286339059471,-0.7821076779268682
1789075601817947000,0.29994677734375,-8.011306213396788,-5.586685449579358,-0.8822177190601825
1789075601827890000,0.309889892578125,-8.001693750920891,-5.589052178710698,-0.9517259934417903
1789075601837833000,0.3198330078125,-7.973970462214946,-5.607044346997141,-1.071090624012798
1789075601847776000,0.32977587890625,-7.918700994935631,-5.642508459088206,-1.2754051359862089
1789075601857718000,0.339718017578125,-7.829697600358724,-5.709572993579506,-1.5056532767698168
1789075601867660800,0.349660888671875,-7.712509144783019,-5.815206035917997,-1.6943917416878043
1789075601877603800,0.359603759765625,-7.587340211847424,-5.933170152041316,-1.8439466356001792
1789075601887547000,0.369546875,-7.47057904177308,-6.034539107194543,-1.9862462976872919
1789075601897489000,0.379489013671875,-7.368437933203578,-6.112115683349967,-2.125687939994782
1789075601907432000,0.389431884765625,-7.278872228568792,-6.16539251550734,-2.2751554478846487
1789075601917375000,0.399375,-7.193669979840517,-6.196413092193007,-2.4547832623690367
1789075601927317800,0.40931787109375,-7.103630227953195,-6.210590670627355,-2.671589445516467
1789075601937260000,0.419260009765625,-7.001020332828164,-6.211940331670641,-2.927096822980046
1789075601947202800,0.429202880859375,-6.8982461870521306,-6.190230019643902,-3.204002085520327
1789075601957145900,0.439145751953125,-6.804219411355256,-6.143295249989628,-3.483231991615891
1789075601967089000,0.4490888671875,-6.703477648189663,-6.081838033986092,-3.774257549445331
1789075601977031000,0.459031005859375,-6.587364712890982,-6.021214930719137,-4.064723427565395
1789075601986973700,0.4689736328125,-6.468030477458238,-5.97090922332704,-4.322408149068058
1789075601996916700,0.478916748046875,-6.364926076814532,-5.924592877832055,-4.53401647131145
1789075602006859800,0.48885986328125,-6.296333017581701,-5.867526590263843,-4.700926989172399
1789075602016801800,0.4988017578125,-6.276722308182716,-5.786335915264487,-4.826122517853975
1789075602026744800,0.508744873046875,-6.305793504366278,-5.677220291507243,-4.916962480208277
1789075602036688000,0.51868798828125,-6.36364246674478,-5.545596483343839,-4.992073543033004
1789075602046631000,0.528630859375,-6.431467464214563,-5.40155976833105,-5.062584418585896
1789075602056573000,0.538572998046875,-6.497778549990057,-5.2562067100226875,-5.130452670675516
1789075602066516000,0.548515869140625,-6.551304388472437,-5.115709275051951,-5.203875634282827
1789075602076459000,0.558458984375,-6.593032821655273,-4.974368959516287,-5.287528315481543
1789075602086401000,0.568401123046875,-6.646083443841338,-4.8232332261532544,-5.360632130137086
1789075602096344000,0.578343994140625,-6.73106766590476,-4.664769926381111,-5.394722615787386
1789075602106286800,0.588286865234375,-6.846911136612296,-4.504840645709634,-5.384848872026801
1789075602116230000,0.59822998046875,-6.9781754638135425,-4.341086253792048,-5.35073968167603
1789075602126172000,0.608171875,-7.123451365232468,-4.180071515971422,-5.287137854859233
1789075602136115000,0.618114990234375,-7.272127430483699,-4.0286140033081175,-5.201617626222967
1789075602146057700,0.6280576171875,-7.410144154554605,-3.8900428602248427,-5.111528189975023
1789075602156000800,0.638000732421875,-7.540415963587164,-3.7640927137836813,-5.014391173303127
1789075602165942800,0.64794287109375,-7.6731573776036495,-3.6436458409339187,-4.900702250280976
1789075602175885800,0.6578857421875,-7.8093258434593675,-3.5252179066911338,-4.770497953526675
1789075602185828900,0.667828857421875,-7.944633308571577,-3.4167592855378985,-4.623736781986057
1789075602195772000,0.67777197265625,-8.073542012557386,-3.331210707589984,-4.459970699630677
1789075602205714000,0.6877138671875,-8.191128527539968,-3.277850288802385,-4.281529610712826
1789075602215657000,0.697656982421875,-8.295447564670443,-3.2610771409168837,-4.089169886557758
1789075602225599700,0.707599853515625,-8.379111351785063,-3.282346723438799,-3.897060337771475
1789075602235542800,0.717542724609375,-8.434522273361683,-3.3369366840213535,-3.7274753400042653
1789075602245484800,0.72748486328125,-8.46384364491403,-3.4156486939474937,-3.5870711362749335
1789075602255427800,0.737427734375,-8.474632749953866,-3.508061312445998,-3.470516886949539
1789075602265371000,0.747370849609375,-8.472771632257103,-3.609918051116168,-3.369127765791118
1789075602275314000,0.75731396484375,-8.45945914621949,-3.7215979724034667,-3.2798841327175494
1789075602285256000,0.767255859375,-8.434194356581568,-3.8429505619212985,-3.2041347719892856
1789075602295199000,0.777198974609375,-8.396493279218673,-3.9727477391794324,-3.1442911286622284
1789075602305142000,0.78714208984375,-8.348275484016536,-4.110587060856819,-3.095118809214234
1789075602315085000,0.7970849609375,-8.294816281029581,-4.254993193703889,-3.0432611962050196
1789075602325027000,0.807027099609375,-8.239443353375792,-4.401140032738447,-2.9852842235326764
1789075602334969900,0.816969970703125,-8.184730350935459,-4.544564461071789,-2.9201898200705645
1789075602344912600,0.82691259765625,-8.133656581780315,-4.679289450120925,-2.8492580887570975
1789075602354855700,0.836855712890625,-8.088423355346917,-4.800784955240786,-2.774934376917779
1789075602364798000,0.8467978515625,-8.050028450500964,-4.9073926878303284,-2.699058759461343
1789075602374740700,0.85674072265625,-8.018353209298848,-4.999366622650623,-2.6234949844330546
1789075602384683800,0.866683837890625,-7.991730575311183,-5.079761763358116,-2.5492443378299474
1789075602394626800,0.876626708984375,-7.967991387805342,-5.151949047690629,-2.477683953224122
1789075602404568800,0.88656884765625,-7.946818835917115,-5.216942621126771,-2.4087270291149614
1789075602414511900,0.896511962890625,-7.928282477751374,-5.275534510827065,-2.341252160257101
1789075602424455000,0.906454833984375,-7.910805857771635,-5.328980269810557,-2.278486784264445
1789075602434398000,0.91639794921875,-7.89309776712358,-5.379270195111632,-2.2210000793270765
1789075602444340000,0.926340087890625,-7.875481446412206,-5.425785278049111,-2.1698010763570665
1789075602454282800,0.93628271484375,-7.859960052153467,-5.46500786589086,-2.127228155174106
1789075602464225800,0.946225830078125,-7.849079177176952,-5.49367281936109,-2.0932975362606348
1789075602474168800,0.9561689453125,-7.845708239439129,-5.509034639143944,-2.0653768252864477
1789075602484110800,0.96611083984375,-7.851881959637999,-5.509923112416267,-2.039381967808306
1789075602494054000,0.976053955078125,-7.867417382422089,-5.498345487347245,-2.0105546633832154
1789075602503997000,0.985996826171875,-7.890566787341236,-5.475625706017017,-1.9816291592806576
1789075602513940000,0.99593994140625,-7.917817782360315,-5.444758274066448,-1.9578429177626966
1789075602523882000,1.005882080078125,-7.944619280046224,-5.410863018727302,-1.9431854468569159
1789075602533825000,1.015824951171875,-7.9671379858464,-5.378561754581332,-1.9406613352067767
1789075602543767800,1.025767822265625,-7.984461461091041,-5.3503661721885205,-1.9473934199407696
1789075602553710800,1.0357109375,-7.998940068298578,-5.324793339514732,-1.958038878726214
1789075602563653000,1.045653076171875,-8.013140443086623,-5.300169185867905,-1.9667678363658487
1789075602573595600,1.055595703125,-8.027817203214765,-5.2771863696873185,-1.968713271345198
1789075602583538700,1.06553857421875,-8.04197783051431,-5.257856230795383,-1.9626311749525367
1789075602593481700,1.075481689453125,-8.052921833854914,-5.244330394268036,-1.9539269133627413
1789075602603423700,1.085423828125,-8.05570415804982,-5.240660181322694,-1.9523044267274439
1789075602613366800,1.09536669921875,-8.046469881236552,-5.2491684819489715,-1.9674699932858346
1789075602623309800,1.105309814453125,-8.022711989030242,-5.26925733025372,-2.01032684597671
1789075602633252900,1.1152529296875,-7.982759917870164,-5.299326889824867,-2.088794671883434
1789075602643195000,1.12519482421875,-7.924722154921293,-5.3383425569176675,-2.2070932806581256
1789075602653138000,1.135137939453125,-7.847432579013705,-5.385684153807163,-2.362750729229301
1789075602663081000,1.1450810546875,-7.751392125406861,-5.439954673177003,-2.548174662771821
1789075602673024000,1.15502392578125,-7.64014533483982,-5.498350748044252,-2.7507655658230186
1789075602682967000,1.164967041015625,-7.512313904696702,-5.560598237642646,-2.96905263517797
1789075602692909000,1.174908935546875,-7.358601014322042,-5.6253077334403985,-3.2213810903444884
1789075602702852000,1.18485205078125,-7.16906336185038,-5.688605608874559,-3.523447389887273
1789075602712795100,1.194795166015625,-6.946675579178333,-5.734798620250821,-3.8763597873091697
1789075602722738000,1.204738037109375,-6.70137629199624,-5.742417863082886,-4.276280604143441
1789075602732680000,1.214679931640625,-6.447172982868552,-5.7112230988740915,-4.688952181479334
1789075602742623000,1.224623046875,-6.205878839674591,-5.633845260161161,-5.090897489878535
1789075602752565800,1.234565673828125,-6.00830401121974,-5.499574152359366,-5.4612599115341895
1789075602762508800,1.2445087890625,-5.883623738583922,-5.306678421631455,-5.7786254870176315
1789075602772450800,1.254450927734375,-5.825131217604875,-5.0627568525433535,-6.050349839788675
1789075602782393900,1.264393798828125,-5.78088524864316,-4.790554945388436,-6.308909590560197
1789075602792337000,1.2743369140625,-5.707397403106093,-4.516504780018329,-6.572455897572636
1789075602802280000,1.284280029296875,-5.583615540614724,-4.25596233099699,-6.846926334181427
1789075602812222000,1.294221923828125,-5.414585254120826,-4.018122712171078,-7.120908110490441
1789075602822165000,1.3041650390625,-5.215285501569509,-3.801624572059512,-7.383686355739831
1789075602832108000,1.31410791015625,-5.005042914721369,-3.598728548581898,-7.62686616654992
1789075602842051000,1.324051025390625,-4.781360123802721,-3.379799674192071,-7.866761548861861
1789075602851992800,1.333992919921875,-4.476155526234209,-3.0816917568862436,-8.163184874081612
1789075602861935900,1.343935791015625,-4.085614824424684,-2.7958094071641564,-8.46531780911982
1789075602871879000,1.35387890625,-3.67125485561043,-2.6671687064647673,-8.693588804611563
1789075602881822000,1.363822021484375,-3.212562700855732,-2.69355344004333,-8.865359329724312
1789075602891764000,1.373763916015625,-2.74064427704215,-2.833314669694006,-8.979508271473646
1789075602901707000,1.38370703125,-2.2954449333280325,-2.990304097521305,-9.053143416526913
1789075602911650000,1.393650146484375,-1.9618422165319322,-3.105721451771259,-9.092637222525477
1789075602921592800,1.4035927734375,-1.77991503906399,-3.1295988787040114,-9.12183701352477
1789075602931535000,1.41353515625,-1.7146753819122909,-3.0646289784044027,-9.156327896669506
1789075602941478000,1.423477783203125,-1.7126536668263375,-2.939055556321144,-9.19777985099852
1789075602951421000,1.4334208984375,-1.7327110970795154,-2.7805200680956244,-9.243204216089843
1789075602961364000,1.443364013671875,-1.7511881262734532,-2.6072341699838635,-9.290104498952626
1789075602971305700,1.4533056640625,-1.7756630807079374,-2.4244416078582405,-9.334853156739472
1789075602981248800,1.463248779296875,-1.8060098497852681,-2.2323498869895935,-9.376851054513454
1789075602991191800,1.47319189453125,-1.8049568336009978,-2.0410358724951743,-9.420545234811305
1789075603001134800,1.483134765625,-1.7617847774811088,-1.862279434017837,-9.465644605731963
1789075603011076900,1.493076904296875,-1.6786238253220915,-1.6973885854162274,-9.511649985581636
1789075603021020000,1.50302001953125,-1.5708533325634897,-1.5406453874349593,-9.556631283080577
1789075603030963000,1.512962890625,-1.4629697348192334,-1.375493988201022,-9.598860651522875
1789075603040906000,1.522906005859375,-1.3620814027898014,-1.1887057075027376,-9.638572484186291
1789075603050848000,1.532847900390625,-1.2569528028421104,-0.9939524392746388,-9.674839729353785
1789075603060791000,1.542791015625,-1.144886731781438,-0.8251572036456316,-9.704573773360252
1789075603070734000,1.552734130859375,-1.0311259125668555,-0.6934843687087296,-9.727602766770124
1789075603080677000,1.562677001953125,-0.9197847947798669,-0.5782741909360513,-9.746281748276948
1789075603090620200,1.5726201171875,-0.8162159184295683,-0.45837413831409063,-9.761868024465441
1789075603100562000,1.58256201171875,-0.7390204505462199,-0.3365441405428573,-9.772971017760037
1789075603110505000,1.5925048828125,-0.7272652769532054,-0.23850241184988988,-9.776736507773398
1789075603120448000,1.602447998046875,-0.7729640750717371,-0.16249127664659171,-9.774790049880743
1789075603130390800,1.612390869140625,-0.8674629252597689,-0.09837369146053679,-9.767712658840418
1789075603140333000,1.6223330078125,-0.9893599238526075,-0.04037968545500189,-9.756533093178271
1789075603150275800,1.63227587890625,-1.1147443261697887,0.01943491900723893,-9.743067462405563
1789075603160219000,1.642218994140625,-1.2317173854291439,0.08979111088849603,-9.728577164760232
1789075603170162000,1.652161865234375,-1.3330533150956034,0.17362099355133248,-9.714072838589548
1789075603180104000,1.66210400390625,-1.3879555564977228,0.2718494404554367,-9.704126614114642
1789075603190047000,1.672046875,-1.3826067428156732,0.3782724275952205,-9.701325585219264
1789075603199990000,1.681989990234375,-1.341449241388589,0.490980742082186,-9.702053314971923
1789075603209933000,1.69193310546875,-1.2680568190500139,0.6041184974949807,-9.705537649956344
1789075603219874800,1.701874755859375,-1.1731938847899437,0.7154121959436684,-9.709902859428524
1789075603229817900,1.71181787109375,-1.0825611354455351,0.8226772964634,-9.711933488473296
1789075603239761000,1.721760986328125,-1.0202264790203421,0.9214644184298812,-9.709810504969955
1789075603249704000,1.731703857421875,-1.0073827064730227,1.0174177052099258,-9.701567577281594
1789075603259646000,1.74164599609375,-1.0407570797432213,1.1194751540839671,-9.686794371041655
1789075603269589000,1.751589111328125,-1.102985937706381,1.235252866078913,-9.665814126855134
1789075603279532000,1.761531982421875,-1.1797297162994742,1.3732182983539998,-9.638095514324307
1789075603289475000,1.77147509765625,-1.2520451570563018,1.5327129870004952,-9.604871290114522
1789075603299417000,1.7814169921875,-1.305981768296659,1.7049036372214554,-9.568598784250021
1789075603309360000,1.791360107421875,-1.3340887956231833,1.8834607537344097,-9.53116834052205
1789075603319303000,1.801302978515625,-1.3331915545225144,2.064028041025996,-9.493828497686982
1789075603329246000,1.811245849609375,-1.3144476910859346,2.2395089649640023,-9.456595622357726
1789075603339188000,1.82118798828125,-1.2913861105807125,2.4065314187668263,-9.418667165979743
1789075603349130800,1.831130859375,-1.2715956607006489,2.564268303960562,-9.37965617506206
1789075603359073800,1.84107373046875,-1.2572455021783708,2.7080115889847276,-9.341112801656127
1789075603369016800,1.851016845703125,-1.2595590398177503,2.838880194866657,-9.301861572241783
1789075603378960000,1.8609599609375,-1.278552347970754,2.96692614454329,-9.25921310160458
1789075603388902000,1.87090185546875,-1.3045002975672482,3.099847299040854,-9.211927618816494
1789075603398845000,1.880844970703125,-1.33371265578717,3.234906634610891,-9.161166568872332
1789075603408788000,1.8907880859375,-1.3519446241788566,3.3688635618969798,-9.110071172407268
1789075603418731000,1.90073095703125,-1.3457777721121906,3.501938153390586,-9.060667382290958
1789075603428673000,1.910673095703125,-1.3226178457990287,3.630729952998459,-9.013259734427928
1789075603438616000,1.920615966796875,-1.2967511447452007,3.7474265334039925,-8.96914879002273
1789075603448559000,1.93055908203125,-1.2760763132460415,3.848533330489695,-8.929210747388005
1789075603458502100,1.940502197265625,-1.2647073624916374,3.934093891136348,-8.893469571921228
1789075603468444000,1.95044384765625,-1.272541855509579,4.006030123317242,-8.86017695865035
1789075603478387000,1.960386962890625,-1.2923568553090095,4.066946948833763,-8.829503003445268
1789075603488330000,1.970330078125,-1.302785748734325,4.115505228036642,-8.805437652724981
1789075603498272800,1.980272705078125,-1.281611589410901,4.155319936552644,-8.789832671836018
1789075603508215000,1.990215087890625,-1.1902945110641419,4.20169970267266,-8.780620022332668
1789075603518158000,2.000157958984375,-1.0103982549019157,4.254981211005151,-8.777506274226308
1789075603528100900,2.010100830078125,-0.7683175644401461,4.288754593530297,-8.7855943036139
1789075603538044000,2.0200439453125,-0.4896365243989974,4.283763361114263,-8.807951681372522
1789075603547986000,2.02998583984375,-0.2461178004907444,4.258476651905477,-8.83035640540421
1789075603557929000,2.039928955078125,-0.09484064936302601,4.221011136864125,-8.851241372522711
1789075603567872000,2.0498720703125,-0.01999221952985972,4.166858690916001,-8.877346120116114
1789075603577815000,2.05981494140625,0.03668301832757424,4.084569991546869,-8.915454024714231
1789075603587756800,2.0697568359375,0.11176432076827622,3.974102660919726,-8.964619914421439
1789075603597699800,2.079699951171875,0.1996684032006189,3.855533856901526,-9.014732729589939
1789075603607643000,2.089642822265625,0.28331324815275144,3.7377395443871615,-9.061977880367635
1789075603617586000,2.0995859375,0.3607271262934431,3.61565864059478,-9.108639093777537
1789075603627529000,2.109529052734375,0.4349155578479171,3.4864728732332586,-9.155638160839676
1789075603637471000,2.119470947265625,0.5246176022134721,3.3643732647404074,-9.19652897415459
1789075603647414000,2.1294140625,0.6509726761937141,3.247381500780582,-9.230446441325546
1789075603657357000,2.139357177734375,0.7961686442442237,3.121050246067345,-9.26258754647374
1789075603667300000,2.149300048828125,0.9047389090783894,2.9875618130758403,-9.296575156271457
1789075603677242000,2.1592421875,0.9641454761624335,2.8527240113019943,-9.332886240580677
1789075603687185200,2.16918505859375,1.0020889109138398,2.7262854968219994,-9.36661899883449
1789075603697127400,2.17912744140625,1.045989427438751,2.6076892202749846,-9.39554406454563
1789075603707070500,2.189070556640625,1.1070592515598983,2.4881243909567594,-9.420936279955505
1789075603717012500,2.199012451171875,1.1791565195214002,2.3655986660063264,-9.443724450346828
1789075603726955500,2.20895556640625,1.2573632833391428,2.2386351047389206,-9.464562655714154
1789075603736898300,2.218898193359375,1.3385001823246478,2.1087574095904826,-9.483245144352317
1789075603746841300,2.22884130859375,1.4279766012407837,1.9814061641797422,-9.497647763714193
1789075603756784400,2.238784423828125,1.5218592922918497,1.85639914380759,-9.508319379854202
1789075603766726400,2.248726318359375,1.6020616869062185,1.7312335718728602,-9.518749588453769
1789075603776669400,2.25866943359375,1.6551370051421224,1.606932946204394,-9.531457094335556
1789075603786612500,2.268612548828125,1.6832064769372344,1.4936556727230548,-9.544957211899757
1789075603796555500,2.278555419921875,1.7012421921044587,1.4041060424402356,-9.555347673010825
1789075603806497500,2.28849755859375,1.7270048482619225,1.3367401869148015,-9.560384498134255
1789075603816440300,2.2984404296875,1.7533587483108042,1.2847135009489952,-9.562720832127333
1789075603826383400,2.30838330078125,1.7558263074681162,1.2400960683263837,-9.568157470223307
1789075603836326400,2.318326416015625,1.738414861679077,1.1990983605708927,-9.576558218821882
1789075603846268400,2.328268310546875,1.738470975780487,1.1544499482881276,-9.582032266318798
1789075603856211500,2.33821142578125,1.7779441773824394,1.0946527013860643,-9.581808394435047
1789075603866154500,2.348154541015625,1.8441218460366129,1.0103114534012974,-9.578563128903507
1789075603876097500,2.35809765625,1.9180808162167666,0.9028516340270638,-9.574770166361331
1789075603886039600,2.36803955078125,1.9896255648620425,0.786119543916732,-9.57046340907812
1789075603895982600,2.377982666015625,2.056400907148421,0.677529697599262,-9.564650338885187
1789075603905925600,2.387925537109375,2.1197936212591824,0.5863457806454971,-9.55683235861063
1789075603915868400,2.397868408203125,2.1727084882363674,0.5133717298494651,-9.549143557673693
1789075603925811500,2.4078115234375,2.203711821526289,0.4567629037251696,-9.544916295367479
1789075603935753500,2.41775341796875,2.2154838001236317,0.41146892354786396,-9.544248771369457
1789075603945696300,2.4276962890625,2.22584225866124,0.3756640351951122,-9.543315289911627
1789075603955639300,2.437639404296875,2.2454852628946305,0.348095937050879,-9.539760227778553
1789075603965582300,2.447582275390625,2.2801462419092653,0.32980157094746826,-9.532185408610104
1789075603975524400,2.4575244140625,2.3334417787671087,0.31435221901163457,-9.519802896898984
1789075603985467400,2.46746728515625,2.3946212007425722,0.2867754809032194,-9.50546749755442
1789075603995410400,2.477410400390625,2.4636922527506946,0.24334364133598282,-9.489013790881634
1789075604005353500,2.487353515625,2.5540610904619094,0.19307212847443297,-9.46624841684401
1789075604015295500,2.49729541015625,2.631823252317309,0.1425753737559542,-9.44582346845269
1789075604025238500,2.507238525390625,2.649343126916885,0.11126597019154577,-9.441343108168244
1789075604035181600,2.517181640625,2.5748788375630975,0.12316376712564378,-9.461776824387908
1789075604045124600,2.52712451171875,2.527918933467567,0.17330688610086217,-9.473647294923662
1789075604055066400,2.53706640625,2.4929917047321797,0.2255859393925406,-9.481798452675342
1789075604065009400,2.547009521484375,2.448589083904028,0.26999911814732475,-9.492201773267984
1789075604074952400,2.556952392578125,2.415675533078611,0.3060325362926349,-9.49953810750544
1789075604084895500,2.5668955078125,2.413516455348581,0.3324629356438294,-9.499198500287532
1789075604094838300,2.57683837890625,2.42297343500182,0.35397231827098874,-9.4960151940763
1789075604104780500,2.586780517578125,2.419254999000579,0.3817007946087047,-9.495888937348127
1789075604114723300,2.596723388671875,2.373379675271362,0.422773065437749,-9.505719426488875
1789075604124666400,2.606666259765625,2.2873490128949285,0.47688444872312247,-9.524234157344699
1789075604134609400,2.616609375,2.2066138265781103,0.5235527494609356,-9.540815289789437
1789075604144551400,2.626551513671875,2.179513199815154,0.5226572619259358,-9.547090132275223
1789075604154494500,2.636494384765625,2.178590239751339,0.504025334431231,-9.548303599718212
1789075604164437500,2.6464375,2.1334267175532875,0.5017284921983257,-9.558616319417952
1789075604174380500,2.656380615234375,2.0492833302281794,0.5116275165306404,-9.576484569063782
1789075604184322300,2.666322265625,1.9595584895089269,0.5173013609159738,-9.594943770340084
1789075604194265300,2.676265380859375,1.8812758109107612,0.5243380911523476,-9.610214989230036
1789075604204208400,2.68620849609375,1.815310762093961,0.5370144712435081,-9.622195349881052
1789075604214151400,2.6961513671875,1.7748064638786016,0.5504132838577032,-9.628993339458107
1789075604224094500,2.706094482421875,1.7692887233704329,0.5593933667141944,-9.62949076758623
1789075604234036500,2.716036376953125,1.7759812067463994,0.5615878810837864,-9.62813175419271
1789075604243979500,2.7259794921875,1.7669291546322405,0.5550387151686474,-9.630176411762832
1789075604253922600,2.735922607421875,1.7418711396127937,0.5416636122236028,-9.635500821655988
1789075604263865300,2.745865234375,1.7280577183157204,0.5194674163760618,-9.63920902852416
1789075604273807600,2.7558076171875,1.74327691475749,0.47905496116261925,-9.638561378270387
1789075604283750700,2.765750732421875,1.7803752039216458,0.4206572788601741,-9.634505380877853
1789075604293693400,2.775693359375,1.8252521642632782,0.3507930306477472,-9.628903323087096
1789075604303636500,2.785636474609375,1.8667875590920446,0.27699303215527904,-9.623346273481845
1789075604313578200,2.795578125,1.888794954369217,0.2177106942391023,-9.62057563972473
1789075604323521300,2.805521240234375,1.8914990987613796,0.18490281401155514,-9.620730538025498
1789075604333464300,2.81546435546875,1.8866322233773767,0.17028293516980483,-9.621952773296833
1789075604343407400,2.825407470703125,1.8710985541589558,0.16644306474598122,-9.62505366192162
1789075604353349400,2.835349365234375,1.8420679822467267,0.18028761183368042,-9.630401452690363
1789075604363292400,2.84529248046875,1.8163963653735815,0.1911808348351158,-9.635067690935731
1789075604373235500,2.8552353515625,1.8077564011916518,0.1889623550680466,-9.636738254496455
1789075604383178500,2.865178466796875,1.809024959822744,0.18950208796793594,-9.636489248171449
1789075604393121500,2.87512158203125,1.8170142050109803,0.19483524742312727,-9.634878890365362
1789075604403063600,2.8850634765625,1.8403578173279762,0.18738714164057746,-9.630596098479629
1789075604413006600,2.895006591796875,1.885892803186923,0.18557930676732212,-9.621817748740314
1789075604422949600,2.90494970703125,1.9264692898556588,0.19719739171089604,-9.613542087826133
1789075604432892700,2.914892578125,1.9456430691421032,0.2057424076183699,-9.609501872524618
1789075604442834400,2.92483447265625,1.9344521053031085,0.21060548361008985,-9.611655835688113
1789075604452777500,2.934777587890625,1.8883046866342423,0.22148064123187214,-9.620584992074965
1789075604462720500,2.944720458984375,1.8361228101067244,0.2318352821108885,-9.630435939481854
1789075604472663300,2.954663330078125,1.8049242465056479,0.2409891323653981,-9.636107555377484
1789075604482605600,2.96460546875,1.7831512445062399,0.25344354026895016,-9.639841481208801
1789075604492548400,2.97454833984375,1.7553179195545612,0.26959457420073446,-9.644509473019838
1789075604502491400,2.984491455078125,1.7228551812365651,0.29054290714534,-9.649753803414105
1789075604512434400,2.994434326171875,1.6908770115651188,0.3161062961373478,-9.654604166054725
1789075604522377500,3.00437744140625,1.6638754612624644,0.35090946010164914,-9.658092008170485
1789075604532319500,3.014319580078125,1.6350082632184029,0.3971406115312129,-9.661231475239992
1789075604542262500,3.024262451171875,1.6205105129189787,0.45977165708709505,-9.66089712871909
1789075604552205600,3.03420556640625,1.640607252269238,0.5363186709990725,-9.653556118306517
1789075604562148600,3.044148681640625,1.6625206856526433,0.6166705936193466,-9.645005732104181
1789075604572090400,3.05409033203125,1.6224294982828198,0.6736706840835511,-9.648020111489295
1789075604582033400,3.064033447265625,1.5390204165816306,0.7169519727315753,-9.658560210204124
1789075604591976400,3.0739765625,1.4938471036419272,0.7728031854216009,-9.66134545700848
1789075604601919500,3.08391943359375,1.4695140418961643,0.8447037617672234,-9.659059391897916
1789075604611861500,3.093861572265625,1.431738291861862,0.9160871823709458,-9.658224110117555
1789075604621804500,3.103804443359375,1.4134977017723023,0.9681308925367891,-9.655834584632515
1789075604631747600,3.11374755859375,1.4358958499327301,1.002258422261849,-9.649044778361915
1789075604641690400,3.1236904296875,1.488949979250133,1.039536378841847,-9.637053311794995
1789075604651632600,3.133632568359375,1.5556401274710894,1.0906928578443824,-9.620850365012883
1789075604661575700,3.14357568359375,1.6400300369031726,1.1628809458944946,-9.598354455566406
1789075604671518500,3.1535185546875,1.7649610694296658,1.346908091316372,-9.552022912502288
1789075604681461500,3.16346142578125,1.9244263858512043,1.6932209443427622,-9.46572702331841
1789075604691404300,3.173404296875,2.038080968212336,1.9958871094748376,-9.382593397557734
1789075604701346300,3.18334619140625,2.106003726968169,2.3286495760545134,-9.29045345852077
1789075604711289300,3.193289306640625,2.180692911119014,2.689385214447975,-9.17508286602199
1789075604721232400,3.203232421875,2.2177679655380547,3.0283950509846207,-9.05984203738272
1789075604731175400,3.213175537109375,2.0200695107035336,3.4075194557666775,-8.970980681625008
1789075604741117400,3.223117431640625,1.7188189114578067,3.841009364725649,-8.857916612502931
1789075604751060500,3.233060546875,1.482702024771273,4.290524233551323,-8.69272020508349
1789075604761003500,3.24300341796875,1.375606947056204,4.678526064532995,-8.508200673034787
1789075604770946600,3.252946533203125,1.3770258739434182,5.0842117285043,-8.27193867878914
1789075604780888600,3.262888671875,1.3675874528601766,5.464579995867609,-8.02735776900947
1789075604790831600,3.27283154296875,1.481222892129421,5.755010218152403,-7.80104083019495
1789075604800774700,3.282774658203125,1.6824946754060686,5.969703939190507,-7.596198641085624
1789075604810717400,3.292717529296875,1.9093654487110674,6.1417655562043185,-7.402932323479652
1789075604820660500,3.302660400390625,2.0263214107051493,6.25920126453936,-7.2723314286231995
1789075604830602500,3.3126025390625,2.0667966289564967,6.305270357275009,-7.220962475913763
1789075604840545500,3.322545654296875,2.049742764433473,6.325940804859996,-7.2077306538969275
1789075604850488300,3.33248828125,1.9874043816812335,6.358680460423231,-7.196374562624096
1789075604860431400,3.342431396484375,1.9066553129695354,6.396085769709944,-7.185062895014882
1789075604870373400,3.352373291015625,1.8130191440254448,6.424301225847006,-7.184127075469493
1789075604880316400,3.36231640625,1.8142871181346476,6.521464546003937,-7.095721646785735
1789075604890259500,3.372259521484375,1.8123419754162429,6.64688131622076,-6.978880981734394
1789075604900202500,3.382202392578125,1.8048530809655785,6.734981624478102,-6.895864260351657
1789075604910144500,3.39214453125,1.76012721953243,6.8308782857000825,-6.812595610034466
1789075604920087600,3.402087646484375,1.7325503535598517,6.929962929308414,-6.7189505271315575
1789075604930030300,3.4120302734375,1.7050151347719131,7.054929617670178,-6.594793401587009
1789075604939973400,3.421973388671875,1.6841028412550687,7.220214872416854,-6.418931807768344
1789075604949916400,3.43191650390625,1.6603417341783642,7.365162272533774,-6.25843904799521
1789075604959858400,3.4418583984375,1.6265473088651894,7.478966930890083,-6.131051854488253
1789075604969801500,3.451801513671875,1.6092564207158981,7.610603598535061,-5.971550443840027
1789075604979744500,3.46174462890625,1.5581274142421782,7.726710688614845,-5.834430376347899
1789075604989687600,3.4716875,1.4823353834159672,7.779794044026732,-5.783412721294164
1789075604999629600,3.481629638671875,1.417402746386826,7.794554390785097,-5.7798173271507025
1789075605009572600,3.491572509765625,1.375754246572405,7.779507628300785,-5.810073349204659
1789075605019515400,3.501515380859375,1.3568220209568738,7.765193856266141,-5.83362665874958
1789075605029458400,3.51145849609375,1.320802905331552,7.746631194615364,-5.866479711559415
1789075605039400700,3.521400634765625,1.2826504309393465,7.73322810768485,-5.892567508018017
1789075605049343200,3.53134326171875,1.2523625524424016,7.722699699407816,-5.9128597699403755
1789075605059286300,3.541286376953125,1.22189354522489,7.688695722997188,-5.963330897027253
1789075605069229300,3.551229248046875,1.184897328195721,7.571864994817972,-6.118274205979705
1789075605079172400,3.56117236328125,1.109075194492191,7.373083128660917,-6.3700856515347954
1789075605089114400,3.5711142578125,1.0532039619274436,7.166961421135068,-6.610280893576145
1789075605099057400,3.581057373046875,1.0836139324340968,7.068909627705812,-6.710193804702162
1789075605109000400,3.59100048828125,1.1213181516021489,7.146370468527079,-6.6213616750389335
1789075605118943500,3.600943603515625,1.0731886192053557,7.33430302388966,-6.420797017118335
1789075605128885500,3.610885498046875,1.0831415656819938,7.517804903328418,-6.203209912726282
1789075605138828500,3.62082861328125,1.243534079951048,7.641541757634282,-6.019205928984284
1789075605148771600,3.630771484375,1.4335219604082405,7.718647209146618,-5.87689472258985
1789075605158714600,3.640714599609375,1.615359121505171,7.775392009675502,-5.753631331014633
1789075605168657700,3.65065771484375,1.6843023093499243,7.829338119396567,-5.659947669667005
1789075605178599400,3.660599365234375,1.6924537593625484,7.874469054499268,-5.594528564295173
1789075605188542500,3.67054248046875,1.6325243374481797,7.909218296319246,-5.563230339711904
1789075605198485200,3.6804853515625,1.539224999243021,7.930684862717985,-5.559264358690381
1789075605208428300,3.69042822265625,1.4588878723330796,7.974304808735847,-5.5183793905943626
1789075605218370600,3.70037060546875,1.388967217758298,8.074592982915043,-5.389073796245455
1789075605228313300,3.710313232421875,1.3720035157367587,8.199322939911484,-5.201836237409711
1789075605238256400,3.72025634765625,1.3425168706201016,8.302014083579182,-5.04426257995367
1789075605248199400,3.730199462890625,1.3120938214361666,8.364205459076166,-4.948622523841261
1789075605258141400,3.740141357421875,1.279775752285868,8.383245090588927,-4.924810855621099
1789075605268084500,3.75008447265625,1.2543090103350578,8.355079903334378,-4.978928230255842
1789075605278027500,3.760027587890625,1.2589568361409007,8.292958085942267,-5.08057483330667
1789075605287970600,3.769970458984375,1.2752398624219,8.224394252803922,-5.186859617552161
1789075605297913600,3.77991357421875,1.3027085918448864,8.163640216633677,-5.275253940320015
1789075605307855400,3.78985546875,1.350120769752562,8.124664297029376,-5.323287026605009
1789075605317798400,3.79979833984375,1.415929458963871,8.107413887020945,-5.332485647583008
1789075605327741400,3.809741455078125,1.4697817529216408,8.120075800195336,-5.298539538839459
1789075605337684500,3.8196845703125,1.4929226822733879,8.154801076617836,-5.238395159000158
1789075605347626500,3.82962646484375,1.4727198522001503,8.20270615260899,-5.168859265959263
1789075605357569500,3.839569580078125,1.4762131011433899,8.232441365659236,-5.120360315728187
1789075605367512600,3.8495126953125,1.527568171457946,8.226815926992893,-5.114335064089298
1789075605377455400,3.859455322265625,1.618558355937898,8.194391913250088,-5.138343131664395
1789075605387397600,3.869397705078125,1.715714077310264,8.148319313383102,-5.179924849852919
1789075605397340400,3.87934033203125,1.7618889685079455,8.10962571785152,-5.224948232927918
1789075605407283500,3.889283447265625,1.7935681552328169,8.070756181231141,-5.27412522855103
1789075605417226500,3.8992265625,1.8483488160818815,8.021952110573649,-5.329381251826882
1789075605427169500,3.90916943359375,1.9247338443651794,7.964054632878303,-5.388839987489581
1789075605437111300,3.919111328125,2.0169931719981133,7.901516051378846,-5.446850277909636
1789075605447054300,3.929054443359375,2.105711904414743,7.841088762944937,-5.50033227725029
1789075605456997400,3.938997314453125,2.1711991065867244,7.786239566904306,-5.552542356958985
1789075605466940400,3.9489404296875,2.2289633132912217,7.725030772703885,-5.614800367951393
1789075605476882400,3.95888232421875,2.311052252304554,7.646786088028549,-5.688243205302953
1789075605486825500,3.968825439453125,2.4196156490065155,7.559231138694286,-5.75967879448533
1789075605496768500,3.9787685546875,2.5154925826147196,7.478926014357805,-5.8230859755128614
1789075605506711600,3.988711669921875,2.571307993339002,7.418400526246428,-5.875891098505258
1789075605516653600,3.998653564453125,2.6226769460484385,7.362661687889695,-5.923102347013354
1789075605526596600,4.0085966796875,2.6889044451937076,7.298919575819372,-5.972098140850663
1789075605536539600,4.01853955078125,2.758186947995424,7.2276049826681605,-6.026981239160895
1789075605546482700,4.028482666015625,2.814785618051886,7.155631633347272,-6.086406072553992
1789075605556425500,4.038425537109375,2.840512472243607,7.089100182819366,-6.151956110829115
1789075605566367500,4.048367431640625,2.8201828009203074,7.032119235447048,-6.2262546882271765
1789075605576310300,4.058310302734375,2.7782518309026956,6.977150796940922,-6.306428879660368
1789075605586253300,4.06825341796875,2.750572965860367,6.910643896332383,-6.391224301153421
1789075605596196400,4.0781962890625,2.740406376633048,6.833047446432709,-6.478428537353873
1789075605606138400,4.088138427734375,2.73619635772258,6.752519034734368,-6.564077360805869
1789075605616081400,4.098081298828125,2.7152818722486494,6.675494831764698,-6.650969462317228
1789075605626024400,4.1080244140625,2.696522811242938,6.591327771303058,-6.741925160005688
1789075605635967500,4.117967529296875,2.724348683540523,6.487130314725637,-6.831213801264762
1789075605645910500,4.12791064453125,2.800140422105789,6.367991309604048,-6.912182357946038
1789075605655852500,4.1378525390625,2.8898022805914283,6.247233763369917,-6.985090357768535
1789075605665795600,4.147795654296875,2.953078820976615,6.1360366571635,-7.056823468592762
1789075605675738600,4.157738525390625,2.9629961116179824,6.046279813870787,-7.129764786162972
1789075605685681400,4.167681396484375,2.952116113424301,5.9726470069050785,-7.19603203279674
1789075605695624000,4.1776240234375,2.9621707667097446,5.896525305733085,-7.254439213579893
1789075605705567000,4.18756689453125,2.9711498997181653,5.811108537471294,-7.319406483530998
1789075605715510000,4.197510009765625,2.948180819801986,5.726081645309924,-7.39530781995058
1789075605725452800,4.207452880859375,2.8979402866005897,5.662673295238614,-7.463677007299661
1789075605735395000,4.21739501953125,2.8518600879490372,5.614981569737195,-7.517265389624238
1789075605745337900,4.227337890625,2.8268969116061924,5.568574623349309,-7.56108758021593
1789075605755281000,4.237281005859375,2.7944363652452826,5.518696785980462,-7.609568410268426
1789075605765224000,4.247223876953125,2.7408652263164517,5.470644994994998,-7.663555436521768
1789075605775167000,4.2571669921875,2.6783067710727453,5.430820349606871,-7.713836593994498
1789075605785109000,4.26710888671875,2.5905057380229235,5.3971811148554085,-7.767247281664609
1789075605795052000,4.277052001953125,2.5317893451601265,5.363057895979285,-7.810125469404459
1789075605804995000,4.2869951171875,2.5106433890178796,5.329145104983449,-7.840106766170263
1789075605814938000,4.296938232421875,2.4761913765788077,5.306971267098188,-7.866061291638016
1789075605824879900,4.3068798828125,2.444119683405012,5.295730911159515,-7.883648970776796
1789075605834823000,4.316822998046875,2.445623804357648,5.281834487754106,-7.89249863218665
1789075605844766000,4.326765869140625,2.449644145914912,5.264857633990049,-7.90258923356831
1789075605854709000,4.336708984375,2.419953356528282,5.2513545938164,-7.920700644320249
1789075605864652000,4.346652099609375,2.4043416536375877,5.252195136293769,-7.92489458887875
1789075605874594000,4.356593994140625,2.395579232119769,5.261863128349185,-7.921134359562396
1789075605884537000,4.366537109375,2.3845151095308363,5.275290765199065,-7.915540485078096
1789075605894480000,4.37647998046875,2.358383181669563,5.2952001652836795,-7.910075789931416
1789075605904423000,4.3864228515625,2.338634525104612,5.3208928249448535,-7.898688134476542
1789075605914365000,4.396364990234375,2.3226487282045185,5.351673747655749,-7.882592739722132
1789075605924308000,4.406307861328125,2.293429501852393,5.378889086839556,-7.872617289152741
1789075605934251000,4.4162509765625,2.26974029096812,5.4030935537695886,-7.862904288911819
1789075605944194000,4.426194091796875,2.2566445164211095,5.429035219755768,-7.848791007885336
1789075605954135800,4.4361357421875,2.2216079820923507,5.468743545287847,-7.831199821615218
1789075605964078800,4.446078857421875,2.164864642868191,5.526596599319577,-7.806437720802426
1789075605974022000,4.45602197265625,2.110216230096668,5.594970462843776,-7.772621375918388
1789075605983965000,4.46596484375,2.0716743179954586,5.666501329094171,-7.731060115996002
1789075605993908000,4.475907958984375,2.046731015396863,5.73813916285038,-7.684727403888106
1789075606003850000,4.48585009765625,2.015290751994401,5.812931076723337,-7.6366761974245305
1789075606013793000,4.49579296875,1.97193150273934,5.895490701988339,-7.584528077036142
1789075606023736000,4.505736083984375,1.9303798874281346,5.979819675013423,-7.528994990384578
1789075606033679000,4.51567919921875,1.9011127302810549,6.063985566431284,-7.468885681858659
1789075606043621000,4.52562109375,1.8784329887002706,6.145123634460568,-7.408059749495982
1789075606053564200,4.535564208984375,1.8320562913201748,6.226990601286292,-7.35108990803957
1789075606063507200,4.545507080078125,1.7614654823988676,6.328100613242388,-7.28167325746417
1789075606073449700,4.55544970703125,1.6927243929974733,6.434966412246227,-7.203905542650818
1789075606083392800,4.565392822265625,1.6462347367621957,6.539173805695772,-7.120358659914135
1789075606093335000,4.5753349609375,1.6187934798680246,6.6457625413239,-7.027355382046103
1789075606103277800,4.58527783203125,1.586477602674812,6.7589692337870595,-6.926024420815706
1789075606113220900,4.595220947265625,1.5460625901781022,6.885832111158966,-6.8092147354245185
1789075606123164000,4.605163818359375,1.5075602794349192,7.017763377836347,-6.681964320039749
1789075606133106000,4.61510595703125,1.4834132417805492,7.144860063964128,-6.551401419106125
1789075606143049000,4.625049072265625,1.4823745463825762,7.258632573616504,-6.425355703336
1789075606152992000,4.634991943359375,1.4963948884285985,7.3593141310274595,-6.306479148542881
1789075606162935000,4.64493505859375,1.518966931851208,7.452082431095838,-6.19109218943119
1789075606172878000,4.654878173828125,1.5477239475190638,7.53932349217534,-6.0772945453375575
1789075606182819800,4.66481982421875,1.5862626447498798,7.624042925822734,-5.960547988310456
1789075606192763000,4.674762939453125,1.624945280496031,7.7106176319479935,-5.837493271049857
1789075606202706000,4.684705810546875,1.6510956207968293,7.798170243194699,-5.712515476772189
1789075606212649000,4.69464892578125,1.6634082821421323,7.881691991490126,-5.593068428614735
1789075606222591000,4.704591064453125,1.6655317040368913,7.962522016483545,-5.47673863569498
1789075606232534000,4.714533935546875,1.6659486142747104,8.040679607397317,-5.361198531848192
1789075606242477000,4.72447705078125,1.6634776941165328,8.117089477860928,-5.2455748413711785
1789075606252419800,4.734419921875,1.659455891254544,8.186989528039097,-5.137101022648811
1789075606262363000,4.74436279296875,1.6612332761906086,8.248185462757945,-5.037670926603675
1789075606272305000,4.754304931640625,1.6569905240543186,8.308501692032813,-4.93898317335844
1789075606282248000,4.764248046875,1.645523373622447,8.371193418267369,-4.835881695324182
1789075606292191000,4.77419091796875,1.633770391986519,8.431931087824701,-4.73325484906435
1789075606302134000,4.784134033203125,1.6214758508197962,8.489549748578668,-4.633440722137689
1789075606312075800,4.79407568359375,1.6077658898971974,8.542961605292557,-4.5390804767027495
1789075606322018800,4.804018798828125,1.5949216058932243,8.589662566190958,-4.454696558620036
1789075606331961900,4.8139619140625,1.5881940512038766,8.629989315882325,-4.3785029612556094
1789075606341905000,4.82390478515625,1.593486604654044,8.666648775237798,-4.303534229511023
1789075606351847000,4.833846923828125,1.592896383675933,8.701356516003608,-4.23314288868457
1789075606361790000,4.8437900390625,1.5813028303854166,8.735602484476566,-4.166430820892751
1789075606371733000,4.85373291015625,1.5684329735487699,8.769981723940372,-4.098514053486287
1789075606381676000,4.863676025390625,1.5651701723605393,8.799794093880056,-4.035375460267066
1789075606391619000,4.873619140625,1.5742372759133576,8.8214985606879,-3.984131887502968
1789075606401561000,4.88356103515625,1.5948780590124427,8.836330219116807,-3.942840384432673
1789075606411504000,4.893504150390625,1.626916580568999,8.84568490743935,-3.9086309485778212
1789075606421447000,4.903447021484375,1.647939640983939,8.853438005784154,-3.8821769491553306
1789075606431390000,4.913389892578125,1.6484551892906427,8.860465712463855,-3.8658880776554345
1789075606441332000,4.92333203125,1.6635878764927385,8.85775236185193,-3.8656323493286964
1789075606451274800,4.933274658203125,1.7115521353252232,8.839074549388885,-3.8873783171907066
1789075606461217800,4.9432177734375,1.7579216723121702,8.816361782321334,-3.9181495952904224
1789075606471160800,4.953160888671875,1.781289250026643,8.799725120297074,-3.9449008240938186
1789075606481104000,4.963103759765625,1.79233130691424,8.787487570014596,-3.967111779119074
1789075606491046000,4.9730458984375,1.8164220843367278,8.767573493754863,-4.000078813697398
1789075606500989000,4.982989013671875,1.86536497894302,8.736260656124353,-4.0458033307790755
1789075606510932000,4.992931884765625,1.9238428868748247,8.703668300077318,-4.088445663936436
1789075606520875000,5.002875,1.9736860913217067,8.679099091488123,-4.116822155854106
1789075606530817000,5.012817138671875,2.0261472231820226,8.652951673796773,-4.146268907351792
1789075606540760000,5.022760009765625,2.0703994757540523,8.623653098598123,-4.185261485829949
1789075606550703000,5.032703125,2.0876436021521685,8.597162566557525,-4.230948301249742
1789075606560646100,5.042646240234375,2.105993059443682,8.566287535822392,-4.284144177125394
1789075606570589200,5.052589111328125,2.12724949022308,8.530879537832737,-4.343879683902859
1789075606580531000,5.062531005859375,2.1333144893504676,8.496311497798562,-4.408181183421611
1789075606590474000,5.072473876953125,2.137551250137389,8.462102938726543,-4.471477889811992
1789075606600417000,5.0824169921875,2.1477143322333694,8.426110418847204,-4.534133083428443
1789075606610359800,5.09235986328125,2.157196446327865,8.38624076527357,-4.603025710129738
1789075606620302000,5.102302001953125,2.1773604056954383,8.339338728845119,-4.678128881908953
1789075606630244900,5.112244873046875,2.192714772824198,8.28955792210996,-4.75874029571563
1789075606640188000,5.12218798828125,2.1913845471337434,8.240487893992661,-4.843821256151795
1789075606650131000,5.132130859375,2.210587552514672,8.185456327122449,-4.927675012880563
1789075606660074000,5.142073974609375,2.2371270382635293,8.1250483279109,-5.014904968044162
1789075606670016000,5.15201611328125,2.253869644880295,8.067499809783696,-5.09959809820652
1789075606679959000,5.161958984375,2.2788439271390435,8.010589005038142,-5.177617741954326
1789075606689902000,5.171902099609375,2.309850329168886,7.94643597407937,-5.262044914656877
1789075606699845400,5.181845458984375,2.331600827075541,7.878831925883889,-5.353318592253327
1789075606709787400,5.191787353515625,2.347454668159038,7.806919366839527,-5.4508560064196585
1789075606719730400,5.20173046875,2.3613690656125543,7.729745526266098,-5.5538633764296765
1789075606729673500,5.211673583984375,2.370440406949073,7.653875754028558,-5.654164994612336
1789075606739616500,5.221616455078125,2.385154430347681,7.577787370604276,-5.7496589202523225
1789075606749559300,5.231559326171875,2.4000704060591755,7.5028060716390605,-5.841058854576945
1789075606759501300,5.241501220703125,2.426057810883224,7.428347919765114,-5.924888061386347
1789075606769444400,5.2514443359375,2.4704154235258695,7.350759068650007,-6.002813012588024
1789075606779387100,5.26138720703125,2.545525609567761,7.273615038692951,-6.065081544974446
1789075606789330200,5.271330078125,2.650212018705904,7.198387071490288,-6.109824942064285
1789075606799272200,5.281272216796875,2.811201914346218,7.11011140666604,-6.1411594070047135
1789075606809215200,5.29121533203125,3.0032272919803855,7.018461881494522,-6.155667240306735
1789075606819158300,5.301158203125,3.1725244127169248,6.9373314122498035,-6.162701376727223
1789075606829101300,5.311101318359375,3.302250278304517,6.876297974616289,-6.162956228271127
1789075606839044400,5.32104443359375,3.3737370131522417,6.815327080824971,-6.191898245117068
1789075606848986400,5.330986328125,3.382806162531674,6.749983378776908,-6.258172506013512
1789075606858929400,5.340929443359375,3.371348948971927,6.679622725349664,-6.339325771611929
1789075606868872400,5.35087255859375,3.3676293439269065,6.605119565290212,-6.418869848448038
1789075606878815500,5.3608154296875,3.4039410127580165,6.522259495773911,-6.484110090121627
1789075606888757200,5.37075732421875,3.4976837108165024,6.420012588742375,-6.536057719501852
1789075606898700300,5.3807001953125,3.603676526378095,6.304011297124624,-6.591158844476938
1789075606908643300,5.390643310546875,3.6705917155265806,6.191393802726268,-6.660611735409498
1789075606918586400,5.40058642578125,3.6967601760059594,6.09467238111794,-6.734932524639368
1789075606928529200,5.410529052734375,3.7127129474192855,6.007014555931091,-6.804555511441826
1789075606938471400,5.420471435546875,3.7407492475971575,5.914651329532266,-6.869795168593526
1789075606948414200,5.430414306640625,3.7819364135101434,5.8176113434940575,-6.929843686842918
1789075606958357200,5.440357177734375,3.8231229949012397,5.719520971620082,-6.988646588945389
1789075606968300300,5.45030029296875,3.8507068751364946,5.6289241703718895,-7.046818207406997
1789075606978242300,5.4602421875,3.878390124092996,5.550609343069792,-7.093602170413732
1789075606988185300,5.470185302734375,3.9118317904457447,5.480960637304187,-7.129305351957679
1789075606998128400,5.48012841796875,3.9360625608608126,5.414941812473535,-7.166326045840978
1789075607008071400,5.490071533203125,3.9574005324438213,5.348588641121983,-7.2043012639701365
1789075607018014500,5.500014404296875,3.9732776082724333,5.27858279248178,-7.247068392550945
1789075607027956200,5.509956298828125,3.98667426546216,5.202493824535608,-7.29457891626656
1789075607037899300,5.519899169921875,3.9915573613286015,5.122103360003233,-7.348602182877063
1789075607047842300,5.52984228515625,3.9894501599162813,5.042921102216839,-7.40429659757018
1789075607057785300,5.539785400390625,3.9771079802155493,4.970198395833373,-7.459899242326617
1789075607067727400,5.549727294921875,3.955343599914014,4.90472434540391,-7.514606399548053
1789075607077670400,5.55967041015625,3.9352413076058026,4.842690206295251,-7.565222488063573
1789075607087613400,5.569613525390625,3.915945070983469,4.782709492585063,-7.613239792257547
1789075607097556500,5.579556396484375,3.889158770866692,4.727736377903819,-7.661160650339722
1789075607107499300,5.589499267578125,3.853666017203033,4.678223574455082,-7.709336359965801
1789075607117441500,5.599441650390625,3.8203698968008157,4.6383784708008164,-7.749876460146903
1789075607127384300,5.60938427734375,3.8022064636006947,4.608775067436695,-7.776425444376468
1789075607137327400,5.619327392578125,3.7899583919242024,4.5870612482786175,-7.795219576695561
1789075607147270400,5.6292705078125,3.7653766161143776,4.578838486595451,-7.8119491777002805
1789075607157212200,5.639212158203125,3.726567285248637,4.58960128815025,-7.824235243299603
1789075607167155200,5.6491552734375,3.675662150658667,4.620933415003121,-7.829869449794292
1789075607177098200,5.65909814453125,3.619099720959365,4.668245785798132,-7.828153878048062
1789075607187041300,5.669041259765625,3.5551287685692308,4.726573471604287,-7.822461803886294
1789075607196984300,5.678984375,3.482854098214209,4.800634440854192,-7.809868864294886
1789075607206926300,5.68892626953125,3.418712173171341,4.88542050999701,-7.785594839259982
1789075607216869400,5.698869384765625,3.3575729370757936,4.981944947728515,-7.750956072077154
1789075607226812400,5.7088125,3.284505362777412,5.090010185649991,-7.711952679944038
1789075607236755500,5.71875537109375,3.2145641038060186,5.212479211977124,-7.659440402418374
1789075607246697500,5.728697509765625,3.1530899366676803,5.346569117993116,-7.59227299207449
1789075607256640500,5.738640625,3.1090164016634225,5.479482381445169,-7.515297888943553
1789075607266583600,5.74858349609375,3.096678313615918,5.597607241088151,-7.432883809629082
1789075607276526300,5.7585263671875,3.0890567326962945,5.700519334030151,-7.3574600275933735
1789075607286469000,5.76846923828125,3.0620471452176568,5.800768929764628,-7.29008452745676
1789075607296411400,5.778411376953125,3.0191596051275726,5.908508004471659,-7.221122634911537
1789075607306354200,5.788354248046875,2.97036693264693,6.027545887306332,-7.142548279890418
1789075607316297200,5.798297119140625,2.926682981482148,6.154615100905299,-7.051642266562581
1789075607326240300,5.808240234375,2.887696248222887,6.28704613379836,-6.9501575760751955
1789075607336182300,5.818182373046875,2.8341330003395675,6.424924910703301,-6.845320068028569
1789075607346125300,5.828125244140625,2.758901818266511,6.5662044359624385,-6.741203859993815
1789075607356068400,5.838068359375,2.678487972858548,6.709124714165926,-6.632023354306817
1789075607366011400,5.848011474609375,2.6081524538725613,6.853100054380297,-6.511756806460022
1789075607375953400,5.857953369140625,2.547119016239047,6.997360056754946,-6.381186306741833
1789075607385896400,5.867896484375,2.4890081880539654,7.1421122265607115,-6.242232594081759
1789075607395839500,5.877839599609375,2.431015287160128,7.285859603238105,-6.097281686833501
1789075607405782300,5.8877822265625,2.3686365723975,7.4278522452026605,-5.948696222475171
1789075607415725300,5.897725341796875,2.3088278542533516,7.562369436720013,-5.800884080576896
1789075607425667300,5.907667236328125,2.2651940258406102,7.685433506330847,-5.654504017308354
1789075607435610400,5.9176103515625,2.2391996067538855,7.799474896052479,-5.506774877518415
1789075607445553400,5.927553466796875,2.2317748635806143,7.9046315530508755,-5.357830516719818
1789075607455496200,5.93749609375,2.230235086792707,8.003386526313424,-5.209823729032278
1789075607465439200,5.947439208984375,2.2252499918565154,8.087585735478998,-5.080311798456311
1789075607475381200,5.95738134765625,2.2214950232371686,8.148142787772416,-4.9842871269404885
1789075607485324300,5.96732421875,2.21266143617928,8.189789387890697,-4.919539052698016
1789075607495267300,5.977267333984375,2.1920831969223915,8.217286466625332,-4.88276298122555
1789075607505210400,5.98721044921875,2.149215968967974,8.244245200699567,-4.856305766932666
1789075607515152400,5.99715234375,2.0966176205940545,8.274916233295201,-4.827045770178735
1789075607525095200,6.00709521484375,2.0565201496139167,8.303149225088953,-4.7957101361945265
1789075607535038200,6.0170380859375,2.0237517063476145,8.328786355170607,-4.765095217700303
1789075607544981200,6.026981201171875,1.987255182468891,8.35742909680903,-4.73017851035893
1789075607554924300,6.03692431640625,1.9471226401753723,8.392250819343328,-4.685002859331667
1789075607564866300,6.0468662109375,1.9170777766540645,8.427881520172953,-4.633144954061508
1789075607574809300,6.056809326171875,1.8999140220157802,8.46220464553535,-4.57731229994148
1789075607584752400,6.06675244140625,1.8652913291849196,8.505126087895036,-4.511531375519931
1789075607594695400,6.0766953125,1.8350367684356867,8.54922300377488,-4.44002915084213
1789075607604637400,6.086637451171875,1.8183540753126144,8.587934719485045,-4.371653533752262
1789075607614580500,6.09658056640625,1.8044506376445293,8.620230138412117,-4.313462626068294
1789075607624523500,6.1065234375,1.806593056500703,8.64059195843935,-4.271625179553031
1789075607634466300,6.11646630859375,1.815345395015925,8.650050691658258,-4.248712505999207
1789075607644409300,6.126409423828125,1.831378830450028,8.654749663129449,-4.2322257738396525
1789075607654351400,6.136351318359375,1.8605613780535757,8.654228269603848,-4.220547318744659
1789075607664294100,6.146294189453125,1.876098992794752,8.653748377132414,-4.214654169052839
1789075607674237200,6.1562373046875,1.8826579129189251,8.652699744862318,-4.213875585895776
1789075607684180200,6.16618017578125,1.8948988242022693,8.64463860348165,-4.224921296045184
1789075607694123300,6.176123291015625,1.9074641451343892,8.6320707983315,-4.244916913108527
1789075607704064500,6.186064453125,1.9389124457128344,8.610513046517967,-4.274347882515192
1789075607714007600,6.196007568359375,1.9878285984426736,8.580262869682908,-4.312541127309203
1789075607723950300,6.205950439453125,2.0477032214298845,8.544253398668765,-4.355803053669631
1789075607733893400,6.215893310546875,2.1029713735349476,8.508301795321703,-4.399622906173765
1789075607743835400,6.22583544921875,2.127790903623402,8.479989308550953,-4.442144535560906
1789075607753778400,6.2357783203125,2.1361384607300162,8.452782152673601,-4.489739814950526
1789075607763721500,6.245721435546875,2.138309375028312,8.422233869674802,-4.545767699381709
1789075607773664500,6.25566455078125,2.126258725620061,8.393297113525866,-4.60456037235111
1789075607783606500,6.2656064453125,2.0971208939410744,8.372896130532025,-4.654790384158492
1789075607793549600,6.275549560546875,2.0629025441274047,8.355209082672,-4.7016287077009675
1789075607803492600,6.28549267578125,2.028813227520883,8.335499004551767,-4.751183012203872
1789075607813435600,6.295435546875,1.9926744310386477,8.313474219748377,-4.804761457656324
1789075607823378700,6.305378662109375,1.9551053094923496,8.289808682000636,-4.860762746341527
1789075607833320700,6.31532080078125,1.9191104515254496,8.268036410653592,-4.9119209789097305
1789075607843263500,6.325263427734375,1.8963323641367256,8.245738069605826,-4.958038002440333
1789075607853206300,6.335206298828125,1.8985719597570596,8.219297806447743,-5.000897485479713
1789075607863149300,6.3451494140625,1.919583621995151,8.18748578712344,-5.044865222021937
1789075607873092400,6.35509228515625,1.9548960506558417,8.147190017092228,-5.096278598394989
1789075607883034400,6.365034423828125,1.9922785635888576,8.099307152932882,-5.157753934577107
1789075607892977400,6.374977294921875,2.0209875023312867,8.046804812279342,-5.2282817612648005
1789075607902920400,6.38492041015625,2.0391174716532228,7.99119632230401,-5.305955368053913
1789075607912863500,6.394863525390625,2.0402093585431573,7.93304633115232,-5.392094020849466
1789075607922805500,6.404805419921875,2.022877846122533,7.875804102495312,-5.481795334562659
1789075607932748500,6.41474853515625,2.03855428481251,7.810940877440571,-5.568114604622125
1789075607942691600,6.424691650390625,2.1434721646189687,7.727065493401884,-5.645209534740448
1789075607952634600,6.434634521484375,2.2940634158417583,7.630461560693383,-5.7169648573964835
1789075607962577700,6.44457763671875,2.441351679996401,7.535156435623764,-5.782008699715137
1789075607972519400,6.45451953125,2.5503447002872823,7.453456057536601,-5.840560257405042
1789075607982462500,6.46446240234375,2.59656401514858,7.396907656362652,-5.891854975834488
1789075607992405500,6.474405517578125,2.5955738350674507,7.361944479531049,-5.93592208109796
1789075608002348500,6.4843486328125,2.5891668906345964,7.331093998715281,-5.976759118399023
1789075608012290600,6.49429052734375,2.603487092410028,7.294719786041974,-6.01492430614233
1789075608022233600,6.504233642578125,2.63993524710238,7.2513377404332156,-6.051382689967751
1789075608032176400,6.51417626953125,2.7028309714764354,7.2017556711405515,-6.082746965524554
1789075608042119400,6.524119384765625,2.776699048502743,7.144341593047976,-6.117081781324744
1789075608052062500,6.5340625,2.834672806304693,7.082277643322945,-6.162497963109612
1789075608062004500,6.54400439453125,2.8703493921026584,7.020133614099025,-6.216849731022119
1789075608071947500,6.553947509765625,2.889054384833574,6.948107073286176,-6.288681626045704
1789075608081890600,6.563890625,2.8798183544546365,6.8640154161483045,-6.3845402933448545
1789075608091833600,6.57383349609375,2.8515649043947455,6.778665867903828,-6.487577473971247
1789075608101775400,6.583775390625,2.802898488642275,6.701645172065496,-6.588028729757666
1789075608111718400,6.593718505859375,2.7755048702821132,6.615913346505165,-6.685553284442425
1789075608121661400,6.603661376953125,2.798581502225995,6.512068356627226,-6.777265353456139
1789075608131604500,6.6136044921875,2.8813512631103393,6.4018181758821004,-6.84725775809288
1789075608141547500,6.623547607421875,3.0015055827543136,6.292889014607668,-6.89643884536922
1789075608151489500,6.633489501953125,3.1366061271175742,6.185656135857105,-6.9332374209344385
1789075608161432600,6.6434326171875,3.264103795261681,6.08730389817655,-6.9613763047039505
1789075608171375600,6.653375732421875,3.3844638666108247,6.001504268077015,-6.978375954821705
1789075608181318400,6.663318359375,3.506842292045057,5.9241422114551066,-6.9840522468924515
1789075608191261400,6.673261474609375,3.6250390478804704,5.845047631952166,-6.990344040513039
1789075608201203700,6.68320361328125,3.716796709601581,5.761695395004749,-7.011323700177669
1789075608211146500,6.693146484375,3.773024792779982,5.678506824186444,-7.049056926244497
1789075608221089500,6.703089599609375,3.8076793420538304,5.605352740648389,-7.088862866932153
1789075608231032600,6.713032470703125,3.8426834354177113,5.541774294707179,-7.119894549533725
1789075608240974300,6.722974365234375,3.9112504834264517,5.468685677620768,-7.139044071161747
1789075608250917400,6.73291748046875,4.000332788458467,5.381355769214034,-7.15602735466659
1789075608260860400,6.7428603515625,4.071204898539185,5.297918192070722,-7.178284779182076
1789075608270803500,6.752803466796875,4.111800820560753,5.234691043785214,-7.201491467246413
1789075608280746500,6.76274658203125,4.13662955686897,5.191573786592484,-7.218464813879132
1789075608290688500,6.7726884765625,4.156161940334737,5.15358980063498,-7.234446226865053
1789075608300631600,6.782631591796875,4.163910947026312,5.108778014484048,-7.261725278934836
1789075608310574600,6.79257470703125,4.1491003313854335,5.060191385969519,-7.304097270718216
1789075608320517600,6.802517578125,4.111750259417295,5.017956756830215,-7.3541808597922325
1789075608330459600,6.812459716796875,4.065160357677937,4.984954066416621,-7.4023711824655525
1789075608340402700,6.822402587890625,4.015494701755046,4.95571335888505,-7.448968098467588
1789075608350345700,6.832345703125,3.9535841890260577,4.927820558831096,-7.500408947369456
1789075608360288500,6.84228857421875,3.883013107718527,4.905350952869654,-7.551829338005184
1789075608370231300,6.852231201171875,3.809464471904933,4.892169399735331,-7.597699693298339
1789075608380173600,6.862173583984375,3.740653678268194,4.886857557062805,-7.635216646265983
1789075608390116400,6.872116455078125,3.6758547506213186,4.884091307219863,-7.668386509940028
1789075608400059400,6.882059326171875,3.6020258365616202,4.885322310319543,-7.702558828654885
1789075608410002400,6.89200244140625,3.5248584257289766,4.89480997737199,-7.732179475414752
1789075608419944400,6.9019443359375,3.4586078379690646,4.910800450447201,-7.751931639111041
1789075608429887500,6.911887451171875,3.4099583733513947,4.938483991664648,-7.755896451088786
1789075608439830500,6.92183056640625,3.37404768653661,4.984304662597179,-7.742280598190426
1789075608449773600,6.931773681640625,3.3446354218304157,5.038699685129523,-7.71979988631308
1789075608459716600,6.941716552734375,3.3054590112179514,5.102282222723961,-7.694870027717948
1789075608469658600,6.95165869140625,3.2451801913440224,5.181456297203898,-7.667575193557143
1789075608479601700,6.9616015625,3.1760812284156676,5.2743771574854845,-7.6330749580621715
1789075608489544400,6.97154443359375,3.1094477788180113,5.379309358078241,-7.58714264344871
1789075608499487500,6.981487548828125,3.0420588346779343,5.491670831888913,-7.533779886573552
1789075608509430500,6.991430419921875,2.972080750827491,5.600401840242744,-7.481485051190853
1789075608519372500,7.00137255859375,2.898418425506353,5.71344603562057,-7.424692319867014
1789075608529315600,7.011315673828125,2.82647254871428,5.844154482504725,-7.350326522451638
1789075608539258400,7.02125830078125,2.731651700030267,5.978227437385916,-7.2779995373874895
1789075608549201400,7.031201416015625,2.628882230429351,6.113574065464735,-7.20302583720684
1789075608559143400,7.041143310546875,2.5266122347831725,6.25246874141395,-7.119917345887422
1789075608569086500,7.05108642578125,2.432189007114619,6.382568701010942,-7.036879581716656
1789075608579029500,7.061029541015625,2.351113921318948,6.5044064436972135,-6.9523629771649835
1789075608588972500,7.07097265625,2.2651363043040034,6.638108811700343,-6.853834213873744
1789075608598915600,7.08091552734375,2.180128701364994,6.783782772526145,-6.737783822417259
1789075608608857300,7.090857421875,2.1175570943787694,6.919225262194871,-6.61896221268177
1789075608618800400,7.10080029296875,2.071992882425338,7.02764121325016,-6.518397559648752
1789075608628743400,7.110743408203125,2.0319941956445575,7.118023494964838,-6.43235067678988
1789075608638686500,7.1206865234375,1.9786763008244335,7.212229134359955,-6.343419762927294
1789075608648629500,7.13062939453125,1.9299042327404021,7.311810037052631,-6.243658827492594
1789075608658571500,7.140571533203125,1.896789314123988,7.409436298546194,-6.137819448927044
1789075608668514600,7.1505146484375,1.879830872799456,7.498981544914841,-6.033398704987764
1789075608678457600,7.16045751953125,1.868640785743296,7.583105935278534,-5.930860121533274
1789075608688400400,7.170400390625,1.8379538249261675,7.676303858935833,-5.81950811702609
1789075608698342700,7.1803427734375,1.8011225161351263,7.779780600023269,-5.6922197077184915
1789075608708285700,7.19028564453125,1.7836014724917708,7.876194563117623,-5.563693281048536
1789075608718228500,7.200228515625,1.7802932247266172,7.960201464581489,-5.443907210195064
1789075608728171500,7.210171630859375,1.7850354508176445,8.039512901705503,-5.324496402394772
1789075608738114600,7.220114501953125,1.7683984965324402,8.12262197754681,-5.202512529236078
1789075608748056600,7.230056640625,1.7235637678973377,8.21236771492362,-5.0751095536381
1789075608757999600,7.23999951171875,1.6911426767639814,8.297475855627656,-4.945940737411379
1789075608767942700,7.249942626953125,1.670624497131258,8.366457037395238,-4.835474283567071
1789075608777885700,7.2598857421875,1.6332874307751655,8.424628655856846,-4.74641097549647
1789075608787827700,7.26982763671875,1.5911515858352183,8.477817809730768,-4.665325514437258
1789075608797770800,7.279770751953125,1.5569683073349296,8.52658447098732,-4.5873280825212595
1789075608807713500,7.289713623046875,1.539503670053929,8.569054077926278,-4.5134947845473885
1789075608817656600,7.299656494140625,1.5297184813596307,8.603978676313162,-4.449934751045704
1789075608827599600,7.309599609375,1.5075126409009099,8.63697610602975,-4.393228528961539
1789075608837541600,7.319541748046875,1.477045606444776,8.666157776850461,-4.345849522671103
1789075608847484700,7.329484619140625,1.458637843094766,8.685758549377322,-4.312812637726962
1789075608857427700,7.339427734375,1.465443431456387,8.69284879989922,-4.296188250662386
1789075608867370500,7.34937060546875,1.496801569533348,8.688095467892289,-4.294991149832308
1789075608877313500,7.3593134765625,1.5288976664960383,8.675961962506175,-4.308195499320328
1789075608887255600,7.369255615234375,1.5476260401025415,8.660020881530642,-4.3335076352313155
1789075608897198600,7.379198486328125,1.5626104048751295,8.635863176351785,-4.376128048817813
1789075608907141600,7.3891416015625,1.5791564660064876,8.60086375916302,-4.438671891014278
1789075608917084700,7.399084716796875,1.604825452531129,8.556766843283176,-4.514050372603536
1789075608927026400,7.4090263671875,1.6397750392287969,8.507502169376611,-4.59390132343173
1789075608936969500,7.418969482421875,1.6740313829652964,8.45564163375795,-4.676553303155303
1789075608946912500,7.42891259765625,1.698990613785386,8.391599077436327,-4.781721358330548
1789075608956855600,7.43885546875,1.69767777762115,8.325157643279432,-4.896939390616119
1789075608966798600,7.448798583984375,1.6912169110439716,8.260438210609555,-5.007527717274427
1789075608976740600,7.45874072265625,1.6847941845200956,8.20399443885386,-5.101600670200586
1789075608986683600,7.46868359375,1.6762473054490983,8.169792894044518,-5.158978507936
1789075608996626700,7.478626708984375,1.6865332832723856,8.14709415550232,-5.191423564466834
1789075609006569700,7.48856982421875,1.7043040638931095,8.135608300369977,-5.203616691085696
1789075609016512500,7.498512451171875,1.7260272354014217,8.13086782784462,-5.203866866454482
1789075609026454800,7.508454833984375,1.7610984026521443,8.121607247546315,-5.2065749563693995
1789075609036397600,7.5183974609375,1.7903646830163895,8.111608416101337,-5.212178183203935
1789075609046340600,7.528340576171875,1.8333686890929937,8.096628289112449,-5.220511127263308
1789075609056283600,7.53828369140625,1.8794418734818696,8.076360577109456,-5.23550177564621
1789075609066225400,7.548225341796875,1.902816173198074,8.056043765267729,-5.258312742391229
1789075609076168400,7.55816845703125,1.9143616495631635,8.03362559723258,-5.288330864036083
1789075609086111500,7.568111572265625,1.906087449953705,8.01089120285511,-5.325677721133828
1789075609096054500,7.578054443359375,1.8968202937841414,7.987211052060127,-5.36441047963202
1789075609105997600,7.58799755859375,1.9171778760276734,7.956441235265135,-5.402763298901915
1789075609115939600,7.597939697265625,1.9430140358127652,7.919259797862171,-5.447969637328386
1789075609125882600,7.607882568359375,1.9658046904221176,7.879383130025863,-5.497389794057607
1789075609135825700,7.61782568359375,1.9846575671911237,7.837331456238031,-5.550470226860046
1789075609145768700,7.627768798828125,1.9902467655003069,7.796495587980747,-5.60570520734787
1789075609155710700,7.637710693359375,2.0036236950762567,7.752143236035108,-5.662167683804035
1789075609165653800,7.64765380859375,2.0311738191723823,7.697763995593786,-5.726179844987392
1789075609175596800,7.6575966796875,2.054918705766648,7.6388436045914885,-5.796186278149485
1789075609185539800,7.667539794921875,2.072918180576712,7.574867683765292,-5.873223340600728
1789075609195482600,7.677482666015625,2.0896338991865515,7.505149419894814,-5.956217265629768
1789075609205424600,7.687424560546875,2.10797400412783,7.4319082425951954,-6.040988137203454
1789075609215367700,7.69736767578125,2.1287502501748503,7.357258367541432,-6.124507547411322
1789075609225310500,7.707310546875,2.151813145854324,7.288609194207191,-6.198083071231841
1789075609235253500,7.71725341796875,2.1712091895893213,7.2310484011203044,-6.258447815823555
1789075609245196500,7.727196533203125,2.1817339446045456,7.1776815525919195,-6.3159560019403695
1789075609255138600,7.737138671875,2.1981759608395395,7.117411500546336,-6.37815380717814
1789075609265081600,7.74708154296875,2.236978277442604,7.045863098639249,-6.443768142861128
1789075609275024600,7.757024658203125,2.3048400997914373,6.964217081087828,-6.508287669044733
1789075609284967700,7.7669677734375,2.3887936636328697,6.876263487824797,-6.5712307396918535
1789075609294910700,7.77691064453125,2.473468673616648,6.789096076503395,-6.630273295769095
1789075609304852700,7.786852783203125,2.5601506395086644,6.700655576506256,-6.687096422231197
1789075609314795800,7.796795654296875,2.6536706347271797,6.601709464585781,-6.74876757324636
1789075609324738800,7.80673876953125,2.747686889030039,6.496328935703635,-6.8131012214690445
1789075609334681600,7.816681640625,2.8273385178938506,6.387369379290938,-6.883174290126561
1789075609344623600,7.82662353515625,2.8914786893710493,6.279267901012301,-6.955609411740302
1789075609354566700,7.836566650390625,2.9618820128962398,6.172304486852884,-7.021418977734446
1789075609364509700,7.846509765625,3.05003054420948,6.059360829240084,-7.081795412763952
1789075609374452500,7.856452392578125,3.1531630019038914,5.943582824984192,-7.134548513308167
1789075609384395500,7.8663955078125,3.2665102718815207,5.825146999695897,-7.181085808077454
1789075609394337500,7.876337646484375,3.372408687157929,5.704785759302974,-7.228599254402518
1789075609404280600,7.886280517578125,3.461868301069736,5.586900553634762,-7.278214056921005
1789075609414223600,7.8962236328125,3.5280323795899746,5.47778376083374,-7.329205993011594
1789075609424166700,7.906166748046875,3.5842692305967208,5.380124766114354,-7.37412065501511
1789075609434109700,7.916109619140625,3.6549843965500592,5.28141713912487,-7.41067548495233
1789075609444051700,7.9260517578125,3.719136550725996,5.177849212622642,-7.451729379874467
1789075609453994500,7.935994384765625,3.7529108100339768,5.079125803542137,-7.502568755751848
1789075609463937500,7.9459375,3.754752930769324,4.9961464915603395,-7.557165438336133
1789075609473880600,7.955880615234375,3.751944010828435,4.927814713612198,-7.603284799954294
1789075609483823600,7.96582373046875,3.769192082749307,4.8551732557713985,-7.641392704552412
1789075609493765600,7.975765625,3.7769428430065513,4.780878185504674,-7.684287258905172
1789075609503708700,7.985708740234375,3.762259945398569,4.723424067662656,-7.726904165360331
1789075609513651700,7.995651611328125,3.7296941850975154,4.6918525790959595,-7.761850391057133
1789075609523594500,8.005594482421875,3.6978114386245604,4.678634785604476,-7.785047142249345
1789075609533536800,8.015536865234376,3.6844223802193996,4.664232166242599,-7.800022593063115
1789075609543479800,8.025479736328125,3.6681875769942995,4.647800963662564,-7.817462972685695
1789075609553422600,8.035422607421875,3.6320100559368727,4.64112309333384,-7.838294748312235
1789075609563365600,8.04536572265625,3.5736788629993796,4.660263554872572,-7.853734309506416
1789075609573308700,8.05530859375,3.5174928653970357,4.702417812252045,-7.853973378959298
1789075609583250400,8.06525048828125,3.4811242056816813,4.743260110250115,-7.84561413141489
1789075609593193500,8.075193359375,3.4471251977071162,4.778234392997622,-7.839401248249411
1789075609603136500,8.085136474609374,3.404267760494351,4.816046821780502,-7.834989861547946
1789075609613079600,8.09507958984375,3.3533705169498917,4.869322484894097,-7.823999680978059
1789075609623022600,8.105022705078126,3.303741101384163,4.940899820634723,-7.800204963892698
1789075609632964600,8.114964599609374,3.27000775860846,5.01591443734765,-7.766470452073216
1789075609642907600,8.12490771484375,3.2513968739017844,5.087608385205269,-7.727551231092214
1789075609652850700,8.1348505859375,3.22261823092401,5.165438059338927,-7.687874469742178
1789075609662793700,8.144793701171874,3.1779376699373123,5.25579053043723,-7.645112601858377
1789075609672736800,8.15473681640625,3.1286773799449206,5.361406037119031,-7.591909419459104
1789075609682678800,8.1646787109375,3.0801907046735284,5.480287268087268,-7.526570393586158
1789075609692621800,8.174621826171874,3.040709465895593,5.605425805884599,-7.450079274579882
1789075609702564900,8.18456494140625,2.993719458922744,5.728781551918387,-7.374898069128394
1789075609712508000,8.1945078125,2.935838347840309,5.860960655876994,-7.293861123386025
1789075609722449700,8.20444970703125,2.868571568775177,6.005529870331287,-7.202452421233057
1789075609732392700,8.214392822265625,2.7964354301080108,6.15733663482368,-7.1019368680387736
1789075609742335700,8.224335693359375,2.733246568006277,6.30991146107912,-6.9917615060955285
1789075609752278800,8.23427880859375,2.6749258964627978,6.449883410871029,-6.885796455323696
1789075609762221800,8.244221923828125,2.610896491883695,6.577074789544939,-6.789381323185562
1789075609772163800,8.254163818359375,2.5452999841183424,6.699911480140686,-6.6935062892735
1789075609782107000,8.26410693359375,2.4846847718968985,6.825067553594708,-6.589020078882575
1789075609792050000,8.2740498046875,2.4322210096880794,6.952632441756129,-6.474226409488916
1789075609801993000,8.283992919921875,2.39236421559602,7.074288982656598,-6.356212609004974
1789075609811936000,8.29393603515625,2.352276973748952,7.1868924485296,-6.243858733978867
1789075609821878000,8.3038779296875,2.3086143576331435,7.29329238358736,-6.135840842330455
1789075609831821000,8.313821044921875,2.261936631479859,7.40220926990211,-6.021736908766627
1789075609841764000,8.32376416015625,2.2207203856028617,7.515757323148846,-5.89509790327847
1789075609851707000,8.333706787109374,2.203506946603954,7.619200746488571,-5.767383377513289
1789075609861650000,8.34364990234375,2.202874640049785,7.703473020890355,-5.654575328978896
1789075609871591700,8.353591796875,2.1924727807618676,7.778410480713844,-5.555159261459112
1789075609881534700,8.36353466796875,2.1687734868749975,7.85391258868277,-5.457368164792657
1789075609891477800,8.373477783203125,2.1505906183220445,7.93315739031136,-5.348868042585253
1789075609901420800,8.3834208984375,2.1485613044515253,8.01096660617888,-5.232443557119369
1789075609911363800,8.39336376953125,2.1498066283375024,8.085433525881172,-5.11610382732749
1789075609921305900,8.403305908203125,2.1371530446000397,8.159020155617593,-5.003335526281595
1789075609931249000,8.413248779296875,2.12451655812785,8.22691237310469,-4.896397538824379
1789075609941192000,8.42319189453125,2.1106648506470025,8.286347727891803,-4.801241466836631
1789075609951135000,8.433135009765625,2.109343831176311,8.337693299725652,-4.712100125093758
1789075609961077000,8.443076904296875,2.114688114813715,8.386682663822173,-4.621910735602676
1789075609971020000,8.45302001953125,2.1179459475658833,8.43333218679428,-4.5347120523601765
1789075609980963000,8.462963134765625,2.124395415966213,8.474294896301627,-4.454622324340045
1789075609990905900,8.47290576171875,2.132510625621676,8.508674135765434,-4.384662945190072
1789075610000849000,8.482848876953126,2.139971170760691,8.538492350924015,-4.322620622774958
1789075610010791000,8.492791015625,2.142600934742391,8.564677178016305,-4.269183339358866
1789075610020734000,8.50273388671875,2.1500782848857343,8.584299577853082,-4.225793987226486
1789075610030676700,8.5126767578125,2.1626653792582453,8.59243612255752,-4.202771131296456
1789075610040619800,8.522619873046875,2.178500807902217,8.589570211732386,-4.200452625221014
1789075610050562800,8.532562744140625,2.1851776553176343,8.579574302896857,-4.217383009494841
1789075610060504800,8.5425048828125,2.1694860190585255,8.568707456445694,-4.24746835115701
1789075610070447900,8.55244775390625,2.146884457280487,8.552037476673721,-4.292309363402426
1789075610080391000,8.562390869140625,2.1292695978738365,8.526947459080814,-4.350606361809373
1789075610090334000,8.572333984375,2.127207696907967,8.496355921462177,-4.411041249027848
1789075610100277000,8.582277099609374,2.1270304406449196,8.462599197810889,-4.475550253817439
1789075610110218800,8.59221875,2.109181334090978,8.433879883804916,-4.5377740702793
1789075610120161800,8.602161865234375,2.0911425501838323,8.402409225264192,-4.6040214431688185
1789075610130104800,8.612104736328124,2.070766701631248,8.368844224792719,-4.673836737672985
1789075610140048000,8.6220478515625,2.05860221658498,8.335490236723423,-4.738371169164776
1789075610149991000,8.631990966796875,2.054658885786682,8.299706391158699,-4.80246574793458
1789075610159933000,8.641932861328126,2.0401434537000953,8.268470710417628,-4.8621617994844915
1789075610169876000,8.6518759765625,2.0206880809932946,8.242793248325587,-4.913612585258484
1789075610179818800,8.66181884765625,2.0008447318822142,8.217883847996593,-4.963205175945163
1789075610189761800,8.67176171875,1.9894599990367887,8.189819783028959,-5.013907773700356
1789075610199704800,8.681704833984375,1.9827239687800406,8.160793595030903,-5.063657600775361
1789075610209646800,8.691646728515625,1.9513000719904898,8.138990928545594,-5.110739669945835
1789075610219590000,8.70158984375,1.9236806820504366,8.117634836784005,-5.154986223429441
1789075610229533000,8.711532958984375,1.921110977692902,8.086994783848523,-5.203866866454482
1789075610239476000,8.72147607421875,1.9303819332547485,8.046792537319659,-5.262425438407063
1789075610249419000,8.7314189453125,1.9343235104873775,8.006755125963688,-5.321717585331201
1789075610259360800,8.74136083984375,1.900233170967549,7.977969760984182,-5.376939121815562
1789075610269303800,8.7513037109375,1.8671020318686962,7.947996063002943,-5.432646980512142
1789075610279246800,8.761246826171876,1.871549512796849,7.905091571778058,-5.493376466763019
1789075610289190000,8.77118994140625,1.8971832818776369,7.8507848120510575,-5.562035576969385
1789075610299133000,8.7811328125,1.921664081531018,7.796402649000287,-5.6297150284886355
1789075610309075000,8.791074951171876,1.9157526655301451,7.749671292963623,-5.695867124310135
1789075610319018000,8.80101806640625,1.9235728377617896,7.697976761561632,-5.762934581410884
1789075610328960800,8.810960693359375,1.9786876990012823,7.625918072044849,-5.839566570192575
1789075610338903800,8.82090380859375,2.0537762577332557,7.534495341366529,-5.931589020329714
1789075610348846800,8.830846923828124,2.1235008052140474,7.445896435937285,-6.0182853070080276
1789075610358788900,8.840788818359375,2.1641322369404135,7.376198630332946,-6.089221714496612
1789075610368732000,8.85073193359375,2.172584131204337,7.323796827444434,-6.14916735689342
1789075610378675000,8.860675048828124,2.1685354403354227,7.279252167797088,-6.203250829258561
1789075610388618000,8.870617919921875,2.1707553083419797,7.230806993579864,-6.258886791762709
1789075610398560800,8.880560791015625,2.189038714659959,7.176585574048757,-6.314674729958176
1789075610408502800,8.890502685546876,2.2138347177423534,7.118146244561672,-6.371915205049515
1789075610418445800,8.90044580078125,2.24506645296067,7.053632563596963,-6.432444200292229
1789075610428388900,8.910388916015625,2.300724188905209,6.976212054786085,-6.496887154108285
1789075610438332000,8.920331787109374,2.383610561906546,6.885141790807247,-6.563811987867951
1789075610448275000,8.93027490234375,2.469441317796707,6.784138746356963,-6.636845075374842
1789075610458217000,8.940217041015625,2.542439918512106,6.6805339949756855,-6.71392831505537
1789075610468160000,8.950159912109376,2.6104493326380847,6.575939648035169,-6.790653242817521
1789075610478103000,8.96010302734375,2.703132000249624,6.460074550017714,-6.865193227756023
1789075610488045800,8.9700458984375,2.8155630321651697,6.335018429806828,-6.9361740589082235
1789075610497988000,8.979988037109376,2.906227053430676,6.213079564833641,-7.008698612371087
1789075610507931000,8.989930908203124,2.9769571246922015,6.101614163079858,-7.0766124571681015
1789075610517873700,8.999873779296875,3.062625237366557,5.997604338029027,-7.128778113213181
1789075610527816700,9.009816650390626,3.1587185902044177,5.887035592854023,-7.178834229758381
1789075610537759700,9.019759765625,3.2156141973808405,5.767741689431667,-7.250058222016691
1789075610547701800,9.02970166015625,3.2343577685564755,5.651926275774836,-7.332464118024706
1789075610557644800,9.039644775390625,3.263592338608205,5.5448272525370115,-7.4009601466238495
1789075610567587800,9.049587890625,3.333478068000078,5.434008331993222,-7.451837516424059
1789075610577531000,9.05953076171875,3.4027900891572234,5.312539422619342,-7.507885566860437
1789075610587474000,9.069473876953126,3.4458573697283863,5.1936827415704725,-7.571136680543423
1789075610597416000,9.079416015625,3.4669910509109494,5.091075184533,-7.630944960296153
1789075610607359000,9.08935888671875,3.5069027900606393,5.007523625621199,-7.667903694859147
1789075610617302000,9.099302001953125,3.56823228803128,4.928231477719545,-7.690943794184923
1789075610627245000,9.1092451171875,3.598944237159192,4.8544990097716445,-7.723457824298739
1789075610637187800,9.119187744140625,3.593825286710262,4.792346212719381,-7.764549713143706
1789075610647129900,9.1291298828125,3.570797754605114,4.744272502163052,-7.804591216152906
1789075610657073000,9.139072998046874,3.568115091392398,4.710065404395759,-7.826506110841035
1789075610667015700,9.149015625,3.578047287341952,4.679768173548579,-7.8401365767866364
1789075610676958700,9.158958740234375,3.558545299014449,4.6606958088099955,-7.860346421122551
1789075610686901800,9.16890185546875,3.5118592434242366,4.658812479281425,-7.88242848907113
1789075610696843800,9.17884375,3.4561829489097,4.670647586242854,-7.900013830122351
1789075610706787000,9.188787109375,3.4110075901433823,4.690832880659401,-7.907685679924487
1789075610716730000,9.198730224609376,3.3733699334055185,4.716365381322801,-7.908646049389243
1789075610726673200,9.208673095703125,3.327857305508852,4.745334286175668,-7.910596014413237
1789075610736616200,9.2186162109375,3.2703023576408623,4.782556347849964,-7.9121829913437365
1789075610746558200,9.22855810546875,3.21599735147953,4.825381051836907,-7.908443220293521
1789075610756501200,9.238501220703125,3.1763729048386216,4.87252332676202,-7.895541068622469
1789075610766444300,9.2484443359375,3.146791128784418,4.920524556604027,-7.877596831130981
1789075610776387300,9.25838720703125,3.1104183774158356,4.969026429444551,-7.861580346831679
1789075610786330000,9.268330078125,3.059918901017308,5.023744692581892,-7.846606649583578
1789075610796273200,9.278273193359375,3.0048388188302515,5.088115165683627,-7.826392713594436
1789075610806215200,9.288215087890626,2.961995117881894,5.161741542908549,-7.794444500669837
1789075610816158200,9.298158203125,2.939313038213551,5.24139434081614,-7.749748449853062
1789075610826101200,9.308101318359375,2.931532175078988,5.3230666618525975,-7.696846296226978
1789075610836044300,9.318044189453126,2.9183696189060804,5.411027853900194,-7.640306662881374
1789075610845986000,9.327986083984374,2.8914073777005074,5.512611328586936,-7.5776809876203535
1789075610855929000,9.33792919921875,2.8564383556500075,5.6308992698371405,-7.503608035671711
1789075610865872100,9.3478720703125,2.822237395362556,5.760030092141032,-7.418047475025057
1789075610875815200,9.357815185546874,2.7872286258235572,5.886362223637104,-7.331611300587654
1789075610885758200,9.36775830078125,2.7364278283908963,6.000959493675827,-7.2574693750560275
1789075610895701200,9.377701171875,2.673637025696039,6.1205158474266526,-7.180623451262712
1789075610905643300,9.387643310546874,2.59053934803158,6.261532337835431,-7.088914304858446
1789075610915586300,9.39758642578125,2.4971391798004507,6.416614762997627,-6.982959190958738
1789075610925529300,9.407529296875,2.4119481831185516,6.570561462128162,-6.868812587296962
1789075610935472000,9.41747216796875,2.350656386809796,6.703647159537673,-6.760614078384638
1789075610945414400,9.427414306640625,2.299577356957644,6.821494955804944,-6.659547321048379
1789075610955357400,9.437357421875,2.229688704956323,6.9408104865372175,-6.5592720063507555
1789075610965300200,9.44730029296875,2.1491415885575114,7.067830015775561,-6.44959991775453
1789075610975243300,9.4572431640625,2.0927007394112644,7.190161094936728,-6.331868441343307
1789075610985186000,9.46718603515625,2.059180454864353,7.296950321573019,-6.2197004442781205
1789075610995129000,9.477129150390626,2.035982680758834,7.386902395176887,-6.120361533647776
1789075611005071000,9.487071044921874,1.998540984984487,7.474425780329108,-6.025712826660275
1789075611015014100,9.49701416015625,1.9421448517628013,7.571676194247603,-5.921836272600292
1789075611024957200,9.506957275390626,1.9014678273290395,7.667594482779503,-5.8105754535079
1789075611034900200,9.516900146484375,1.8944428971283136,7.7455515826851125,-5.70857930636704
1789075611044843300,9.52684326171875,1.8944551720879972,7.813699820759892,-5.614937146073579
1789075611054785300,9.536785400390626,1.868963734087348,7.8870964808821675,-5.520061060070991
1789075611064728300,9.546728271484374,1.8351510424651205,7.965055334353447,-5.41853194591999
1789075611074671400,9.55667138671875,1.8271680808871984,8.03179545919597,-5.321852025365829
1789075611084614400,9.566614501953126,1.8370950161397457,8.086428966659307,-5.234988565427065
1789075611094557200,9.57655712890625,1.8380739441744982,8.142323287838696,-5.147276964226365
1789075611104499200,9.586499267578125,1.813917554169893,8.210734560763836,-5.046182734361291
1789075611114442000,9.59644189453125,1.7956201193265615,8.286062481209635,-4.928216864672303
1789075611124385000,9.606385009765624,1.8027224986776709,8.346653435772657,-4.822235155026615
1789075611134328000,9.616328125,1.8144909701436758,8.390394377821684,-4.7412335728585715
1789075611144271000,9.62627099609375,1.8188615864433346,8.429661973848939,-4.669359884519875
1789075611154213000,9.636213134765624,1.8076073481097816,8.472392862072587,-4.595810956445336
1789075611164156200,9.64615625,1.7956281565025447,8.51022954851389,-4.5301308620497585
1789075611174099200,9.65609912109375,1.7965031857714056,8.531534786871076,-4.489529387070238
1789075611184042200,9.666042236328124,1.8187492121100424,8.539099669167399,-4.466128637738525
1789075611193985300,9.6759853515625,1.8417657844297586,8.54308903106451,-4.4490366331622
1789075611203927300,9.68592724609375,1.8344230204515157,8.548577691608667,-4.441520558443665
1789075611213870300,9.695870361328126,1.824443185967952,8.545311967810989,-4.451905174335837
1789075611223813400,9.7058134765625,1.8329916724741457,8.530522394958139,-4.476687441153824
1789075611233756400,9.71575634765625,1.845509208741784,8.513687580013274,-4.503510566149652
1789075611243699200,9.72569921875,1.8566322219111024,8.497739484775066,-4.528987829494476
1789075611253641200,9.73564111328125,1.8686860861897467,8.477339086303115,-4.56214132655561
1789075611263584300,9.745584228515625,1.8899596142344175,8.447671093270182,-4.608176224760711
1789075611273527000,9.755527099609376,1.9016556049861013,8.417825405582786,-4.657711824563146
1789075611283470000,9.765469970703125,1.8884663069367407,8.399158699035643,-4.696620816411078
1789075611293413000,9.7754130859375,1.8834828194357454,8.380390285679697,-4.73201420135349
1789075611303355100,9.785355224609376,1.8933517408907412,8.355831013962627,-4.771340834091603
1789075611313298200,9.795298095703124,1.9164453239694237,8.32333510402739,-4.818685061329603
1789075611323241200,9.8052412109375,1.933662416230142,8.284998066848516,-4.877516897265613
1789075611333184300,9.815184326171876,1.9351684368789195,8.247887941116094,-4.939419811210036
1789075611343127300,9.825127197265624,1.936262369595468,8.20876472199559,-5.003744691604376
1789075611353070300,9.8350703125,1.9390623755775391,8.167247301214934,-5.070158068710565
1789075611363012400,9.845012451171876,1.9520958985432981,8.124103740537166,-5.134065600475669
1789075611372955400,9.854955322265624,1.973510150232911,8.083704510131478,-5.189347927236557
1789075611382898200,9.864898193359375,2.003904411713779,8.04753780272901,-5.233725413623452
1789075611392841200,9.87484130859375,2.037918032735586,8.014567845541238,-5.271051812455058
1789075611402784000,9.884783935546874,2.058572990490496,7.986244837376475,-5.305899838474392
1789075611412726300,9.894726318359375,2.0559294902443885,7.964137050464749,-5.340045853704214
1789075611422669000,9.9046689453125,2.0581891057394444,7.942084208610654,-5.371921001392603
1789075611432612000,9.914612060546874,2.0915337414585053,7.914063982784747,-5.400319997403026
1789075611442555100,9.92455517578125,2.1398419914230704,7.88089937980771,-5.429813218390941
1789075611452498200,9.934498291015625,2.1874659123852846,7.844992784646153,-5.46273407573998
1789075611462440200,9.944440185546876,2.222218076814711,7.808707419300079,-5.500563747918606
1789075611472383200,9.95438330078125,2.242297426638752,7.772382890987396,-5.543692111027241
1789075611482326300,9.964326171875,2.252989062653482,7.734284923261404,-5.59242545453608
1789075611492269300,9.974269287109376,2.279161176394671,7.685885926273465,-5.648273013964295
1789075611502212400,9.98421240234375,2.32569072624892,7.621785502284765,-5.715763080391287
1789075611512154000,9.994154052734375,2.382853606059402,7.542108154457807,-5.797327264878153
1789075611522097200,10.00409716796875,2.436030484973639,7.454571909824013,-5.887742864340543
1789075611532040200,10.014040283203125,2.481951255279779,7.366272864124179,-5.978990238451957
1789075611541983200,10.023983154296875,2.538784318614006,7.270552143990993,-6.071574998646974
1789075611551926000,10.033926025390626,2.605640178790688,7.163457212406397,-6.169758894023299
1789075611561868300,10.043868408203124,2.6642633404120803,7.050396650415658,-6.274070332369208
1789075611571811000,10.05381103515625,2.7033006348147985,6.94257749620974,-6.376770828387141
1789075611581754000,10.063754150390626,2.733339799247682,6.840338772484659,-6.473719044488668
1789075611591697200,10.073697265625,2.7745217044636608,6.726710055217146,-6.574478927832842
1789075611601640200,10.08364013671875,2.826427540528774,6.5987430159956215,-6.681188659492134
1789075611611583200,10.093583251953126,2.8696210778281093,6.461142471510171,-6.79626874461174
1789075611621525200,10.103525146484374,2.8962884277403353,6.323423853603005,-6.913481165584922
1789075611631468300,10.11346826171875,2.900591970153153,6.186800629717111,-7.034235204687715
1789075611641411300,10.123411376953126,2.9034476518452164,6.039235156056285,-7.16016927677691
1789075611651354400,10.133354248046874,2.9525068663075564,5.882605501452088,-7.269666593328118
1789075611661297400,10.14329736328125,3.0706223736003038,5.714120573881268,-7.354623927384615
1789075611671239200,10.1532392578125,3.216270030941069,5.53062044800818,-7.432244927203655
1789075611681182200,10.16318212890625,3.322991453038156,5.3556560952901835,-7.512994288176298
1789075611691125200,10.173125244140625,3.399525534403324,5.218098220902681,-7.575294969266652
1789075611701067500,10.183067626953125,3.531828849263489,5.101440511202812,-7.594200745266676
1789075611711010600,10.193010498046876,3.6736005419537423,4.986103820973635,-7.603539651498198
1789075611720952600,10.20295263671875,3.75024685152173,4.871120766487717,-7.640563267990946
1789075611730895600,10.2128955078125,3.792411630295217,4.75845066511929,-7.6905866513103245
1789075611740838400,10.22283837890625,3.8516806886047124,4.649623795175552,-7.727607345193624
1789075611750781400,10.232781494140625,3.8898894232288,4.529197088330984,-7.77981567133665
1789075611760724500,10.242724365234375,3.8536680630296467,4.398848122408986,-7.872086543276906
1789075611770667500,10.25266748046875,3.8172754379168152,4.290524818073213,-7.949224728015064
1789075611780609300,10.262609375,3.7730847062736745,4.217259383115172,-8.00930364140272
1789075611790552300,10.27255224609375,3.74457698919177,4.162307311221957,-8.051320828399062
1789075611800495400,10.282495361328126,3.714869833192229,4.1157717700183385,-8.088914353734255
1789075611810438400,10.2924384765625,3.6337992774412036,4.093447417746484,-8.13692698175311
1789075611820381400,10.30238134765625,3.523271741059422,4.10881362144351,-8.177686277642845
1789075611830323500,10.312323486328125,3.4699046002700924,4.1645770097196095,-8.172296401298045
1789075611840266500,10.3222666015625,3.4730504970803855,4.234413639272749,-8.13498812264502
1789075611850209500,10.33220947265625,3.4911987327113745,4.3058851765513415,-8.08957778607905
1789075611860152600,10.342152587890626,3.5041958691895005,4.381175979857146,-8.043400556793808
1789075611870095600,10.352095703125,3.503152205355465,4.463139392794669,-7.998670019185543
1789075611880037600,10.36203759765625,3.493942770722508,4.551783306409418,-7.952612032365798
1789075611889980700,10.371980712890625,3.483307102678716,4.641556808575988,-7.905245885556936
1789075611899923500,10.38192333984375,3.4752480071246623,4.726370057986676,-7.858401716795563
1789075611909866500,10.391866455078125,3.439027523708343,4.814860534605383,-7.820523529300093
1789075611919809500,10.4018095703125,3.3569410689130423,4.9286219383418555,-7.7852429570823904
1789075611929752300,10.41175244140625,3.24182854282856,5.0555111191987985,-7.752594486933946
1789075611939694300,10.4216943359375,3.12935864020735,5.184830157551169,-7.713302340987324
1789075611949637400,10.431637451171875,3.0680721045956014,5.309458407738805,-7.652906616735458
1789075611959580400,10.441580322265626,3.036113954798877,5.427716538372636,-7.582368853175639
1789075611969523500,10.4515234375,2.9697616602301595,5.561025523144006,-7.5117188614130015
1789075611979466500,10.461466552734375,2.869063443945348,5.714316973236203,-7.4354177120208735
1789075611989408500,10.471408447265626,2.7852885976716872,5.858009989377856,-7.355016726094484
1789075611999351600,10.4813515625,2.744037718872726,5.977292786884307,-7.2741054525583975
1789075612009294600,10.491294677734375,2.731083252492547,6.073880352979898,-7.198578210148215
1789075612019237600,10.501237548828126,2.705118497891724,6.159718561524152,-7.1351657684236764
1789075612029180400,10.511180419921875,2.6428175245404244,6.243737153425812,-7.085312480974197
1789075612039122400,10.521122314453125,2.565999950058758,6.33245997749567,-7.034625665310025
1789075612049065500,10.5310654296875,2.4872569604724646,6.437835830202698,-6.966936861440539
1789075612059008300,10.54100830078125,2.3945300153277813,6.566628214332461,-6.878662950181961
1789075612068951300,10.550951416015625,2.2753521395005283,6.714400024220347,-6.775692989572883
1789075612078894300,10.560894287109376,2.1425234855920077,6.8792048019737,-6.652558192813396
1789075612088837400,10.57083740234375,2.0408345047041774,7.040567914840579,-6.5142743422389024
1789075612098779400,10.580779296875,1.9932551535360514,7.175097965839504,-6.380853129264712
1789075612108722400,10.590722412109375,1.9570676956064998,7.294135264152288,-6.25586539811492
1789075612118665500,10.60066552734375,1.8938925697691738,7.414401811999082,-6.132713065698742
1789075612128608500,10.6106083984375,1.8144811794020235,7.541338923650979,-6.0005222713023425
1789075612138551600,10.620551513671876,1.75253661827296,7.654322328752279,-5.8745513743340965
1789075612148493600,10.63049365234375,1.7291158490665255,7.7288441935122005,-5.783209307676553
1789075612158436600,10.6404365234375,1.7016924200899899,7.795823387807607,-5.700856018638611
1789075612168379600,10.650379638671875,1.6708201658338306,7.8767229709059,-5.597857416456938
1789075612178322400,10.660322509765624,1.6566326505273579,7.9669509388417,-5.4729912658602
1789075612188265500,10.670265380859375,1.6590544708468018,8.050310190051794,-5.348873303282261
1789075612198207500,10.68020751953125,1.6481016996778546,8.125016179206966,-5.238156089547276
1789075612208150300,10.690150390625,1.602920349562168,8.198225792324543,-5.137134924918413
1789075612218093300,10.70009326171875,1.560909007784724,8.27031078532636,-5.033478151088953
1789075612228036400,10.710036376953125,1.5540619183689355,8.329668398702145,-4.936789462706447
1789075612237979400,10.7199794921875,1.5729241474881768,8.368027647712827,-4.865431907196343
1789075612247922400,10.72992236328125,1.5757887431390583,8.400130758938193,-4.808855156710743
1789075612257864400,10.739864501953125,1.5527162028484045,8.439996320858597,-4.746146187080442
1789075612267807500,10.749807373046876,1.5307720820657909,8.481922322440147,-4.678044418495893
1789075612277750500,10.75975048828125,1.5216969413369894,8.51218535875678,-4.62574695276469
1789075612287693600,10.769693603515625,1.534677272810787,8.52565098952949,-4.596570250380039
1789075612297636600,10.77963671875,1.5455331594765185,8.53792478016913,-4.570069489206373
1789075612307578600,10.78957861328125,1.5441294301584363,8.554183256530761,-4.540044061037897
1789075612317521700,10.799521728515625,1.5393552014939487,8.561675658112764,-4.527527693814039
1789075612327464400,10.80946435546875,1.5377166405066847,8.551785547739266,-4.546731575977802
1789075612337407200,10.8194072265625,1.5585947394929824,8.527990246132015,-4.584160558401048
1789075612347350300,10.829350341796875,1.588270039049536,8.498729664856194,-4.628106959894299
1789075612357292300,10.839292236328125,1.5860042860746382,8.476915892454981,-4.6687119420051575
1789075612367235300,10.8492353515625,1.560935603530705,8.461976681998372,-4.704128707823157
1789075612377178400,10.859178466796875,1.5317130161777137,8.440677873381972,-4.751756720438599
1789075612387121400,10.869121337890626,1.5405588781952857,8.398855916696787,-4.822473055435717
1789075612397064400,10.879064453125,1.588336966805905,8.33698602823913,-4.913475222614407
1789075612407007500,10.889007568359375,1.632698086579889,8.277535475882887,-4.998709620046616
1789075612416949500,10.898949462890625,1.5918163333542643,8.251466968646644,-5.054680513593555
1789075612426892500,10.908892578125,1.5286384310379624,8.236728249198197,-5.098032748585939
1789075612436835600,10.918835693359375,1.515138021212816,8.208160910883546,-5.1478953883856535
1789075612446778600,10.928778564453125,1.5242333279468119,8.165902316346765,-5.212022115859389
1789075612456721700,10.9387216796875,1.5007203504122792,8.141066565775871,-5.2574967498332255
1789075612466663400,10.948663330078125,1.4588269359260797,8.126779097226262,-5.291283284100889
1789075612476606500,10.9586064453125,1.46084485161975,8.095271613806485,-5.338812512516975
1789075612486549500,10.968549560546874,1.4855888322539628,8.043200650307536,-5.410206600645184
1789075612496492300,10.9784921875,1.5035842154107988,7.9857105843693015,-5.48981205227971
1789075612506435300,10.988435302734375,1.4883631192728877,7.939853673079609,-5.5600242371469735
1789075612516378400,10.99837841796875,1.48207848604545,7.892726595723628,-5.628385241189599
1789075612526320400,11.0083203125,1.489320127736777,7.83895701161325,-5.7011465260177845
1789075612536263400,11.018263427734375,1.500482157742232,7.785045388683677,-5.771655063483118
1789075612546206500,11.02820654296875,1.5323051368519662,7.730423571658134,-5.83635053075552
1789075612556149500,11.0381494140625,1.5875209742479026,7.671061866629123,-5.899576509997249
1789075612566092500,11.048092529296875,1.6523881448253988,7.607372946050763,-5.963883270213008
1789075612576034600,11.05803466796875,1.714256425847858,7.542071329578757,-6.0290025158554315
1789075612585977600,11.0679775390625,1.7618980285972357,7.481710092118382,-6.090163963782787
1789075612595920600,11.077920654296875,1.8080901631906627,7.426026783341169,-6.144535605439543
1789075612605863700,11.08786376953125,1.8706804748773573,7.366316703265905,-6.197445357850194
1789075612615806500,11.097806396484375,1.9457929990068077,7.3033356386959545,-6.248644799211621
1789075612625749200,11.107749267578125,2.012958217393607,7.241480947807431,-6.2991545047432185
1789075612635691500,11.11769140625,2.070049785533547,7.187813655027747,-6.341973071250319
1789075612645634300,11.12763427734375,2.1320310254111883,7.130429972073435,-6.386065310955047
1789075612655577300,11.137577392578125,2.2179490211933848,7.06246176674068,-6.432160707175731
1789075612665520400,11.147520263671876,2.326945402485132,6.9823407667994495,-6.480941396957635
1789075612675463400,11.15746337890625,2.441018210258335,6.893502207395434,-6.533867515981197
1789075612685405400,11.167405517578125,2.550421564915776,6.799968768173456,-6.589852438053488
1789075612695348500,11.177348388671875,2.6658853886559606,6.704415221300721,-6.641857350578904
1789075612705291500,11.18729150390625,2.794957174248993,6.606463965636491,-6.686794808936119
1789075612715234600,11.197234619140625,2.9041493703737853,6.506978924533724,-6.737620156288147
1789075612725177600,11.207177490234375,2.9697122681304813,6.417371718844771,-6.79473963534832
1789075612735120600,11.21712060546875,3.010164397767186,6.333749432784319,-6.855138866731524
1789075612745062700,11.227062744140625,3.056076838636398,6.245740309941768,-6.9153089655339715
1789075612755005700,11.237005615234375,3.1046602522805333,6.147070092353224,-6.981764428216218
1789075612764948500,11.246948486328124,3.139071640448272,6.037198097270727,-7.061790735611319
1789075612774891500,11.2568916015625,3.1697362433031198,5.923031619864702,-7.144288986077904
1789075612784834600,11.26683447265625,3.23247473128885,5.798309261652827,-7.218108840048313
1789075612794776600,11.276776611328126,3.323390096966922,5.658325621423125,-7.287580435681343
1789075612804719600,11.2867197265625,3.396775066651404,5.523334382653236,-7.356977797034382
1789075612814662700,11.29666259765625,3.4384506006032227,5.400569003728032,-7.42841221717298
1789075612824605700,11.306605712890626,3.4864740422770377,5.287031471875309,-7.487467048209905
1789075612834548500,11.316548583984375,3.554954873307049,5.171206121346354,-7.536002823320031
1789075612844490500,11.326490478515625,3.6356431517422196,5.051754981535673,-7.578409301894903
1789075612854433500,11.33643359375,3.719304893030226,4.936528765943646,-7.613661232540011
1789075612864376600,11.34637646484375,3.808262110377848,4.827340076950192,-7.639653751930594
1789075612874319600,11.356319580078125,3.8923485068187116,4.724716737821698,-7.661400304314494
1789075612884262700,11.3662626953125,3.9465772328734396,4.638611695034801,-7.686234885841608
1789075612894205700,11.376205810546875,3.9625846570834513,4.587412838195264,-7.708693385887146
1789075612904147700,11.386147705078125,3.985551398912072,4.555330477496981,-7.7158742373019455
1789075612914090800,11.3960908203125,4.030774103951454,4.51295059466809,-7.717289364796876
1789075612924033500,11.406033447265624,4.051017558296024,4.4628278426274655,-7.735813448002934
1789075612933976600,11.4159765625,4.012803855235874,4.435658680672943,-7.77127522200644
1789075612943919600,11.425919677734376,3.944252881579101,4.436046218685806,-7.806070056533813
1789075612953861400,11.435861328125,3.905443258452415,4.445860341213644,-7.81998869177103
1789075612963804400,11.445804443359375,3.896418532736599,4.446981746459007,-7.823852381461858
1789075612973747500,11.45574755859375,3.8626355056002732,4.443384891010821,-7.842626640036702
1789075612983690500,11.4656904296875,3.7725051528200506,4.455606659202277,-7.879479576137661
1789075612993633500,11.475633544921875,3.678953593419492,4.489210530379414,-7.904597066259384
1789075613003576600,11.48557666015625,3.6258006799027322,4.5300487367242575,-7.905860218062997
1789075613013518600,11.4955185546875,3.597331833526492,4.569221932466328,-7.896313222038746
1789075613023461600,11.505461669921875,3.5593294351294635,4.603973512373864,-7.8933502805799245
1789075613033404700,11.51540478515625,3.490541730107367,4.652546404623985,-7.895587830373644
1789075613043347700,11.52534765625,3.423353276975453,4.723530742907524,-7.882847591266035
1789075613053290500,11.53529052734375,3.3874268080696464,4.81027905203402,-7.845822805729508
1789075613063232800,11.545232666015625,3.3795132584661243,4.898070732733607,-7.794753712749481
1789075613073175600,11.555175537109376,3.369591583910584,4.981752055504918,-7.745863717374205
1789075613083118600,11.56511865234375,3.3351910093978043,5.070713949027657,-7.702906619179249
1789075613093061600,11.5750615234375,3.291499167187512,5.178773926252126,-7.649622188237309
1789075613103004700,11.585004638671874,3.256220640796423,5.303038603824377,-7.579260365766286
1789075613112947700,11.59494775390625,3.2417619073331356,5.427995939835906,-7.496548180288076
1789075613122889500,11.604889404296875,3.2310230711758137,5.540712218433618,-7.418314017006755
1789075613132832500,11.61483251953125,3.1894591809049246,5.654594618201256,-7.350053550729155
1789075613142775600,11.624775634765625,3.1152570496186613,5.781254666477442,-7.283038116076588
1789075613152718600,11.634718505859375,3.034220980659127,5.91883942887187,-7.2063336465805765
1789075613162661600,11.64466162109375,2.9573551831215616,6.061329498964548,-7.119322887125611
1789075613172603600,11.654603759765624,2.8804019995614887,6.204993873533606,-7.026500811043381
1789075613182546700,11.664546630859375,2.7849399303644895,6.356824603423476,-6.928585795736312
1789075613192489700,11.67448974609375,2.6692975351870056,6.5164937718540425,-6.824991565749049
1789075613202432500,11.6844326171875,2.5400287657171488,6.682656978479027,-6.712727707093953
1789075613212375600,11.69437548828125,2.4280321796961126,6.841767928504943,-6.592819471165537
1789075613222318600,11.704318603515626,2.3468982033200563,6.981572120514512,-6.474575953578949
1789075613232260600,11.714260498046874,2.2721982055142522,7.105627539250254,-6.365339333790541
1789075613242203400,11.724203369140625,2.186746073678136,7.22027858530283,-6.265470846328139
1789075613252146400,11.734146484375,2.1046743780605492,7.331261171975731,-6.163871589550376
1789075613262089500,11.74408935546875,2.04587396017611,7.43549896056354,-6.057899524515867
1789075613272032500,11.754032470703125,2.0010900849454103,7.52889971331656,-5.956653318959474
1789075613281974500,11.763974609375,1.9610361608460545,7.61213387684226,-5.863458317911625
1789075613291917600,11.77391748046875,1.908379360283166,7.699014872437715,-5.76659836461544
1789075613301860600,11.783860595703125,1.8584072687596083,7.793592267754674,-5.6547904330343
1789075613311803600,11.7938037109375,1.8313804378852248,7.887121030801534,-5.532609575998783
1789075613321746700,11.80374658203125,1.8297868850834667,7.966964382845163,-5.4175394277513025
1789075613331689500,11.813689453125,1.8196578513875603,8.035872499376534,-5.31826890618205
1789075613341631700,11.8236318359375,1.7923671088799833,8.101950360918044,-5.226489617151022
1789075613351574800,11.83357470703125,1.7543199945583938,8.168570658773183,-5.13490205129981
1789075613361517600,11.843517578125,1.7309664453692732,8.234501220798492,-5.036581962323188
1789075613371460600,11.853460693359375,1.7293242311201988,8.296130286237597,-4.934981536501645
1789075613381403600,11.863403564453124,1.7325135286808013,8.355181025621295,-4.833189387500286
1789075613391345400,11.873345458984375,1.7283093549892306,8.411108080026507,-4.736726616828143
1789075613401288400,11.883288330078125,1.7203756393805145,8.462691552269458,-4.646885017861425
1789075613411231500,11.8932314453125,1.712358921663463,8.502481710866093,-4.576679847256839
1789075613421174500,11.903174560546875,1.7056341434530913,8.53092922219336,-4.525972865587472
1789075613431117600,11.91311767578125,1.7026675487324594,8.552336751881242,-4.486517930294573
1789075613441060600,11.923060546875,1.694568705689907,8.563992118361591,-4.467312002304196
1789075613451002600,11.933002685546874,1.6850658410683272,8.563853002151847,-4.471170139037072
1789075613460945700,11.942945556640625,1.6857465168088674,8.55416513635218,-4.489417158867418
1789075613470888700,11.952888671875,1.6970643218979238,8.537081315082311,-4.517587022297084
1789075613480831700,11.962831787109375,1.7101247328706084,8.515456927773355,-4.553334627504647
1789075613490774500,11.9727744140625,1.7229131950341163,8.49027046406865,-4.5953506454572075
1789075613500717600,11.982717529296876,1.7418692399166524,8.45815916953683,-4.647130809316039
1789075613510659600,11.99265966796875,1.7588382026351987,8.421561669501662,-4.706825399561226
1789075613520602600,12.0026025390625,1.7677875250272452,8.38469236678779,-4.768884965372085
1789075613530545400,12.01254541015625,1.7626085149541497,8.351343054893613,-4.828942835971713
1789075613540488400,12.022488525390624,1.7539685507722198,8.32173000691831,-4.882910280741751
1789075613550431500,12.032431396484375,1.757379235998541,8.290897061759233,-4.933868606823682
1789075613560373500,12.04237353515625,1.7719452292285858,8.256160679420828,-4.986624629977345
1789075613570316500,12.052316650390624,1.7845425527341663,8.220652728188037,-5.040502935159206
1789075613580259600,12.062259521484375,1.7810031265616415,8.191370519602298,-5.089192439526319
1789075613590202600,12.07220263671875,1.7659144246317444,8.16663589131832,-5.13400656376481
1789075613600145700,12.082145751953124,1.7543267165601253,8.139546808862686,-5.180784681552648
1789075613610088700,12.092088623046875,1.7533698542267082,8.104444515821337,-5.235844305473566
1789075613620030700,12.10203076171875,1.7502036452807486,8.06745713968575,-5.293703204724192
1789075613629973800,12.111973876953124,1.7371449878737328,8.033622674623132,-5.349170824924111
1789075613639916500,12.12191650390625,1.7320780598729848,8.001616594031452,-5.398555910339951
1789075613649859600,12.131859619140625,1.7462440940000117,7.968208829948305,-5.443221566018462
1789075613659802600,12.141802734375,1.773632451663166,7.9294620429247615,-5.490742611128091
1789075613669745700,12.15174560546875,1.7890325576297939,7.885881259873509,-5.548207542625069
1789075613679687400,12.1616875,1.801987170140445,7.836892480298876,-5.61305147845745
1789075613689630500,12.17163037109375,1.8174505506016312,7.7785268005698915,-5.688744140562415
1789075613699573500,12.181573486328125,1.8416187771745025,7.709129439216852,-5.774787516289949
1789075613709516500,12.1915166015625,1.9029289859227836,7.630513583141565,-5.8587102466017
1789075613719459600,12.20145947265625,1.9751453502193093,7.552329104220867,-5.935612869018316
1789075613729401300,12.2114013671875,2.0217218079552053,7.498553090369701,-5.9878784783065315
1789075613739344400,12.221344482421875,2.034043383259326,7.460651521998644,-6.030899873909354
1789075613749287400,12.231287353515626,2.046707780651748,7.418569453072547,-6.078340254998206
1789075613759230500,12.24123046875,2.0795764694221317,7.3666604021370405,-6.1300932385891675
1789075613769173500,12.251173583984375,2.131026524543762,7.310501877063512,-6.179456696695089
1789075613779116300,12.2611162109375,2.1995795440271495,7.2488202046543355,-6.2279088851749895
1789075613789058600,12.27105859375,2.2920720958940684,7.1789125556916,-6.275348097220063
1789075613799001300,12.28100146484375,2.4081604812733826,7.097604391792416,-6.324173795187473
1789075613808944400,12.2909443359375,2.5210060853391885,7.00561409035921,-6.382496220296621
1789075613818887400,12.300887451171874,2.615135736888647,6.90861677441895,-6.449995054551959
1789075613828830500,12.31083056640625,2.7027204968392846,6.808233907693624,-6.520249324995279
1789075613838773500,12.3207734375,2.7875340385109184,6.707766869816184,-6.588318068093061
1789075613848715500,12.330715576171874,2.859835889133811,6.6080339914321895,-6.657746993628144
1789075613858658600,12.340658447265625,2.914431694935262,6.511069408717751,-6.729222914820909
1789075613868601600,12.3506015625,2.9577061885163185,6.414829048624634,-6.8023752447932955
1789075613878544600,12.360544677734374,3.003265285903215,6.311230142462253,-6.878893836328387
1789075613888487700,12.37048779296875,3.0633734253853557,6.199689337384701,-6.953416870132088
1789075613898430500,12.380430419921876,3.141036218519509,6.08294161131382,-7.021543480896949
1789075613908372500,12.39037255859375,3.235675865417719,5.9643175699770445,-7.080092115977406
1789075613918315500,12.4003154296875,3.3380984212771057,5.844616254797577,-7.132176523479819
1789075613928258300,12.41025830078125,3.435030855287611,5.726514191508293,-7.181779635560512
1789075613938201300,12.420201416015624,3.515621518567204,5.610301887488365,-7.234315293961763
1789075613948144400,12.430144287109375,3.5829651622608303,5.493286450392008,-7.290856680873036
1789075613958086400,12.44008642578125,3.641711365740001,5.375668371227383,-7.34918612024486
1789075613968029400,12.450029541015626,3.693601127453148,5.26306607439816,-7.404581259730458
1789075613977972500,12.459972412109375,3.7385765797331927,5.161451035529375,-7.453378900647163
1789075613987915500,12.46991552734375,3.780682029534876,5.070425195214152,-7.494508783414959
1789075613997858600,12.479858642578124,3.8138241284191605,4.986120187586546,-7.534169178152084
1789075614007801600,12.489801513671875,3.8341733812257646,4.908131523498892,-7.574938995435834
1789075614017743400,12.499743408203125,3.836123346249759,4.837343584570289,-7.619359736442566
1789075614027686400,12.509686279296876,3.8197085102826356,4.774788344196975,-7.666917606431245
1789075614037629400,12.51962939453125,3.7979341931089756,4.716277410778403,-7.713804445290565
1789075614047572500,12.529572509765625,3.7675086597070098,4.6520574520632625,-7.767539542609453
1789075614057515300,12.539515380859376,3.727914023682475,4.587400855496526,-7.824882893553376
1789075614067458300,12.549458251953125,3.6918072297737,4.529448140482605,-7.875598350790143
1789075614077400300,12.559400390625,3.660068275685608,4.4853559007778765,-7.915543992209434
1789075614087343400,12.56934326171875,3.6067858905702828,4.466587779682874,-7.950541071310639
1789075614097286400,12.579286376953124,3.5366169603228568,4.469807033990323,-7.980197958427667
1789075614107229400,12.5892294921875,3.474368593941629,4.479214037021994,-8.00223852532208
1789075614117172500,12.59917236328125,3.414031614139676,4.487516293682158,-8.023525058978796
1789075614127114500,12.609114501953124,3.353913537785411,4.50587349588871,-8.038579420247673
1789075614137057500,12.6190576171875,3.29910233566761,4.543933177430928,-8.039838480398059
1789075614147000600,12.62900048828125,3.2523397077098486,4.596107893565297,-8.02922356288135
1789075614156943600,12.638943603515624,3.215659790088236,4.658089133442938,-8.008253255566954
1789075614166886700,12.64888671875,3.1915468008339403,4.72766945014745,-7.977063167533278
1789075614176829700,12.65882958984375,3.1636034396365282,4.806142975142598,-7.941220285257697
1789075614186771500,12.668771484375,3.125231623405218,4.890625969685614,-7.9047525490820405
1789075614196714500,12.678714599609375,3.0816636998355387,4.977301505836844,-7.867666973268985
1789075614206657500,12.688657470703125,3.0256358154043554,5.063493934646249,-7.834342211294174
1789075614216600300,12.698600341796874,2.951914453372359,5.152715940409898,-7.804236411365866
1789075614226543400,12.70854345703125,2.8557781381756064,5.270010778969526,-7.761566897940635
1789075614236485400,12.7184853515625,2.752928004553914,5.416047727888822,-7.697936429551243
1789075614246428400,12.728428466796874,2.6498595520064234,5.5672612026631825,-7.6258941066473716
1789075614256371500,12.738371337890625,2.5574898958668113,5.70936198117733,-7.552007617181539
1789075614266314500,12.748314453125,2.4727298379480835,5.845645597845316,-7.475587809845805
1789075614276257500,12.758257568359374,2.4062208915129304,5.978384089252352,-7.391846865841746
1789075614286200600,12.76820068359375,2.357532410059124,6.104113578680157,-7.304261521369218
1789075614296142600,12.778142578125,2.3110523984350264,6.224422796624898,-7.217064299431443
1789075614306085400,12.78808544921875,2.2625800439499315,6.348637205314636,-7.123618538492917
1789075614316028400,12.7980283203125,2.207526849769801,6.473135107120871,-7.028210537570715
1789075614325971500,12.807971435546875,2.145098742907494,6.59320584013462,-6.935315980774164
1789075614335914500,12.81791455078125,2.0868865001745522,6.706457540783286,-6.843879806092381
1789075614345857300,12.827857177734375,2.0334687982417643,6.813194744971394,-6.753944099101424
1789075614355799600,12.837799560546875,1.9833703038595616,6.913199426034092,-6.666653938183188
1789075614365742300,12.847742431640626,1.9327492469079792,7.0068860099911685,-6.58319122659862
