time,seconds_elapsed,z,y,x
1789075601569378300,0.05137841796875,-0.27603134512901306,-0.10269571095705032,0.11609300971031189
1789075601579321300,0.0613212890625,-0.3038259744644165,-0.03006518818438053,0.03691430389881134
1789075601589263400,0.071263427734375,-0.25598642230033875,-0.06051494553685188,0.0892145112156868
1789075601599206400,0.081206298828125,-0.08280505239963531,-0.02932586707174778,0.19795404374599457
1789075601609149200,0.091149169921875,-0.01635506935417652,-0.11177386343479156,0.3019016683101654
1789075601619092200,0.10109228515625,-0.034057099372148514,-0.13718494772911072,0.35504263639450073
1789075601629034200,0.1110341796875,-0.055741794407367706,-0.1487760841846466,0.3261493742465973
1789075601638977300,0.120977294921875,-0.024405712261795998,-0.07352819293737411,0.22644837200641632
1789075601648920300,0.13092041015625,0.1006062775850296,0.12075471132993698,0.1052723303437233
1789075601658862300,0.1408623046875,0.3012818694114685,0.37316885590553284,0.10122165828943253
1789075601668805400,0.150805419921875,0.582535445690155,0.6944512128829956,0.21559275686740875
1789075601678748400,0.16074853515625,0.8412418365478516,0.961233913898468,0.4264194965362549
1789075601688692000,0.17069189453125,1.0440765619277954,1.1176310777664185,0.8612827062606812
1789075601698634000,0.180634033203125,1.1682956218719482,1.60871160030365,1.0052746534347534
1789075601708577000,0.190576904296875,1.3017061948776245,1.7457290887832642,0.9525929689407349
1789075601718519800,0.200519775390625,1.476971983909607,1.0056307315826416,0.810389518737793
1789075601728462800,0.210462890625,1.461227536201477,-0.16108599305152893,0.6723341941833496
1789075601738404900,0.22040478515625,1.3662168979644775,-1.2047641277313232,0.41622066497802734
1789075601748347600,0.23034765625,1.1252245903015137,-1.6388533115386963,-0.10663636773824692
1789075601758290700,0.240290771484375,0.7865844368934631,-1.7570933103561401,-0.4803886413574219
1789075601768233700,0.250233642578125,0.5009801983833313,-1.8698502779006958,-0.7120064496994019
1789075601778175700,0.26017578125,0.4329436123371124,-2.035325288772583,-0.7348179817199707
1789075601788118800,0.270118896484375,0.5246096849441528,-1.9629358053207397,-0.6907339096069336
1789075601798061800,0.280061767578125,0.667827844619751,-1.581272840499878,-0.5877529382705688
1789075601808004900,0.2900048828125,0.7419863343238831,-1.093086838722229,-0.36479824781417847
1789075601817947000,0.29994677734375,0.355560839176178,-0.6664608120918274,-0.05476902425289154
1789075601827890000,0.309889892578125,-0.21804267168045044,-1.1630146503448486,0.1168370172381401
1789075601837833000,0.3198330078125,-0.2924279570579529,-2.285484552383423,0.27393820881843567
1789075601847776000,0.32977587890625,-0.31708332896232605,-3.1786646842956543,0.5559766888618469
1789075601857718000,0.339718017578125,-0.732487678527832,-3.3369266986846924,0.9902729988098145
1789075601867660800,0.349660888671875,-0.982257604598999,-2.833099365234375,1.3353692293167114
1789075601877603800,0.359603759765625,-0.6713228821754456,-2.435898542404175,1.3309837579727173
1789075601887547000,0.369546875,-0.012734634801745415,-1.8949785232543945,1.2036722898483276
1789075601897489000,0.379489013671875,0.8266002535820007,-1.2288844585418701,1.1318202018737793
1789075601907432000,0.389431884765625,1.6731159687042236,-0.8161490559577942,1.091958999633789
1789075601917375000,0.399375,2.2231545448303223,-0.8595165014266968,1.057728886604309
1789075601927317800,0.40931787109375,2.380476713180542,-1.2801463603973389,1.0173965692520142
1789075601937260000,0.419260009765625,2.2883448600769043,-1.8923325538635254,0.8491137623786926
1789075601947202800,0.429202880859375,2.0303990840911865,-2.225414752960205,0.4223174452781677
1789075601957145900,0.439145751953125,1.923301339149475,-2.4503464698791504,0.14693672955036163
1789075601967089000,0.4490888671875,2.1553733348846436,-2.500709295272827,0.25183895230293274
1789075601977031000,0.459031005859375,2.220745801925659,-2.224452257156372,0.5205241441726685
1789075601986973700,0.4689736328125,2.091346025466919,-1.729055643081665,0.6831718683242798
1789075601996916700,0.478916748046875,1.8345738649368286,-1.2698280811309814,0.5416339039802551
1789075602006859800,0.48885986328125,1.5881620645523071,-0.8464468121528625,0.10928111523389816
1789075602016801800,0.4988017578125,1.382323980331421,-0.41219067573547363,-0.46291157603263855
1789075602026744800,0.508744873046875,1.197533130645752,-0.18382912874221802,-1.013158917427063
1789075602036688000,0.51868798828125,1.0375386476516724,-0.2350025624036789,-1.3969534635543823
1789075602046631000,0.528630859375,0.8738686442375183,-0.3450648784637451,-1.6042537689208984
1789075602056573000,0.538572998046875,0.7177818417549133,-0.45198652148246765,-1.641803503036499
1789075602066516000,0.548515869140625,0.46219101548194885,-0.8973467350006104,-1.7710217237472534
1789075602076459000,0.558458984375,0.373566597700119,-0.9698275327682495,-1.912200689315796
1789075602086401000,0.568401123046875,0.47174379229545593,-0.5712756514549255,-1.9955464601516724
1789075602096344000,0.578343994140625,0.4317074418067932,0.19966581463813782,-2.023475408554077
1789075602106286800,0.588286865234375,0.3534746468067169,0.5665417909622192,-2.1029865741729736
1789075602116230000,0.59822998046875,0.23870758712291718,0.8316291570663452,-2.180152654647827
1789075602126172000,0.608171875,0.06025262549519539,1.147329568862915,-2.1727397441864014
1789075602136115000,0.618114990234375,-0.16617225110530853,1.1454477310180664,-2.129354476928711
1789075602146057700,0.6280576171875,-0.38363879919052124,1.0379525423049927,-2.0469205379486084
1789075602156000800,0.638000732421875,-0.579123854637146,1.1124634742736816,-2.009187936782837
1789075602165942800,0.64794287109375,-0.7079726457595825,1.265760064125061,-2.021698236465454
1789075602175885800,0.6578857421875,-0.8291600942611694,1.4103561639785767,-2.00165057182312
1789075602185828900,0.667828857421875,-0.9777351021766663,1.5510551929473877,-1.825153112411499
1789075602195772000,0.67777197265625,-1.1663053035736084,1.6559240818023682,-1.524406909942627
1789075602205714000,0.6877138671875,-1.3523820638656616,1.75397789478302,-1.1431543827056885
1789075602215657000,0.697656982421875,-1.513168215751648,1.7958617210388184,-0.710282564163208
1789075602225599700,0.707599853515625,-1.6183505058288574,1.583167552947998,-0.28669217228889465
1789075602235542800,0.717542724609375,-1.5739848613739014,1.2354685068130493,0.12680166959762573
1789075602245484800,0.72748486328125,-1.5038337707519531,0.9361987709999084,0.39469560980796814
1789075602255427800,0.737427734375,-1.4351063966751099,0.7520049214363098,0.5567651987075806
1789075602265371000,0.747370849609375,-1.4054079055786133,0.6073883771896362,0.696630597114563
1789075602275314000,0.75731396484375,-1.377040147781372,0.4303102493286133,0.8454264998435974
1789075602285256000,0.767255859375,-1.308203101158142,0.24879500269889832,0.9997016191482544
1789075602295199000,0.777198974609375,-1.2315768003463745,0.06963004171848297,1.134730577468872
1789075602305142000,0.78714208984375,-1.2398470640182495,0.006346474401652813,1.2454936504364014
1789075602315085000,0.7970849609375,-1.22975492477417,0.07652982324361801,1.316056251525879
1789075602325027000,0.807027099609375,-1.1872895956039429,0.1546815186738968,1.3423737287521362
1789075602334969900,0.816969970703125,-1.1337562799453735,0.2501470446586609,1.3171626329421997
1789075602344912600,0.82691259765625,-1.0528223514556885,0.32184267044067383,1.220759630203247
1789075602354855700,0.836855712890625,-0.9652882814407349,0.37078678607940674,1.0869994163513184
1789075602364798000,0.8467978515625,-0.8803293108940125,0.42009907960891724,0.9404889941215515
1789075602374740700,0.85674072265625,-0.796677827835083,0.4458579421043396,0.8108729720115662
1789075602384683800,0.866683837890625,-0.7324829697608948,0.46240749955177307,0.7209237813949585
1789075602394626800,0.876626708984375,-0.6763265132904053,0.4440194368362427,0.6558606624603271
1789075602404568800,0.88656884765625,-0.6137049198150635,0.46534571051597595,0.5964699387550354
1789075602414511900,0.896511962890625,-0.5607106685638428,0.4607304334640503,0.5380457639694214
1789075602424455000,0.906454833984375,-0.5169387459754944,0.4150313436985016,0.5083147287368774
1789075602434398000,0.91639794921875,-0.4662278890609741,0.379656583070755,0.49300551414489746
1789075602444340000,0.926340087890625,-0.39633405208587646,0.3309977948665619,0.4474739134311676
1789075602454282800,0.93628271484375,-0.32693421840667725,0.2600133717060089,0.353191614151001
1789075602464225800,0.946225830078125,-0.256218284368515,0.20965024828910828,0.22101108729839325
1789075602474168800,0.9561689453125,-0.220183327794075,0.17783798277378082,0.043181970715522766
1789075602484110800,0.96611083984375,-0.20613093674182892,0.20001840591430664,-0.12791138887405396
1789075602494054000,0.976053955078125,-0.1752590537071228,0.2643739581108093,-0.26719364523887634
1789075602503997000,0.985996826171875,-0.08878044784069061,0.2840001881122589,-0.3758879601955414
1789075602513940000,0.99593994140625,-0.007255766540765762,0.2492176741361618,-0.42512819170951843
1789075602523882000,1.005882080078125,0.03299705311655998,0.13451826572418213,-0.42125457525253296
1789075602533825000,1.015824951171875,0.053771842271089554,-0.006274805869907141,-0.3700545132160187
1789075602543767800,1.025767822265625,0.07524574548006058,-0.07035548239946365,-0.31413447856903076
1789075602553710800,1.0357109375,0.09965654462575912,-0.06888115406036377,-0.2902507185935974
1789075602563653000,1.045653076171875,0.10716108977794647,-0.0020411713048815727,-0.2782311737537384
1789075602573595600,1.055595703125,0.13910891115665436,0.12176252901554108,-0.23413215577602386
1789075602583538700,1.06553857421875,0.20547787845134735,0.24773266911506653,-0.16265149414539337
1789075602593481700,1.075481689453125,0.28210127353668213,0.26874712109565735,-0.04901574179530144
1789075602603423700,1.085423828125,0.3659076392650604,0.17881515622138977,0.11873991042375565
1789075602613366800,1.09536669921875,0.46676501631736755,-0.03321906924247742,0.2979709208011627
1789075602623309800,1.105309814453125,0.5758298635482788,-0.3666795492172241,0.46290072798728943
1789075602633252900,1.1152529296875,0.674525260925293,-0.7873196601867676,0.6147616505622864
1789075602643195000,1.12519482421875,0.7993127703666687,-1.2140308618545532,0.769883394241333
1789075602653138000,1.135137939453125,0.97995924949646,-1.5322942733764648,0.9567754864692688
1789075602663081000,1.1450810546875,1.26244056224823,-1.6704679727554321,1.142313838005066
1789075602673024000,1.15502392578125,1.425521969795227,-1.7064251899719238,1.310354232788086
1789075602682967000,1.164967041015625,1.5576552152633667,-1.9406338930130005,1.4732348918914795
1789075602692909000,1.174908935546875,1.7001876831054688,-2.4784045219421387,1.6277985572814941
1789075602702852000,1.18485205078125,1.8474823236465454,-3.1252524852752686,1.7479569911956787
1789075602712795100,1.194795166015625,2.1938374042510986,-3.6979191303253174,1.635043740272522
1789075602722738000,1.204738037109375,2.4172346591949463,-4.129507064819336,1.3591738939285278
1789075602732680000,1.214679931640625,2.447310209274292,-4.222649097442627,0.9801631569862366
1789075602742623000,1.224623046875,2.474661111831665,-4.094575881958008,0.3306104242801666
1789075602752565800,1.234565673828125,2.4847776889801025,-3.5338597297668457,-0.48137781023979187
1789075602762508800,1.2445087890625,2.5208852291107178,-2.6550707817077637,-1.3046997785568237
1789075602772450800,1.254450927734375,2.52179217338562,-2.3094611167907715,-1.9364479780197144
1789075602782393900,1.264393798828125,2.3876302242279053,-2.5114810466766357,-2.210310935974121
1789075602792337000,1.2743369140625,2.175077199935913,-3.0401620864868164,-2.2440543174743652
1789075602802280000,1.284280029296875,1.9079294204711914,-3.524620771408081,-2.160308837890625
1789075602812222000,1.294221923828125,1.6747788190841675,-3.782296657562256,-1.9991427659988403
1789075602822165000,1.3041650390625,1.5275720357894897,-3.7711267471313477,-1.8385238647460938
1789075602832108000,1.31410791015625,1.4919862747192383,-3.632413625717163,-1.7691469192504883
1789075602842051000,1.324051025390625,2.0810348987579346,-3.914064645767212,-1.801862120628357
1789075602851992800,1.333992919921875,3.1596639156341553,-5.1602301597595215,-1.7504894733428955
1789075602861935900,1.343935791015625,2.3011634349823,-4.976116180419922,-0.531568169593811
1789075602871879000,1.35387890625,1.0345377922058105,-4.621843338012695,1.1263442039489746
1789075602881822000,1.363822021484375,-0.09113524854183197,-4.531433582305908,2.8725600242614746
1789075602891764000,1.373763916015625,-0.6639590859413147,-4.042809963226318,3.796999931335449
1789075602901707000,1.38370703125,-0.8467602133750916,-3.498232364654541,3.1517539024353027
1789075602911650000,1.393650146484375,-0.5244375467300415,-2.3263986110687256,1.412365436553955
1789075602921592800,1.4035927734375,0.1434379369020462,-1.4982216358184814,-0.6780891418457031
1789075602931535000,1.41353515625,0.7023710012435913,-0.9857609868049622,-2.181577444076538
1789075602941478000,1.423477783203125,1.01923406124115,-0.8376830220222473,-3.112920045852661
1789075602951421000,1.4334208984375,1.1730036735534668,-0.8200824856758118,-3.5137624740600586
1789075602961364000,1.443364013671875,1.251281976699829,-0.8021576404571533,-3.5464518070220947
1789075602971305700,1.4533056640625,1.4297082424163818,-0.48177212476730347,-3.1517770290374756
1789075602981248800,1.463248779296875,1.6045290231704712,-0.34625735878944397,-2.5049045085906982
1789075602991191800,1.47319189453125,1.6456516981124878,-0.6347943544387817,-1.7525075674057007
1789075603001134800,1.483134765625,1.6101362705230713,-0.8965554237365723,-1.1809314489364624
1789075603011076900,1.493076904296875,1.5339211225509644,-1.2013325691223145,-0.7833486199378967
1789075603021020000,1.50302001953125,1.561118483543396,-1.2655528783798218,-0.565346896648407
1789075603030963000,1.512962890625,1.791161298751831,-1.1208508014678955,-0.28933075070381165
1789075603040906000,1.522906005859375,2.0771853923797607,-1.0284172296524048,0.19649599492549896
1789075603050848000,1.532847900390625,2.0566630363464355,-1.0536885261535645,0.769965648651123
1789075603060791000,1.542791015625,1.6674529314041138,-1.0819658041000366,1.1587865352630615
1789075603070734000,1.552734130859375,1.3636062145233154,-1.0890380144119263,1.2102689743041992
1789075603080677000,1.562677001953125,1.2435860633850098,-1.0303486585617065,0.8666697144508362
1789075603090620200,1.5726201171875,1.3256233930587769,-1.0701134204864502,0.1169014573097229
1789075603100562000,1.58256201171875,1.118564248085022,-0.4509505033493042,-0.4225282669067383
1789075603110505000,1.5925048828125,0.8000920414924622,0.1494290679693222,-0.939677894115448
1789075603120448000,1.602447998046875,0.6062095165252686,0.7306868433952332,-1.3090226650238037
1789075603130390800,1.612390869140625,0.4874844551086426,1.1504591703414917,-1.451505184173584
1789075603140333000,1.6223330078125,0.4381079077720642,1.3034565448760986,-1.4535115957260132
1789075603150275800,1.63227587890625,0.4999377131462097,1.2691075801849365,-1.3925960063934326
1789075603160219000,1.642218994140625,0.6399673819541931,1.1525975465774536,-1.2815488576889038
1789075603170162000,1.652161865234375,0.7885344624519348,0.9564059376716614,-1.0807981491088867
1789075603180104000,1.66210400390625,0.9510073661804199,0.21306927502155304,-0.8213314414024353
1789075603190047000,1.672046875,1.0884227752685547,-0.2579493820667267,-0.3942296504974365
1789075603199990000,1.681989990234375,1.180317759513855,-0.5839256048202515,-0.01107790507376194
1789075603209933000,1.69193310546875,1.185392141342163,-0.929608941078186,0.18603117763996124
1789075603219874800,1.701874755859375,1.1592495441436768,-1.022111415863037,0.14806294441223145
1789075603229817900,1.71181787109375,1.0522249937057495,-0.8271387219429016,-0.14803050458431244
1789075603239761000,1.721760986328125,0.906175971031189,-0.34371355175971985,-0.7626393437385559
1789075603249704000,1.731703857421875,0.8542909622192383,0.2991170883178711,-1.5237528085708618
1789075603259646000,1.74164599609375,0.887098491191864,0.7689801454544067,-2.102229356765747
1789075603269589000,1.751589111328125,1.0410923957824707,1.0508240461349487,-2.3527634143829346
1789075603279532000,1.761531982421875,1.2809746265411377,1.1506630182266235,-2.315871238708496
1789075603289475000,1.77147509765625,1.4889336824417114,1.001631498336792,-2.043647527694702
1789075603299417000,1.7814169921875,1.6183507442474365,0.7511357069015503,-1.69691801071167
1789075603309360000,1.791360107421875,1.7325438261032104,0.38488292694091797,-1.267074465751648
1789075603319303000,1.801302978515625,1.7999213933944702,0.019266333431005478,-0.6926122903823853
1789075603329246000,1.811245849609375,1.8191683292388916,-0.23812952637672424,-0.03520192205905914
1789075603339188000,1.82118798828125,1.8107869625091553,-0.36602550745010376,0.5340636968612671
1789075603349130800,1.831130859375,1.7656389474868774,-0.483419805765152,1.0138928890228271
1789075603359073800,1.84107373046875,1.651352047920227,-0.4855755567550659,1.4096455574035645
1789075603369016800,1.851016845703125,1.5962499380111694,-0.3660014867782593,1.614985704421997
1789075603378960000,1.8609599609375,1.6346796751022339,-0.2519470751285553,1.615302324295044
1789075603388902000,1.87090185546875,1.6867260932922363,-0.1958870142698288,1.4850447177886963
1789075603398845000,1.880844970703125,1.6793837547302246,-0.17500200867652893,1.376297116279602
1789075603408788000,1.8907880859375,1.6594069004058838,-0.4040202796459198,1.2767332792282104
1789075603418731000,1.90073095703125,1.670058250427246,-0.7037467956542969,1.332165241241455
1789075603428673000,1.910673095703125,1.6024703979492188,-0.914436936378479,1.5122671127319336
1789075603438616000,1.920615966796875,1.4641790390014648,-0.9570762515068054,1.6656924486160278
1789075603448559000,1.93055908203125,1.2848279476165771,-0.9179195165634155,1.656571388244629
1789075603458502100,1.940502197265625,1.0924293994903564,-0.6840289831161499,1.4738926887512207
1789075603468444000,1.95044384765625,0.9276111721992493,-0.3473295271396637,1.206008791923523
1789075603478387000,1.960386962890625,0.7406770586967468,-0.15952925384044647,0.798645555973053
1789075603488330000,1.970330078125,0.5135141611099243,-0.08483797311782837,0.15144284069538116
1789075603498272800,1.980272705078125,0.3397247791290283,-0.19757205247879028,-0.6967823505401611
1789075603508215000,1.990215087890625,0.40211546421051025,-0.7951957583427429,-1.6299563646316528
1789075603518158000,2.000157958984375,0.3125584125518799,-1.3707627058029175,-2.3073318004608154
1789075603528100900,2.010100830078125,-0.07249684631824493,-1.7920198440551758,-2.654917001724243
1789075603538044000,2.0200439453125,-0.3690831661224365,-1.8600080013275146,-2.70339298248291
1789075603547986000,2.02998583984375,-0.42292535305023193,-1.1004263162612915,-2.473384141921997
1789075603557929000,2.039928955078125,-0.5244500637054443,-0.20199821889400482,-2.05067777633667
1789075603567872000,2.0498720703125,-0.7438130378723145,0.08580800890922546,-1.5022330284118652
1789075603577815000,2.05981494140625,-1.1228232383728027,-0.3050953447818756,-0.926903486251831
1789075603587756800,2.0697568359375,-1.3159538507461548,-0.7743760347366333,-0.39728301763534546
1789075603597699800,2.079699951171875,-1.3163683414459229,-1.0240870714187622,0.07109704613685608
1789075603607643000,2.089642822265625,-1.3257205486297607,-1.0539640188217163,0.3988741338253021
1789075603617586000,2.0995859375,-1.4144643545150757,-1.0445960760116577,0.5490602850914001
1789075603627529000,2.109529052734375,-1.47471284866333,-1.117429494857788,0.7277634739875793
1789075603637471000,2.119470947265625,-1.2945057153701782,-1.4408762454986572,0.8123304843902588
1789075603647414000,2.1294140625,-1.370802879333496,-1.7990626096725464,0.6693959832191467
1789075603657357000,2.139357177734375,-1.447442889213562,-1.6149241924285889,0.3445172905921936
1789075603667300000,2.149300048828125,-1.4779685735702515,-0.8714365363121033,0.015243539586663246
1789075603677242000,2.1592421875,-1.4117158651351929,-0.429745078086853,-0.09319814294576645
1789075603687185200,2.16918505859375,-1.2922499179840088,-0.3655157685279846,-0.09059197455644608
1789075603697127400,2.17912744140625,-1.2332277297973633,-0.5007914304733276,-0.23153656721115112
1789075603707070500,2.189070556640625,-1.2430914640426636,-0.6183093190193176,-0.4183588922023773
1789075603717012500,2.199012451171875,-1.2624192237854004,-0.6755611300468445,-0.5005839467048645
1789075603726955500,2.20895556640625,-1.3132100105285645,-0.7455969452857971,-0.4709914028644562
1789075603736898300,2.218898193359375,-1.3264540433883667,-0.8074958324432373,-0.3087417483329773
1789075603746841300,2.22884130859375,-1.2894569635391235,-0.9382075071334839,-0.29361310601234436
1789075603756784400,2.238784423828125,-1.2610348463058472,-0.8981019854545593,-0.3536408245563507
1789075603766726400,2.248726318359375,-1.298470377922058,-0.6795230507850647,-0.16609835624694824
1789075603776669400,2.25866943359375,-1.3121309280395508,-0.4367365837097168,0.14812752604484558
1789075603786612500,2.268612548828125,-1.1277216672897339,-0.25063276290893555,0.289683073759079
1789075603796555500,2.278555419921875,-0.8326717615127563,-0.21663761138916016,0.10032425075769424
1789075603806497500,2.28849755859375,-0.5579442977905273,-0.28904709219932556,-0.28583890199661255
1789075603816440300,2.2984404296875,-0.374778687953949,-0.09142567962408066,-0.6811538934707642
1789075603826383400,2.30838330078125,-0.28375956416130066,0.24219490587711334,-0.8540921211242676
1789075603836326400,2.318326416015625,-0.2872171700000763,0.26745375990867615,-0.7812805771827698
1789075603846268400,2.328268310546875,-0.41780662536621094,-0.1308603286743164,-0.5943016409873962
1789075603856211500,2.33821142578125,-0.6689927577972412,-0.557585597038269,-0.38932618498802185
1789075603866154500,2.348154541015625,-0.9891982078552246,-0.7321350574493408,-0.21175512671470642
1789075603876097500,2.35809765625,-1.202628493309021,-0.7724331617355347,-0.06007345765829086
1789075603886039600,2.36803955078125,-1.225059986114502,-0.7254561185836792,0.0366315133869648
1789075603895982600,2.377982666015625,-1.0633785724639893,-0.6824840307235718,0.058078836649656296
1789075603905925600,2.387925537109375,-0.8540850281715393,-0.6523647308349609,-0.03612649068236351
1789075603915868400,2.397868408203125,-0.6504036784172058,-0.43392568826675415,-0.11948958039283752
1789075603925811500,2.4078115234375,-0.48963800072669983,-0.20004957914352417,-0.16161119937896729
1789075603935753500,2.41775341796875,-0.3860861361026764,-0.07824073731899261,-0.1785569041967392
1789075603945696300,2.4276962890625,-0.2875199019908905,-0.1503644734621048,-0.19542376697063446
1789075603955639300,2.437639404296875,-0.2261630892753601,-0.2454417198896408,-0.07698418200016022
1789075603965582300,2.447582275390625,-0.11936472356319427,-0.4900786280632019,-0.11435498297214508
1789075603975524400,2.4575244140625,-0.12453702837228775,-0.5607996582984924,-0.3376363217830658
1789075603985467400,2.46746728515625,-0.25350221991539,-0.730294406414032,-0.47999534010887146
1789075603995410400,2.477410400390625,-0.3741304874420166,-0.7513476014137268,-0.6248460412025452
1789075604005353500,2.487353515625,-0.3349953293800354,-0.9106768369674683,-0.7241273522377014
1789075604015295500,2.49729541015625,-0.3617982566356659,-0.7791017889976501,-0.5110073089599609
1789075604025238500,2.507238525390625,-0.21201781928539276,0.580211877822876,0.22106687724590302
1789075604035181600,2.517181640625,0.24328866600990295,0.7342899441719055,0.6056917309761047
1789075604045124600,2.52712451171875,0.7254332304000854,0.35620442032814026,-0.5061388611793518
1789075604055066400,2.53706640625,0.7578645348548889,0.4418146014213562,-0.9175785183906555
1789075604065009400,2.547009521484375,0.6147438287734985,0.4947766363620758,-0.7270983457565308
1789075604074952400,2.556952392578125,0.4650149345397949,0.2037777453660965,-0.5287461280822754
1789075604084895500,2.5668955078125,0.3663208484649658,-0.09230983257293701,-0.5142201781272888
1789075604094838300,2.57683837890625,0.35293006896972656,-0.047572895884513855,-0.4589158594608307
1789075604104780500,2.586780517578125,0.3564036190509796,0.193681001663208,0.009573053568601608
1789075604114723300,2.596723388671875,0.2708093523979187,0.7437043786048889,0.9433459043502808
1789075604124666400,2.606666259765625,0.21067653596401215,0.8015834093093872,1.7015246152877808
1789075604134609400,2.616609375,-0.17711500823497772,0.6080517768859863,1.8525952100753784
1789075604144551400,2.626551513671875,-0.3985411524772644,-0.10524474084377289,0.8563523888587952
1789075604154494500,2.636494384765625,-0.23065532743930817,0.18667981028556824,0.41588568687438965
1789075604164437500,2.6464375,-0.028746701776981354,0.7018930912017822,0.47268906235694885
1789075604174380500,2.656380615234375,0.010948361828923225,0.965911865234375,0.4086739122867584
1789075604184322300,2.666322265625,0.008535005152225494,0.8599753379821777,0.1502399444580078
1789075604194265300,2.676265380859375,0.08073724061250687,0.7670249342918396,0.1676669716835022
1789075604204208400,2.68620849609375,0.06885101646184921,0.576625406742096,0.3823696970939636
1789075604214151400,2.6961513671875,0.02409227378666401,0.19467519223690033,0.5711991190910339
1789075604224094500,2.706094482421875,-0.055537573993206024,-0.12061163783073425,0.6394663453102112
1789075604234036500,2.716036376953125,-0.12161047756671906,-0.04821420833468437,0.5723089575767517
1789075604243979500,2.7259794921875,-0.2080918401479721,0.18063068389892578,0.49026522040367126
1789075604253922600,2.735922607421875,-0.2641953229904175,0.23267821967601776,0.5638787746429443
1789075604263865300,2.745865234375,-0.43764036893844604,-0.03660091757774353,0.6610575318336487
1789075604273807600,2.7558076171875,-0.6729263067245483,-0.3402489125728607,0.7764078378677368
1789075604283750700,2.765750732421875,-0.8158674836158752,-0.4909484088420868,0.8345691561698914
1789075604293693400,2.775693359375,-0.946408212184906,-0.5058752298355103,0.831641674041748
1789075604303636500,2.785636474609375,-0.8683690428733826,-0.3822220265865326,0.8233523368835449
1789075604313578200,2.795578125,-0.6148204803466797,-0.13133524358272552,0.602706789970398
1789075604323521300,2.805521240234375,-0.2788006663322449,0.028992122039198875,0.3373355567455292
1789075604333464300,2.81546435546875,-0.09684349596500397,0.07765425741672516,-0.09725403785705566
1789075604343407400,2.825407470703125,0.10304645448923111,0.2502659857273102,-0.18339477479457855
1789075604353349400,2.835349365234375,0.1929333508014679,0.3315434753894806,-0.11003983020782471
1789075604363292400,2.84529248046875,0.05897660553455353,0.19702719151973724,-0.10497929155826569
1789075604373235500,2.8552353515625,-0.06626078486442566,0.011327131651341915,0.010819356888532639
1789075604383178500,2.865178466796875,0.027438271790742874,-0.03591761365532875,0.2927139103412628
1789075604393121500,2.87512158203125,-0.12075985968112946,-0.16492271423339844,0.6808266639709473
1789075604403063600,2.8850634765625,-0.3546014130115509,-0.3959719240665436,1.138332724571228
1789075604413006600,2.895006591796875,-0.14223769307136536,-0.5252425074577332,1.2370641231536865
1789075604422949600,2.90494970703125,-0.07327701151371002,-0.35265636444091797,1.0045629739761353
1789075604432892700,2.914892578125,-0.08077676594257355,-0.08099669218063354,0.6647610664367676
1789075604442834400,2.92483447265625,0.012695128098130226,0.3210058808326721,0.3016015291213989
1789075604452777500,2.934777587890625,0.08325525373220444,0.5817819237709045,0.2654642164707184
1789075604462720500,2.944720458984375,0.014360342174768448,0.4471950829029083,0.3579384982585907
1789075604472663300,2.954663330078125,0.04382807016372681,0.2166052907705307,0.3680030405521393
1789075604482605600,2.96460546875,0.09578314423561096,0.24725748598575592,0.2550128400325775
1789075604492548400,2.97454833984375,0.16212184727191925,0.31506869196891785,0.21222864091396332
1789075604502491400,2.984491455078125,0.187524676322937,0.34468623995780945,0.24938398599624634
1789075604512434400,2.994434326171875,0.24129165709018707,0.2863178849220276,0.3908878266811371
1789075604522377500,3.00437744140625,0.32719191908836365,0.2788221538066864,0.4771398901939392
1789075604532319500,3.014319580078125,0.4862407147884369,0.23885592818260193,0.4828205108642578
1789075604542262500,3.024262451171875,0.6148988604545593,-0.02396130934357643,0.698289155960083
1789075604552205600,3.03420556640625,0.6638423204421997,-0.4237945079803467,0.7959496378898621
1789075604562148600,3.044148681640625,0.7234215140342712,-0.06085892394185066,0.695385754108429
1789075604572090400,3.05409033203125,0.37303802371025085,0.7756110429763794,0.10869833827018738
1789075604582033400,3.064033447265625,0.544012188911438,0.7772393226623535,-0.10825714468955994
1789075604591976400,3.0739765625,0.617316722869873,0.20483195781707764,0.23786942660808563
1789075604601919500,3.08391943359375,0.8514271974563599,0.3642541170120239,-0.24918705224990845
1789075604611861500,3.093861572265625,0.7098656892776489,0.41329535841941833,-0.4588446319103241
1789075604621804500,3.103804443359375,0.48228418827056885,0.0027983756735920906,-0.3185681998729706
1789075604631747600,3.11374755859375,0.32449138164520264,-0.4007709324359894,-0.10044123977422714
1789075604641690400,3.1236904296875,0.4715029299259186,-0.6772821545600891,0.0780763030052185
1789075604651632600,3.133632568359375,0.49872317910194397,-0.7694315314292908,0.42960551381111145
1789075604661575700,3.14357568359375,0.9411858320236206,-1.2066344022750854,0.8484145402908325
1789075604671518500,3.1535185546875,2.7632381916046143,-1.6141951084136963,0.6488579511642456
1789075604681461500,3.16346142578125,4.002714157104492,-1.8109906911849976,0.5445368885993958
1789075604691404300,3.173404296875,2.7013461589813232,-0.88166743516922,0.48552462458610535
1789075604701346300,3.18334619140625,3.1782665252685547,-1.1919670104980469,2.0658137798309326
1789075604711289300,3.193289306640625,3.434521198272705,-1.660948395729065,2.793592929840088
1789075604721232400,3.203232421875,3.6957366466522217,0.08526051044464111,1.6306724548339844
1789075604731175400,3.213175537109375,4.65756368637085,3.8520572185516357,-1.0420184135437012
1789075604741117400,3.223117431640625,5.640435218811035,4.096811771392822,-2.0928664207458496
1789075604751060500,3.233060546875,5.424924373626709,3.5741617679595947,-2.9606168270111084
1789075604761003500,3.24300341796875,4.763948917388916,1.759961724281311,-3.454334020614624
1789075604770946600,3.252946533203125,5.160457134246826,1.6079671382904053,-1.6391655206680298
1789075604780888600,3.262888671875,4.759828090667725,0.8760532140731812,-2.2065048217773438
1789075604790831600,3.27283154296875,3.659975051879883,-0.3894231617450714,-2.711993455886841
1789075604800774700,3.282774658203125,2.7163984775543213,-1.8401652574539185,-1.1267681121826172
1789075604810717400,3.292717529296875,2.2040462493896484,-2.286644697189331,-0.4226042926311493
1789075604820660500,3.302660400390625,1.2349934577941895,-0.46054312586784363,-0.5289134383201599
1789075604830602500,3.3126025390625,0.38714659214019775,0.09871214628219604,-0.29437482357025146
1789075604840545500,3.322545654296875,0.27076753973960876,0.39157065749168396,0.25731950998306274
1789075604850488300,3.33248828125,0.39452436566352844,0.5679662227630615,0.5578452944755554
1789075604860431400,3.342431396484375,0.34086325764656067,0.791263222694397,0.47398367524147034
1789075604870373400,3.352373291015625,0.31106770038604736,1.038626790046692,0.24890951812267303
1789075604880316400,3.36231640625,2.052985906600952,0.03160468488931656,-0.004732588306069374
1789075604890259500,3.372259521484375,1.5072611570358276,-0.3099721074104309,-0.23571814596652985
1789075604900202500,3.382202392578125,1.3614509105682373,1.1423180103302002,-0.45056039094924927
1789075604910144500,3.39214453125,1.5994842052459717,0.8886384963989258,-0.3790434002876282
1789075604920087600,3.402087646484375,1.5696107149124146,0.4447742700576782,-0.05993757024407387
1789075604930030300,3.4120302734375,2.230243682861328,0.2212654948234558,0.22198167443275452
1789075604939973400,3.421973388671875,2.520622968673706,-0.26057809591293335,0.432424396276474
1789075604949916400,3.43191650390625,1.8047815561294556,-0.0233321450650692,0.5099741220474243
1789075604959858400,3.4418583984375,1.7532203197479248,-0.3449636995792389,0.5827977061271667
1789075604969801500,3.451801513671875,2.225825786590576,-0.19488687813282013,0.443268358707428
1789075604979744500,3.46174462890625,1.3493582010269165,0.8819729685783386,0.3546642065048218
1789075604989687600,3.4716875,0.3966512680053711,0.47679874300956726,0.5186213254928589
1789075604999629600,3.481629638671875,-0.12896642088890076,0.5800555944442749,0.3513566851615906
1789075605009572600,3.491572509765625,-0.28476864099502563,0.3181939423084259,0.0005122371949255466
1789075605019515400,3.501515380859375,-0.25229084491729736,0.7901521325111389,-0.21476413309574127
1789075605029458400,3.51145849609375,-0.2215145081281662,0.9912141561508179,-0.22652016580104828
1789075605039400700,3.521400634765625,-0.1781499832868576,0.7904176712036133,-0.1540028154850006
1789075605049343200,3.53134326171875,-0.13536299765110016,0.5526334643363953,-0.05936689302325249
1789075605059286300,3.541286376953125,-1.1874847412109375,0.9835643768310547,-0.4267299771308899
1789075605069229300,3.551229248046875,-2.6859660148620605,0.584811270236969,0.28846681118011475
1789075605079172400,3.56117236328125,-3.7557170391082764,0.3717826008796692,0.89681077003479
1789075605089114400,3.5711142578125,-2.6382505893707275,-0.21023070812225342,0.332419753074646
1789075605099057400,3.581057373046875,-0.17828784883022308,-0.8342487812042236,-0.0861322283744812
1789075605109000400,3.59100048828125,2.385308027267456,0.6491314172744751,-0.3661964535713196
1789075605118943500,3.600943603515625,3.3465495109558105,1.7839282751083374,-0.7115719318389893
1789075605128885500,3.610885498046875,2.7694973945617676,0.4204537272453308,-1.616798758506775
1789075605138828500,3.62082861328125,2.016028642654419,-1.0079317092895508,-1.8997348546981812
1789075605148771600,3.630771484375,1.3694231510162354,-1.285305380821228,-1.2710672616958618
1789075605158714600,3.640714599609375,1.0534931421279907,-1.6331806182861328,-0.3897401988506317
1789075605168657700,3.65065771484375,0.8081983923912048,-1.2491008043289185,0.5080249309539795
1789075605178599400,3.660599365234375,0.34832873940467834,-1.4116865396499634,1.2638574838638306
1789075605188542500,3.67054248046875,-0.11316677927970886,-1.0655207633972168,1.9161745309829712
1789075605198485200,3.6804853515625,0.022824611514806747,-0.5882986783981323,1.5386312007904053
1789075605208428300,3.69042822265625,1.172804594039917,1.031955599784851,0.4527328610420227
1789075605218370600,3.70037060546875,2.022855520248413,-0.9367775321006775,1.0580952167510986
1789075605228313300,3.710313232421875,2.2749783992767334,0.06101192533969879,0.11112008988857269
1789075605238256400,3.72025634765625,1.4997844696044922,-0.40221723914146423,0.6805614233016968
1789075605248199400,3.730199462890625,0.566663920879364,-0.9962670803070068,0.9080517888069153
1789075605258141400,3.740141357421875,-0.3576620817184448,-1.1109884977340698,1.0762369632720947
1789075605268084500,3.75008447265625,-1.2240705490112305,-1.2631109952926636,0.9031015634536743
1789075605278027500,3.760027587890625,-1.4517390727996826,-0.9333754777908325,0.38878682255744934
1789075605287970600,3.769970458984375,-1.2529059648513794,-0.08344504237174988,-0.19958485662937164
1789075605297913600,3.77991357421875,-0.8479766249656677,0.2341848462820053,-0.587917149066925
1789075605307855400,3.78985546875,-0.313544362783432,0.008613827638328075,-0.7446579933166504
1789075605317798400,3.79979833984375,0.1517532765865326,0.14933153986930847,-0.9272866249084473
1789075605327741400,3.809741455078125,0.6657500267028809,0.03629792109131813,-0.5577892661094666
1789075605337684500,3.8196845703125,0.8944620490074158,0.448906809091568,-0.25808537006378174
1789075605347626500,3.82962646484375,0.965803861618042,0.743444561958313,-0.14918272197246552
1789075605357569500,3.839569580078125,0.31377148628234863,-0.03905685991048813,-0.37766674160957336
1789075605367512600,3.8495126953125,-0.2484046220779419,-0.4895065128803253,-0.5579215288162231
1789075605377455400,3.859455322265625,-0.557512104511261,-0.5552183985710144,-0.9583139419555664
1789075605387397600,3.869397705078125,-0.5487979054450989,-0.03576408699154854,-0.9486302733421326
1789075605397340400,3.87934033203125,-0.4270733892917633,0.7326249480247498,-0.7484143376350403
1789075605407283500,3.889283447265625,-0.5224195718765259,0.553722620010376,-0.9139636754989624
1789075605417226500,3.8992265625,-0.6406266093254089,0.3995700776576996,-1.0840554237365723
1789075605427169500,3.90916943359375,-0.7294427752494812,0.11814101785421371,-1.165450096130371
1789075605437111300,3.919111328125,-0.7219624519348145,-0.04344894364476204,-1.1915194988250732
1789075605447054300,3.929054443359375,-0.6055060029029846,0.19947589933872223,-1.1384555101394653
1789075605456997400,3.938997314453125,-0.5584074854850769,0.5499867796897888,-1.1026954650878906
1789075605466940400,3.9489404296875,-0.7706752419471741,0.487018883228302,-1.206207275390625
1789075605476882400,3.95888232421875,-0.956068754196167,0.08849149197340012,-1.3664653301239014
1789075605486825500,3.968825439453125,-0.9612050652503967,-0.17314864695072174,-1.3685731887817383
1789075605496768500,3.9787685546875,-0.7603574395179749,0.0886446088552475,-1.055159091949463
1789075605506711600,3.988711669921875,-0.6106219291687012,0.10536955296993256,-0.7019992470741272
1789075605516653600,3.998653564453125,-0.6961256265640259,-0.13914325833320618,-0.6921476721763611
1789075605526596600,4.0085966796875,-0.7910276055335999,-0.20656779408454895,-0.8148964643478394
1789075605536539600,4.01853955078125,-0.8726431131362915,-0.19255396723747253,-0.7593805193901062
1789075605546482700,4.028482666015625,-0.9057217836380005,-0.08922035247087479,-0.5561457276344299
1789075605556425500,4.038425537109375,-0.8891848921775818,0.26005908846855164,-0.2638110816478729
1789075605566367500,4.048367431640625,-0.847181499004364,0.6604176163673401,-0.010951213538646698
1789075605576310300,4.058310302734375,-0.9236107468605042,0.6747912764549255,-0.05988812819123268
1789075605586253300,4.06825341796875,-1.0389766693115234,0.5673213005065918,-0.258369117975235
1789075605596196400,4.0781962890625,-1.1102550029754639,0.4202098548412323,-0.34911125898361206
1789075605606138400,4.088138427734375,-1.1098629236221313,0.3962748646736145,-0.23578062653541565
1789075605616081400,4.098081298828125,-1.1688774824142456,0.4332299530506134,0.012588435783982277
1789075605626024400,4.1080244140625,-1.3382081985473633,0.15733745694160461,-0.14015451073646545
1789075605635967500,4.117967529296875,-1.4493458271026611,-0.27363070845603943,-0.5906005501747131
1789075605645910500,4.12791064453125,-1.42030930519104,-0.4909350872039795,-0.8908947110176086
1789075605655852500,4.1378525390625,-1.3420746326446533,-0.43214261531829834,-0.8686773180961609
1789075605665795600,4.147795654296875,-1.2030531167984009,-0.012574862688779831,-0.5974302887916565
1789075605675738600,4.157738525390625,-0.9718202352523804,0.456619530916214,-0.3266594707965851
1789075605685681400,4.167681396484375,-0.8486282825469971,0.35021770000457764,-0.38346996903419495
1789075605695624000,4.1776240234375,-0.8708869814872742,0.25967633724212646,-0.6212005019187927
1789075605705567000,4.18756689453125,-0.9572727084159851,0.577246904373169,-0.6372397541999817
1789075605715510000,4.197510009765625,-0.89825439453125,0.7794910669326782,-0.34491679072380066
1789075605725452800,4.207452880859375,-0.6633349061012268,0.8816957473754883,-0.13792778551578522
1789075605735395000,4.21739501953125,-0.532042920589447,0.5492786765098572,-0.14844274520874023
1789075605745337900,4.227337890625,-0.550907552242279,0.5036186575889587,-0.27294015884399414
1789075605755281000,4.237281005859375,-0.5349184274673462,0.8060469627380371,-0.3236379623413086
1789075605765224000,4.247223876953125,-0.5358457565307617,0.9498594999313354,-0.1652146279811859
1789075605775167000,4.2571669921875,-0.42525506019592285,0.8443330526351929,-0.09467440843582153
1789075605785109000,4.26710888671875,-0.5028242468833923,1.2305165529251099,0.18207164108753204
1789075605795052000,4.277052001953125,-0.33730748295783997,0.4999128580093384,-0.360358327627182
1789075605804995000,4.2869951171875,-0.27081698179244995,0.6234702467918396,-0.3768998682498932
1789075605814938000,4.296938232421875,-0.11107845604419708,0.6564950346946716,-0.2582147717475891
1789075605824879900,4.3068798828125,-0.002212192863225937,0.5831444263458252,-0.4178994596004486
1789075605834823000,4.316822998046875,0.08714671432971954,0.36404329538345337,-1.0250422954559326
1789075605844766000,4.326765869140625,-0.03180907666683197,0.7734423875808716,-0.6426148414611816
1789075605854709000,4.336708984375,0.04322975128889084,0.5728528499603271,-0.4169507622718811
1789075605864652000,4.346652099609375,0.2183581441640854,0.44877564907073975,-0.45370104908943176
1789075605874594000,4.356593994140625,0.3172636926174164,0.43905672430992126,-0.5560405254364014
1789075605884537000,4.366537109375,0.32918810844421387,0.6391423940658569,-0.4482891261577606
1789075605894480000,4.37647998046875,0.4031294584274292,0.5095071792602539,-0.35295569896698
1789075605904423000,4.3864228515625,0.4345264732837677,0.35321903228759766,-0.20675425231456757
1789075605914365000,4.396364990234375,0.4758049547672272,0.4446141719818115,-0.3353050649166107
1789075605924308000,4.406307861328125,0.42767560482025146,0.7725387811660767,-0.3835916817188263
1789075605934251000,4.4162509765625,0.46737027168273926,0.5671437978744507,-0.5798549056053162
1789075605944194000,4.426194091796875,0.5136707425117493,0.563435435295105,-0.47018861770629883
1789075605954135800,4.4361357421875,0.7079552412033081,0.8101168870925903,-0.23039469122886658
1789075605964078800,4.446078857421875,0.8683408498764038,0.8578014969825745,-0.11964283883571625
1789075605974022000,4.45602197265625,0.9555140733718872,0.7324433326721191,-0.1528620421886444
1789075605983965000,4.46596484375,0.9818985462188721,0.4839087426662445,-0.1512053906917572
1789075605993908000,4.475907958984375,0.9556922316551208,0.3889992833137512,-0.08044226467609406
1789075606003850000,4.48585009765625,1.0100739002227783,0.40465664863586426,0.12353896349668503
1789075606013793000,4.49579296875,1.071211814880371,0.4524931311607361,0.21019849181175232
1789075606023736000,4.505736083984375,1.0830031633377075,0.36583173274993896,0.1294039785861969
1789075606033679000,4.51567919921875,1.1061567068099976,0.19229619204998016,0.11222152411937714
1789075606043621000,4.52562109375,1.0310189723968506,0.33213111758232117,0.07703425735235214
1789075606053564200,4.535564208984375,1.2116830348968506,0.7550264596939087,0.15057824552059174
1789075606063507200,4.545507080078125,1.3934284448623657,0.6878213286399841,0.3790433704853058
1789075606073449700,4.55544970703125,1.37212073802948,0.5269938111305237,0.3806836009025574
1789075606083392800,4.565392822265625,1.4082452058792114,0.1820572465658188,0.2856615483760834
1789075606093335000,4.5753349609375,1.4962959289550781,0.16529583930969238,0.24443823099136353
1789075606103277800,4.58527783203125,1.6820063591003418,0.28790637850761414,0.2798614203929901
1789075606113220900,4.595220947265625,1.846732497215271,0.18819311261177063,0.406820684671402
1789075606123164000,4.605163818359375,1.883133888244629,0.12418322265148163,0.39283010363578796
1789075606133106000,4.61510595703125,1.8091323375701904,-0.08563072234392166,0.24799035489559174
1789075606143049000,4.625049072265625,1.6329094171524048,-0.26051944494247437,0.12114082276821136
1789075606152992000,4.634991943359375,1.5269438028335571,-0.33748215436935425,0.01995188742876053
1789075606162935000,4.64493505859375,1.4829784631729126,-0.29294657707214355,-0.08484344184398651
1789075606172878000,4.654878173828125,1.478542685508728,-0.19137628376483917,-0.2980113923549652
1789075606182819800,4.66481982421875,1.5516765117645264,-0.15558232367038727,-0.43080219626426697
1789075606192763000,4.674762939453125,1.6161295175552368,-0.1140093207359314,-0.35159391164779663
1789075606202706000,4.684705810546875,1.5834863185882568,0.004133319482207298,-0.24459457397460938
1789075606212649000,4.69464892578125,1.5368276834487915,0.22869399189949036,-0.23378027975559235
1789075606222591000,4.704591064453125,1.5165516138076782,0.27073249220848083,-0.19402353465557098
1789075606232534000,4.714533935546875,1.505306363105774,0.26465728878974915,-0.15293042361736298
1789075606242477000,4.72447705078125,1.4436376094818115,0.19174453616142273,-0.06971638649702072
1789075606252419800,4.734419921875,1.2867671251296997,0.10796841233968735,-0.05238480493426323
1789075606262363000,4.74436279296875,1.1906285285949707,0.04537458345293999,-0.04137785732746124
1789075606272305000,4.754304931640625,1.2345349788665771,0.031055565923452377,0.10814958810806274
1789075606282248000,4.764248046875,1.212735652923584,-0.1642123907804489,0.23304881155490875
1789075606292191000,4.77419091796875,1.162157416343689,-0.24040356278419495,0.2742588520050049
1789075606302134000,4.784134033203125,1.1093406677246094,-0.25020283460617065,0.29738327860832214
1789075606312075800,4.79407568359375,1.0077165365219116,-0.3024876117706299,0.3162243366241455
1789075606322018800,4.804018798828125,0.8510953783988953,-0.36889463663101196,0.3503691554069519
1789075606331961900,4.8139619140625,0.7564210295677185,-0.6587198376655579,0.31923598051071167
1789075606341905000,4.82390478515625,0.7223108410835266,-0.7064482569694519,0.2780971825122833
1789075606351847000,4.833846923828125,0.6802187561988831,-0.5178245306015015,0.33839115500450134
1789075606361790000,4.8437900390625,0.6813014149665833,-0.5595570206642151,0.43619465827941895
1789075606371733000,4.85373291015625,0.6382442116737366,-0.7220178246498108,0.46507424116134644
1789075606381676000,4.863676025390625,0.47948142886161804,-1.0294073820114136,0.42368337512016296
1789075606391619000,4.873619140625,0.314066618680954,-1.1510469913482666,0.35602495074272156
1789075606401561000,4.88356103515625,0.20452535152435303,-1.2034485340118408,0.23867036402225494
1789075606411504000,4.893504150390625,0.13313984870910645,-1.2214666604995728,0.15594646334648132
1789075606421447000,4.903447021484375,0.10792902112007141,-0.7100567817687988,0.21116094291210175
1789075606431390000,4.913389892578125,0.036535270512104034,-0.4698526859283447,0.24593409895896912
1789075606441332000,4.92333203125,-0.3324473798274994,-1.0121561288833618,0.04129214212298393
1789075606451274800,4.933274658203125,-0.5178287029266357,-0.9862845540046692,-0.18764570355415344
1789075606461217800,4.9432177734375,-0.43276074528694153,-0.3793925940990448,-0.23225843906402588
1789075606471160800,4.953160888671875,-0.2547342777252197,0.005202486179769039,-0.18519532680511475
1789075606481104000,4.963103759765625,-0.2500617206096649,0.11065579205751419,-0.15317635238170624
1789075606491046000,4.9730458984375,-0.529830813407898,-0.21537211537361145,-0.3339373469352722
1789075606500989000,4.982989013671875,-0.638087272644043,-0.42894676327705383,-0.48602035641670227
1789075606510932000,4.992931884765625,-0.4681706428527832,-0.2919851839542389,-0.45436787605285645
1789075606520875000,5.002875,-0.36320173740386963,-0.3110756278038025,-0.4097088575363159
1789075606530817000,5.012817138671875,-0.5052387714385986,-0.3881741464138031,-0.4479835629463196
1789075606540760000,5.022760009765625,-0.4582182765007019,0.10027927905321121,-0.421155720949173
1789075606550703000,5.032703125,-0.45477694272994995,0.5387115478515625,-0.328313410282135
1789075606560646100,5.042646240234375,-0.6211330890655518,0.1494089663028717,-0.3942379057407379
1789075606570589200,5.052589111328125,-0.6535325646400452,0.37901580333709717,-0.363115131855011
1789075606580531000,5.062531005859375,-0.6295492649078369,0.5276392102241516,-0.26822739839553833
1789075606590474000,5.072473876953125,-0.66413813829422,0.2895326316356659,-0.258802205324173
1789075606600417000,5.0824169921875,-0.6875392198562622,0.3379085958003998,-0.2840217351913452
1789075606610359800,5.09235986328125,-0.7815189957618713,0.35851746797561646,-0.34569230675697327
1789075606620302000,5.102302001953125,-0.8756955862045288,0.23729968070983887,-0.4262571334838867
1789075606630244900,5.112244873046875,-0.8635625243186951,0.5845932364463806,-0.351108580827713
1789075606640188000,5.12218798828125,-0.9292379021644592,0.39141979813575745,-0.3101480305194855
1789075606650131000,5.132130859375,-1.0175373554229736,0.08129362016916275,-0.3930565118789673
1789075606660074000,5.142073974609375,-1.0345503091812134,0.25291165709495544,-0.4076210856437683
1789075606670016000,5.15201611328125,-0.9245771169662476,0.22356735169887543,-0.3584554195404053
1789075606679959000,5.161958984375,-0.9983962774276733,0.04508814588189125,-0.410157710313797
1789075606689902000,5.171902099609375,-1.0857082605361938,0.11032893508672714,-0.4282078444957733
1789075606699845400,5.181845458984375,-1.1189947128295898,0.2780904769897461,-0.3961293697357178
1789075606709787400,5.191787353515625,-1.217550277709961,0.27709710597991943,-0.39238205552101135
1789075606719730400,5.20173046875,-1.263614296913147,0.28895846009254456,-0.34993427991867065
1789075606729673500,5.211673583984375,-1.2086200714111328,0.20522919297218323,-0.279936283826828
1789075606739616500,5.221616455078125,-1.2215908765792847,0.10989531129598618,-0.2992658317089081
1789075606749559300,5.231559326171875,-1.1347906589508057,0.11716307699680328,-0.33002108335494995
1789075606759501300,5.241501220703125,-1.1020463705062866,-0.010726896114647388,-0.42927131056785583
1789075606769444400,5.2514443359375,-1.0755923986434937,-0.221099853515625,-0.6152401566505432
1789075606779387100,5.26138720703125,-0.8945398926734924,-0.5364210605621338,-0.8007668256759644
1789075606789330200,5.271330078125,-0.8577709197998047,-0.8142284154891968,-1.0499045848846436
1789075606799272200,5.281272216796875,-0.8353084325790405,-1.3588862419128418,-1.4900163412094116
1789075606809215200,5.29121533203125,-0.7336491942405701,-1.3711278438568115,-1.4963829517364502
1789075606819158300,5.301158203125,-0.5569401979446411,-1.1326050758361816,-1.1366266012191772
1789075606829101300,5.311101318359375,-0.4954672157764435,-0.9723613262176514,-0.743543267250061
1789075606839044400,5.32104443359375,-0.6485552191734314,0.44240325689315796,-0.8041974306106567
1789075606848986400,5.330986328125,-0.8214372396469116,0.5418480634689331,-0.42871540784835815
1789075606858929400,5.340929443359375,-1.0031508207321167,0.5720471143722534,-0.31608203053474426
1789075606868872400,5.35087255859375,-1.0082811117172241,0.1921198070049286,-0.35607314109802246
1789075606878815500,5.3608154296875,-1.1055115461349487,-0.4197276830673218,-0.5642836093902588
1789075606888757200,5.37075732421875,-1.219713568687439,-0.7686574459075928,-0.930899441242218
1789075606898700300,5.3807001953125,-1.257604718208313,-0.4719114899635315,-0.9791091680526733
1789075606908643300,5.390643310546875,-1.2187366485595703,0.0062417685985565186,-0.6695103049278259
1789075606918586400,5.40058642578125,-1.0927963256835938,0.17950619757175446,-0.4069110155105591
1789075606928529200,5.410529052734375,-1.0847066640853882,0.06574340909719467,-0.4287257492542267
1789075606938471400,5.420471435546875,-1.0678117275238037,-0.03358623385429382,-0.5729631185531616
1789075606948414200,5.430414306640625,-1.0728572607040405,-0.08343075960874557,-0.6524448990821838
1789075606958357200,5.440357177734375,-1.039236307144165,0.01633886620402336,-0.6417734026908875
1789075606968300300,5.45030029296875,-0.910125195980072,0.11183103919029236,-0.537569522857666
1789075606978242300,5.4602421875,-0.7550480961799622,-0.07228024303913116,-0.5096299052238464
1789075606988185300,5.470185302734375,-0.6454366445541382,-0.0013482840731739998,-0.5399172306060791
1789075606998128400,5.48012841796875,-0.6234610080718994,0.14920595288276672,-0.5315607786178589
1789075607008071400,5.490071533203125,-0.6665371060371399,0.15210826694965363,-0.5029104948043823
1789075607018014500,5.500014404296875,-0.7376948595046997,0.16470269858837128,-0.4954835772514343
1789075607027956200,5.509956298828125,-0.8294966816902161,0.20101703703403473,-0.48289188742637634
1789075607037899300,5.519899169921875,-0.8803847432136536,0.2975027561187744,-0.412094384431839
1789075607047842300,5.52984228515625,-0.8647165298461914,0.2965781092643738,-0.32284092903137207
1789075607057785300,5.539785400390625,-0.814791738986969,0.4021173417568207,-0.2144317328929901
1789075607067727400,5.549727294921875,-0.7521944046020508,0.4047197699546814,-0.16212113201618195
1789075607077670400,5.55967041015625,-0.7421844601631165,0.3343047499656677,-0.15236425399780273
1789075607087613400,5.569613525390625,-0.7148165106773376,0.35553866624832153,-0.08611864596605301
1789075607097556500,5.579556396484375,-0.6825464367866516,0.4224646985530853,-0.03041010908782482
1789075607107499300,5.589499267578125,-0.5796829462051392,0.5208203196525574,-0.006205969490110874
1789075607117441500,5.599441650390625,-0.4637405574321747,0.3130893409252167,0.040023352950811386
1789075607127384300,5.60938427734375,-0.33966442942619324,0.15638522803783417,0.011992516927421093
1789075607137327400,5.619327392578125,-0.23836307227611542,0.18959933519363403,0.030434561893343925
1789075607147270400,5.6292705078125,-0.04411822557449341,0.3384218215942383,0.12477757036685944
1789075607157212200,5.639212158203125,0.15925072133541107,0.4462037682533264,0.2328384965658188
1789075607167155200,5.6491552734375,0.37054139375686646,0.5048471093177795,0.35350045561790466
1789075607177098200,5.65909814453125,0.467994749546051,0.49983298778533936,0.41804277896881104
1789075607187041300,5.669041259765625,0.5862825512886047,0.5386483073234558,0.5955514907836914
1789075607196984300,5.678984375,0.7522634863853455,0.519925594329834,0.6402532458305359
1789075607206926300,5.68892626953125,0.9163392782211304,0.40435129404067993,0.5627613663673401
1789075607216869400,5.698869384765625,1.0307732820510864,0.4467087984085083,0.662572979927063
1789075607226812400,5.7088125,1.2079308032989502,0.5399777293205261,0.6729257702827454
1789075607236755500,5.71875537109375,1.4453872442245483,0.42816609144210815,0.6225317716598511
1789075607246697500,5.728697509765625,1.5574400424957275,0.3231925368309021,0.6092766523361206
1789075607256640500,5.738640625,1.5299582481384277,0.06406056135892868,0.41228291392326355
1789075607266583600,5.74858349609375,1.3685115575790405,-0.1489206850528717,0.25645068287849426
1789075607276526300,5.7585263671875,1.2197964191436768,-0.03960169851779938,0.32297104597091675
1789075607286469000,5.76846923828125,1.2104260921478271,0.12981422245502472,0.483783096075058
1789075607296411400,5.778411376953125,1.3009358644485474,0.1366409957408905,0.6651192903518677
1789075607306354200,5.788354248046875,1.4098516702651978,0.003107171505689621,0.7980917096138
1789075607316297200,5.798297119140625,1.520945429801941,-0.13862739503383636,0.8016344904899597
1789075607326240300,5.808240234375,1.6375783681869507,-0.07187605649232864,0.7501137852668762
1789075607336182300,5.818182373046875,1.7408878803253174,0.2457481324672699,0.7648301124572754
1789075607346125300,5.828125244140625,1.7869772911071777,0.424949586391449,0.8230220675468445
1789075607356068400,5.838068359375,1.8222248554229736,0.2669178247451782,0.8852786421775818
1789075607366011400,5.848011474609375,1.8475522994995117,0.012838133610785007,0.940857470035553
1789075607375953400,5.857953369140625,1.862141728401184,-0.228226900100708,1.0531938076019287
1789075607385896400,5.867896484375,1.8464457988739014,-0.43781477212905884,1.1956076622009277
1789075607395839500,5.877839599609375,1.8630338907241821,-0.5249208807945251,1.256850242614746
1789075607405782300,5.8877822265625,1.8664506673812866,-0.4698515236377716,1.25679349899292
1789075607415725300,5.897725341796875,1.7615286111831665,-0.5969547629356384,1.1556220054626465
1789075607425667300,5.907667236328125,1.6682090759277344,-0.8717111945152283,1.102092981338501
1789075607435610400,5.9176103515625,1.5721478462219238,-1.1657730340957642,1.0327955484390259
1789075607445553400,5.927553466796875,1.5081299543380737,-1.4086589813232422,0.9667431116104126
1789075607455496200,5.93749609375,1.4303464889526367,-1.3431267738342285,0.9174758195877075
1789075607465439200,5.947439208984375,1.1118441820144653,-1.0662288665771484,0.7258695960044861
1789075607475381200,5.95738134765625,0.7995738983154297,-0.6867759227752686,0.47178468108177185
1789075607485324300,5.96732421875,0.5054490566253662,-0.35766515135765076,0.38571611046791077
1789075607495267300,5.977267333984375,0.25771185755729675,-0.26338303089141846,0.5257762670516968
1789075607505210400,5.98721044921875,0.24356062710285187,-0.546235203742981,0.9643168449401855
1789075607515152400,5.99715234375,0.273953914642334,-0.2892140746116638,0.7624625563621521
1789075607525095200,6.00709521484375,0.3290320932865143,-0.22401085495948792,0.5269871950149536
1789075607535038200,6.0170380859375,0.33209550380706787,-0.1455477476119995,0.5022608041763306
1789075607544981200,6.026981201171875,0.4482729732990265,-0.16989970207214355,0.5603121519088745
1789075607554924300,6.03692431640625,0.5564180612564087,-0.13129237294197083,0.5530382394790649
1789075607564866300,6.0468662109375,0.5694262981414795,-0.3519749641418457,0.38535845279693604
1789075607574809300,6.056809326171875,0.7218844890594482,0.018878992646932602,0.26648831367492676
1789075607584752400,6.06675244140625,0.9139343500137329,0.541067898273468,0.21792744100093842
1789075607594695400,6.0766953125,0.9159771800041199,0.2579799294471741,0.1007864847779274
1789075607604637400,6.086637451171875,0.7624464631080627,0.10953318327665329,0.13574951887130737
1789075607614580500,6.09658056640625,0.5610655546188354,-0.2428191751241684,0.22464735805988312
1789075607624523500,6.1065234375,0.22052153944969177,-0.6456294655799866,0.2353796362876892
1789075607634466300,6.11646630859375,0.023278241977095604,-0.8653793931007385,0.30620744824409485
1789075607644409300,6.126409423828125,-0.07478015124797821,-1.1830352544784546,0.2771297097206116
1789075607654351400,6.136351318359375,-0.14560116827487946,-1.1739639043807983,0.2772578299045563
1789075607664294100,6.146294189453125,-0.13157668709754944,-0.820237398147583,0.35549482703208923
1789075607674237200,6.1562373046875,-0.24024753272533417,-0.8295729160308838,0.2525651752948761
1789075607684180200,6.16618017578125,-0.3152754306793213,-0.6179237961769104,0.18969698250293732
1789075607694123300,6.176123291015625,-0.4200182259082794,-0.5890706777572632,0.07242421060800552
1789075607704064500,6.186064453125,-0.5574746131896973,-0.699298083782196,-0.1118612140417099
1789075607714007600,6.196007568359375,-0.6734443306922913,-0.7539438009262085,-0.2980321943759918
1789075607723950300,6.205950439453125,-0.6608031392097473,-0.643170952796936,-0.40566757321357727
1789075607733893400,6.215893310546875,-0.5771394968032837,-0.24384063482284546,-0.35024312138557434
1789075607743835400,6.22583544921875,-0.4946918189525604,0.0815206840634346,-0.20006690919399261
1789075607753778400,6.2357783203125,-0.5759474635124207,0.15577425062656403,-0.1413467824459076
1789075607763721500,6.245721435546875,-0.6255238056182861,0.35885679721832275,-0.15071338415145874
1789075607773664500,6.25566455078125,-0.47364142537117004,0.7539919018745422,-0.15780475735664368
1789075607783606500,6.2656064453125,-0.29751700162887573,1.0602083206176758,-0.17581172287464142
1789075607793549600,6.275549560546875,-0.29442518949508667,1.1271835565567017,-0.21978041529655457
1789075607803492600,6.28549267578125,-0.3344556987285614,1.201183795928955,-0.273697167634964
1789075607813435600,6.295435546875,-0.3794221580028534,1.2450108528137207,-0.2503451704978943
1789075607823378700,6.305378662109375,-0.4278581440448761,1.000288486480713,-0.13600048422813416
1789075607833320700,6.31532080078125,-0.39748597145080566,0.7991971373558044,-0.067148357629776
1789075607843263500,6.325263427734375,-0.4417194724082947,0.44611257314682007,-0.156490758061409
1789075607853206300,6.335206298828125,-0.4694807231426239,0.19959209859371185,-0.2771548628807068
1789075607863149300,6.3451494140625,-0.5606457591056824,0.07633594423532486,-0.3863295614719391
1789075607873092400,6.35509228515625,-0.7121481895446777,-0.048803847283124924,-0.45635107159614563
1789075607883034400,6.365034423828125,-0.8196114897727966,0.03683808818459511,-0.4517640471458435
1789075607892977400,6.374977294921875,-0.8676126003265381,0.2016352117061615,-0.41807878017425537
1789075607902920400,6.38492041015625,-0.9210774302482605,0.451753705739975,-0.4468371868133545
1789075607912863500,6.394863525390625,-0.9222139716148376,0.8193303942680359,-0.42158201336860657
1789075607922805500,6.404805419921875,-0.9295616149902344,0.8200553059577942,-0.38166362047195435
1789075607932748500,6.41474853515625,-1.0583481788635254,0.03200777620077133,-0.6966161727905273
1789075607942691600,6.424691650390625,-1.1795213222503662,-0.8388270139694214,-1.2427375316619873
1789075607952634600,6.434634521484375,-1.2262887954711914,-1.0210872888565063,-1.2712868452072144
1789075607962577700,6.44457763671875,-1.0797479152679443,-0.818527340888977,-1.1791588068008423
1789075607972519400,6.45451953125,-0.821138322353363,-0.17179034650325775,-0.9113240242004395
1789075607982462500,6.46446240234375,-0.5006385445594788,0.3664638102054596,-0.514467716217041
1789075607992405500,6.474405517578125,-0.37132108211517334,0.5974419713020325,-0.31859591603279114
1789075608002348500,6.4843486328125,-0.36554041504859924,0.471403568983078,-0.4263373017311096
1789075608012290600,6.49429052734375,-0.39103445410728455,0.3916962146759033,-0.6508014798164368
1789075608022233600,6.504233642578125,-0.38566097617149353,0.2061319351196289,-0.8577461242675781
1789075608032176400,6.51417626953125,-0.4360066056251526,-0.030571650713682175,-1.0031555891036987
1789075608042119400,6.524119384765625,-0.5638793706893921,0.008365628309547901,-0.9960731863975525
1789075608052062500,6.5340625,-0.607753336429596,0.2502485513687134,-0.8539482355117798
1789075608062004500,6.54400439453125,-0.7003553509712219,0.36717334389686584,-0.74211585521698
1789075608071947500,6.553947509765625,-0.8633103966712952,0.820662260055542,-0.8422623872756958
1789075608081890600,6.563890625,-0.9783895611763,1.2436859607696533,-0.8940837979316711
1789075608091833600,6.57383349609375,-1.0363504886627197,1.1677844524383545,-0.42649441957473755
1789075608101775400,6.583775390625,-1.1679681539535522,0.8198776245117188,-0.1099039688706398
1789075608111718400,6.593718505859375,-1.3441851139068604,0.28059184551239014,-0.19361010193824768
1789075608121661400,6.603661376953125,-1.402695894241333,-0.147377610206604,-0.5954734086990356
1789075608131604500,6.6136044921875,-1.2363594770431519,-0.7090997695922852,-0.9062761068344116
1789075608141547500,6.623547607421875,-1.1515955924987793,-1.0319457054138184,-0.9872859716415405
1789075608151489500,6.633489501953125,-1.083175778388977,-1.10154390335083,-0.9465295076370239
1789075608161432600,6.6434326171875,-0.9334899187088013,-1.0035417079925537,-0.8402422070503235
1789075608171375600,6.653375732421875,-0.772857666015625,-1.0700253248214722,-0.785500168800354
1789075608181318400,6.663318359375,-0.7050673961639404,-1.111125111579895,-0.7883878350257874
1789075608191261400,6.673261474609375,-0.7304530143737793,-0.8310022354125977,-0.872646152973175
1789075608201203700,6.68320361328125,-0.7474580407142639,-0.3370841443538666,-0.8597127795219421
1789075608211146500,6.693146484375,-0.7903260588645935,-0.033757325261831284,-0.6792006492614746
1789075608221089500,6.703089599609375,-0.7195336818695068,-0.05716065317392349,-0.4238938093185425
1789075608231032600,6.713032470703125,-0.7110154032707214,-0.34239497780799866,-0.38361650705337524
1789075608240974300,6.722974365234375,-0.8325314521789551,-0.7705572247505188,-0.6027176976203918
1789075608250917400,6.73291748046875,-0.8396735191345215,-0.6299663186073303,-0.7687711119651794
1789075608260860400,6.7428603515625,-0.6235947608947754,-0.19443880021572113,-0.734201192855835
1789075608270803500,6.752803466796875,-0.4043830335140228,-0.0075974613428115845,-0.569759726524353
1789075608280746500,6.76274658203125,-0.2950112521648407,-0.020883971825242043,-0.37583044171333313
1789075608290688500,6.7726884765625,-0.38938888907432556,-0.010678871534764767,-0.31356021761894226
1789075608300631600,6.782631591796875,-0.47718188166618347,0.2711520195007324,-0.3267782926559448
1789075608310574600,6.79257470703125,-0.5087602138519287,0.5461452603340149,-0.2466859072446823
1789075608320517600,6.802517578125,-0.5026434659957886,0.619647741317749,-0.006731102708727121
1789075608330459600,6.812459716796875,-0.5121209621429443,0.5189436674118042,0.19488564133644104
1789075608340402700,6.822402587890625,-0.5031799077987671,0.593146800994873,0.20336808264255524
1789075608350345700,6.832345703125,-0.46705323457717896,0.7747458815574646,0.22194594144821167
1789075608360288500,6.84228857421875,-0.44750508666038513,0.6974033713340759,0.40316686034202576
1789075608370231300,6.852231201171875,-0.3550689220428467,0.672572672367096,0.49728596210479736
1789075608380173600,6.862173583984375,-0.29416215419769287,0.5268839001655579,0.48449933528900146
1789075608390116400,6.872116455078125,-0.2745400369167328,0.5537222027778625,0.5326013565063477
1789075608400059400,6.882059326171875,-0.22291357815265656,0.6219937205314636,0.6209493279457092
1789075608410002400,6.89200244140625,-0.14876462519168854,0.5270681977272034,0.7158147096633911
1789075608419944400,6.9019443359375,-0.028288278728723526,0.34856370091438293,0.6110227704048157
1789075608429887500,6.911887451171875,0.24429269134998322,0.18886885046958923,0.5533194541931152
1789075608439830500,6.92183056640625,0.452560156583786,0.06726919114589691,0.5056752562522888
1789075608449773600,6.931773681640625,0.5575413107872009,0.12010057270526886,0.43523117899894714
1789075608459716600,6.941716552734375,0.6945079565048218,0.2870996594429016,0.5425909161567688
1789075608469658600,6.95165869140625,0.8349993824958801,0.4190152883529663,0.7184410691261292
1789075608479601700,6.9616015625,0.9927797317504883,0.37828144431114197,0.7423221468925476
1789075608489544400,6.97154443359375,1.133783221244812,0.3175194561481476,0.8071607351303101
1789075608499487500,6.981487548828125,1.1450244188308716,0.28688883781433105,0.8543276786804199
1789075608509430500,6.991430419921875,1.1023401021957397,0.33806389570236206,0.8486638069152832
1789075608519372500,7.00137255859375,1.2653546333312988,0.2032214105129242,1.0034046173095703
1789075608529315600,7.011315673828125,1.428037166595459,0.29947131872177124,1.0589518547058105
1789075608539258400,7.02125830078125,1.453100323677063,0.541192352771759,1.0702540874481201
1789075608549201400,7.031201416015625,1.4930015802383423,0.4481624960899353,1.1527087688446045
1789075608559143400,7.041143310546875,1.549638271331787,0.43118029832839966,1.1326993703842163
1789075608569086500,7.05108642578125,1.4727460145950317,0.526136577129364,0.771161675453186
1789075608579029500,7.061029541015625,1.6398106813430786,0.6825816035270691,0.5200343728065491
1789075608588972500,7.07097265625,1.8847957849502563,0.7353050112724304,0.6183004975318909
1789075608598915600,7.08091552734375,1.9848709106445312,0.49196937680244446,0.585412323474884
1789075608608857300,7.090857421875,1.7983310222625732,0.6091734766960144,0.2291654348373413
1789075608618800400,7.10080029296875,1.4732959270477295,0.5772179365158081,-0.03942793607711792
1789075608628743400,7.110743408203125,1.3865958452224731,0.6973358392715454,0.05958746373653412
1789075608638686500,7.1206865234375,1.4628820419311523,0.5040995478630066,0.32010239362716675
1789075608648629500,7.13062939453125,1.5375819206237793,0.4003928601741791,0.23705190420150757
1789075608658571500,7.140571533203125,1.5111961364746094,0.2827035188674927,0.104852594435215
1789075608668514600,7.1505146484375,1.3992365598678589,0.08271290361881256,0.05808747932314873
1789075608678457600,7.16045751953125,1.391282320022583,0.08370572328567505,0.18332847952842712
1789075608688400400,7.170400390625,1.5675324201583862,-0.039619654417037964,0.5628901720046997
1789075608698342700,7.1803427734375,1.6486674547195435,-0.2580989897251129,0.5581401586532593
1789075608708285700,7.19028564453125,1.4823631048202515,-0.41336169838905334,0.38745513558387756
1789075608718228500,7.200228515625,1.3658447265625,-0.49634233117103577,0.3706204891204834
1789075608728171500,7.210171630859375,1.3794312477111816,-0.6546111106872559,0.35909077525138855
1789075608738114600,7.220114501953125,1.4809025526046753,-0.21111248433589935,0.6029289960861206
1789075608748056600,7.230056640625,1.5659106969833374,-0.22101230919361115,0.6978846192359924
1789075608757999600,7.23999951171875,1.4250211715698242,-0.3632056713104248,0.4545438587665558
1789075608767942700,7.249942626953125,1.1344125270843506,-0.14606916904449463,0.418412983417511
1789075608777885700,7.2598857421875,0.9750455617904663,-0.09195958822965622,0.5523321628570557
1789075608787827700,7.26982763671875,0.9019492268562317,-0.19193093478679657,0.6052971482276917
1789075608797770800,7.279770751953125,0.8202642202377319,-0.4895128309726715,0.561277449131012
1789075608807713500,7.289713623046875,0.6857446432113647,-0.684234619140625,0.5002663731575012
1789075608817656600,7.299656494140625,0.5658568739891052,-0.6858356595039368,0.5081456303596497
1789075608827599600,7.309599609375,0.5506054759025574,-0.4240952730178833,0.5735865831375122
1789075608837541600,7.319541748046875,0.4156314432621002,-0.32436680793762207,0.5016343593597412
1789075608847484700,7.329484619140625,0.194424107670784,-0.5332489013671875,0.3227872848510742
1789075608857427700,7.339427734375,0.0014519826509058475,-0.6604260206222534,0.1146247610449791
1789075608867370500,7.34937060546875,-0.22409023344516754,-0.7677881121635437,-0.09338442981243134
1789075608877313500,7.3593134765625,-0.2687421441078186,-0.317510724067688,-0.10154089331626892
1789075608887255600,7.369255615234375,-0.4205954968929291,-0.1799553483724594,-0.1074783056974411
1789075608897198600,7.379198486328125,-0.6209056377410889,-0.06399066746234894,-0.13476505875587463
1789075608907141600,7.3891416015625,-0.8319889307022095,0.008580527268350124,-0.2367158681154251
1789075608917084700,7.399084716796875,-0.9486595988273621,-0.11244736611843109,-0.33414894342422485
1789075608927026400,7.4090263671875,-0.9595200419425964,-0.10033472627401352,-0.33257225155830383
1789075608936969500,7.418969482421875,-1.0752389430999756,-0.11598213016986847,-0.3952622413635254
1789075608946912500,7.42891259765625,-1.1385453939437866,1.3784043788909912,-0.8659951686859131
1789075608956855600,7.43885546875,-1.0750457048416138,1.4253112077713013,-0.7520243525505066
1789075608966798600,7.448798583984375,-1.0513190031051636,1.2133431434631348,-0.6812260746955872
1789075608976740600,7.45874072265625,-0.7509545683860779,0.9258784055709839,-0.43840038776397705
1789075608986683600,7.46868359375,-0.4235733449459076,0.4246203601360321,-0.2613440752029419
1789075608996626700,7.478626708984375,-0.2636984586715698,0.030939117074012756,-0.2434404343366623
1789075609006569700,7.48856982421875,-0.06036091223359108,-0.08324388414621353,-0.11830101907253265
1789075609016512500,7.498512451171875,-0.06719910353422165,-0.3154142498970032,-0.19322426617145538
1789075609026454800,7.508454833984375,-0.1152452901005745,-0.23442314565181732,-0.25341519713401794
1789075609036397600,7.5183974609375,-0.11485566943883896,-0.15835101902484894,-0.2758491337299347
1789075609046340600,7.528340576171875,-0.2081308811903,-0.30358123779296875,-0.4440663456916809
1789075609056283600,7.53828369140625,-0.2429807484149933,-0.03026500716805458,-0.44328922033309937
1789075609066225400,7.548225341796875,-0.26778239011764526,0.27550598978996277,-0.3685142397880554
1789075609076168400,7.55816845703125,-0.3282329738140106,0.4210197925567627,-0.30894970893859863
1789075609086111500,7.568111572265625,-0.34359127283096313,0.6813342571258545,-0.2218593806028366
1789075609096054500,7.578054443359375,-0.39592158794403076,0.2751257121562958,-0.27742651104927063
1789075609105997600,7.58799755859375,-0.5185486674308777,0.035672932863235474,-0.38157182931900024
1789075609115939600,7.597939697265625,-0.569480836391449,0.190038800239563,-0.4071938395500183
1789075609125882600,7.607882568359375,-0.5985292196273804,0.19877111911773682,-0.4527149498462677
1789075609135825700,7.61782568359375,-0.6050518155097961,0.39958009123802185,-0.4249855875968933
1789075609145768700,7.627768798828125,-0.5899868011474609,0.48336154222488403,-0.3955825865268707
1789075609155710700,7.637710693359375,-0.7012448310852051,0.2728940546512604,-0.49876460433006287
1789075609165653800,7.64765380859375,-0.8097840547561646,0.30878201127052307,-0.6003032922744751
1789075609175596800,7.6575966796875,-0.7936426401138306,0.5442110896110535,-0.681311309337616
1789075609185539800,7.667539794921875,-0.8959615230560303,0.6639235019683838,-0.7507397532463074
1789075609195482600,7.677482666015625,-0.9326931238174438,0.6554239988327026,-0.7452033162117004
1789075609205424600,7.687424560546875,-0.973278284072876,0.6206382513046265,-0.7852519750595093
1789075609215367700,7.69736767578125,-0.9337888956069946,0.5460159182548523,-0.75411456823349
1789075609225310500,7.707310546875,-0.8236279487609863,0.3602707087993622,-0.6310409903526306
1789075609235253500,7.71725341796875,-0.7196232676506042,0.17326486110687256,-0.35327354073524475
1789075609245196500,7.727196533203125,-0.7992922067642212,0.15150412917137146,-0.24846309423446655
1789075609255138600,7.737138671875,-0.9020790457725525,-0.07514765858650208,-0.34142979979515076
1789075609265081600,7.74708154296875,-1.0151408910751343,-0.19365425407886505,-0.5159763097763062
1789075609275024600,7.757024658203125,-1.1225663423538208,-0.532254159450531,-0.6577872037887573
1789075609284967700,7.7669677734375,-1.1406097412109375,-0.6218149065971375,-0.64009028673172
1789075609294910700,7.77691064453125,-1.0755164623260498,-0.6954305768013,-0.5938040018081665
1789075609304852700,7.786852783203125,-1.1819651126861572,-0.737348198890686,-0.5979796051979065
1789075609314795800,7.796795654296875,-1.2707957029342651,-0.7780545949935913,-0.6769548654556274
1789075609324738800,7.80673876953125,-1.3134299516677856,-0.6586005687713623,-0.6702387928962708
1789075609334681600,7.816681640625,-1.3615021705627441,-0.4606477916240692,-0.5947744250297546
1789075609344623600,7.82662353515625,-1.305643081665039,-0.3946695327758789,-0.5401802659034729
1789075609354566700,7.836566650390625,-1.3015505075454712,-0.5660908222198486,-0.6453573107719421
1789075609364509700,7.846509765625,-1.2667479515075684,-0.5879634618759155,-0.8652616739273071
1789075609374452500,7.856452392578125,-1.193253755569458,-0.6869539618492126,-1.0298950672149658
1789075609384395500,7.8663955078125,-1.2076687812805176,-0.7020147442817688,-1.0492000579833984
1789075609394337500,7.876337646484375,-1.2531098127365112,-0.6331097483634949,-0.9200915694236755
1789075609404280600,7.886280517578125,-1.2260699272155762,-0.49008387327194214,-0.7779123783111572
1789075609414223600,7.8962236328125,-1.1332337856292725,-0.2870396673679352,-0.5822323560714722
1789075609424166700,7.906166748046875,-1.0148974657058716,-0.4408203363418579,-0.5953361988067627
1789075609434109700,7.916109619140625,-1.0080078840255737,-0.4316076636314392,-0.7771483659744263
1789075609444051700,7.9260517578125,-1.0080476999282837,-0.15595445036888123,-0.7722757458686829
1789075609453994500,7.935994384765625,-0.9589272141456604,0.16141685843467712,-0.5675492286682129
1789075609463937500,7.9459375,-0.8300822377204895,0.32704541087150574,-0.28477880358695984
1789075609473880600,7.955880615234375,-0.8093290328979492,-0.026241013780236244,-0.17780335247516632
1789075609483823600,7.96582373046875,-0.881129801273346,-0.05794835835695267,-0.255644291639328
1789075609493765600,7.975765625,-0.8067604899406433,0.1850203424692154,-0.20685333013534546
1789075609503708700,7.985708740234375,-0.6032902598381042,0.29068171977996826,0.043361641466617584
1789075609513651700,7.995651611328125,-0.37085092067718506,0.3505929708480835,0.2543069124221802
1789075609523594500,8.005594482421875,-0.21995964646339417,0.16047963500022888,0.17090821266174316
1789075609533536800,8.015536865234376,-0.25627556443214417,0.1074848547577858,0.06027517467737198
1789075609543479800,8.025479736328125,-0.2995666265487671,0.16400891542434692,0.2400391697883606
1789075609553422600,8.035422607421875,-0.15463075041770935,0.3736231327056885,0.42186543345451355
1789075609563365600,8.04536572265625,0.23542113602161407,0.5444144606590271,0.4706648886203766
1789075609573308700,8.05530859375,0.3954062759876251,0.3258773684501648,0.405483216047287
1789075609583250400,8.06525048828125,0.27895277738571167,0.14705820381641388,0.4280455410480499
1789075609593193500,8.075193359375,0.20454274117946625,0.15248838067054749,0.539250910282135
1789075609603136500,8.085136474609374,0.3243207633495331,0.28844398260116577,0.5171023011207581
1789075609613079600,8.09507958984375,0.6458695530891418,0.4079251289367676,0.4348638951778412
1789075609623022600,8.105022705078126,0.8487489819526672,0.37459298968315125,0.3117506206035614
1789075609632964600,8.114964599609374,0.8732295632362366,0.19400401413440704,0.14948022365570068
1789075609642907600,8.12490771484375,0.8514516949653625,0.09748877584934235,0.23494042456150055
1789075609652850700,8.1348505859375,0.9125089049339294,0.22522036731243134,0.4273703098297119
1789075609662793700,8.144793701171874,1.0940712690353394,0.3249090611934662,0.450041800737381
1789075609672736800,8.15473681640625,1.2902495861053467,0.3122806251049042,0.5060334205627441
1789075609682678800,8.1646787109375,1.4154531955718994,0.1454354226589203,0.6139011383056641
1789075609692621800,8.174621826171874,1.383808970451355,-0.02474376931786537,0.7186397910118103
1789075609702564900,8.18456494140625,1.3445446491241455,0.10465177893638611,0.8650597929954529
1789075609712508000,8.1945078125,1.491766333580017,-0.23456357419490814,1.1469844579696655
1789075609722449700,8.20444970703125,1.7127363681793213,0.30359354615211487,0.8933663368225098
1789075609732392700,8.214392822265625,1.835433840751648,0.1748744547367096,0.9222995042800903
1789075609742335700,8.224335693359375,1.7846053838729858,0.02648250199854374,0.8884186148643494
1789075609752278800,8.23427880859375,1.6396770477294922,0.2110012024641037,0.7349925637245178
1789075609762221800,8.244221923828125,1.5894036293029785,0.38173115253448486,0.6186859607696533
1789075609772163800,8.254163818359375,1.6371945142745972,0.39755353331565857,0.5588465929031372
1789075609782107000,8.26410693359375,1.7218408584594727,0.2554502487182617,0.6069297790527344
1789075609792050000,8.2740498046875,1.7648741006851196,0.1523028165102005,0.5160664319992065
1789075609801993000,8.283992919921875,1.704685926437378,0.16176706552505493,0.37990784645080566
1789075609811936000,8.29393603515625,1.597819209098816,0.2344503253698349,0.3988703489303589
1789075609821878000,8.3038779296875,1.5668761730194092,0.2102448046207428,0.4449404776096344
1789075609831821000,8.313821044921875,1.6814740896224976,0.14769408106803894,0.5172990560531616
1789075609841764000,8.32376416015625,1.7593138217926025,0.03762191906571388,0.41249221563339233
1789075609851707000,8.333706787109374,1.590562105178833,-0.0658717155456543,0.08541103452444077
1789075609861650000,8.34364990234375,1.3372169733047485,-0.07292027026414871,0.0950547605752945
1789075609871591700,8.353591796875,1.182963252067566,-0.2384413182735443,0.3948497176170349
1789075609881534700,8.36353466796875,1.1473393440246582,-0.5063202381134033,0.6816818714141846
1789075609891477800,8.373477783203125,1.2593998908996582,-0.7575386166572571,0.6831220984458923
1789075609901420800,8.3834208984375,1.2229145765304565,-0.9112123847007751,0.5094447731971741
1789075609911363800,8.39336376953125,1.1913460493087769,-0.9141775369644165,0.6644631028175354
1789075609921305900,8.403305908203125,1.0794413089752197,-1.0590673685073853,0.8060882687568665
1789075609931249000,8.413248779296875,0.9940073490142822,-0.9918370246887207,0.7660364508628845
1789075609941192000,8.42319189453125,0.8489224910736084,-0.9399163126945496,0.673403799533844
1789075609951135000,8.433135009765625,0.8276062607765198,-1.0160720348358154,0.5018453598022461
1789075609961077000,8.443076904296875,0.8318850994110107,-0.9415875673294067,0.48566243052482605
1789075609971020000,8.45302001953125,0.7544262409210205,-1.0155962705612183,0.4798325002193451
1789075609980963000,8.462963134765625,0.6221667528152466,-1.0410709381103516,0.46244508028030396
1789075609990905900,8.47290576171875,0.5131140351295471,-1.0682213306427002,0.43778127431869507
1789075610000849000,8.482848876953126,0.4312436580657959,-0.9803145527839661,0.4341053366661072
1789075610010791000,8.492791015625,0.38694941997528076,-0.7887209057807922,0.3752923607826233
1789075610020734000,8.50273388671875,0.2161271870136261,-0.7437593340873718,0.23118777573108673
1789075610030676700,8.5126767578125,0.008112735114991665,-0.6077801585197449,0.11825829744338989
1789075610040619800,8.522619873046875,-0.23928236961364746,-0.5349628329277039,0.06244978308677673
1789075610050562800,8.532562744140625,-0.32651659846305847,-0.20448747277259827,0.16304482519626617
1789075610060504800,8.5425048828125,-0.4157376289367676,0.0368131622672081,0.2512059807777405
1789075610070447900,8.55244775390625,-0.6168121695518494,0.04283164069056511,0.23969021439552307
1789075610080391000,8.562390869140625,-0.7447726130485535,-0.08630593121051788,0.19314618408679962
1789075610090334000,8.572333984375,-0.812052845954895,-0.3042808771133423,0.06720422953367233
1789075610100277000,8.582277099609374,-0.7650275230407715,0.01577318087220192,0.12384787201881409
1789075610110218800,8.59221875,-0.6932710409164429,0.15733909606933594,0.13555140793323517
1789075610120161800,8.602161865234375,-0.7689130902290344,0.322828471660614,0.061544328927993774
1789075610130104800,8.612104736328124,-0.7165995836257935,0.39746594429016113,0.019775312393903732
1789075610140048000,8.6220478515625,-0.6870211362838745,0.2991880476474762,-0.1259116381406784
1789075610149991000,8.631990966796875,-0.669344961643219,0.4169708788394928,-0.1573321521282196
1789075610159933000,8.641932861328126,-0.5279988050460815,0.5356357097625732,-0.08644754439592361
1789075610169876000,8.6518759765625,-0.4649578034877777,0.5511760711669922,-0.07004699856042862
1789075610179818800,8.66181884765625,-0.49812597036361694,0.5051552653312683,-0.09108640998601913
1789075610189761800,8.67176171875,-0.5437350273132324,0.3197108507156372,-0.1438303142786026
1789075610199704800,8.681704833984375,-0.5025818347930908,0.38766127824783325,-0.06014012545347214
1789075610209646800,8.691646728515625,-0.425033837556839,0.5747134685516357,0.16903367638587952
1789075610219590000,8.70158984375,-0.5064886808395386,0.2007954865694046,0.03212250396609306
1789075610229533000,8.711532958984375,-0.6641435623168945,0.05654111132025719,-0.1151905208826065
1789075610239476000,8.72147607421875,-0.7468985319137573,0.06142736226320267,-0.17883305251598358
1789075610249419000,8.7314189453125,-0.6298651099205017,0.32623985409736633,-0.09159749001264572
1789075610259360800,8.74136083984375,-0.5158506035804749,0.769590437412262,0.12808720767498016
1789075610269303800,8.7513037109375,-0.6518744826316833,0.2816264033317566,-0.028525305911898613
1789075610279246800,8.761246826171876,-0.8126879334449768,0.11725426465272903,-0.32613927125930786
1789075610289190000,8.77118994140625,-0.8471681475639343,0.14636580646038055,-0.49451470375061035
1789075610299133000,8.7811328125,-0.7615885138511658,0.3872477114200592,-0.439643532037735
1789075610309075000,8.791074951171876,-0.7077982425689697,0.6276326179504395,-0.25336822867393494
1789075610319018000,8.80101806640625,-0.883074939250946,0.03516966477036476,-0.4732620418071747
1789075610328960800,8.810960693359375,-1.178205132484436,-0.10012105107307434,-0.8664847016334534
1789075610338903800,8.82090380859375,-1.1881256103515625,0.18548354506492615,-1.1651467084884644
1789075610348846800,8.830846923828124,-0.9960397481918335,0.3745719790458679,-1.0893696546554565
1789075610358788900,8.840788818359375,-0.7152063846588135,0.5134384036064148,-0.6693171262741089
1789075610368732000,8.85073193359375,-0.6249316334724426,0.44190236926078796,-0.3895110487937927
1789075610378675000,8.860675048828124,-0.6256706118583679,0.4301704466342926,-0.29335305094718933
1789075610388618000,8.870617919921875,-0.6819093823432922,0.3078288435935974,-0.4194755554199219
1789075610398560800,8.880560791015625,-0.7279297709465027,0.2088068723678589,-0.5147786140441895
1789075610408502800,8.890502685546876,-0.7523903846740723,0.21463440358638763,-0.5468105673789978
1789075610418445800,8.90044580078125,-0.8869658708572388,0.09423863887786865,-0.6532154679298401
1789075610428388900,8.910388916015625,-0.9858967065811157,-0.19594258069992065,-0.8586615920066833
1789075610438332000,8.920331787109374,-1.1246415376663208,-0.300013929605484,-1.0240613222122192
1789075610448275000,8.93027490234375,-1.2149027585983276,-0.23102979362010956,-0.9681562185287476
1789075610458217000,8.940217041015625,-1.2502673864364624,-0.1875343918800354,-0.7991014719009399
1789075610468160000,8.950159912109376,-1.2810759544372559,-0.31349581480026245,-0.8318032622337341
1789075610478103000,8.96010302734375,-1.3365641832351685,-0.5111590027809143,-1.1671041250228882
1789075610488045800,8.9700458984375,-1.3013865947723389,-0.37697702646255493,-1.295468807220459
1789075610497988000,8.979988037109376,-1.2450381517410278,-0.1427025943994522,-1.0443077087402344
1789075610507931000,8.989930908203124,-1.1624270677566528,-0.32331687211990356,-0.8142654299736023
1789075610517873700,8.999873779296875,-1.1023235321044922,-0.6713149547576904,-0.8712924718856812
1789075610527816700,9.009816650390626,-1.2162673473358154,-0.3596252501010895,-0.9927520751953125
1789075610537759700,9.019759765625,-1.2630095481872559,0.31256264448165894,-0.904771089553833
1789075610547701800,9.02970166015625,-1.195001482963562,0.37856245040893555,-0.7466142177581787
1789075610557644800,9.039644775390625,-1.1285805702209473,-0.13617955148220062,-0.7323812246322632
1789075610567587800,9.049587890625,-1.2197495698928833,-0.4803321063518524,-0.8258342146873474
1789075610577531000,9.05953076171875,-1.2912962436676025,-0.15964020788669586,-0.8189870119094849
1789075610587474000,9.069473876953126,-1.2012948989868164,0.04694758355617523,-0.6586534976959229
1789075610597416000,9.079416015625,-0.9823122620582581,0.06543152779340744,-0.4801594018936157
1789075610607359000,9.08935888671875,-0.7898555994033813,-0.4426274299621582,-0.5565146803855896
1789075610617302000,9.099302001953125,-0.788524329662323,-0.34515970945358276,-0.5172362327575684
1789075610627245000,9.1092451171875,-0.7799643874168396,0.04134058952331543,-0.2680559754371643
1789075610637187800,9.119187744140625,-0.7149153351783752,0.28220832347869873,-0.06257928907871246
1789075610647129900,9.1291298828125,-0.5298730134963989,0.2207726687192917,0.05877484008669853
1789075610657073000,9.139072998046874,-0.3941732943058014,-0.13241656124591827,-0.0348253957927227
1789075610667015700,9.149015625,-0.3205379545688629,0.04056401178240776,-0.08939702808856964
1789075610676958700,9.158958740234375,-0.18444445729255676,0.3926036059856415,0.13318482041358948
1789075610686901800,9.16890185546875,-0.09392175823450089,0.49348655343055725,0.36558210849761963
1789075610696843800,9.17884375,0.023938678205013275,0.40095794200897217,0.41243529319763184
1789075610706787000,9.188787109375,0.17801505327224731,0.33377012610435486,0.29608362913131714
1789075610716730000,9.198730224609376,0.23623208701610565,0.3430711328983307,0.22300907969474792
1789075610726673200,9.208673095703125,0.24019379913806915,0.4300593137741089,0.4291667640209198
1789075610736616200,9.2186162109375,0.2764161229133606,0.3952416479587555,0.5769547820091248
1789075610746558200,9.22855810546875,0.3977428376674652,0.34071874618530273,0.43413233757019043
1789075610756501200,9.238501220703125,0.5179533362388611,0.2475057691335678,0.25469499826431274
1789075610766444300,9.2484443359375,0.531783401966095,0.2754535377025604,0.17546863853931427
1789075610776387300,9.25838720703125,0.5250080227851868,0.3705185651779175,0.29731854796409607
1789075610786330000,9.268330078125,0.5918416380882263,0.4402550160884857,0.4274919927120209
1789075610796273200,9.278273193359375,0.7415280342102051,0.40812936425209045,0.3955889940261841
1789075610806215200,9.288215087890626,0.8836835622787476,0.22495555877685547,0.30685433745384216
1789075610816158200,9.298158203125,0.9591213464736938,0.002617345191538334,0.2295151650905609
1789075610826101200,9.308101318359375,1.0066996812820435,-0.05549868941307068,0.20885756611824036
1789075610836044300,9.318044189453126,1.1030538082122803,0.030434632673859596,0.3353267014026642
1789075610845986000,9.327986083984374,1.2774770259857178,0.08089035004377365,0.47999948263168335
1789075610855929000,9.33792919921875,1.4495477676391602,0.024329714477062225,0.6111577153205872
1789075610865872100,9.3478720703125,1.4923362731933594,-0.13791058957576752,0.7279183864593506
1789075610875815200,9.357815185546874,1.3467646837234497,-0.05523678660392761,0.7930216193199158
1789075610885758200,9.36775830078125,1.286595106124878,0.20274308323860168,0.6892331838607788
1789075610895701200,9.377701171875,1.5477635860443115,0.38860195875167847,0.7553398609161377
1789075610905643300,9.387643310546874,1.746867299079895,0.3530716598033905,1.0467621088027954
1789075610915586300,9.39758642578125,1.8510277271270752,0.25958484411239624,1.1987028121948242
1789075610925529300,9.407529296875,1.7868000268936157,0.10973861068487167,0.9920397996902466
1789075610935472000,9.41747216796875,1.5920803546905518,0.14661568403244019,0.6442660689353943
1789075610945414400,9.427414306640625,1.5536293983459473,0.1996522843837738,0.5865604281425476
1789075610955357400,9.437357421875,1.6522098779678345,0.5018022060394287,0.7232953310012817
1789075610965300200,9.44730029296875,1.712626576423645,0.2100699543952942,0.8392200469970703
1789075610975243300,9.4572431640625,1.6629698276519775,0.06213049963116646,0.5327301621437073
1789075610985186000,9.46718603515625,1.4976067543029785,0.1453782469034195,0.2398037314414978
1789075610995129000,9.477129150390626,1.3160767555236816,0.12560205161571503,0.22796733677387238
1789075611005071000,9.487071044921874,1.3649988174438477,0.19278986752033234,0.5271979570388794
1789075611015014100,9.49701416015625,1.4741888046264648,0.07331852614879608,0.6921362280845642
1789075611024957200,9.506957275390626,1.4127593040466309,-0.0759175568819046,0.3527539372444153
1789075611034900200,9.516900146484375,1.1896404027938843,-0.21316860616207123,0.09536866098642349
1789075611044843300,9.52684326171875,1.154535174369812,-0.13938705623149872,0.244438037276268
1789075611054785300,9.536785400390626,1.2417665719985962,-0.09226717054843903,0.538503110408783
1789075611064728300,9.546728271484374,1.2326914072036743,-0.2559852600097656,0.4793013036251068
1789075611074671400,9.55667138671875,1.0113064050674438,-0.5071850419044495,0.25879353284835815
1789075611084614400,9.566614501953126,0.9219192862510681,-0.6043523550033569,0.2569514214992523
1789075611094557200,9.57655712890625,1.0272507667541504,-0.5032990574836731,0.46231117844581604
1789075611104499200,9.586499267578125,1.263537049293518,-0.4696526527404785,0.6717504262924194
1789075611114442000,9.59644189453125,1.2599725723266602,-0.7607097029685974,0.5084509253501892
1789075611124385000,9.606385009765624,0.9581783413887024,-0.7820168137550354,0.2945346236228943
1789075611134328000,9.616328125,0.7004382610321045,-0.7763768434524536,0.3020683526992798
1789075611144271000,9.62627099609375,0.7237379550933838,-0.6348239779472351,0.4002913236618042
1789075611154213000,9.636213134765624,0.780714750289917,-0.5279669761657715,0.4364384114742279
1789075611164156200,9.64615625,0.5311315655708313,-0.5253048539161682,0.3806590437889099
1789075611174099200,9.65609912109375,0.19411030411720276,-0.6664594411849976,0.2209777534008026
1789075611184042200,9.666042236328124,0.04045336693525314,-0.8893538117408752,0.07004204392433167
1789075611193985300,9.6759853515625,0.07547518610954285,-0.4521532654762268,0.1596636325120926
1789075611203927300,9.68592724609375,-0.031173761934041977,-0.0923953577876091,0.23695681989192963
1789075611213870300,9.695870361328126,-0.2806146442890167,-0.225967675447464,0.12050924450159073
1789075611223813400,9.7058134765625,-0.40516698360443115,-0.31799057126045227,0.003086215816438198
1789075611233756400,9.71575634765625,-0.36314907670021057,-0.33219650387763977,0.02277052029967308
1789075611243699200,9.72569921875,-0.38884538412094116,-0.3096107840538025,0.06201938912272453
1789075611253641200,9.73564111328125,-0.5423415303230286,-0.2906133234500885,-0.0363163985311985
1789075611263584300,9.745584228515625,-0.663142740726471,-0.2419230192899704,-0.16152943670749664
1789075611273527000,9.755527099609376,-0.4927707016468048,0.20435747504234314,-0.04701841250061989
1789075611283470000,9.765469970703125,-0.38893458247184753,0.10844825953245163,0.06540293991565704
1789075611293413000,9.7754130859375,-0.4426668882369995,-0.01719980686903,0.02083001285791397
1789075611303355100,9.785355224609376,-0.5279125571250916,-0.0689743235707283,-0.18217024207115173
1789075611313298200,9.795298095703124,-0.5636169910430908,0.35395103693008423,-0.5103971362113953
1789075611323241200,9.8052412109375,-0.6281704306602478,0.5788277983665466,-0.42105743288993835
1789075611333184300,9.815184326171876,-0.6191416382789612,0.5605449676513672,-0.3607438802719116
1789075611343127300,9.825127197265624,-0.6883036494255066,0.5363405346870422,-0.3378326892852783
1789075611353070300,9.8350703125,-0.7027918696403503,0.4443134367465973,-0.34676864743232727
1789075611363012400,9.845012451171876,-0.7016829252243042,0.29116037487983704,-0.4084908664226532
1789075611372955400,9.854955322265624,-0.5748195052146912,0.11834689229726791,-0.40825843811035156
1789075611382898200,9.864898193359375,-0.5112962126731873,-0.015581085346639156,-0.40801766514778137
1789075611392841200,9.87484130859375,-0.45112189650535583,-0.037756212055683136,-0.37888941168785095
1789075611402784000,9.884783935546874,-0.37831640243530273,0.2513837218284607,-0.2547685205936432
1789075611412726300,9.894726318359375,-0.339741975069046,0.3276193141937256,-0.1230926662683487
1789075611422669000,9.9046689453125,-0.3653717041015625,0.023228256031870842,-0.24637331068515778
1789075611432612000,9.914612060546874,-0.4161197543144226,-0.19450031220912933,-0.4344993531703949
1789075611442555100,9.92455517578125,-0.43512117862701416,-0.1760728359222412,-0.5228587985038757
1789075611452498200,9.934498291015625,-0.46587294340133667,-0.02962736412882805,-0.524023175239563
1789075611462440200,9.944440185546876,-0.4750584363937378,0.14336146414279938,-0.4587954580783844
1789075611472383200,9.95438330078125,-0.513042688369751,0.28993111848831177,-0.35186612606048584
1789075611482326300,9.964326171875,-0.6037598252296448,0.22656947374343872,-0.35659778118133545
1789075611492269300,9.974269287109376,-0.7614052891731262,0.11053281277418137,-0.5669460296630859
1789075611502212400,9.98421240234375,-0.9616457223892212,0.09010263532400131,-0.7864778637886047
1789075611512154000,9.994154052734375,-1.1274832487106323,0.14237861335277557,-0.8756950497627258
1789075611522097200,10.00409716796875,-1.171222448348999,0.19911593198776245,-0.8041985034942627
1789075611532040200,10.014040283203125,-1.1931066513061523,0.14645043015480042,-0.7849353551864624
1789075611541983200,10.023983154296875,-1.297837257385254,0.03086523525416851,-0.9115883708000183
1789075611551926000,10.033926025390626,-1.429033875465393,-0.058688871562480927,-0.8731743693351746
1789075611561868300,10.043868408203124,-1.5514717102050781,-0.03258004039525986,-0.671405553817749
1789075611571811000,10.05381103515625,-1.433293104171753,-0.0597640722990036,-0.3856724202632904
1789075611581754000,10.063754150390626,-1.4994041919708252,-0.15161383152008057,-0.3433028757572174
1789075611591697200,10.073697265625,-1.6409428119659424,-0.22243042290210724,-0.5329675078392029
1789075611601640200,10.08364013671875,-1.7317742109298706,-0.09153525531291962,-0.6751640439033508
1789075611611583200,10.093583251953126,-1.7900804281234741,0.1209220215678215,-0.6834988594055176
1789075611621525200,10.103525146484374,-1.7793077230453491,0.2024666666984558,-0.47704529762268066
1789075611631468300,10.11346826171875,-1.9150301218032837,0.2838534414768219,-0.27066677808761597
1789075611641411300,10.123411376953126,-1.9956722259521484,0.09337350726127625,-0.39330801367759705
1789075611651354400,10.133354248046874,-1.9227029085159302,-0.5669847130775452,-0.7688837647438049
1789075611661297400,10.14329736328125,-1.9479368925094604,-1.080438256263733,-1.1532396078109741
1789075611671239200,10.1532392578125,-1.9775160551071167,-0.9190499782562256,-1.2597225904464722
1789075611681182200,10.16318212890625,-1.681599736213684,-0.2871953248977661,-1.0072479248046875
1789075611691125200,10.173125244140625,-1.203988790512085,-0.7008358240127563,-0.8756676316261292
1789075611701067500,10.183067626953125,-1.072554349899292,-1.3811928033828735,-0.970720112323761
1789075611711010600,10.193010498046876,-1.0674943923950195,-0.9246643781661987,-0.966467022895813
1789075611720952600,10.20295263671875,-1.140548586845398,-0.08746477216482162,-0.7413814663887024
1789075611730895600,10.2128955078125,-1.195099949836731,-0.36574530601501465,-0.46741634607315063
1789075611740838400,10.22283837890625,-1.3120806217193604,-0.6418262124061584,-0.2874170243740082
1789075611750781400,10.232781494140625,-1.5391662120819092,0.1572791486978531,-0.2757033705711365
1789075611760724500,10.242724365234375,-1.5212308168411255,0.6082173585891724,-0.16094350814819336
1789075611770667500,10.25266748046875,-1.1409169435501099,0.5109055638313293,0.013818025588989258
1789075611780609300,10.262609375,-0.7853420376777649,0.4824957251548767,0.07822763919830322
1789075611790552300,10.27255224609375,-0.6515246033668518,0.2568660378456116,-0.023068087175488472
1789075611800495400,10.282495361328126,-0.4844301640987396,0.5820226073265076,0.09079856425523758
1789075611810438400,10.2924384765625,-0.1757955104112625,1.2971138954162598,0.10378431528806686
1789075611820381400,10.30238134765625,0.4678918719291687,1.142629623413086,0.0431838184595108
1789075611830323500,10.312323486328125,0.9046560525894165,0.29852890968322754,-0.20840969681739807
1789075611840266500,10.3222666015625,0.9775728583335876,-0.046148575842380524,-0.2949051856994629
1789075611850209500,10.33220947265625,0.9255584478378296,-0.18261797726154327,-0.08064116537570953
1789075611860152600,10.342152587890626,0.8909062147140503,-0.1929398626089096,0.19031736254692078
1789075611870095600,10.352095703125,0.9183946251869202,-0.11424235999584198,0.3802741765975952
1789075611880037600,10.36203759765625,0.8833426237106323,-0.16937752068042755,0.5266982913017273
1789075611889980700,10.371980712890625,0.8542208671569824,-0.26837629079818726,0.6253703236579895
1789075611899923500,10.38192333984375,0.7748357653617859,-0.1925627589225769,0.6150133013725281
1789075611909866500,10.391866455078125,0.8730223178863525,0.22317445278167725,0.9173091053962708
1789075611919809500,10.4018095703125,1.0843449831008911,0.4959620237350464,1.2385060787200928
1789075611929752300,10.41175244140625,1.2043501138687134,0.9253031015396118,1.1320598125457764
1789075611939694300,10.4216943359375,1.33791983127594,0.6102290749549866,0.7860023379325867
1789075611949637400,10.431637451171875,1.324823260307312,0.05680275708436966,0.6611464023590088
1789075611959580400,10.441580322265626,1.2677232027053833,-0.07260716706514359,0.7772918939590454
1789075611969523500,10.4515234375,1.5429245233535767,0.41419535875320435,1.1492751836776733
1789075611979466500,10.461466552734375,1.5894824266433716,0.3995455801486969,1.225706934928894
1789075611989408500,10.471408447265626,1.4771987199783325,0.15178826451301575,0.9120879769325256
1789075611999351600,10.4813515625,1.2246778011322021,-0.22783814370632172,0.6176995038986206
1789075612009294600,10.491294677734375,1.0486814975738525,-0.28466227650642395,0.5300748348236084
1789075612019237600,10.501237548828126,0.9452089667320251,0.09013023227453232,0.6112874150276184
1789075612029180400,10.511180419921875,0.9091020822525024,0.38459649682044983,0.7797374129295349
1789075612039122400,10.521122314453125,1.058916687965393,0.3705674707889557,0.8195774555206299
1789075612049065500,10.5310654296875,1.4003617763519287,0.43654024600982666,0.80527663230896
1789075612059008300,10.54100830078125,1.712287425994873,0.6631792783737183,0.9219456911087036
1789075612068951300,10.550951416015625,1.914160132408142,0.7360275983810425,1.2249408960342407
1789075612078894300,10.560894287109376,2.1223597526550293,0.47624847292900085,1.4112604856491089
1789075612088837400,10.57083740234375,1.994692325592041,0.07543107867240906,0.950764000415802
1789075612098779400,10.580779296875,1.8468199968338013,0.16561610996723175,0.2903434634208679
1789075612108722400,10.590722412109375,1.8119678497314453,0.46266457438468933,0.24640841782093048
1789075612118665500,10.60066552734375,1.836936593055725,0.4746845066547394,0.6653769016265869
1789075612128608500,10.6106083984375,1.9383734464645386,0.4741175174713135,0.6824328303337097
1789075612138551600,10.620551513671876,1.4489669799804688,0.1303769201040268,0.3686158359050751
1789075612148493600,10.63049365234375,0.9997337460517883,-0.1153613030910492,0.32613226771354675
1789075612158436600,10.6404365234375,1.1310778856277466,-0.09315799921751022,0.5227086544036865
1789075612168379600,10.650379638671875,1.4395558834075928,-0.25966876745224,0.484384149312973
1789075612178322400,10.660322509765624,1.5507737398147583,-0.3209283947944641,0.2836366891860962
1789075612188265500,10.670265380859375,1.3893097639083862,-0.4053455591201782,0.1964646279811859
1789075612198207500,10.68020751953125,1.3301846981048584,0.1742858737707138,0.26047930121421814
1789075612208150300,10.690150390625,1.3026944398880005,0.4325352609157562,0.38372448086738586
1789075612218093300,10.70009326171875,1.32864511013031,0.16037937998771667,0.2258421778678894
1789075612228036400,10.710036376953125,0.9929341673851013,-0.15099909901618958,-0.049370232969522476
1789075612237979400,10.7199794921875,0.6707835793495178,-0.2954268455505371,-0.07493790984153748
1789075612247922400,10.72992236328125,0.6687225699424744,-0.04151149094104767,0.20612145960330963
1789075612257864400,10.739864501953125,0.8001149296760559,-0.07306941598653793,0.3490639626979828
1789075612267807500,10.749807373046876,0.7277086973190308,-0.24778927862644196,0.34489208459854126
1789075612277750500,10.75975048828125,0.35925984382629395,-0.44974184036254883,0.23531177639961243
1789075612287693600,10.769693603515625,0.1625693142414093,-0.6599664688110352,0.12022976577281952
1789075612297636600,10.77963671875,0.2801382839679718,-0.39412203431129456,0.19453144073486328
1789075612307578600,10.78957861328125,0.26171332597732544,-0.2964264154434204,0.18119069933891296
1789075612317521700,10.799521728515625,-0.07852359116077423,-0.15168599784374237,0.15865503251552582
1789075612327464400,10.80946435546875,-0.41309529542922974,-0.23754030466079712,0.04281352460384369
1789075612337407200,10.8194072265625,-0.5917171835899353,-0.5058817267417908,-0.11624857038259506
1789075612347350300,10.829350341796875,-0.5726985931396484,-0.24394389986991882,-0.08634092658758163
1789075612357292300,10.839292236328125,-0.38931038975715637,0.1956545114517212,0.10040684789419174
1789075612367235300,10.8492353515625,-0.36475658416748047,0.4538542926311493,0.1608656346797943
1789075612377178400,10.859178466796875,-0.6365140676498413,0.2732573449611664,0.017854148522019386
1789075612387121400,10.869121337890626,-1.0265806913375854,-0.08753123879432678,-0.32838308811187744
1789075612397064400,10.879064453125,-1.1806304454803467,-0.20763900876045227,-0.5868910551071167
1789075612407007500,10.889007568359375,-0.7913016080856323,0.41402286291122437,-0.4286092221736908
1789075612416949500,10.898949462890625,-0.27537116408348083,1.3664278984069824,0.1186261922121048
1789075612426892500,10.908892578125,-0.41205358505249023,0.6456652283668518,0.05875905975699425
1789075612436835600,10.918835693359375,-0.6171630620956421,0.5687408447265625,-0.4387356638908386
1789075612446778600,10.928778564453125,-0.6058546304702759,0.8129404783248901,-0.5308987498283386
1789075612456721700,10.9387216796875,-0.19825175404548645,1.1123926639556885,-0.11965048313140869
1789075612466663400,10.948663330078125,-0.30724042654037476,0.845396101474762,-0.24518589675426483
1789075612476606500,10.9586064453125,-0.6093611717224121,0.7673340439796448,-0.7677001953125
1789075612486549500,10.968549560546874,-0.8395758867263794,0.8761483430862427,-0.9297157526016235
1789075612496492300,10.9784921875,-0.7638505101203918,1.0573023557662964,-0.7499036192893982
1789075612506435300,10.988435302734375,-0.6312395930290222,1.0736151933670044,-0.4482121467590332
1789075612516378400,10.99837841796875,-0.7834892868995667,0.7407434582710266,-0.606472373008728
1789075612526320400,11.0083203125,-0.7901179790496826,0.7020169496536255,-0.6041178107261658
1789075612536263400,11.018263427734375,-0.7940858602523804,0.4733278453350067,-0.6018149852752686
1789075612546206500,11.02820654296875,-0.8074013590812683,0.11163168400526047,-0.660459041595459
1789075612556149500,11.0381494140625,-0.8640225529670715,-0.1435377597808838,-0.7158333659172058
1789075612566092500,11.048092529296875,-0.9443906545639038,-0.20728589594364166,-0.6869348883628845
1789075612576034600,11.05803466796875,-0.8965727686882019,-0.2651209831237793,-0.556894838809967
1789075612585977600,11.0679775390625,-0.8088480234146118,-0.12936432659626007,-0.42940184473991394
1789075612595920600,11.077920654296875,-0.7962584495544434,-0.2726472020149231,-0.5029898285865784
1789075612605863700,11.08786376953125,-0.8065536618232727,-0.399994820356369,-0.634116530418396
1789075612615806500,11.097806396484375,-0.8374673128128052,-0.44770878553390503,-0.6341325044631958
1789075612625749200,11.107749267578125,-0.7531930208206177,-0.40441733598709106,-0.49555692076683044
1789075612635691500,11.11769140625,-0.7191183567047119,-0.4189946949481964,-0.3969895839691162
1789075612645634300,11.12763427734375,-0.8062019348144531,-0.5675958395004272,-0.5149614810943604
1789075612655577300,11.137577392578125,-0.884513258934021,-0.6737148761749268,-0.8196436166763306
1789075612665520400,11.147520263671876,-0.9371324777603149,-0.6350260376930237,-1.0619574785232544
1789075612675463400,11.15746337890625,-0.9956240057945251,-0.5306647419929504,-1.1104925870895386
1789075612685405400,11.167405517578125,-1.0206642150878906,-0.5048534274101257,-1.112133502960205
1789075612695348500,11.177348388671875,-0.9636145234107971,-0.6608715653419495,-1.2158616781234741
1789075612705291500,11.18729150390625,-0.9765741229057312,-0.6398308277130127,-1.2954869270324707
1789075612715234600,11.197234619140625,-0.9780833125114441,-0.30361315608024597,-1.0418317317962646
1789075612725177600,11.207177490234375,-0.9722583889961243,-0.08057516813278198,-0.6471295356750488
1789075612735120600,11.21712060546875,-1.0241189002990723,-0.12602093815803528,-0.4912765324115753
1789075612745062700,11.227062744140625,-1.101445198059082,-0.2290264070034027,-0.5647760629653931
1789075612755005700,11.237005615234375,-1.2584669589996338,-0.11757445335388184,-0.5845491886138916
1789075612764948500,11.246948486328124,-1.3846958875656128,0.07943721115589142,-0.5229839086532593
1789075612774891500,11.2568916015625,-1.4088528156280518,-0.18511001765727997,-0.49905750155448914
1789075612784834600,11.26683447265625,-1.5332344770431519,-0.5205399990081787,-0.7678682208061218
1789075612794776600,11.276776611328126,-1.5445095300674438,-0.5490275621414185,-0.8987021446228027
1789075612804719600,11.2867197265625,-1.5353237390518188,-0.3363916873931885,-0.5021442174911499
1789075612814662700,11.29666259765625,-1.4785462617874146,-0.36485475301742554,-0.20440387725830078
1789075612824605700,11.306605712890626,-1.4092620611190796,-0.6257786750793457,-0.24011658132076263
1789075612834548500,11.316548583984375,-1.406351923942566,-0.7741593718528748,-0.3753848969936371
1789075612844490500,11.326490478515625,-1.378982663154602,-0.8110788464546204,-0.43001437187194824
1789075612854433500,11.33643359375,-1.280516266822815,-0.8800528645515442,-0.39537039399147034
1789075612864376600,11.34637646484375,-1.2057639360427856,-0.9417088031768799,-0.40206387639045715
1789075612874319600,11.356319580078125,-1.0900949239730835,-0.7370725870132446,-0.36518603563308716
1789075612884262700,11.3662626953125,-0.826514720916748,-0.2973959743976593,-0.23414362967014313
1789075612894205700,11.376205810546875,-0.42028969526290894,-0.05032092705368996,-0.05150112137198448
1789075612904147700,11.386147705078125,-0.4303070902824402,-0.5112885236740112,-0.053135860711336136
1789075612914090800,11.3960908203125,-0.6164452433586121,-0.5259955525398254,-0.0757671371102333
1789075612924033500,11.406033447265624,-0.5997317433357239,0.09877248108386993,0.033349957317113876
1789075612933976600,11.4159765625,-0.26969388127326965,0.6582576036453247,0.26735472679138184
1789075612943919600,11.425919677734376,-0.06784043461084366,0.6249709129333496,0.3764604330062866
1789075612953861400,11.435861328125,-0.05559149384498596,0.013345887884497643,0.27139395475387573
1789075612963804400,11.445804443359375,-0.12201817333698273,0.06230602413415909,0.1564919352531433
1789075612973747500,11.45574755859375,-0.15515375137329102,0.6357802152633667,0.3096793293952942
1789075612983690500,11.4656904296875,0.0439443476498127,1.051170825958252,0.5727571249008179
1789075612993633500,11.475633544921875,0.24297329783439636,0.6255844235420227,0.554440438747406
1789075613003576600,11.48557666015625,0.35865622758865356,0.20584547519683838,0.3902512192726135
1789075613013518600,11.4955185546875,0.3278876543045044,0.18508346378803253,0.256437748670578
1789075613023461600,11.505461669921875,0.303960382938385,0.46696969866752625,0.40406033396720886
1789075613033404700,11.51540478515625,0.5021333694458008,0.6257907748222351,0.5831568241119385
1789075613043347700,11.52534765625,0.8364221453666687,0.406849205493927,0.4731278419494629
1789075613053290500,11.53529052734375,1.0532996654510498,0.10572212934494019,0.2138211578130722
1789075613063232800,11.545232666015625,1.0427360534667969,-0.06672423332929611,0.13584840297698975
1789075613073175600,11.555175537109376,0.947297990322113,0.09656615555286407,0.2981262505054474
1789075613083118600,11.56511865234375,1.1138453483581543,0.3264184892177582,0.3646785318851471
1789075613093061600,11.5750615234375,1.4287116527557373,0.3689608871936798,0.2670513093471527
1789075613103004700,11.585004638671874,1.6617116928100586,0.27279260754585266,0.1294591873884201
1789075613112947700,11.59494775390625,1.5847340822219849,0.06577443331480026,-0.006014748942106962
1789075613122889500,11.604889404296875,1.363032579421997,0.09448094666004181,0.2880757451057434
1789075613132832500,11.61483251953125,1.3145856857299805,0.2773599326610565,0.7152257561683655
1789075613142775600,11.624775634765625,1.4326199293136597,0.3862350881099701,0.9825296401977539
1789075613152718600,11.634718505859375,1.5773731470108032,0.3640786409378052,0.8995407819747925
1789075613162661600,11.64466162109375,1.6749606132507324,0.33649641275405884,0.8397251963615417
1789075613172603600,11.654603759765624,1.7921154499053955,0.5392867922782898,0.7340512275695801
1789075613182546700,11.664546630859375,1.9145448207855225,0.7404239177703857,0.8746020793914795
1789075613192489700,11.67448974609375,1.9622784852981567,0.7511168122291565,1.1535072326660156
1789075613202432500,11.6844326171875,2.0045177936553955,0.6151264905929565,1.295310139656067
1789075613212375600,11.69437548828125,1.9418002367019653,0.4697149991989136,0.9511085152626038
1789075613222318600,11.704318603515626,1.8207042217254639,0.5036571621894836,0.5615822672843933
1789075613232260600,11.714260498046874,1.6610794067382812,0.6221316456794739,0.5681240558624268
1789075613242203400,11.724203369140625,1.5427347421646118,0.5425555109977722,0.7820807099342346
1789075613252146400,11.734146484375,1.4973987340927124,0.2537500560283661,0.7425417900085449
1789075613262089500,11.74408935546875,1.5645662546157837,0.48669490218162537,0.31392815709114075
1789075613272032500,11.754032470703125,1.3669248819351196,0.30839332938194275,0.23866933584213257
1789075613281974500,11.763974609375,1.2034224271774292,-0.01149036269634962,0.6189436316490173
1789075613291917600,11.77391748046875,1.2668988704681396,-0.3244943618774414,0.9915395975112915
1789075613301860600,11.783860595703125,1.3390227556228638,-1.013664960861206,1.2119122743606567
1789075613311803600,11.7938037109375,1.302688717842102,-0.9758262634277344,0.8388897180557251
1789075613321746700,11.80374658203125,1.1504045724868774,-0.9037761092185974,0.6072568893432617
1789075613331689500,11.813689453125,1.0037535429000854,-0.7113720178604126,0.7164760828018188
1789075613341631700,11.8236318359375,0.9761552810668945,-0.6584623456001282,0.8531780242919922
1789075613351574800,11.83357470703125,1.039655089378357,-0.582263708114624,0.8211508393287659
1789075613361517600,11.843517578125,1.062340497970581,-0.7735581994056702,0.5998857617378235
1789075613371460600,11.853460693359375,1.07468581199646,-0.8248162865638733,0.4477364420890808
1789075613381403600,11.863403564453124,1.0323154926300049,-0.8153666853904724,0.4567378759384155
1789075613391345400,11.873345458984375,0.9703890681266785,-0.7001445293426514,0.5071153044700623
1789075613401288400,11.883288330078125,0.8693921566009521,-0.6351970434188843,0.41452756524086
1789075613411231500,11.8932314453125,0.5879844427108765,-0.45306718349456787,0.3536999225616455
1789075613421174500,11.903174560546875,0.4555201530456543,-0.39892929792404175,0.26169195771217346
1789075613431117600,11.91311767578125,0.3233277499675751,-0.2238703966140747,0.16439604759216309
1789075613441060600,11.923060546875,0.07323183119297028,0.048641957342624664,0.10331115126609802
1789075613451002600,11.933002685546874,-0.12021033465862274,0.10941396653652191,0.004728653002530336
1789075613460945700,11.942945556640625,-0.26782354712486267,0.07458923012018204,-0.11756790429353714
1789075613470888700,11.952888671875,-0.371249258518219,0.06629002094268799,-0.2092064768075943
1789075613480831700,11.962831787109375,-0.4280429184436798,0.15731734037399292,-0.2162400186061859
1789075613490774500,11.9727744140625,-0.5362737774848938,0.06676027178764343,-0.2308378666639328
1789075613500717600,11.982717529296876,-0.6771553158760071,0.011298495344817638,-0.23885290324687958
1789075613510659600,11.99265966796875,-0.7341914176940918,0.04077222943305969,-0.18612204492092133
1789075613520602600,12.0026025390625,-0.7087254524230957,0.1883750855922699,-0.1440342217683792
1789075613530545400,12.01254541015625,-0.6115765571594238,0.34905609488487244,-0.07483197748661041
1789075613540488400,12.022488525390624,-0.5723004341125488,0.3046340048313141,-0.1208944022655487
1789075613550431500,12.032431396484375,-0.5704452395439148,0.19708730280399323,-0.25789275765419006
1789075613560373500,12.04237353515625,-0.6196640729904175,0.21669836342334747,-0.3286551833152771
1789075613570316500,12.052316650390624,-0.5631723403930664,0.35848769545555115,-0.30611976981163025
1789075613580259600,12.062259521484375,-0.4278561770915985,0.615651547908783,-0.21110685169696808
1789075613590202600,12.07220263671875,-0.41478484869003296,0.616843044757843,-0.19710634648799896
1789075613600145700,12.082145751953124,-0.5146298408508301,0.5434258580207825,-0.27437594532966614
1789075613610088700,12.092088623046875,-0.5898599028587341,0.5481801629066467,-0.3698558509349823
1789075613620030700,12.10203076171875,-0.593462347984314,0.6266100406646729,-0.3206914961338043
1789075613629973800,12.111973876953124,-0.5078182816505432,0.7080252766609192,-0.2732129395008087
1789075613639916500,12.12191650390625,-0.49610111117362976,0.4201635718345642,-0.3407406210899353
1789075613649859600,12.131859619140625,-0.49544915556907654,0.2594684362411499,-0.490428626537323
1789075613659802600,12.141802734375,-0.5839108824729919,0.3745327293872833,-0.5629143118858337
1789075613669745700,12.15174560546875,-0.6637729406356812,0.5238223075866699,-0.5066371560096741
1789075613679687400,12.1616875,-0.7657064199447632,0.5214383006095886,-0.5784909129142761
1789075613689630500,12.17163037109375,-0.9135360717773438,0.6444433331489563,-0.6476420164108276
1789075613699573500,12.181573486328125,-1.0485109090805054,0.40727412700653076,-0.8526292443275452
1789075613709516500,12.1915166015625,-1.040308952331543,0.006412476301193237,-1.0085046291351318
1789075613719459600,12.20145947265625,-0.9400182962417603,0.032448913902044296,-0.8797093629837036
1789075613729401300,12.2114013671875,-0.5540396571159363,-0.04039732739329338,-0.30789992213249207
1789075613739344400,12.221344482421875,-0.6390822529792786,-0.023844890296459198,-0.044672757387161255
1789075613749287400,12.231287353515626,-0.7128360867500305,-0.1901228129863739,-0.15919160842895508
1789075613759230500,12.24123046875,-0.7718270421028137,-0.23311230540275574,-0.39311954379081726
1789075613769173500,12.251173583984375,-0.7357052564620972,-0.28603941202163696,-0.587734043598175
1789075613779116300,12.2611162109375,-0.7660765051841736,-0.34804394841194153,-0.8085256218910217
1789075613789058600,12.27105859375,-0.8339961171150208,-0.5283668041229248,-1.0129873752593994
1789075613799001300,12.28100146484375,-0.962739884853363,-0.6334590315818787,-1.14212965965271
1789075613808944400,12.2909443359375,-1.0933921337127686,-0.4316686987876892,-1.0510567426681519
1789075613818887400,12.300887451171874,-1.1354649066925049,-0.33474886417388916,-0.9853883385658264
1789075613828830500,12.31083056640625,-1.1682339906692505,-0.3362000286579132,-0.9552522301673889
1789075613838773500,12.3207734375,-1.1500720977783203,-0.37215808033943176,-0.8639560341835022
1789075613848715500,12.330715576171874,-1.178635597229004,-0.1756996214389801,-0.7686681151390076
1789075613858658600,12.340658447265625,-1.1340291500091553,-0.09794095158576965,-0.6231856346130371
1789075613868601600,12.3506015625,-1.2279657125473022,-0.08421235531568527,-0.5575371384620667
1789075613878544600,12.360544677734374,-1.2850152254104614,-0.14100004732608795,-0.6672656536102295
1789075613888487700,12.37048779296875,-1.3062857389450073,-0.27045735716819763,-0.8113735318183899
1789075613898430500,12.380430419921876,-1.2824732065200806,-0.45616233348846436,-0.9038799405097961
1789075613908372500,12.39037255859375,-1.277205467224121,-0.6537292003631592,-0.933781623840332
1789075613918315500,12.4003154296875,-1.2852668762207031,-0.7510454058647156,-0.824273943901062
1789075613928258300,12.41025830078125,-1.3276958465576172,-0.7542683482170105,-0.653026282787323
1789075613938201300,12.420201416015624,-1.3521215915679932,-0.5684298872947693,-0.5466169118881226
1789075613948144400,12.430144287109375,-1.344578504562378,-0.42446500062942505,-0.5814462304115295
