time,seconds_elapsed,z,y,x
1790163368890608600,0.058608642578125,0,0,0
1790163368900608800,0.06860888671875,0.018659591674804688,-0.06670653820037842,0.041606515645980835
1790163368910608600,0.078608642578125,0.08166122436523438,-0.10988664627075195,0.16016742587089539
1790163368920608800,0.08860888671875,0.14955425262451172,-0.09405982494354248,0.25178444385528564
1790163368930608600,0.098608642578125,0.18760967254638672,-0.03151094913482666,0.25470292568206787
1790163368940608800,0.10860888671875,0.15806961059570312,0.024539709091186523,0.2069566249847412
1790163368950608600,0.118608642578125,-0.025763511657714844,0.04246640205383301,0.1776411533355713
1790163368960608800,0.12860888671875,-0.13601398468017578,0.0733945369720459,0.14671826362609863
1790163368970608600,0.138608642578125,-0.09322166442871094,0.15965688228607178,-0.03832387924194336
1790163368980608800,0.14860888671875,-0.1650524139404297,0.21462953090667725,-0.21214962005615234
1790163368990608600,0.158608642578125,-0.13679885864257812,0.1969444751739502,-0.12929627299308777
1790163369000608800,0.16860888671875,-0.4133329391479492,0.1149834394454956,0.11991125345230103
1790163369010608600,0.178608642578125,-0.6325616836547852,0.061121463775634766,0.2874285578727722
1790163369020608800,0.18860888671875,-0.6919126510620117,-0.023410439491271973,0.268810510635376
1790163369030608600,0.198608642578125,0.4530792236328125,-0.3031727075576782,0.33383405208587646
1790163369040608800,0.20860888671875,1.4759464263916016,-0.6153743863105774,-0.24480807781219482
1790163369050608600,0.218608642578125,1.4418163299560547,-0.17498207092285156,-0.5771751999855042
1790163369060608800,0.22860888671875,1.831639289855957,0.13711947202682495,-0.337236225605011
1790163369070608600,0.238608642578125,2.214418411254883,0.36920827627182007,-0.1886584758758545
1790163369080608800,0.24860888671875,1.8984270095825195,0.2343287467956543,-0.02177751064300537
1790163369090608600,0.258608642578125,1.1276378631591797,-0.35273122787475586,1.1313395500183105
1790163369100608800,0.26860888671875,-0.3060798645019531,-0.8145982027053833,2.2817091941833496
1790163369110608600,0.278608642578125,-1.8668012619018555,-0.9768457412719727,3.0037450790405273
1790163369120608800,0.28860888671875,-2.8395309448242188,-0.6678733229637146,2.467252254486084
1790163369130608600,0.298608642578125,-3.1076059341430664,0.008974432945251465,0.4714968204498291
1790163369140608800,0.30860888671875,-3.24356746673584,0.5539982318878174,-2.0008246898651123
1790163369150608600,0.318608642578125,-3.6263551712036133,0.6148724555969238,-3.4041876792907715
1790163369160608800,0.32860888671875,-1.8947019577026367,-0.3524717092514038,-3.0354344844818115
1790163369170608600,0.338608642578125,0.03329277038574219,-1.2872270345687866,-1.8397403955459595
1790163369180608800,0.34860888671875,0.6668167114257812,-1.4042506217956543,-0.6364045739173889
1790163369190608600,0.358608642578125,1.4353485107421875,-0.605420708656311,0.2868691682815552
1790163369200608800,0.36860888671875,0.5940418243408203,0.4012419581413269,1.1018292903900146
1790163369210608600,0.378608642578125,0.02456378936767578,1.2429383993148804,1.917848825454712
1790163369220608800,0.38860888671875,0.9285001754760742,1.8350571393966675,1.2099337577819824
1790163369230608600,0.398608642578125,2.1437253952026367,1.9922072887420654,-0.18938148021697998
1790163369240608800,0.40860888671875,2.0138168334960938,1.3358304500579834,-0.3040961027145386
1790163369250608600,0.418608642578125,2.5283470153808594,-1.8038265705108643,3.0062966346740723
1790163369260608800,0.42860888671875,2.0110578536987305,-2.1452841758728027,4.266592502593994
1790163369270608600,0.438608642578125,0.3108692169189453,0.10514099895954132,-0.5500223636627197
1790163369280608800,0.44860888671875,-1.0052223205566406,1.1629561185836792,-3.6704678535461426
1790163369290608600,0.458608642578125,-1.3288507461547852,0.48856857419013977,-3.346998929977417
1790163369300608800,0.46860888671875,-0.650568962097168,-0.8058565258979797,-2.2662081718444824
1790163369310608600,0.478608642578125,0.8512907028198242,-1.2063977718353271,-2.0699069499969482
1790163369320608800,0.48860888671875,1.8268241882324219,-0.7641785740852356,-2.050396680831909
1790163369330608600,0.498608642578125,1.7874946594238281,-0.10933294892311096,-1.1061363220214844
1790163369340608800,0.50860888671875,1.3841838836669922,0.15566936135292053,0.60662841796875
1790163369350608600,0.518608642578125,0.40505504608154297,-0.14290322363376617,1.96308171749115
1790163369360608800,0.52860888671875,-0.8373584747314453,-0.8608679175376892,2.273314952850342
1790163369370608600,0.538608642578125,-1.5036687850952148,-1.1684404611587524,1.0735949277877808
1790163369380608800,0.54860888671875,-1.565328598022461,-0.6622489094734192,-0.9412539005279541
1790163369390608600,0.558608642578125,-0.5430183410644531,0.7441134452819824,-3.0906713008880615
1790163369400608800,0.56860888671875,0.02482891082763672,1.4390183687210083,-3.951647996902466
1790163369410608600,0.578608642578125,0.45751094818115234,1.3429381847381592,-4.53706693649292
1790163369420608800,0.58860888671875,0.3247642517089844,1.2496135234832764,-3.6917619705200195
1790163369430608600,0.598608642578125,-1.3567123413085938,1.1434636116027832,-1.9715180397033691
1790163369440608800,0.60860888671875,-0.07523059844970703,0.4889618754386902,-0.841354250907898
1790163369450608600,0.618608642578125,-0.3268098831176758,-0.8036997318267822,0.4182718098163605
1790163369460608800,0.62860888671875,-1.0475101470947266,-1.388641595840454,1.0024951696395874
1790163369470608600,0.638608642578125,-1.5520315170288086,-1.0421308279037476,1.2199617624282837
1790163369480608800,0.64860888671875,-1.3984394073486328,-0.1766023486852646,0.9245786070823669
1790163369490608600,0.658608642578125,-0.9633417129516602,0.18614301085472107,0.32281965017318726
1790163369500608800,0.66860888671875,-0.3300037384033203,0.3568328619003296,0.26389747858047485
1790163369510608600,0.678608642578125,0.11510753631591797,0.4842471182346344,-0.17611384391784668
1790163369520608800,0.68860888671875,0.2712984085083008,0.21349859237670898,-0.4980120062828064
1790163369530608600,0.698608642578125,0.2050638198852539,-0.19593577086925507,-0.38253045082092285
1790163369540608800,0.70860888671875,0.36506080627441406,-0.2015649825334549,-0.15207314491271973
1790163369550608600,0.718608642578125,0.5790281295776367,0.039583876729011536,0.09608733654022217
1790163369560608800,0.72860888671875,0.8924131393432617,0.22893038392066956,0.19853460788726807
1790163369570608600,0.738608642578125,0.9916620254516602,0.13871213793754578,0.3454442024230957
1790163369580608800,0.74860888671875,0.7979755401611328,-0.11413483321666718,0.23808598518371582
1790163369590608600,0.758608642578125,0.5737409591674805,-0.31273701786994934,0.09022378921508789
1790163369600608800,0.76860888671875,0.8076114654541016,-0.5042455196380615,-0.11823487281799316
1790163369610608600,0.778608642578125,0.7299737930297852,-0.6158561110496521,-0.227264404296875
1790163369620608800,0.78860888671875,0.9077243804931641,-0.31425926089286804,-0.06105971336364746
1790163369630608600,0.798608642578125,1.5117416381835938,-0.03427864611148834,0.3190157413482666
1790163369640608800,0.80860888671875,2.41512393951416,0.36224639415740967,0.2747488021850586
1790163369650608600,0.818608642578125,3.11533260345459,1.1831703186035156,-0.48866724967956543
1790163369660608800,0.82860888671875,2.60141658782959,1.5936813354492188,-1.3884868621826172
1790163369670608600,0.838608642578125,1.4557266235351562,1.2904229164123535,-1.2995338439941406
1790163369680608800,0.84860888671875,0.03274345397949219,1.043616771697998,-1.0832743644714355
1790163369690608600,0.858608642578125,-1.4865007400512695,0.3511069416999817,-0.8449892997741699
1790163369700608800,0.86860888671875,-2.500227451324463,-1.0989089012145996,-0.13248825073242188
1790163369710608600,0.878608642578125,-2.8250796794891357,-2.7317283153533936,0.8958311080932617
1790163369720608800,0.88860888671875,-1.9965100288391113,-3.080965518951416,1.6587491035461426
1790163369730608600,0.898608642578125,0.037024497985839844,-1.83697509765625,1.7757034301757812
1790163369740608800,0.90860888671875,1.7092914581298828,-0.6346077919006348,0.7970180511474609
1790163369750608600,0.918608642578125,2.539107322692871,-0.09825372695922852,-0.12998485565185547
1790163369760608800,0.92860888671875,2.413482666015625,-0.5015296339988708,-0.7107200622558594
1790163369770608600,0.938608642578125,2.0285117626190186,-1.2633470296859741,-1.237548828125
1790163369780608800,0.94860888671875,1.730299711227417,-1.4838265180587769,-1.7003555297851562
1790163369790608600,0.958608642578125,1.7813324928283691,-0.8941510915756226,-2.752861499786377
1790163369800608800,0.96860888671875,2.147512435913086,-0.3961804509162903,-4.698126792907715
1790163369810608600,0.978608642578125,2.350059986114502,-0.4730049967765808,-6.681875705718994
1790163369820608800,0.98860888671875,2.502016067504883,-0.6591007709503174,-7.454872131347656
1790163369830608600,0.998608642578125,2.5561838150024414,-1.0441499948501587,-6.70597505569458
1790163369840608800,1.00860888671875,2.7578272819519043,-1.5084657669067383,-5.299045562744141
1790163369850608600,1.018608642578125,2.415306806564331,-2.1525685787200928,-2.9679183959960938
1790163369860608800,1.02860888671875,1.8040978908538818,-2.039311647415161,-0.4338655471801758
1790163369870608600,1.038608642578125,1.2209503650665283,-0.9647650122642517,0.9622201919555664
1790163369880608800,1.04860888671875,0.975205659866333,-0.13815216720104218,0.6907186508178711
1790163369890608600,1.058608642578125,0.7334470748901367,0.14896152913570404,-0.029532432556152344
1790163369900608800,1.06860888671875,0.49956798553466797,-0.39814049005508423,-0.2781257629394531
1790163369910608600,1.078608642578125,-0.019844532012939453,-1.3388426303863525,-0.1952075958251953
1790163369920608800,1.08860888671875,-0.495389461517334,-1.7643542289733887,-0.5885791778564453
1790163369930608600,1.098608642578125,-0.9007706642150879,-1.4751107692718506,-0.5655946731567383
1790163369940608800,1.10860888671875,-1.520474910736084,-0.5227224826812744,0.04865455627441406
1790163369950608600,1.118608642578125,-2.2621402740478516,0.36741340160369873,0.9815735816955566
1790163369960608800,1.12860888671875,-2.8317689895629883,0.760513961315155,1.5167722702026367
1790163369970608600,1.138608642578125,-3.299318790435791,0.7038347125053406,1.6306438446044922
1790163369980608800,1.14860888671875,-3.5826001167297363,0.4809596538543701,1.8134851455688477
1790163369990608600,1.158608642578125,-3.5791993141174316,0.24992763996124268,1.9518675804138184
1790163370000608800,1.16860888671875,-3.2235045433044434,0.014243364334106445,1.5946650505065918
1790163370010608600,1.178608642578125,-2.5899696350097656,-0.3401319980621338,0.36632299423217773
1790163370020608800,1.18860888671875,-6.117976188659668,-0.1372840404510498,-5.695457935333252
1790163370030608600,1.198608642578125,-8.415454864501953,0.6727311611175537,-9.433585166931152
1790163370040608800,1.20860888671875,-4.026615142822266,1.0449014902114868,-4.568739891052246
1790163370050608600,1.218608642578125,-0.8019137382507324,0.7146834135055542,-0.2544822692871094
1790163370060608800,1.22860888671875,0.7840261459350586,0.3044074773788452,1.5658535957336426
1790163370070608600,1.238608642578125,1.840451717376709,-0.12399518489837646,2.073864459991455
1790163370080608800,1.24860888671875,2.2603859901428223,-0.5528120994567871,2.124238967895508
1790163370090608600,1.258608642578125,1.300478458404541,-0.522773265838623,1.8110733032226562
1790163370100608800,1.26860888671875,-0.37134599685668945,0.0021556615829467773,1.6241803169250488
1790163370110608600,1.278608642578125,-3.514784812927246,0.7518078088760376,2.3023128509521484
1790163370120608800,1.28860888671875,-2.6172380447387695,1.3013418912887573,3.494415283203125
1790163370130608600,1.298608642578125,-1.54099702835083,0.9310457706451416,4.7175726890563965
1790163370140608800,1.30860888671875,-2.1536149978637695,0.1676628589630127,5.371472358703613
1790163370150608600,1.318608642578125,-5.036589622497559,-0.6340463161468506,3.8100051879882812
1790163370160608800,1.32860888671875,-10.93343448638916,-1.0833768844604492,0.26126766204833984
1790163370170608600,1.338608642578125,-5.251155853271484,-1.286283016204834,-0.2043924331665039
1790163370180608800,1.34860888671875,-4.773847579956055,-0.8947131633758545,-3.4046154022216797
1790163370190608600,1.358608642578125,-5.734225273132324,-0.2257336974143982,-6.6665520668029785
1790163370200608800,1.36860888671875,-6.712369441986084,0.7460968494415283,-7.683030128479004
1790163370210608600,1.378608642578125,-7.696834087371826,1.5373365879058838,-6.72252893447876
1790163370220608800,1.38860888671875,-4.680269241333008,1.9187084436416626,-5.197389602661133
1790163370230608600,1.398608642578125,-3.7606964111328125,1.6242926120758057,-3.3588504791259766
1790163370240608800,1.40860888671875,-3.3633155822753906,-0.5962504148483276,-0.6911830902099609
1790163370250608600,1.418608642578125,0.531827449798584,-2.1927311420440674,0.6135430335998535
1790163370260608800,1.42860888671875,2.3603687286376953,-2.3430142402648926,0.745600700378418
1790163370270608600,1.438608642578125,2.3933944702148438,-1.4211560487747192,-0.5499138832092285
1790163370280608800,1.44860888671875,1.6778526306152344,-0.5542781352996826,-1.74196195602417
1790163370290608600,1.458608642578125,0.26967430114746094,-0.21876811981201172,-2.377617835998535
1790163370300608800,1.46860888671875,-1.0887861251831055,-0.30802059173583984,-2.4763827323913574
1790163370310608600,1.478608642578125,-0.9773082733154297,-0.07480049133300781,-2.151456832885742
1790163370320608800,1.48860888671875,-0.2420654296875,0.4914785623550415,-1.7923325300216675
1790163370330608600,1.498608642578125,0.6222763061523438,0.9417121410369873,-1.3933988809585571
1790163370340608800,1.50860888671875,1.114180564880371,0.9649982452392578,-1.3055449724197388
1790163370350608600,1.518608642578125,0.6853914260864258,0.6437969207763672,-1.663496494293213
1790163370360608800,1.52860888671875,0.26731109619140625,0.23164963722229004,-2.3080825805664062
1790163370370608600,1.538608642578125,0.5193080902099609,-0.19052863121032715,-2.430802583694458
1790163370380608800,1.54860888671875,0.24064159393310547,-0.12248635292053223,-1.8714009523391724
1790163370390608600,1.558608642578125,-0.5852575302124023,0.31781435012817383,-0.8510841727256775
1790163370400608800,1.56860888671875,-0.6856460571289062,-0.9737763404846191,1.6830978393554688
1790163370410608600,1.578608642578125,-0.6614494323730469,-1.214094638824463,1.6130762100219727
1790163370420608800,1.58860888671875,-0.04016304016113281,-0.8514206409454346,0.5827680826187134
1790163370430608600,1.598608642578125,1.199258804321289,-0.05466508865356445,-0.6603769659996033
1790163370440608800,1.60860888671875,2.1272964477539062,0.5081584453582764,-1.1288690567016602
1790163370450608600,1.618608642578125,2.169867515563965,0.6829125881195068,-0.7735771536827087
1790163370460608800,1.62860888671875,1.7409839630126953,0.48811304569244385,-0.3870910406112671
1790163370470608600,1.638608642578125,0.4997577667236328,0.19233083724975586,0.07052993774414062
1790163370480608800,1.64860888671875,-0.594517707824707,-0.14413034915924072,0.5269622802734375
1790163370490608600,1.658608642578125,-0.7727413177490234,-0.5252547264099121,0.7453608512878418
1790163370500608800,1.66860888671875,-0.4086112976074219,-0.7432620525360107,0.26779496669769287
1790163370510608600,1.678608642578125,0.05915260314941406,-0.7737056016921997,-0.344754695892334
1790163370520608800,1.68860888671875,0.30816650390625,-0.8150378465652466,-0.842033863067627
1790163370530608600,1.698608642578125,0.4346160888671875,-0.6587311029434204,-0.614482045173645
1790163370540608800,1.70860888671875,0.05231761932373047,-1.5439956188201904,0.9194732904434204
1790163370550608600,1.718608642578125,-0.23493385314941406,-1.848322868347168,1.661293387413025
1790163370560608800,1.72860888671875,-0.02757740020751953,-0.9847419261932373,0.7014862298965454
1790163370570608600,1.738608642578125,0.4349355697631836,-0.4164242744445801,-0.26816654205322266
1790163370580608800,1.74860888671875,0.6813287734985352,-0.19318604469299316,-1.1381586790084839
1790163370590608600,1.758608642578125,0.5440044403076172,-0.30749428272247314,-1.6949079036712646
1790163370600608800,1.76860888671875,-0.4338569641113281,-0.3315654397010803,-2.0588009357452393
1790163370610608600,1.778608642578125,-2.0428524017333984,0.21309113502502441,-2.581711769104004
1790163370620608800,1.78860888671875,-1.878270149230957,0.048947110772132874,-1.3044867515563965
1790163370630608600,1.798608642578125,-2.613697052001953,-0.5428439378738403,1.3762407302856445
1790163370640608800,1.80860888671875,-3.353116035461426,-0.2487928867340088,2.6627001762390137
1790163370650608600,1.818608642578125,-2.864645004272461,0.3292355239391327,3.0747361183166504
1790163370660608800,1.82860888671875,-1.3756799697875977,1.543802261352539,0.755139946937561
1790163370670608600,1.838608642578125,-1.5662641525268555,1.991912603378296,-0.5745241641998291
1790163370680608800,1.84860888671875,-1.0953044891357422,1.0756547451019287,-0.35964322090148926
1790163370690608600,1.858608642578125,1.0397815704345703,0.5435361862182617,-0.2563692331314087
1790163370700608800,1.86860888671875,2.3176727294921875,0.6213366389274597,-0.0067511796951293945
1790163370710608600,1.878608642578125,2.0978965759277344,0.7937971949577332,0.3958793878555298
1790163370720608800,1.88860888671875,1.4777107238769531,0.5415085554122925,0.4998704195022583
1790163370730608600,1.898608642578125,1.4261837005615234,0.13554811477661133,0.508326530456543
1790163370740608800,1.90860888671875,1.5677375793457031,0.163774311542511,0.104644775390625
1790163370750608600,1.918608642578125,1.6251020431518555,0.1605074405670166,-0.12819409370422363
1790163370760608800,1.92860888671875,1.2385644912719727,0.27942848205566406,-0.3738580346107483
1790163370770608600,1.938608642578125,-0.10003948211669922,-0.10877680778503418,-0.6318721175193787
1790163370780608800,1.94860888671875,-1.203841209411621,-0.6678948402404785,-0.5866777896881104
1790163370790608600,1.958608642578125,-1.7303557395935059,-0.6234321594238281,-0.7391798496246338
1790163370800608800,1.96860888671875,-1.6361684799194336,-0.49418556690216064,-0.4060235023498535
1790163370810608600,1.978608642578125,-1.2367982864379883,-0.5094660520553589,0.0429990291595459
1790163370820608800,1.98860888671875,-0.4948539733886719,-0.6937949657440186,0.16941633820533752
1790163370830608600,1.998608642578125,0.6353158950805664,-0.48855912685394287,0.22293023765087128
1790163370840608800,2.00860888671875,1.9701013565063477,0.3709801435470581,0.1248941645026207
1790163370850608600,2.018608642578125,2.9811668395996094,0.7226921319961548,0.5698850154876709
1790163370860608800,2.02860888671875,2.7134342193603516,0.35333287715911865,0.6558719873428345
1790163370870608600,2.038608642578125,1.6726665496826172,-0.3097957372665405,0.4333650469779968
1790163370880608800,2.04860888671875,0.9489545822143555,-0.678930401802063,-0.09668343514204025
1790163370890608600,2.058608642578125,0.5336141586303711,-0.913649320602417,-0.45088207721710205
1790163370900608800,2.06860888671875,0.4958229064941406,-0.6106421947479248,-0.9846422672271729
1790163370910608600,2.078608642578125,0.23941707611083984,-0.33698928356170654,-1.0034593343734741
1790163370920608800,2.08860888671875,-0.2030506134033203,-0.141981840133667,-0.7311919927597046
1790163370930608600,2.098608642578125,-0.5522222518920898,-0.05437445640563965,-0.38468992710113525
1790163370940608800,2.10860888671875,-0.7481708526611328,-0.05604660511016846,-0.061098866164684296
1790163370950608600,2.118608642578125,-0.9184455871582031,-0.005818963050842285,0.23440039157867432
1790163370960608800,2.12860888671875,-0.8159608840942383,0.09884202480316162,0.38024866580963135
1790163370970608600,2.138608642578125,-0.39968299865722656,0.16682791709899902,0.43149253726005554
1790163370980608800,2.14860888671875,-0.18088436126708984,0.1572113037109375,0.2999289333820343
1790163370990608600,2.158608642578125,0.10425853729248047,0.05150461196899414,0.06692980974912643
1790163371000608800,2.16860888671875,0.41837310791015625,-0.15153741836547852,-0.1070493534207344
1790163371010608600,2.178608642578125,0.4898366928100586,-0.2585970163345337,-0.224398672580719
1790163371020608800,2.18860888671875,0.5163650512695312,-0.2140665054321289,-0.2222238928079605
1790163371030608600,2.198608642578125,0.6306638717651367,-0.09317588806152344,-0.1384200155735016
1790163371040608800,2.20860888671875,0.19415283203125,0.007168769836425781,-0.05664372444152832
1790163371050608600,2.218608642578125,-0.8049535751342773,0.1705777645111084,-0.17539703845977783
1790163371060608800,2.22860888671875,-1.4803237915039062,0.44918203353881836,-1.1334621906280518
1790163371070608600,2.238608642578125,-1.1023359298706055,0.497165322303772,-1.741117000579834
1790163371080608800,2.24860888671875,-0.13472366333007812,0.48044490814208984,-1.3266711235046387
1790163371090608600,2.258608642578125,0.8483915328979492,0.10811853408813477,-0.6623412370681763
1790163371100608800,2.26860888671875,2.0051450729370117,-0.44219088554382324,0.1595163345336914
1790163371110608600,2.278608642578125,1.4636096954345703,0.33317339420318604,1.191131591796875
1790163371120608800,2.28860888671875,1.6853408813476562,0.15343570709228516,2.2834696769714355
1790163371130608600,2.298608642578125,0.5925502777099609,-0.6687477827072144,3.41105580329895
1790163371140608800,2.30860888671875,0.022695541381835938,-0.1457277536392212,3.915670394897461
1790163371150608600,2.318608642578125,1.1558141708374023,0.43163228034973145,3.7502050399780273
1790163371160608800,2.32860888671875,2.6360816955566406,0.4199257493019104,2.137012004852295
1790163371170608600,2.338608642578125,3.579806327819824,0.20704075694084167,-0.6831068992614746
1790163371180608800,2.34860888671875,3.909738063812256,-0.43107426166534424,-2.9867141246795654
1790163371190608600,2.358608642578125,3.532893180847168,-0.36721527576446533,-4.379297256469727
1790163371200608800,2.36860888671875,2.7135462760925293,0.5353499054908752,-4.493649005889893
1790163371210608600,2.378608642578125,1.56156587600708,1.55433988571167,-4.7735981941223145
1790163371220608800,2.38860888671875,-0.13362598419189453,1.2485624551773071,-5.266849517822266
1790163371230608600,2.398608642578125,-2.2597029209136963,-0.27585768699645996,-4.743454933166504
1790163371240608800,2.40860888671875,-3.5627048015594482,-1.5930399894714355,-3.2621359825134277
1790163371250608600,2.418608642578125,-4.184408664703369,-2.6005661487579346,-0.924626350402832
1790163371260608800,2.42860888671875,-3.9263362884521484,-2.864718198776245,0.6334009170532227
1790163371270608600,2.438608642578125,-2.035521984100342,-2.5925488471984863,0.29201412200927734
1790163371280608800,2.44860888671875,0.7109667062759399,-1.9391287565231323,-1.8280038833618164
1790163371290608600,2.458608642578125,2.939026117324829,-1.2645323276519775,-3.635150909423828
1790163371300608800,2.46860888671875,3.9903061389923096,-1.0548391342163086,-3.4140520095825195
1790163371310608600,2.478608642578125,3.7286417484283447,-1.3698441982269287,-2.157651901245117
1790163371320608800,2.48860888671875,2.91060209274292,-1.4965271949768066,-0.46045494079589844
1790163371330608600,2.498608642578125,2.274165391921997,-0.9998377561569214,0.80419921875
1790163371340608800,2.50860888671875,2.606959342956543,-0.3257826566696167,1.9084291458129883
1790163371350608600,2.518608642578125,3.8159022331237793,0.5803735256195068,0.9619584083557129
1790163371360608800,2.52860888671875,4.906839370727539,0.9324564933776855,-0.34389829635620117
1790163371370608600,2.538608642578125,6.308931350708008,0.5943880081176758,-3.1302061080932617
1790163371380608800,2.54860888671875,5.946473598480225,0.11603754758834839,-3.250377655029297
1790163371390608600,2.558608642578125,4.695804595947266,-0.43400728702545166,-1.5867605209350586
1790163371400608800,2.56860888671875,4.295134544372559,-0.8086246252059937,-0.5303683280944824
1790163371410608600,2.578608642578125,4.347357749938965,-0.7567615509033203,-0.9415450096130371
1790163371420608800,2.58860888671875,-9.129731178283691,0.09800946712493896,-1.514723300933838
1790163371430608600,2.598608642578125,-17.917587280273438,1.679278016090393,-3.929431676864624
1790163371440608800,2.60860888671875,-14.875958442687988,2.027904987335205,-6.383496284484863
1790163371450608600,2.618608642578125,-7.823996543884277,1.4507958889007568,-4.248077392578125
1790163371460608800,2.62860888671875,-1.7995271682739258,0.6022541522979736,-0.3201615810394287
1790163371470608600,2.638608642578125,1.6473779678344727,-0.4323216676712036,2.437934160232544
1790163371480608800,2.64860888671875,3.0207409858703613,-1.1267894506454468,4.705981731414795
1790163371490608600,2.658608642578125,1.7437858581542969,-1.5981478691101074,5.798633575439453
1790163371500608800,2.66860888671875,0.17147254943847656,-1.3061026334762573,5.11857271194458
1790163371510608600,2.678608642578125,-1.2403059005737305,-0.4655848741531372,2.6584155559539795
1790163371520608800,2.68860888671875,-1.800389289855957,0.28144145011901855,-0.10115718841552734
1790163371530608600,2.698608642578125,-1.4757966995239258,0.32963645458221436,-1.7258446216583252
1790163371540608800,2.70860888671875,-0.6779356002807617,-0.25122344493865967,-2.2595279216766357
1790163371550608600,2.718608642578125,0.0305328369140625,-0.8486684560775757,-1.9095721244812012
1790163371560608800,2.72860888671875,0.5077505111694336,-1.1472574472427368,-1.2082667350769043
1790163371570608600,2.738608642578125,0.6286373138427734,-1.1143085956573486,-0.5938284397125244
1790163371580608800,2.74860888671875,0.5705242156982422,-0.8279197216033936,-0.26398423314094543
1790163371590608600,2.758608642578125,0.5443439483642578,-0.39988505840301514,-0.05496782064437866
1790163371600608800,2.76860888671875,0.5151138305664062,0.02270328998565674,0.08753469586372375
1790163371610608600,2.778608642578125,0.4061155319213867,0.5271612405776978,0.021947026252746582
1790163371620608800,2.78860888671875,0.2222881317138672,1.033362865447998,-0.14941205084323883
1790163371630608600,2.798608642578125,0.058121681213378906,1.3287038803100586,-0.4511183798313141
1790163371640608800,2.80860888671875,0.16296958923339844,1.3011658191680908,-0.8195458650588989
1790163371650608600,2.818608642578125,0.3486824035644531,0.8745670318603516,-1.1157644987106323
1790163371660608800,2.82860888671875,0.44405555725097656,0.20147907733917236,-0.9278027415275574
1790163371670608600,2.838608642578125,0.4247312545776367,-0.279854416847229,-0.13708174228668213
1790163371680608800,2.84860888671875,0.5093660354614258,-0.4427766799926758,0.6253124475479126
1790163371690608600,2.858608642578125,0.31378650665283203,-0.48405921459198,0.6408737897872925
1790163371700608800,2.86860888671875,-0.1781024932861328,-0.37309730052948,-0.36362403631210327
1790163371710608600,2.878608642578125,-0.5311813354492188,-0.1243826150894165,-1.0277711153030396
1790163371720608800,2.88860888671875,-0.6316347122192383,0.07720029354095459,-1.1948283910751343
1790163371730608600,2.898608642578125,-0.6920175552368164,0.15221667289733887,-0.9548285007476807
1790163371740608800,2.90860888671875,-0.6939735412597656,0.17190122604370117,-0.5567753314971924
1790163371750608600,2.918608642578125,-0.7328739166259766,0.12011218070983887,-0.09613439440727234
1790163371760608800,2.92860888671875,-0.835911750793457,0.031799912452697754,0.19755715131759644
1790163371770608600,2.938608642578125,-0.8368244171142578,-0.08472037315368652,0.17373260855674744
1790163371780608800,2.94860888671875,-0.6738729476928711,-0.2428276538848877,-0.06129414588212967
1790163371790608600,2.958608642578125,-0.4359092712402344,-0.39808928966522217,-0.37916135787963867
1790163371800608800,2.96860888671875,-0.2275543212890625,-0.4543994665145874,-0.616979718208313
1790163371810608600,2.978608642578125,-0.029135704040527344,-0.41148602962493896,-0.6921221613883972
1790163371820608800,2.98860888671875,0.2572298049926758,-0.3155773878097534,-0.7144166827201843
1790163371830608600,2.998608642578125,0.4394416809082031,-0.25571703910827637,-0.6890865564346313
1790163371840608800,3.00860888671875,0.5687503814697266,-0.22205448150634766,-0.6012982130050659
1790163371850608600,3.018608642578125,0.46737194061279297,-0.0891256332397461,-0.39562466740608215
1790163371860608800,3.02860888671875,0.1863574981689453,0.015422224998474121,-0.17397403717041016
1790163371870608600,3.038608642578125,-0.02566051483154297,0.09318161010742188,-0.011334799230098724
1790163371880608800,3.04860888671875,-0.2700166702270508,0.08545410633087158,-0.03046853467822075
1790163371890608600,3.058608642578125,-0.5055131912231445,0.02364981174468994,-0.11141924560070038
1790163371900608800,3.06860888671875,-0.5815534591674805,0.028002142906188965,-0.07164907455444336
1790163371910608600,3.078608642578125,-0.5490055084228516,0.09619390964508057,-0.00532308965921402
1790163371920608800,3.08860888671875,-0.39046382904052734,0.06079447269439697,0.05694263428449631
1790163371930608600,3.098608642578125,-0.14014530181884766,-0.06561517715454102,0.10690153390169144
1790163371940608800,3.10860888671875,0.06094932556152344,-0.15937435626983643,-0.004139848053455353
1790163371950608600,3.118608642578125,0.2554006576538086,-0.18381595611572266,-0.22463259100914001
1790163371960608800,3.12860888671875,0.3636207580566406,-0.18757057189941406,-0.47092878818511963
1790163371970608600,3.138608642578125,0.3836669921875,-0.1636648178100586,-0.6128623485565186
1790163371980608800,3.14860888671875,0.23854351043701172,-0.12208223342895508,-0.5159289836883545
1790163371990608600,3.158608642578125,0.14138221740722656,-0.10061371326446533,-0.2287084013223648
1790163372000608800,3.16860888671875,-0.0079803466796875,-0.06878137588500977,0.07250908762216568
1790163372010608600,3.178608642578125,-0.09774017333984375,-0.047856688499450684,0.19641487300395966
1790163372020608800,3.18860888671875,-0.09778690338134766,-0.024516820907592773,0.12310835719108582
1790163372030608600,3.198608642578125,-0.10966777801513672,-0.000873565673828125,0.05344405025243759
1790163372040608800,3.20860888671875,-0.14905166625976562,0.025092601776123047,0.026068754494190216
1790163372050608600,3.218608642578125,-0.15462875366210938,0.006635189056396484,-0.017932765185832977
1790163372060608800,3.22860888671875,-0.2517280578613281,-0.06818211078643799,-0.04568703472614288
1790163372070608600,3.238608642578125,-0.35431766510009766,-0.09552597999572754,-0.07506578415632248
1790163372080608800,3.24860888671875,-0.36571311950683594,-0.08410513401031494,-0.07188059389591217
1790163372090608600,3.258608642578125,-0.18828296661376953,-0.10847532749176025,0.05379095673561096
1790163372100608800,3.26860888671875,0.10172653198242188,-0.009527921676635742,0.4285283386707306
1790163372110608600,3.278608642578125,0.15485191345214844,0.2625761032104492,0.6457183361053467
1790163372120608800,3.28860888671875,-0.233795166015625,0.5148401260375977,0.16623222827911377
1790163372130608600,3.298608642578125,-1.317246437072754,0.39926087856292725,-0.6543956995010376
1790163372140608800,3.30860888671875,-3.0137176513671875,-0.21630024909973145,-0.8033626079559326
1790163372150608600,3.318608642578125,-4.486455917358398,-1.2308323383331299,-0.2724200487136841
1790163372160608800,3.32860888671875,-4.217185020446777,-2.1840946674346924,0.5567519664764404
1790163372170608600,3.338608642578125,-3.5908031463623047,-2.9455223083496094,0.5371716022491455
1790163372180608800,3.34860888671875,-4.229306221008301,-2.9205784797668457,-1.2424261569976807
1790163372190608600,3.358608642578125,-6.574786186218262,-2.6299753189086914,-3.8892712593078613
1790163372200608800,3.36860888671875,-5.721874237060547,-2.504225015640259,-3.8713269233703613
1790163372210608600,3.378608642578125,-0.4787125587463379,-1.292121410369873,-0.555638313293457
1790163372220608800,3.38860888671875,-2.6307272911071777,0.5291866064071655,-1.1101775169372559
1790163372230608600,3.398608642578125,-3.8612313270568848,0.14066731929779053,-0.7827606201171875
1790163372240608800,3.40860888671875,-1.2955923080444336,0.5781545639038086,-2.7493200302124023
1790163372250608600,3.418608642578125,1.2483711242675781,1.8064860105514526,-5.414368629455566
1790163372260608800,3.42860888671875,1.1364519596099854,3.6099660396575928,-7.166317939758301
1790163372270608600,3.438608642578125,0.4350142478942871,5.845940589904785,-8.459953308105469
1790163372280608800,3.44860888671875,-2.2269434928894043,5.535689830780029,-7.412652492523193
1790163372290608600,3.458608642578125,-5.217900276184082,2.937666416168213,-6.5703654289245605
1790163372300608800,3.46860888671875,-5.90678596496582,1.1734764575958252,-6.0728960037231445
1790163372310608600,3.478608642578125,-4.907607078552246,-0.34641021490097046,-5.396544456481934
1790163372320608800,3.48860888671875,-4.3958048820495605,-2.201754570007324,-2.0302352905273438
1790163372330608600,3.498608642578125,-4.177395820617676,-3.3424439430236816,1.3512649536132812
1790163372340608800,3.50860888671875,-2.6737496852874756,-3.0480239391326904,0.3589944839477539
1790163372350608600,3.518608642578125,0.9804410934448242,-1.4451744556427002,-3.066408157348633
1790163372360608800,3.52860888671875,5.581301212310791,-0.40939921140670776,-4.875331401824951
1790163372370608600,3.538608642578125,7.657599925994873,-0.9592667818069458,-3.7368922233581543
1790163372380608800,3.54860888671875,7.914720058441162,-2.370121479034424,-2.1180996894836426
1790163372390608600,3.558608642578125,6.586549282073975,-2.2482404708862305,-0.5941262245178223
1790163372400608800,3.56860888671875,4.167543888092041,-0.5938578844070435,-0.025049209594726562
1790163372410608600,3.578608642578125,1.8889775276184082,0.28762781620025635,0.006167888641357422
1790163372420608800,3.58860888671875,0.7294206619262695,-0.16367888450622559,-0.1401529312133789
1790163372430608600,3.598608642578125,1.0480713844299316,-1.3077445030212402,0.37016963958740234
1790163372440608800,3.60860888671875,2.154623031616211,-1.3874238729476929,-0.12511825561523438
1790163372450608600,3.618608642578125,1.0859375,-0.712274432182312,-2.626957416534424
1790163372460608800,3.62860888671875,0.8603382110595703,-0.08341348171234131,-4.278357028961182
1790163372470608600,3.638608642578125,0.7666192054748535,-0.5039092302322388,-3.7477974891662598
1790163372480608800,3.64860888671875,0.4193081855773926,-1.7112343311309814,-2.0463509559631348
1790163372490608600,3.658608642578125,0.08397340774536133,-2.744408369064331,-0.9523310661315918
1790163372500608800,3.66860888671875,0.29550743103027344,-3.500063180923462,-0.2892465591430664
1790163372510608600,3.678608642578125,0.9574146270751953,-3.7801432609558105,1.894932746887207
1790163372520608800,3.68860888671875,0.720942497253418,-3.669778347015381,5.950505256652832
1790163372530608600,3.698608642578125,0.881683349609375,-0.07643318176269531,5.111362457275391
1790163372540608800,3.70860888671875,1.152573585510254,3.5167431831359863,0.04458189010620117
1790163372550608600,3.718608642578125,-0.1520252227783203,4.510010719299316,-3.2279200553894043
1790163372560608800,3.72860888671875,-2.2701311111450195,3.157221794128418,-4.514401912689209
1790163372570608600,3.738608642578125,-1.9688653945922852,1.5209057331085205,-4.166292667388916
1790163372580608800,3.74860888671875,-0.9390153884887695,0.40242451429367065,-2.0818498134613037
1790163372590608600,3.758608642578125,-0.265228271484375,1.605102777481079,-1.3871386051177979
1790163372600608800,3.76860888671875,-0.8971052169799805,2.4242992401123047,-0.7111291885375977
1790163372610608600,3.778608642578125,-1.2812471389770508,1.4671485424041748,0.24727773666381836
1790163372620608800,3.78860888671875,-0.06911563873291016,1.8115272521972656,-0.29265594482421875
1790163372630608600,3.798608642578125,1.4769525527954102,2.7493815422058105,-1.3605902194976807
1790163372640608800,3.80860888671875,2.441531181335449,2.199082136154175,-1.7040886878967285
1790163372650608600,3.818608642578125,2.881559371948242,1.7363812923431396,-2.5868775844573975
1790163372660608800,3.82860888671875,2.2571516036987305,0.4062894582748413,-2.1405906677246094
1790163372670608600,3.838608642578125,1.7938604354858398,-1.1400507688522339,-1.2284390926361084
1790163372680608800,3.84860888671875,1.3833551406860352,-2.543186664581299,0.1459522247314453
1790163372690608600,3.858608642578125,0.902165412902832,-2.6565208435058594,1.0996077060699463
1790163372700608800,3.86860888671875,0.3654289245605469,-1.981152892112732,1.7034785747528076
1790163372710608600,3.878608642578125,-0.18681812286376953,-1.3703047037124634,1.9994664192199707
1790163372720608800,3.88860888671875,-0.4630727767944336,-1.111717700958252,2.3857414722442627
1790163372730608600,3.898608642578125,-0.9533157348632812,-0.8653589487075806,2.5038554668426514
1790163372740608800,3.90860888671875,-0.7378635406494141,-0.8575122952461243,1.2994234561920166
1790163372750608600,3.918608642578125,-0.2552309036254883,-1.0134177207946777,0.3223719596862793
1790163372760608800,3.92860888671875,-0.25995635986328125,-1.1993857622146606,-1.0865650177001953
1790163372770608600,3.938608642578125,0.19584941864013672,-1.146359920501709,-2.102757215499878
1790163372780608800,3.94860888671875,2.056839942932129,-0.9346659183502197,-2.4474148750305176
1790163372790608600,3.958608642578125,2.390011787414551,-0.1040739119052887,-1.7820329666137695
1790163372800608800,3.96860888671875,1.5142202377319336,0.9247443675994873,-0.5437788963317871
1790163372810608600,3.978608642578125,-0.1456594467163086,1.2772618532180786,-1.4530162811279297
1790163372820608800,3.98860888671875,-0.5726780891418457,0.0012431927025318146,0.6999077796936035
1790163372830608600,3.998608642578125,-0.4438486099243164,-1.5557972192764282,3.7446441650390625
1790163372840608800,4.00860888671875,0.5754632949829102,-1.503016471862793,4.231883525848389
1790163372850608600,4.018608642578125,0.6308088302612305,0.23091572523117065,1.072403907775879
1790163372860608800,4.02860888671875,-1.3582372665405273,1.0817632675170898,0.27724599838256836
1790163372870608600,4.038608642578125,-2.0363121032714844,0.8183521032333374,1.2466506958007812
1790163372880608800,4.04860888671875,-1.4020295143127441,0.14340519905090332,1.9693107604980469
1790163372890608600,4.058608642578125,-0.5992631912231445,0.10272461175918579,2.5157086849212646
1790163372900608800,4.06860888671875,-0.17610645294189453,0.6475768685340881,2.1066784858703613
1790163372910608600,4.078608642578125,-0.19176578521728516,0.939227283000946,1.3694071769714355
1790163372920608800,4.08860888671875,-0.8756685256958008,0.7868807315826416,0.7958583831787109
1790163372930608600,4.098608642578125,-1.4081687927246094,0.4923943281173706,-0.08594441413879395
1790163372940608800,4.10860888671875,-1.7624282836914062,0.5822513103485107,-0.9492127895355225
1790163372950608600,4.118608642578125,-1.0001802444458008,0.6886255741119385,-1.4789996147155762
1790163372960608800,4.12860888671875,0.11525249481201172,0.7920587658882141,-1.2048025131225586
1790163372970608600,4.138608642578125,1.1490612030029297,0.734101414680481,-0.8599915504455566
1790163372980608800,4.14860888671875,1.7136192321777344,0.183333158493042,-0.467693567276001
1790163372990608600,4.158608642578125,1.5650253295898438,-0.002891242504119873,0.23109078407287598
1790163373000608800,4.16860888671875,0.72705078125,0.013178706169128418,0.38791322708129883
1790163373010608600,4.178608642578125,-0.08371257781982422,0.009550929069519043,0.03852987289428711
1790163373020608800,4.18860888671875,-0.5633773803710938,-0.09993189573287964,0.036286354064941406
1790163373030608600,4.198608642578125,-0.513641357421875,-0.3263137936592102,0.16759300231933594
1790163373040608800,4.20860888671875,-0.2293071746826172,-0.49749642610549927,0.051607608795166016
1790163373050608600,4.218608642578125,-0.05780506134033203,-0.6381396055221558,-0.3882431983947754
1790163373060608800,4.22860888671875,0.29156494140625,-0.7807492017745972,-0.9449433088302612
1790163373070608600,4.238608642578125,1.1283283233642578,-0.7462447881698608,-1.345059871673584
1790163373080608800,4.24860888671875,1.177046775817871,-0.5779746770858765,-0.9086563587188721
1790163373090608600,4.258608642578125,0.1442432403564453,-0.2777066230773926,-0.07426571846008301
1790163373100608800,4.26860888671875,-1.129277229309082,-0.04508441686630249,0.5584573745727539
1790163373110608600,4.278608642578125,-1.77449369430542,-0.062074363231658936,1.28715181350708
1790163373120608800,4.28860888671875,-2.1756601333618164,0.04278755187988281,1.440568208694458
1790163373130608600,4.298608642578125,-2.893800735473633,0.19601142406463623,1.371901035308838
1790163373140608800,4.30860888671875,-3.351863384246826,0.13575655221939087,1.5557717084884644
1790163373150608600,4.318608642578125,-1.7702741622924805,-0.17791271209716797,1.3275154829025269
1790163373160608800,4.32860888671875,0.7112817764282227,-0.49783241748809814,0.08123552799224854
1790163373170608600,4.338608642578125,0.22026443481445312,-0.04954206943511963,-1.7669435739517212
1790163373180608800,4.34860888671875,0.27188968658447266,0.09653735160827637,-1.3473396301269531
1790163373190608600,4.358608642578125,1.5601558685302734,-0.2598891258239746,-1.0139331817626953
1790163373200608800,4.36860888671875,0.786433219909668,-0.5682348012924194,0.6657026410102844
1790163373210608600,4.378608642578125,0.2663698196411133,-0.6307762861251831,1.083886742591858
1790163373220608800,4.38860888671875,0.6664953231811523,-0.8558447360992432,-0.16464751958847046
1790163373230608600,4.398608642578125,0.1224365234375,-0.47944730520248413,-0.40988126397132874
1790163373240608800,4.40860888671875,-0.033585548400878906,0.2579854130744934,-0.055969834327697754
1790163373250608600,4.418608642578125,0.4915952682495117,1.0685434341430664,-0.4646531045436859
1790163373260608800,4.42860888671875,0.8989753723144531,1.2477850914001465,-0.8752331137657166
1790163373270608600,4.438608642578125,0.9937372207641602,0.7090283036231995,-0.8055672645568848
1790163373280608800,4.44860888671875,0.816411018371582,-0.24409890174865723,-0.3815286159515381
1790163373290608600,4.458608642578125,0.5332393646240234,-0.9663863778114319,0.26226240396499634
1790163373500608800,4.66860888671875,0.4164724349975586,0.1279088854789734,-0.008614599704742432
1790163373510608600,4.678608642578125,0.006545066833496094,0.13602638244628906,0.10980278253555298
1790163373520608800,4.68860888671875,-0.5158834457397461,0.0034067630767822266,0.030063211917877197
1790163373530608600,4.698608642578125,-0.34799861907958984,-0.06696796417236328,0.13892531394958496
1790163373540608800,4.70860888671875,0.37436389923095703,0.19344758987426758,0.026117026805877686
1790163373550608600,4.718608642578125,0.7871026992797852,0.24814867973327637,0.3340091109275818
1790163373560608800,4.72860888671875,0.822667121887207,0.06967556476593018,0.36067038774490356
1790163373570608600,4.738608642578125,0.7078733444213867,0.07743626832962036,0.11542004346847534
1790163373580608800,4.74860888671875,0.4062528610229492,0.07076901197433472,-0.17799174785614014
1790163373590608600,4.758608642578125,-0.02025604248046875,0.10472822189331055,-0.11554402112960815
1790163373600608800,4.76860888671875,-0.24482440948486328,0.22597545385360718,-0.09421247243881226
1790163373610608600,4.778608642578125,-0.15856266021728516,0.23794180154800415,-0.18494021892547607
1790163373620608800,4.78860888671875,0.014802932739257812,0.07111036777496338,-0.12709736824035645
1790163373630608600,4.798608642578125,0.0890951156616211,0.031661033630371094,-0.040711045265197754
1790163373640608800,4.80860888671875,0.03840351104736328,0.04228198528289795,0.048689842224121094
1790163373650608600,4.818608642578125,0.030310630798339844,0.020145416259765625,0.17627853155136108
1790163373660608800,4.82860888671875,0.050271034240722656,0.006076991558074951,0.15413546562194824
1790163373670608600,4.838608642578125,-0.030515670776367188,-0.05477529764175415,0.041461169719696045
1790163373680608800,4.84860888671875,-0.056685447692871094,-0.12575751543045044,-0.044480085372924805
1790163373690608600,4.858608642578125,-0.01954174041748047,-0.13697099685668945,-0.09685307741165161
1790163373700608800,4.86860888671875,0.06106758117675781,-0.052714407444000244,-0.19318369030952454
1790163373710608600,4.878608642578125,0.16474056243896484,0.08121472597122192,-0.2997477054595947
1790163373720608800,4.88860888671875,0.1575603485107422,0.17057758569717407,-0.24371498823165894
1790163373730608600,4.898608642578125,0.03429889678955078,0.1822495460510254,-0.12701532244682312
1790163373740608800,4.90860888671875,0.050006866455078125,0.12913453578948975,-0.016720592975616455
1790163373750608600,4.918608642578125,0.13336658477783203,0.050894975662231445,-0.03955727815628052
1790163373760608800,4.92860888671875,0.22926902770996094,-0.05368751287460327,-0.08561098575592041
1790163373770608600,4.938608642578125,0.3902740478515625,-0.07426273822784424,-0.1180073618888855
1790163373780608800,4.94860888671875,0.3828105926513672,-0.08305519819259644,-0.07163757085800171
1790163373790608600,4.958608642578125,0.2348031997680664,-0.04022723436355591,-0.0214349627494812
1790163373800608800,4.96860888671875,0.0027418136596679688,0.07443177700042725,-0.04129058122634888
1790163373810608600,4.978608642578125,-0.20801925659179688,0.14667683839797974,-0.011493444442749023
1790163373820608800,4.98860888671875,-0.33217716217041016,0.13135331869125366,0.08984297513961792
1790163373830608600,4.998608642578125,-0.3514070510864258,0.09628796577453613,0.0755036473274231
1790163373840608800,5.00860888671875,-0.3243446350097656,0.07778728008270264,-0.03479808568954468
1790163373850608600,5.018608642578125,-0.23962974548339844,0.06660014390945435,-0.11342382431030273
1790163373860608800,5.02860888671875,-0.07207775115966797,0.06724727153778076,-0.20165526866912842
1790163373870608600,5.038608642578125,0.1261749267578125,0.09201759099960327,-0.3529820442199707
1790163373880608800,5.04860888671875,0.37441062927246094,0.096646249294281,-0.46242818236351013
1790163373890608600,5.058608642578125,0.5026969909667969,0.04027056694030762,-0.4651026725769043
1790163373900608800,5.06860888671875,0.4725608825683594,-0.0299873948097229,-0.4012475609779358
1790163373910608600,5.078608642578125,0.38832569122314453,-0.06938505172729492,-0.22826626896858215
1790163373920608800,5.08860888671875,0.26339244842529297,-0.09838074445724487,-0.08183160424232483
1790163373930608600,5.098608642578125,0.2405853271484375,-0.07058960199356079,-0.0023865103721618652
1790163373940608800,5.10860888671875,0.1980600357055664,-0.08958941698074341,-0.10980018973350525
1790163373950608600,5.118608642578125,0.24565410614013672,-0.7443536520004272,-0.054977744817733765
1790163373960608800,5.12860888671875,-0.09154129028320312,-0.5231932997703552,0.11994317173957825
1790163373970608600,5.138608642578125,-0.3022899627685547,-0.23623520135879517,0.24705275893211365
1790163373980608800,5.14860888671875,-0.11175155639648438,0.08672827482223511,0.45974645018577576
1790163373990608600,5.158608642578125,-0.07362937927246094,0.11858206987380981,0.4195936620235443
1790163374000608800,5.16860888671875,0.30841064453125,-0.013757765293121338,-0.03670775890350342
1790163374010608600,5.178608642578125,0.5817813873291016,-0.06581288576126099,-0.3508549630641937
1790163374020608800,5.18860888671875,0.7045011520385742,-0.007208526134490967,-0.369434654712677
1790163374030608600,5.198608642578125,0.4333324432373047,0.04884791374206543,-0.24278229475021362
1790163374040608800,5.20860888671875,0.08265304565429688,0.03647202253341675,-0.19619867205619812
1790163374050608600,5.218608642578125,-0.1806354522705078,0.001343846321105957,-0.07913899421691895
1790163374060608800,5.22860888671875,-0.5259504318237305,-0.03299897909164429,0.10962706804275513
1790163374070608600,5.238608642578125,-0.6734752655029297,-0.0381888747215271,0.1919286847114563
1790163374080608800,5.24860888671875,-0.6088161468505859,0.008430659770965576,0.2797650098800659
1790163374090608600,5.258608642578125,-0.46084117889404297,0.05058944225311279,0.4279406666755676
1790163374100608800,5.26860888671875,-0.2933158874511719,0.03236180543899536,0.449312686920166
1790163374110608600,5.278608642578125,-0.1122732162475586,-0.03704792261123657,0.35660070180892944
1790163374120608800,5.28860888671875,0.11511993408203125,-0.03874760866165161,0.24103999137878418
1790163374130608600,5.298608642578125,0.20705890655517578,0.03801524639129639,0.14443451166152954
1790163374140608500,5.3086083984375,0.0989370346069336,0.09636026620864868,-0.029474735260009766
1790163374150608600,5.318608642578125,0.08603572845458984,0.1078985333442688,-0.16626739501953125
1790163374160608500,5.3286083984375,0.035103797912597656,0.12228125333786011,-0.14334368705749512
1790163374170608600,5.338608642578125,0.04151344299316406,0.11066228151321411,-0.1470792293548584
1790163374180608500,5.3486083984375,0.1640024185180664,0.08422321081161499,-0.1682971715927124
1790163374190608600,5.358608642578125,0.26442623138427734,0.01041567325592041,-0.03358250856399536
1790163374200608500,5.3686083984375,0.23447608947753906,-0.0993005633354187,0.04382157325744629
1790163374210608600,5.378608642578125,0.051428794860839844,-0.14999127388000488,0.0782744288444519
1790163374220608500,5.3886083984375,-0.05895709991455078,-0.1627550721168518,0.0759432315826416
1790163374230608600,5.398608642578125,0.007061958312988281,-0.10084593296051025,0.0052411556243896484
1790163374240608500,5.4086083984375,0.15707969665527344,-0.021382689476013184,-0.15093809366226196
1790163374250608600,5.418608642578125,0.2175731658935547,0.05811429023742676,-0.280819833278656
1790163374260608500,5.4286083984375,0.16771411895751953,0.11794716119766235,-0.2713986337184906
1790163374270608600,5.438608642578125,0.016790390014648438,0.12837529182434082,-0.1953820288181305
1790163374280608500,5.4486083984375,-0.07871627807617188,0.07409274578094482,-0.1648452877998352
1790163374290608600,5.458608642578125,-0.03785991668701172,-0.02157747745513916,-0.07832157611846924
1790163374300608500,5.4686083984375,0.07162761688232422,-0.12443315982818604,0.09552669525146484
1790163374310608600,5.478608642578125,0.09872055053710938,-0.2094041109085083,0.23399370908737183
1790163374320608500,5.4886083984375,0.12817859649658203,-0.21875005960464478,0.21611905097961426
1790163374330608600,5.498608642578125,0.17304039001464844,-0.16148924827575684,0.12641990184783936
1790163374340608500,5.5086083984375,0.10094261169433594,-0.0449143648147583,0.03546065092086792
1790163374350608600,5.518608642578125,-0.12757492065429688,0.030497491359710693,-0.04078388214111328
1790163374360608500,5.5286083984375,-0.3240842819213867,0.08968889713287354,-0.05478370189666748
1790163374370608600,5.538608642578125,-0.37085437774658203,0.09515953063964844,-0.10550713539123535
1790163374380608500,5.5486083984375,-0.29441165924072266,0.12382596731185913,-0.1970205307006836
1790163374390608600,5.558608642578125,-0.25060272216796875,0.17457795143127441,-0.19196999073028564
1790163374400608500,5.5686083984375,-0.1388416290283203,0.18909209966659546,-0.21292906999588013
1790163374410608600,5.578608642578125,0.04857158660888672,0.16958588361740112,-0.14579665660858154
1790163374420608500,5.5886083984375,0.22599124908447266,0.13959652185440063,-0.04102212190628052
1790163374430608600,5.598608642578125,0.3203268051147461,0.07979679107666016,-0.037467777729034424
1790163374440608500,5.6086083984375,0.2812681198120117,0.0025566816329956055,-0.04936635494232178
1790163374450608600,5.618608642578125,0.12384319305419922,-0.05515009164810181,-0.010447204113006592
1790163374460608500,5.6286083984375,-0.07176399230957031,-0.11190831661224365,0.0913439393043518
1790163374470608600,5.638608642578125,-0.23269939422607422,-0.1431419849395752,0.18950486183166504
1790163374480608500,5.6486083984375,-0.1726665496826172,-0.10755807161331177,0.1402767300605774
1790163374490608600,5.658608642578125,-0.005400657653808594,-0.028411924839019775,0.05339360237121582
1790163374500608500,5.6686083984375,0.13344955444335938,0.029458463191986084,-0.07241570949554443
1790163374510608600,5.678608642578125,0.17890357971191406,0.058251142501831055,-0.14907574653625488
1790163374520608500,5.6886083984375,0.1292581558227539,0.05370604991912842,-0.09039539098739624
1790163374530608600,5.698608642578125,0.05791664123535156,-0.009798586368560791,-0.0053664445877075195
1790163374540608500,5.7086083984375,-0.02780628204345703,-0.06752157211303711,0.025852739810943604
1790163374550608600,5.718608642578125,-0.00003719329833984375,-0.0682227611541748,0.025827646255493164
1790163374560608500,5.7286083984375,0.0018854141235351562,-0.03826707601547241,-0.01624751091003418
1790163374570608600,5.738608642578125,-0.07029056549072266,-0.0031694769859313965,-0.028965234756469727
1790163374580608500,5.7486083984375,-0.14113426208496094,0.041036903858184814,-0.047727882862091064
1790163374590608600,5.758608642578125,-0.10574054718017578,0.07630884647369385,-0.04173862934112549
1790163374600608500,5.7686083984375,0.05919170379638672,0.12509137392044067,-0.029961764812469482
1790163374610608600,5.778608642578125,0.22055816650390625,0.1668403148651123,0.0002410411834716797
1790163374620608500,5.7886083984375,0.30504798889160156,0.15526020526885986,-0.025100886821746826
1790163374630608600,5.798608642578125,0.4109840393066406,0.07906097173690796,-0.10404372215270996
1790163374640608500,5.8086083984375,0.6390743255615234,-0.0660143494606018,-0.057102322578430176
1790163374650608600,5.818608642578125,1.0150537490844727,-0.16975688934326172,-0.047958314418792725
1790163374660608500,5.8286083984375,0.9593467712402344,-0.1523522138595581,-0.06660908460617065
1790163374670608600,5.838608642578125,0.8213109970092773,-0.06663870811462402,-0.25693202018737793
1790163374680608500,5.8486083984375,0.41028308868408203,-0.0024083852767944336,-0.21102768182754517
1790163374690608600,5.858608642578125,0.12087440490722656,0.00023293495178222656,0.09071481227874756
1790163374700608500,5.8686083984375,0.44366931915283203,-0.06584364175796509,0.2289649248123169
1790163374710608600,5.878608642578125,0.7828588485717773,-0.03185439109802246,0.261755108833313
1790163374720608500,5.8886083984375,0.6051855087280273,-0.0491180419921875,0.3842010498046875
1790163374730608600,5.898608642578125,0.14730262756347656,-0.17997848987579346,0.4875849485397339
1790163374740608500,5.9086083984375,-0.3219289779663086,-0.39670515060424805,0.49617183208465576
1790163374750608600,5.918608642578125,-1.0251388549804688,-0.2552102208137512,0.15939676761627197
1790163374760608500,5.9286083984375,-1.6484270095825195,-0.20601189136505127,0.5849319696426392
1790163374770608600,5.938608642578125,-1.4192495346069336,-0.8715714812278748,0.8046842813491821
1790163374780608500,5.9486083984375,-1.1693429946899414,-0.6771332025527954,1.0808091163635254
1790163374790608600,5.958608642578125,-0.757319450378418,0.05862623453140259,0.9871253967285156
1790163374800608500,5.9686083984375,-0.3560171127319336,0.5205546617507935,0.6965636014938354
1790163374810608600,5.978608642578125,-0.022954940795898438,0.5425529479980469,0.34486281871795654
1790163374820608500,5.9886083984375,0.26831531524658203,0.2579602003097534,0.08981537818908691
1790163374830608600,5.998608642578125,-0.5227384567260742,-0.3946657180786133,-0.34530651569366455
1790163374840608500,6.0086083984375,-1.2148494720458984,1.4564310312271118,-4.7069854736328125
1790163374850608600,6.018608642578125,-1.5272035598754883,2.897279739379883,-3.928518533706665
1790163374860608500,6.0286083984375,-0.508087158203125,0.7406836748123169,-1.6563122272491455
1790163374870608600,6.038608642578125,0.6222105026245117,-0.8644509315490723,0.8427869081497192
1790163374880608500,6.0486083984375,0.8591146469116211,-1.0146409273147583,1.8119910955429077
1790163374890608600,6.058608642578125,0.8796358108520508,-0.8569515943527222,0.9253009557723999
1790163374900608500,6.0686083984375,0.03950786590576172,-0.9372721314430237,-0.42287659645080566
1790163374910608600,6.078608642578125,-1.2008066177368164,-0.18391895294189453,-1.539397120475769
1790163374920608500,6.0886083984375,-1.2230558395385742,0.44650280475616455,-0.5681502819061279
1790163374930608600,6.098608642578125,-0.6322231292724609,-0.276226282119751,0.10489356517791748
1790163374940608500,6.1086083984375,-0.5441617965698242,-0.4407070279121399,0.8827824592590332
1790163374950608600,6.118608642578125,-0.5189075469970703,0.09954583644866943,0.8442260026931763
1790163374960608500,6.1286083984375,-0.128021240234375,0.14397120475769043,0.3187941312789917
1790163374970608600,6.138608642578125,-0.17500877380371094,0.5008039474487305,0.5120459794998169
1790163374980608500,6.1486083984375,1.546280860900879,0.39060962200164795,-0.02939021587371826
1790163374990608600,6.158608642578125,1.6969432830810547,0.10714077949523926,0.15009891986846924
1790163375000608500,6.1686083984375,1.5746479034423828,0.06841838359832764,0.42650115489959717
1790163375010608600,6.178608642578125,1.0667133331298828,0.061154842376708984,0.47259795665740967
1790163375020608500,6.1886083984375,0.28357410430908203,-0.046135902404785156,0.6145673394203186
1790163375030608600,6.198608642578125,-0.022607803344726562,0.27133607864379883,0.670632541179657
1790163375040608500,6.2086083984375,-0.11416053771972656,0.12317764759063721,0.5855468511581421
1790163375050608600,6.218608642578125,-0.08155059814453125,0.00971996784210205,0.4482141137123108
1790163375060608500,6.2286083984375,-0.14812946319580078,-0.053749918937683105,0.18205887079238892
1790163375070608600,6.238608642578125,-0.3837471008300781,-0.0727689266204834,0.02935093641281128
1790163375080608500,6.2486083984375,-1.4586544036865234,-1.5866621732711792,2.033480405807495
1790163375090608600,6.258608642578125,-0.2888631820678711,-0.7348726391792297,0.2874646782875061
1790163375100608500,6.2686083984375,2.042764663696289,1.0659273862838745,-1.4830822944641113
1790163375110608600,6.278608642578125,1.6915569305419922,1.1094462871551514,-1.5334558486938477
1790163375120608500,6.2886083984375,0.84332275390625,0.727924644947052,-1.1765438318252563
1790163375130608600,6.298608642578125,-0.5845966339111328,0.10643637180328369,-0.470586359500885
1790163375140608500,6.3086083984375,-1.3339996337890625,-0.0899735689163208,-0.7579289674758911
1790163375150608600,6.318608642578125,-1.7421154975891113,-0.13915657997131348,-1.3057217597961426
1790163375160608500,6.3286083984375,-1.780771255493164,-0.20717859268188477,-1.2508070468902588
1790163375170608600,6.338608642578125,-2.3433265686035156,-0.8375238180160522,-0.2157895565032959
1790163375180608500,6.3486083984375,-3.300243377685547,-1.1501216888427734,0.6436127424240112
1790163375190608600,6.358608642578125,-2.222625732421875,0.003200232982635498,0.25798869132995605
1790163375200608500,6.3686083984375,-0.9375896453857422,0.7999791502952576,-0.31100785732269287
1790163375210608600,6.378608642578125,0.03565502166748047,0.9444665908813477,-1.265601396560669
1790163375220608500,6.3886083984375,2.905911445617676,1.1780638694763184,-2.2711870670318604
1790163375230608600,6.398608642578125,3.300978660583496,1.1744332313537598,-2.0703744888305664
1790163375240608500,6.4086083984375,1.8546295166015625,0.0651303231716156,-0.5432065725326538
1790163375250608600,6.418608642578125,0.6259469985961914,-0.5654933452606201,0.3012428283691406
1790163375260608500,6.4286083984375,0.9942865371704102,-0.5906388759613037,2.390746593475342
1790163375270608600,6.438608642578125,2.2409629821777344,-0.5208427906036377,4.182352066040039
1790163375280608500,6.4486083984375,1.9813966751098633,-0.6863930225372314,0.4491612911224365
1790163375290608600,6.458608642578125,0.4035377502441406,-0.7276594638824463,-2.6878294944763184
1790163375300608500,6.4686083984375,-1.6290736198425293,0.30210965871810913,-1.301142930984497
1790163375310608600,6.478608642578125,-2.6910743713378906,1.1358728408813477,-0.19634795188903809
1790163375320608500,6.4886083984375,-2.6703176498413086,1.4566304683685303,-0.628948450088501
1790163375330608600,6.498608642578125,-1.6736946105957031,1.3021059036254883,-1.0673390626907349
1790163375340608500,6.5086083984375,0.0025529861450195312,0.9717947244644165,-0.4557185173034668
1790163375350608600,6.518608642578125,0.9242286682128906,0.674761950969696,0.3732588291168213
1790163375360608500,6.5286083984375,0.7322444915771484,0.07580584287643433,1.4729893207550049
1790163375370608600,6.538608642578125,-0.05112266540527344,-0.15213699638843536,1.247530221939087
1790163375380608500,6.5486083984375,-1.372624397277832,-0.4584210216999054,0.2725052833557129
1790163375390608600,6.558608642578125,-1.8434906005859375,-0.4415780305862427,-0.04309344291687012
1790163375400608500,6.5686083984375,0.5859413146972656,-0.5606042146682739,0.49347996711730957
1790163375410608600,6.578608642578125,2.245072364807129,-0.6247679591178894,1.2135353088378906
1790163375420608500,6.5886083984375,2.886734962463379,-0.4198867380619049,0.6021695137023926
1790163375430608600,6.598608642578125,1.9643440246582031,-0.12539207935333252,-0.36719846725463867
1790163375440608500,6.6086083984375,0.3018684387207031,-0.602270245552063,-0.08719921112060547
1790163375450608600,6.618608642578125,-0.08731937408447266,-0.9178946018218994,-0.02113032341003418
1790163375460608500,6.6286083984375,0.10860252380371094,-0.37144625186920166,-0.6857566833496094
1790163375470608600,6.638608642578125,0.14654159545898438,0.1894434243440628,-0.5125107765197754
1790163375480608500,6.6486083984375,-0.143341064453125,0.5613927841186523,0.19818425178527832
1790163375490608600,6.658608642578125,-1.150233268737793,1.3668007850646973,1.330108642578125
1790163375500608500,6.6686083984375,-2.166259765625,1.9465227127075195,1.8586044311523438
1790163375510608600,6.678608642578125,-2.526090621948242,2.3509819507598877,1.5432896614074707
1790163375520608500,6.6886083984375,-2.117300033569336,3.0270206928253174,0.4761228561401367
1790163375530608600,6.698608642578125,-1.4595351219177246,3.0024538040161133,-0.23020553588867188
1790163375540608500,6.7086083984375,-1.0171546936035156,1.9174535274505615,-0.48571157455444336
1790163375550608600,6.718608642578125,-0.40552425384521484,0.3144731819629669,-0.752845287322998
1790163375560608500,6.7286083984375,0.5608024597167969,-1.2851821184158325,-1.8496880531311035
1790163375570608600,6.738608642578125,0.5652933120727539,-2.9950852394104004,-2.165872573852539
1790163375580608500,6.7486083984375,1.057173252105713,-3.962474822998047,-2.031125068664551
1790163375590608600,6.758608642578125,2.747898578643799,-3.6756744384765625,-1.5669670104980469
1790163375600608500,6.7686083984375,4.469376564025879,-2.3445816040039062,-1.0616884231567383
1790163375610608600,6.778608642578125,4.859598159790039,-1.247334361076355,-0.7401504516601562
1790163375620608500,6.7886083984375,5.127738952636719,-0.2603027820587158,-2.23929500579834
1790163375630608600,6.798608642578125,5.280304431915283,0.6589779257774353,-4.743660926818848
1790163375640608500,6.8086083984375,3.6190500259399414,1.347977638244629,-6.819221019744873
1790163375650608600,6.818608642578125,0.09546399116516113,1.3630727529525757,-5.799916744232178
1790163375660608500,6.8286083984375,-2.04464054107666,1.1968876123428345,-1.2720632553100586
1790163375670608600,6.838608642578125,-2.9245901107788086,0.7289398908615112,3.9098739624023438
1790163375680608500,6.8486083984375,-0.5171670913696289,-0.3948771059513092,5.81901741027832
1790163375690608600,6.858608642578125,0.4303774833679199,-0.9186495542526245,2.4345431327819824
1790163375700608500,6.8686083984375,-1.6070733070373535,2.340907335281372,-4.6334428787231445
1790163375710608600,6.878608642578125,1.8596820831298828,3.3769283294677734,-4.8576273918151855
1790163375720608500,6.8886083984375,0.5576343536376953,-0.7479912042617798,0.0861821174621582
1790163375730608600,6.898608642578125,-1.2255077362060547,-3.75008487701416,3.0823075771331787
1790163375740608500,6.9086083984375,-2.0563955307006836,-3.655045747756958,5.23560905456543
1790163375750608600,6.918608642578125,-1.8876991271972656,-1.8874931335449219,3.780339241027832
1790163375760608500,6.9286083984375,-0.6562995910644531,-0.35390639305114746,2.2177844047546387
1790163375770608600,6.938608642578125,-0.2507591247558594,0.4010453224182129,1.316025972366333
1790163375780608500,6.9486083984375,-0.2450265884399414,1.0694528818130493,0.47036969661712646
1790163375790608600,6.958608642578125,-0.7679586410522461,1.6477611064910889,-0.5213257074356079
1790163375800608500,6.9686083984375,-1.0627622604370117,2.2623634338378906,-1.7271432876586914
1790163375810608600,6.978608642578125,-2.191131591796875,1.9863946437835693,-1.7533259391784668
1790163375820608500,6.9886083984375,-2.1400156021118164,0.5100860595703125,-0.9157135486602783
1790163375830608600,6.998608642578125,-0.7115497589111328,-1.0553643703460693,-0.7012783288955688
1790163375840608500,7.0086083984375,0.6388311386108398,-2.023738145828247,-1.0421067476272583
1790163375850608600,7.018608642578125,0.6352300643920898,-2.1956787109375,-0.08531663566827774
1790163375860608500,7.0286083984375,1.1038808822631836,-1.5281462669372559,-0.4341975748538971
1790163375870608600,7.038608642578125,0.4794435501098633,-0.7278404235839844,0.07845299690961838
1790163375880608500,7.0486083984375,-0.14229202270507812,0.09364277124404907,-0.006341226398944855
1790163375890608600,7.058608642578125,-0.5080032348632812,0.7238357663154602,-0.23383894562721252
1790163375900608500,7.0686083984375,0.1552104949951172,1.0081332921981812,-0.6166395545005798
1790163375910608600,7.078608642578125,0.05204010009765625,0.7818235158920288,-0.2644078731536865
1790163375920608500,7.0886083984375,0.09278011322021484,0.5508219003677368,-0.13193118572235107
1790163375930608600,7.098608642578125,0.2025899887084961,0.29773831367492676,-0.0713546872138977
1790163375940608500,7.1086083984375,0.1950225830078125,0.1345958113670349,-0.027159150689840317
1790163375950608600,7.118608642578125,0.048870086669921875,0.13181930780410767,0.04583166539669037
1790163375960608500,7.1286083984375,-0.34053516387939453,0.17959094047546387,-0.08564795553684235
1790163375970608600,7.138608642578125,-0.7205352783203125,0.20425403118133545,-0.37134936451911926
1790163375980608500,7.1486083984375,-0.9187307357788086,0.14128875732421875,-0.5729995369911194
1790163375990608600,7.158608642578125,-0.9621925354003906,0.08224499225616455,-0.6036643981933594
1790163376000608500,7.1686083984375,-0.7293949127197266,0.11239206790924072,-0.4369199872016907
1790163376010608600,7.178608642578125,-0.266693115234375,0.0751185417175293,-0.1812707632780075
1790163376020608500,7.1886083984375,0.3899564743041992,0.0025842785835266113,-0.029514312744140625
1790163376030608600,7.198608642578125,0.7143173217773438,0.003506481647491455,-0.09467443823814392
1790163376040608500,7.2086083984375,0.5743675231933594,0.08800941705703735,-0.2944555878639221
1790163376050608600,7.218608642578125,0.4733419418334961,0.18851351737976074,-0.4986454248428345
1790163376060608500,7.2286083984375,0.3079843521118164,0.13080352544784546,-0.45195701718330383
1790163376070608600,7.238608642578125,0.17227840423583984,0.0085066556930542,-0.0922611653804779
1790163376080608500,7.2486083984375,0.11870574951171875,-0.10271310806274414,0.2913321554660797
1790163376090608600,7.258608642578125,0.0943756103515625,-0.16259831190109253,0.45496901869773865
1790163376100608500,7.2686083984375,0.06389331817626953,-0.07100242376327515,0.40128058195114136
1790163376110608600,7.278608642578125,0.09592723846435547,0.11657172441482544,0.19044184684753418
1790163376120608500,7.2886083984375,0.16347694396972656,0.2795174717903137,-0.09223514795303345
1790163376130608600,7.298608642578125,0.02153778076171875,0.400160014629364,-0.32193347811698914
1790163376140608500,7.3086083984375,-0.0659017562866211,0.16365379095077515,-0.2318611443042755
1790163376150608600,7.318608642578125,-0.039519309997558594,-0.07504355907440186,-0.12808847427368164
1790163376160608500,7.3286083984375,-0.07381534576416016,-0.084442138671875,-0.03933680057525635
1790163376170608600,7.338608642578125,-0.1026611328125,-0.09107911586761475,-0.08249640464782715
1790163376180608500,7.3486083984375,-0.2087869644165039,-0.30671077966690063,-0.037389516830444336
1790163376190608600,7.358608642578125,-0.3422412872314453,-0.609373927116394,0.15322721004486084
1790163376200608500,7.3686083984375,-0.8657283782958984,-0.9434624314308167,-0.1071627140045166
1790163376210608600,7.378608642578125,-2.032215118408203,-1.166625738143921,-0.8213605880737305
1790163376220608500,7.3886083984375,-2.7702627182006836,-1.4398548603057861,-1.568873405456543
1790163376230608600,7.398608642578125,-2.696934700012207,-2.164876937866211,-1.9810118675231934
1790163376240608500,7.4086083984375,-2.5770397186279297,-2.9567601680755615,-2.1939826011657715
1790163376250608600,7.418608642578125,-3.37774658203125,-2.923553466796875,-2.440131902694702
1790163376260608500,7.4286083984375,-4.157406806945801,-2.605027437210083,-2.3689379692077637
1790163376270608600,7.438608642578125,-5.305352210998535,-1.033293604850769,-2.4601359367370605
1790163376280608500,7.4486083984375,-5.821298599243164,2.7441635131835938,0.3338298797607422
1790163376290608600,7.458608642578125,-5.411458969116211,2.5260448455810547,5.233574390411377
1790163376300608500,7.4686083984375,-4.133332252502441,0.5910824537277222,9.163314819335938
1790163376310608600,7.478608642578125,-0.5290155410766602,-1.4621484279632568,10.998252868652344
1790163376320608500,7.4886083984375,1.9360742568969727,-2.9075095653533936,10.465742111206055
1790163376330608600,7.498608642578125,3.020249843597412,-4.064259052276611,7.971983909606934
1790163376340608500,7.5086083984375,4.167119979858398,-6.102043628692627,6.847132682800293
1790163376350608600,7.518608642578125,5.434889793395996,-8.347471237182617,6.8834052085876465
1790163376360608500,7.5286083984375,6.2422308921813965,-10.21126937866211,6.76887321472168
1790163376370608600,7.538608642578125,6.706048011779785,-11.406116485595703,5.7234296798706055
1790163376380608500,7.5486083984375,6.3885297775268555,-12.04115104675293,3.8339619636535645
1790163376390608600,7.558608642578125,6.349037170410156,-12.47681999206543,2.1671695709228516
1790163376400608500,7.5686083984375,7.8326873779296875,-14.096235275268555,1.2801904678344727
1790163376410608600,7.578608642578125,7.862626552581787,-15.536029815673828,0.05523395538330078
1790163376420608500,7.5886083984375,6.883514881134033,-15.441583633422852,-2.4184513092041016
1790163376430608600,7.598608642578125,4.482982635498047,-13.035213470458984,-5.026289939880371
1790163376440608500,7.6086083984375,0.5017480850219727,-10.16238784790039,-8.13051700592041
1790163376450608600,7.618608642578125,-1.5165205001831055,-7.335811138153076,-9.304276466369629
1790163376460608500,7.6286083984375,-2.2933454513549805,-3.799295425415039,-7.96910285949707
1790163376470608600,7.638608642578125,-4.8670244216918945,-1.0804731845855713,-6.142514705657959
1790163376480608500,7.6486083984375,-7.004457473754883,-0.3424886465072632,-5.570191860198975
1790163376490608600,7.658608642578125,-8.80237865447998,0.1525689959526062,-6.666564464569092
1790163376500608500,7.6686083984375,-7.993060111999512,0.19647079706192017,-7.650595188140869
1790163376510608600,7.678608642578125,-5.675503730773926,-0.7459751963615417,-7.537735939025879
1790163376520608500,7.6886083984375,-3.5409250259399414,-2.152904748916626,-6.9650349617004395
1790163376530608600,7.698608642578125,-0.8897199630737305,-2.7155208587646484,-6.909002304077148
1790163376540608500,7.7086083984375,1.7011775970458984,-2.3040566444396973,-7.272068977355957
1790163376550608600,7.718608642578125,3.3779640197753906,-1.7903884649276733,-6.835894584655762
1790163376560608500,7.7286083984375,5.180057525634766,-1.2571474313735962,-5.794398307800293
1790163376570608600,7.738608642578125,6.446159362792969,-0.7999120950698853,-4.953446388244629
1790163376580608500,7.7486083984375,6.512674331665039,-0.9512826800346375,-4.094806671142578
1790163376590608600,7.758608642578125,5.464022159576416,-2.006251573562622,-3.077608346939087
1790163376600608500,7.7686083984375,-2.4093828201293945,-2.7518622875213623,-1.9797381162643433
1790163376610608600,7.778608642578125,-17.177486419677734,-3.079800844192505,7.238929748535156
1790163376620608500,7.7886083984375,-15.837162971496582,-1.0929075479507446,2.280261516571045
1790163376630608600,7.798608642578125,-4.5156660079956055,-1.822548747062683,-5.426909923553467
1790163376640608500,7.8086083984375,2.784700393676758,-3.8134286403656006,-4.432663440704346
1790163376650608600,7.818608642578125,3.4140219688415527,-3.856071949005127,-2.616856575012207
1790163376660608500,7.8286083984375,5.296299934387207,-1.994554042816162,-2.7273874282836914
1790163376670608600,7.838608642578125,7.670660972595215,-2.049211263656616,-4.176939964294434
1790163376680608500,7.8486083984375,6.993074893951416,-3.2575302124023438,-3.0859432220458984
1790163376690608600,7.858608642578125,5.0836992263793945,-2.5017123222351074,0.4854769706726074
1790163376700608500,7.8686083984375,2.4828577041625977,-0.672316312789917,2.1801633834838867
1790163376710608600,7.878608642578125,-0.5117292404174805,-0.3412538766860962,3.072509527206421
1790163376720608500,7.8886083984375,-2.522958755493164,-0.1984729766845703,1.866437554359436
1790163376730608600,7.898608642578125,-3.267030715942383,-0.12224584817886353,0.2941337525844574
1790163376740608500,7.9086083984375,-3.166031837463379,0.2226119041442871,-0.42180341482162476
1790163376750608600,7.918608642578125,-2.3325700759887695,-0.23820453882217407,1.2859946489334106
1790163376760608500,7.9286083984375,-1.5952367782592773,-0.32833850383758545,1.7706432342529297
1790163376770608600,7.938608642578125,-0.3820209503173828,-0.33418816328048706,1.2871874570846558
1790163376780608500,7.9486083984375,1.2414398193359375,-0.3755123019218445,0.5672659277915955
1790163376790608600,7.958608642578125,2.67612361907959,0.17286920547485352,0.5004130601882935
1790163376800608500,7.9686083984375,2.823410987854004,0.6663278341293335,1.0632538795471191
1790163376810608600,7.978608642578125,2.93179988861084,0.8128320574760437,1.7516781091690063
1790163376820608500,7.9886083984375,2.964418888092041,0.8284520506858826,2.5285825729370117
1790163376830608600,7.998608642578125,2.8374576568603516,0.8744428753852844,2.7374887466430664
1790163376840608500,8.0086083984375,2.1168594360351562,0.8323526978492737,2.3653905391693115
1790163376850608600,8.018608642578124,0.9461631774902344,0.756646990776062,2.163757562637329
1790163376860608500,8.0286083984375,-0.2167987823486328,0.8357099890708923,2.3591439723968506
1790163376870608600,8.038608642578126,-1.173752784729004,1.0355684757232666,2.743896722793579
1790163376880608500,8.0486083984375,-1.7539901733398438,1.243916630744934,2.9572882652282715
1790163376890608600,8.058608642578125,-1.7850341796875,1.4054383039474487,3.1789402961730957
1790163376900608500,8.0686083984375,-1.4218826293945312,1.5091519355773926,3.491304874420166
1790163376910608600,8.078608642578125,-1.1692266464233398,1.7619248628616333,3.0767264366149902
1790163376920608500,8.0886083984375,-0.9205455780029297,2.0448851585388184,2.7165398597717285
1790163376930608600,8.098608642578125,-1.4488716125488281,2.1395981311798096,2.194199562072754
1790163376940608500,8.1086083984375,-3.4362592697143555,1.9104387760162354,1.6215107440948486
1790163376950608600,8.118608642578126,-6.827116966247559,1.4755524396896362,1.491318702697754
1790163376960608500,8.1286083984375,-4.759159564971924,0.06718084216117859,2.1762847900390625
1790163376970608600,8.138608642578125,-6.234165191650391,-0.06150713562965393,3.9171433448791504
1790163376980608500,8.1486083984375,-3.2643942832946777,1.4863543510437012,1.5142693519592285
1790163376990608600,8.158608642578125,-2.2437825202941895,1.9076241254806519,2.045621871948242
1790163377000608500,8.1686083984375,-0.26882076263427734,-0.24733182787895203,4.544964790344238
1790163377010608600,8.178608642578125,4.6892924308776855,0.2798196077346802,1.5145273208618164
1790163377020608500,8.1886083984375,0.2709627151489258,1.8003102540969849,-0.5445890426635742
1790163377030608600,8.198608642578124,-3.430492877960205,1.7678322792053223,-2.667548179626465
1790163377040608500,8.2086083984375,-6.3665056228637695,1.1414966583251953,-3.2994613647460938
1790163377050608600,8.218608642578126,-6.34227180480957,2.0442252159118652,-3.227519989013672
1790163377060608500,8.2286083984375,-1.1348838806152344,2.493821382522583,-3.1184263229370117
1790163377070608600,8.238608642578125,4.515124797821045,2.20797061920166,-3.3651657104492188
1790163377080608500,8.2486083984375,5.361255168914795,2.1398000717163086,-3.1235313415527344
1790163377090608600,8.258608642578125,2.277217388153076,2.733966588973999,0.5092697143554688
1790163377100608500,8.2686083984375,0.17675423622131348,3.6319217681884766,4.502875804901123
1790163377110608600,8.278608642578124,0.7147519588470459,4.658130168914795,6.101255893707275
1790163377120608500,8.2886083984375,0.22553491592407227,4.9629807472229,5.465500354766846
1790163377130608600,8.298608642578126,-2.6817476749420166,5.785623073577881,4.070716857910156
1790163377140608500,8.3086083984375,-5.022800445556641,6.623728275299072,4.36731481552124
1790163377150608600,8.318608642578125,-5.078202247619629,6.751844882965088,3.4232540130615234
1790163377160608500,8.3286083984375,-1.821009874343872,5.2427077293396,4.2882537841796875
1790163377170608600,8.338608642578125,0.6349682807922363,3.6456820964813232,3.9745945930480957
1790163377180608500,8.3486083984375,2.323913335800171,2.90567946434021,3.354344367980957
1790163377190608600,8.358608642578124,3.2266361713409424,2.66456937789917,3.07302188873291
1790163377200608500,8.3686083984375,3.0820040702819824,2.453888416290283,2.381490707397461
1790163377210608600,8.378608642578126,2.793058156967163,2.218946695327759,1.0728034973144531
1790163377220608500,8.3886083984375,3.051820755004883,2.407419204711914,-0.6393036842346191
1790163377230608600,8.398608642578125,4.142735481262207,2.8254499435424805,-2.6018333435058594
1790163377240608500,8.4086083984375,5.495730400085449,2.8796911239624023,-4.307999134063721
1790163377250608600,8.418608642578125,5.69841194152832,2.618834972381592,-5.6588029861450195
1790163377260608500,8.4286083984375,4.783205986022949,1.9717254638671875,-6.423314571380615
1790163377270608600,8.438608642578124,3.8577675819396973,1.0878236293792725,-6.812343120574951
1790163377280608500,8.4486083984375,3.563803195953369,0.2583301067352295,-6.744851112365723
1790163377290608600,8.458608642578126,3.6467928886413574,-0.5024442672729492,-6.5112457275390625
1790163377300608500,8.4686083984375,3.7799301147460938,-1.360790729522705,-6.386744976043701
1790163377310608600,8.478608642578125,3.860915422439575,-2.095376491546631,-5.940915107727051
1790163377320608500,8.4886083984375,3.5711541175842285,-2.578383445739746,-5.369404315948486
1790163377330608600,8.498608642578125,2.449040412902832,-2.9839046001434326,-4.723583221435547
1790163377340608500,8.5086083984375,0.7930583953857422,-3.2620811462402344,-3.491079330444336
1790163377350608600,8.518608642578124,-0.9291400909423828,-3.3426501750946045,-2.808354377746582
1790163377360608500,8.5286083984375,-2.10223388671875,-3.529967784881592,-3.554551601409912
1790163377370608600,8.538608642578126,-2.067451000213623,-3.804771661758423,-5.043399810791016
1790163377380608500,8.5486083984375,-1.0497064590454102,-4.534433841705322,-6.460160732269287
1790163377390608600,8.558608642578125,-0.04130411148071289,-5.451173305511475,-7.177230358123779
1790163377400608500,8.5686083984375,0.8593306541442871,-6.377321720123291,-7.024983882904053
1790163377410608600,8.578608642578125,0.4457721710205078,-6.6399688720703125,-6.5713043212890625
1790163377420608500,8.5886083984375,-0.6261897087097168,-6.024466514587402,-5.684020042419434
1790163377430608600,8.598608642578125,-1.420412540435791,-5.39372444152832,-5.013582706451416
1790163377440608500,8.6086083984375,-2.9140548706054688,-5.410199165344238,-4.393117427825928
1790163377450608600,8.618608642578126,-3.308047294616699,-5.9264092445373535,-3.2177600860595703
1790163377460608500,8.6286083984375,-3.3668723106384277,-6.038161277770996,-2.5266222953796387
1790163377470608600,8.638608642578125,-3.4273691177368164,-5.377981185913086,-2.592259407043457
1790163377480608500,8.6486083984375,-3.5517616271972656,-4.3251237869262695,-2.6036171913146973
1790163377490608600,8.658608642578125,-3.3551974296569824,-3.297454833984375,-2.740116596221924
1790163377500608500,8.6686083984375,-2.8854470252990723,-2.5540645122528076,-2.9316601753234863
1790163377510608600,8.678608642578125,-1.6526427268981934,-2.3758606910705566,-2.698631763458252
1790163377520608500,8.6886083984375,-0.27361440658569336,-2.8146018981933594,-1.4513330459594727
1790163377530608600,8.698608642578124,0.02472686767578125,-3.1223104000091553,0.8023700714111328
1790163377540608500,8.7086083984375,-1.191812515258789,-2.8541760444641113,3.0745954513549805
1790163377550608600,8.718608642578126,-2.2384886741638184,-2.4432411193847656,4.991024971008301
1790163377560608500,8.7286083984375,-2.630521774291992,-2.0295138359069824,5.249680519104004
1790163377570608600,8.738608642578125,-2.3216261863708496,-1.7008625268936157,4.616454601287842
1790163377580608500,8.7486083984375,-2.035953998565674,-1.0925931930541992,3.164278030395508
1790163377590608600,8.758608642578125,-1.4432902336120605,0.0006651878356933594,-0.2892451286315918
1790163377600608500,8.7686083984375,-1.4285383224487305,0.1625462770462036,-2.439943790435791
1790163377610608600,8.778608642578124,-2.6394453048706055,-0.3200432062149048,-2.3830060958862305
1790163377620608500,8.7886083984375,-3.1994547843933105,-0.6867258548736572,-2.0492639541625977
1790163377630608600,8.798608642578126,-5.27210807800293,0.3395366668701172,-1.8214149475097656
1790163377640608500,8.8086083984375,-1.1280717849731445,2.5143208503723145,-0.41170310974121094
1790163377650608600,8.818608642578125,5.151191234588623,0.16302490234375,3.3057851791381836
1790163377660608500,8.8286083984375,2.4500205516815186,-2.4220170974731445,5.427736282348633
1790163377670608600,8.838608642578125,-2.286345958709717,-1.400738000869751,3.241654396057129
1790163377680608500,8.8486083984375,-3.0249834060668945,0.03723067045211792,1.7114019393920898
1790163377690608600,8.858608642578124,-3.278658390045166,0.21003413200378418,2.3010478019714355
1790163377700608500,8.8686083984375,-4.738306999206543,0.30885159969329834,1.5311627388000488
1790163377710608600,8.878608642578126,-4.6526665687561035,-1.2305545806884766,0.9032778739929199
1790163377720608500,8.8886083984375,-7.352755546569824,-0.44275030493736267,-1.8421964645385742
1790163377730608600,8.898608642578125,-7.587884426116943,0.9354760646820068,-4.7894768714904785
1790163377740608500,8.9086083984375,0.056694984436035156,-2.167492628097534,-6.190042018890381
1790163377750608600,8.918608642578125,0.16041898727416992,-7.64361047744751,-7.183573246002197
1790163377760608500,8.9286083984375,1.8819293975830078,-4.8013787269592285,-2.759819507598877
1790163377770608600,8.938608642578124,2.39155912399292,-4.408682346343994,-0.6090450286865234
1790163377780608500,8.9486083984375,1.2016210556030273,-3.7525453567504883,0.13267183303833008
1790163377790608600,8.958608642578126,-0.9301648139953613,-1.8708291053771973,-0.4830026626586914
1790163377800608500,8.9686083984375,-2.3285140991210938,-1.2151674032211304,0.9595346450805664
1790163377810608600,8.978608642578125,-1.9213180541992188,-0.1494138240814209,2.216548442840576
1790163377820608500,8.9886083984375,-0.6057472229003906,1.8896400928497314,2.3700313568115234
1790163377830608600,8.998608642578125,1.272101879119873,4.167428493499756,0.5685296058654785
1790163377840608500,9.0086083984375,2.018247127532959,3.320089101791382,-0.3305182456970215
1790163377850608600,9.018608642578124,1.364485740661621,0.46510887145996094,-4.449595928192139
1790163377860608500,9.0286083984375,4.713024139404297,3.521641254425049,-3.741365909576416
1790163377870608600,9.038608642578126,2.7920918464660645,4.11052131652832,-2.651254177093506
1790163377880608500,9.0486083984375,0.22542762756347656,3.5026021003723145,-3.4764404296875
1790163377890608600,9.058608642578125,0.9637188911437988,1.6197457313537598,-1.6862468719482422
1790163377900608500,9.0686083984375,0.15617609024047852,1.583056926727295,-3.5190248489379883
1790163377910608600,9.078608642578125,-1.98167085647583,2.0172908306121826,-0.46718931198120117
1790163377920608500,9.0886083984375,-2.2949156761169434,2.5581586360931396,2.2506532669067383
1790163377930608600,9.098608642578125,-3.889458179473877,3.0797672271728516,3.474785327911377
1790163377940608500,9.1086083984375,-3.512382984161377,3.432526111602783,4.159223556518555
1790163377950608600,9.118608642578126,-2.311844825744629,2.8617115020751953,3.9185972213745117
1790163377960608500,9.1286083984375,-0.2515230178833008,1.9203799962997437,2.759396553039551
1790163377970608600,9.138608642578125,1.8598413467407227,1.4082560539245605,0.9187660217285156
1790163377980608500,9.1486083984375,2.111361265182495,1.6770977973937988,-0.6348848342895508
1790163377990608600,9.158608642578125,1.9246041774749756,1.2109066247940063,-1.2044296264648438
1790163378000608500,9.1686083984375,3.8839144706726074,0.503340482711792,-3.0004329681396484
1790163378010608600,9.178608642578125,5.826009750366211,-1.719325304031372,-5.435671806335449
1790163378020608500,9.1886083984375,1.7519516944885254,-4.409607887268066,-3.2481584548950195
1790163378030608600,9.198608642578124,-2.66158127784729,-5.0347185134887695,0.9392242431640625
1790163378040608500,9.2086083984375,-3.237053394317627,-4.0020012855529785,1.062617301940918
1790163378050608600,9.218608642578126,-4.472739219665527,-2.555246114730835,0.5703468322753906
1790163378060608500,9.2286083984375,-4.366459846496582,-1.2743933200836182,0.7714042663574219
1790163378070608600,9.238608642578125,-2.6801235675811768,0.4035748243331909,0.3636035919189453
1790163378080608500,9.2486083984375,-0.6443591117858887,1.3590476512908936,0.04278373718261719
1790163378090608600,9.258608642578125,0.2896876335144043,1.6151553392410278,-1.0570640563964844
1790163378100608500,9.2686083984375,0.02320718765258789,0.7549874782562256,-1.77734375
1790163378110608600,9.278608642578124,-0.17703747749328613,-0.5275610685348511,-1.1753578186035156
1790163378120608500,9.2886083984375,0.2350459098815918,-1.2767990827560425,0.35230255126953125
1790163378130608600,9.298608642578126,0.8984761238098145,-0.0902700126171112,3.8695201873779297
1790163378140608500,9.3086083984375,1.1651222705841064,1.4545412063598633,1.9519329071044922
1790163378150608600,9.318608642578125,0.6981348991394043,1.7430567741394043,0.8444128036499023
1790163378160608500,9.3286083984375,-0.6422324180603027,0.6036612391471863,0.7892723083496094
1790163378170608600,9.338608642578125,-1.11747145652771,-0.7561336755752563,2.0134849548339844
1790163378180608500,9.3486083984375,-0.4926490783691406,-1.3869965076446533,3.3074045181274414
1790163378190608600,9.358608642578124,-0.2312462329864502,-1.1907763481140137,2.964388370513916
1790163378200608500,9.3686083984375,0.9175972938537598,-0.9705542325973511,3.4432802200317383
1790163378210608600,9.378608642578126,2.0172460079193115,-1.1462169885635376,3.552454948425293
1790163378220608500,9.3886083984375,3.161682605743408,-1.939752459526062,3.0398340225219727
1790163378230608600,9.398608642578125,3.206080913543701,-3.1857845783233643,2.8305559158325195
1790163378240608500,9.4086083984375,3.3047361373901367,-3.858757257461548,2.281507968902588
1790163378250608600,9.418608642578125,3.3839964866638184,-3.0069921016693115,0.3302898406982422
1790163378260608500,9.4286083984375,1.4518213272094727,-1.4681594371795654,-0.4793357849121094
1790163378270608600,9.438608642578124,-0.20965290069580078,-1.674509048461914,-0.5293793678283691
1790163378280608500,9.4486083984375,-1.0403976440429688,-2.840453863143921,-1.4849510192871094
1790163378290608600,9.458608642578126,-5.426659107208252,-4.343383312225342,-5.21702766418457
1790163378300608500,9.4686083984375,-6.27919340133667,-6.079250335693359,-6.7242255210876465
1790163378310608600,9.478608642578125,-5.935649394989014,-6.428435802459717,-3.5092568397521973
1790163378320608500,9.4886083984375,-3.420673370361328,-6.161473274230957,-0.847191333770752
1790163378330608600,9.498608642578125,-0.36179590225219727,-3.9497199058532715,0.6385126113891602
1790163378340608500,9.5086083984375,-0.5670976638793945,-1.4852246046066284,-2.0346455574035645
1790163378350608600,9.518608642578124,-1.7218208312988281,-1.1174248456954956,-5.035739421844482
1790163378360608500,9.5286083984375,0.1327190399169922,-2.655172348022461,-8.447919845581055
1790163378370608600,9.538608642578126,1.7974610328674316,-2.027878522872925,-5.618710517883301
1790163378380608500,9.5486083984375,-1.0619430541992188,-1.055915117263794,-2.521268367767334
1790163378390608600,9.558608642578125,-3.566112995147705,-0.2292904555797577,-5.466094970703125
1790163378400608500,9.5686083984375,-1.7824406623840332,1.9500060081481934,-1.4558215141296387
1790163378410608600,9.578608642578125,0.8850951194763184,4.522307395935059,-2.5017147064208984
1790163378420608500,9.5886083984375,2.1761927604675293,7.678525447845459,5.399547100067139
1790163378430608600,9.598608642578125,3.1565098762512207,8.86114501953125,7.391840934753418
1790163378440608500,9.6086083984375,2.4919934272766113,8.09393310546875,10.628643035888672
1790163378450608600,9.618608642578126,0.5476164817810059,9.879822731018066,12.272520065307617
1790163378460608500,9.6286083984375,1.9826297760009766,11.226588249206543,8.491235733032227
1790163378470608600,9.638608642578125,0.2989931106567383,8.305008888244629,4.267564296722412
1790163378480608500,9.6486083984375,-1.5106244087219238,4.2087931632995605,2.913823366165161
1790163378490608600,9.658608642578125,-3.9632925987243652,2.3841123580932617,0.24342727661132812
1790163378500608500,9.6686083984375,-1.8537330627441406,2.812404155731201,-0.24155759811401367
1790163378510608600,9.678608642578125,-2.991029739379883,1.9953515529632568,0.027312755584716797
1790163378520608500,9.6886083984375,-1.6956071853637695,0.5768983364105225,-0.8672523498535156
1790163378530608600,9.698608642578124,2.1506686210632324,-2.6653027534484863,1.6379032135009766
1790163378540608500,9.7086083984375,5.130141735076904,-3.951413154602051,0.09521293640136719
1790163378550608600,9.718608642578126,3.3311357498168945,-3.5990614891052246,1.927401065826416
1790163378560608500,9.7286083984375,1.9160561561584473,-3.297809600830078,2.4632821083068848
1790163378570608600,9.738608642578125,0.4437255859375,-3.004612445831299,2.031230926513672
1790163378580608500,9.7486083984375,-1.0977821350097656,-2.9069595336914062,1.2127885818481445
1790163378590608600,9.758608642578125,-1.5626282691955566,-2.0767860412597656,-1.3275885581970215
1790163378600608500,9.7686083984375,-0.28621339797973633,-1.1429316997528076,-4.338300704956055
1790163378610608600,9.778608642578124,1.456277847290039,-1.2325818538665771,-2.817384719848633
1790163378620608500,9.7886083984375,0.026900768280029297,0.18571734428405762,-4.122734069824219
1790163378630608600,9.798608642578126,-0.8080506324768066,2.687041759490967,-6.451410293579102
1790163378640608500,9.8086083984375,-4.415008544921875,1.76654052734375,-7.1838274002075195
1790163378650608600,9.818608642578125,-5.663564205169678,-0.3976626396179199,-5.297808647155762
1790163378660608500,9.8286083984375,-3.596191883087158,-1.1204824447631836,-3.754887580871582
1790163378670608600,9.838608642578125,-1.5362462997436523,-1.4877839088439941,-3.676590919494629
1790163378680608500,9.8486083984375,0.8240103721618652,-1.422516107559204,-5.896237373352051
1790163378690608600,9.858608642578124,3.3659424781799316,-1.2382173538208008,-7.9778594970703125
1790163378700608500,9.8686083984375,4.783879280090332,-1.0935568809509277,-8.430924415588379
1790163378710608600,9.878608642578126,4.384384632110596,-2.115908145904541,-5.5279059410095215
1790163378720608500,9.8886083984375,1.9985318183898926,-3.140744686126709,-4.423763275146484
1790163378730608600,9.898608642578125,0.6008763313293457,-4.520793914794922,-2.013195514678955
1790163378740608500,9.9086083984375,-0.14631032943725586,-5.475721836090088,-2.427554130554199
1790163378750608600,9.918608642578125,0.21970033645629883,-5.936470985412598,-3.781482219696045
1790163378760608500,9.9286083984375,2.2466583251953125,-7.233834743499756,-3.1336565017700195
1790163378770608600,9.938608642578124,3.6367244720458984,-8.248018264770508,0.21155595779418945
1790163378780608500,9.9486083984375,3.8122169971466064,-6.678639888763428,11.777880668640137
1790163378790608600,9.958608642578126,6.17207145690918,-3.528445243835449,16.81380844116211
1790163378800608500,9.9686083984375,7.76513147354126,-1.6275081634521484,10.649314880371094
1790163378810608600,9.978608642578125,2.5838327407836914,-1.152176856994629,1.8913497924804688
1790163378820608500,9.9886083984375,-1.9281835556030273,-0.5712394714355469,3.145440101623535
1790163378830608600,9.998608642578125,-1.672278881072998,-1.1331579685211182,5.9077277183532715
1790163378840608500,10.0086083984375,-3.851217269897461,-1.5615425109863281,10.102682113647461
1790163378850608600,10.018608642578124,-5.636560916900635,0.11330127716064453,10.05147647857666
1790163378860608500,10.0286083984375,-5.411384582519531,2.90189790725708,8.78442668914795
1790163378870608600,10.038608642578126,-5.77788782119751,8.199817657470703,4.826888561248779
1790163378880608500,10.0486083984375,-3.695594310760498,10.385310173034668,-0.9846482276916504
1790163378890608600,10.058608642578125,-2.433643341064453,7.380382061004639,-0.5385546684265137
1790163378900608500,10.0686083984375,-1.0836782455444336,3.304581642150879,0.5712943077087402
1790163378910608600,10.078608642578125,-0.5067667961120605,0.25576019287109375,2.050004482269287
1790163378920608500,10.0886083984375,0.31167125701904297,-2.1232335567474365,4.3256049156188965
1790163378930608600,10.098608642578125,1.7532591819763184,-2.7566261291503906,7.364062786102295
1790163378940608500,10.1086083984375,2.919318675994873,0.557194709777832,8.173163414001465
1790163378950608600,10.118608642578126,2.604801654815674,2.0521199703216553,5.471219539642334
1790163378960608500,10.1286083984375,1.5828580856323242,0.8371200561523438,3.415374279022217
1790163378970608600,10.138608642578125,0.24956750869750977,-1.6360907554626465,1.6796631813049316
1790163378980608500,10.1486083984375,-2.81103515625,0.36438965797424316,-6.808079719543457
1790163378990608600,10.158608642578125,-2.8981881141662598,-1.6548676490783691,-13.988248825073242
1790163379000608500,10.1686083984375,-1.296130657196045,-5.972601890563965,-15.02359390258789
1790163379010608600,10.178608642578125,2.457491397857666,-3.1038429737091064,-11.363180160522461
1790163379020608500,10.1886083984375,5.418450832366943,-0.23404455184936523,-6.991757392883301
1790163379030608600,10.198608642578124,3.365588665008545,-0.03150749206542969,-4.503778457641602
1790163379040608500,10.2086083984375,0.7447423934936523,-0.4937171936035156,-4.265097141265869
1790163379050608600,10.218608642578126,-0.3835000991821289,-0.28381776809692383,-4.793300628662109
1790163379060608500,10.2286083984375,-1.0720996856689453,-0.26305437088012695,-4.410475254058838
1790163379070608600,10.238608642578125,-1.140639305114746,-0.4552593231201172,-2.341071605682373
1790163379080608500,10.2486083984375,0.05140829086303711,0.2777292728424072,-2.344010353088379
1790163379090608600,10.258608642578125,1.4020204544067383,0.5230929851531982,-1.3317632675170898
1790163379100608500,10.2686083984375,-0.5857853889465332,0.5903530120849609,2.1971445083618164
1790163379110608600,10.278608642578124,-1.7448549270629883,0.07397770881652832,5.116847038269043
1790163379120608500,10.2886083984375,-1.2516984939575195,-0.622342586517334,5.5057854652404785
1790163379130608600,10.298608642578126,-1.3639020919799805,-1.126784324645996,5.52517032623291
1790163379140608500,10.3086083984375,-2.0529727935791016,-1.3330130577087402,4.535938739776611
1790163379150608600,10.318608642578125,-2.4156579971313477,-1.2336950302124023,2.614291191101074
1790163379160608500,10.3286083984375,-1.6491622924804688,-1.1030890941619873,0.538881778717041
1790163379170608600,10.338608642578125,0.17444419860839844,-0.848926305770874,0.29381656646728516
1790163379180608500,10.3486083984375,0.9972519874572754,-0.4305591583251953,0.9038600921630859
1790163379190608600,10.358608642578124,1.5195646286010742,-0.5683164596557617,-0.13428401947021484
1790163379200608500,10.3686083984375,0.820838451385498,-0.8132121562957764,-1.8269352912902832
1790163379210608600,10.378608642578126,-0.9315853118896484,-0.7598090171813965,-3.7176222801208496
1790163379220608500,10.3886083984375,-2.4625000953674316,-0.14962339401245117,-5.27888298034668
1790163379230608600,10.398608642578125,-2.1876325607299805,0.747920036315918,-5.019720554351807
1790163379240608500,10.4086083984375,-0.12639713287353516,2.1641550064086914,-4.64265775680542
1790163379250608600,10.418608642578125,3.346862316131592,1.0206503868103027,-4.937227725982666
1790163379260608500,10.4286083984375,5.331030368804932,0.42780542373657227,-6.07822847366333
1790163379270608600,10.438608642578124,3.652493476867676,1.3532752990722656,-7.220424175262451
1790163379280608500,10.4486083984375,0.9067788124084473,3.574127197265625,-5.548393249511719
1790163379290608600,10.458608642578126,1.009831428527832,4.015308380126953,1.673603892326355
1790163379300608500,10.4686083984375,0.8557486534118652,0.9806838035583496,5.7272186279296875
1790163379310608600,10.478608642578125,2.73073148727417,-1.5520820617675781,6.849757194519043
1790163379320608500,10.4886083984375,3.99253511428833,-2.626319408416748,5.802440643310547
1790163379330608600,10.498608642578125,4.873479843139648,-2.84544038772583,4.575235366821289
1790163379340608500,10.5086083984375,4.772127628326416,-2.139996290206909,4.546701431274414
1790163379350608600,10.518608642578124,4.00659704208374,-1.3040084838867188,4.287872314453125
1790163379360608500,10.5286083984375,3.311166763305664,-0.5101876258850098,4.162607669830322
1790163379370608600,10.538608642578126,2.217862129211426,-0.1772618293762207,4.989605903625488
1790163379380608500,10.5486083984375,-1.2889652252197266,-0.1677718162536621,6.360553741455078
1790163379390608600,10.558608642578125,-6.029299736022949,-0.7266812324523926,5.991918563842773
1790163379400608500,10.5686083984375,-7.956121921539307,-1.677802562713623,4.027348518371582
1790163379410608600,10.578608642578125,-5.301243305206299,-1.442072868347168,0.9860138893127441
1790163379420608500,10.5886083984375,-0.8517465591430664,-0.8149261474609375,-1.3059566020965576
1790163379430608600,10.598608642578125,1.3147177696228027,-0.27487945556640625,-1.928177833557129
1790163379440608500,10.6086083984375,1.0319256782531738,0.2444782257080078,-1.876279354095459
1790163379450608600,10.618608642578126,0.21253442764282227,0.383821964263916,-1.8464360237121582
1790163379460608500,10.6286083984375,-0.11437273025512695,0.7740516662597656,-2.1729888916015625
1790163379470608600,10.638608642578125,0.784876823425293,0.9762415885925293,-2.5227365493774414
1790163379480608500,10.6486083984375,1.515885829925537,0.7982196807861328,-1.1901936531066895
1790163379490608600,10.658608642578125,0.946932315826416,0.3732728958129883,-0.7411985397338867
1790163379500608500,10.6686083984375,-0.3479437828063965,0.03352928161621094,-1.5127182006835938
1790163379510608600,10.678608642578125,-1.360133171081543,-0.36839818954467773,-1.7788424491882324
1790163379520608500,10.6886083984375,-0.7572622299194336,-0.7979774475097656,-2.2033462524414062
1790163379530608600,10.698608642578124,-0.22053050994873047,-0.8868832588195801,-2.4152984619140625
1790163379540608500,10.7086083984375,0.33667564392089844,-0.3657517433166504,-1.648118495941162
1790163379550608600,10.718608642578126,0.5577178001403809,0.31226444244384766,-0.8380832672119141
1790163379560608500,10.7286083984375,0.7448296546936035,0.7017836570739746,-0.46485233306884766
1790163379570608600,10.738608642578125,0.7311625480651855,0.5110268592834473,0.5555133819580078
1790163379580608500,10.7486083984375,1.4387702941894531,-0.06245899200439453,0.9348695278167725
1790163379590608600,10.758608642578125,2.8499221801757812,-0.4980034828186035,2.057988166809082
1790163379600608500,10.7686083984375,2.632139205932617,-0.7001423835754395,2.4043431282043457
1790163379610608600,10.778608642578124,-3.1679863929748535,-0.5063495635986328,1.6242222785949707
1790163379620608500,10.7886083984375,-1.2423324584960938,-0.4167928695678711,2.1787562370300293
1790163379630608600,10.798608642578126,-0.34255313873291016,-0.7474460601806641,3.076584815979004
1790163379640608500,10.8086083984375,-1.1651358604431152,-1.2014694213867188,2.5291638374328613
1790163379650608600,10.818608642578125,-0.6559405326843262,-1.4779820442199707,2.8298161029815674
1790163379660608500,10.8286083984375,-0.3734097480773926,-1.3690376281738281,2.478754997253418
1790163379670608600,10.838608642578125,-0.5806179046630859,-0.47810792922973633,2.2795538902282715
1790163379680608500,10.8486083984375,-0.7395358085632324,0.30263328552246094,1.830242395401001
1790163379690608600,10.858608642578124,-0.6999039649963379,0.5834364891052246,-0.1574239730834961
1790163379700608500,10.8686083984375,-0.5463433265686035,0.6989893913269043,-3.0670838356018066
1790163379710608600,10.878608642578126,0.5638294219970703,0.618563175201416,-4.30598783493042
1790163379720608500,10.8886083984375,1.788802146911621,0.11386251449584961,-3.9056687355041504
1790163379730608600,10.898608642578125,2.1147193908691406,-0.38133716583251953,-2.845390796661377
1790163379740608500,10.9086083984375,1.7745532989501953,-0.7152550220489502,-1.579587459564209
1790163379750608600,10.918608642578125,0.8908095359802246,-0.664330244064331,-0.6251797676086426
1790163379760608500,10.9286083984375,-0.35246753692626953,-0.12670564651489258,-0.6510534286499023
1790163379770608600,10.938608642578124,-1.0650715827941895,0.5294907093048096,-0.9728598594665527
1790163379780608500,10.9486083984375,-1.640352725982666,0.840850830078125,-1.4392929077148438
1790163379790608600,10.958608642578126,-1.072281837463379,0.8089675903320312,-0.9193224906921387
1790163379800608500,10.9686083984375,-1.1565790176391602,0.5572206974029541,-0.9370169639587402
1790163379810608600,10.978608642578125,-0.8077259063720703,0.1719961166381836,-1.4305057525634766
1790163379820608500,10.9886083984375,-0.764167308807373,-0.0820314884185791,-1.7849688529968262
1790163379830608600,10.998608642578125,0.05618143081665039,-0.04451465606689453,-0.21850252151489258
1790163379840608500,11.0086083984375,-0.5828719139099121,-0.11632847785949707,-0.2952275276184082
1790163379850608600,11.018608642578124,-0.3794975280761719,-0.009121894836425781,-0.20334815979003906
1790163379860608500,11.0286083984375,-0.17387962341308594,0.06576013565063477,-0.3622856140136719
1790163379870608600,11.038608642578126,-0.0654292106628418,0.023102521896362305,-0.5176267623901367
1790163379880608500,11.0486083984375,0.027473926544189453,-0.05336618423461914,-0.9210085868835449
1790163379890608600,11.058608642578125,-0.25724077224731445,-0.1714928150177002,-0.8879356384277344
1790163379900608500,11.0686083984375,-0.021658897399902344,-0.7574019432067871,-0.48926210403442383
1790163379910608600,11.078608642578125,0.5083088874816895,-2.431325912475586,0.5413875579833984
1790163379920608500,11.0886083984375,1.5410313606262207,-2.5126094818115234,2.8083243370056152
1790163379930608600,11.098608642578125,2.286705493927002,-2.0469298362731934,1.9794716835021973
1790163379940608500,11.1086083984375,17.751426696777344,2.986298084259033,-9.5863037109375
1790163379950608600,11.118608642578126,10.3738431930542,-1.3752577304840088,-13.434839248657227
1790163379960608500,11.1286083984375,-9.52309799194336,-1.6018390655517578,0.19353532791137695
1790163379970608600,11.138608642578125,-15.568939208984375,-0.020574569702148438,4.239409446716309
1790163379980608500,11.1486083984375,-9.403646469116211,1.2424206733703613,0.3657369613647461
1790163379990608600,11.158608642578125,-3.026613712310791,0.6606431007385254,-2.003040313720703
1790163380000608500,11.1686083984375,-0.6384282112121582,-0.008624553680419922,-1.448535442352295
1790163380010608600,11.178608642578125,0.47319507598876953,0.03663492202758789,0.9509091377258301
1790163380020608500,11.1886083984375,0.48381567001342773,-0.17061972618103027,3.2535653114318848
1790163380030608600,11.198608642578124,-0.15986061096191406,0.2944002151489258,5.056854248046875
1790163380040608500,11.2086083984375,0.6949787139892578,1.5354857444763184,4.297996520996094
1790163380050608600,11.218608642578126,-0.5667757987976074,2.379704475402832,5.587174892425537
1790163380060608500,11.2286083984375,-0.37505149841308594,2.006157875061035,6.82170295715332
1790163380070608600,11.238608642578125,-0.5269985198974609,0.16005992889404297,7.4026570320129395
1790163380080608500,11.2486083984375,0.8185229301452637,-1.4254682064056396,5.67413854598999
1790163380090608600,11.258608642578125,4.530919551849365,-1.2841057777404785,3.423259735107422
1790163380100608500,11.2686083984375,5.196954250335693,0.1055898666381836,0.6481270790100098
1790163380110608600,11.278608642578124,2.4270009994506836,0.8634819984436035,-1.5546956062316895
1790163380120608500,11.2886083984375,-0.3816103935241699,1.3138699531555176,-2.907524585723877
1790163380130608600,11.298608642578126,-0.8691754341125488,1.8880009651184082,-3.0539984703063965
1790163380140608500,11.3086083984375,-0.34893131256103516,2.1465506553649902,-2.3045687675476074
1790163380150608600,11.318608642578125,1.023261547088623,2.0736947059631348,-1.2641844749450684
1790163380160608500,11.3286083984375,2.8115086555480957,1.3414325714111328,-1.0283408164978027
1790163380170608600,11.338608642578125,4.2397356033325195,0.08232975006103516,-1.1467924118041992
1790163380180608500,11.3486083984375,4.615747451782227,-0.8700046539306641,-0.9412250518798828
1790163380190608600,11.358608642578124,3.943390369415283,-1.7050480842590332,-0.9631595611572266
1790163380200608500,11.3686083984375,2.4692506790161133,-1.0165534019470215,0.2361469268798828
1790163380210608600,11.378608642578126,-0.3556656837463379,-0.7547311782836914,-0.06530141830444336
1790163380220608500,11.3886083984375,-1.4184942245483398,-1.2656264305114746,-0.576667308807373
1790163380230608600,11.398608642578125,-0.5182600021362305,-1.967024326324463,-1.4818549156188965
1790163380240608500,11.4086083984375,0.3890056610107422,-2.3077569007873535,-2.417447566986084
1790163380250608600,11.418608642578125,-0.18798160552978516,-2.292323112487793,-1.9557304382324219
1790163380260608500,11.4286083984375,-1.4222350120544434,-1.9315543174743652,-1.1736984252929688
1790163380270608600,11.438608642578124,-1.6544909477233887,-1.7851624488830566,-0.28281736373901367
1790163380280608500,11.4486083984375,-1.3386874198913574,-2.3752105236053467,-0.40432119369506836
1790163380290608600,11.458608642578126,-1.2312192916870117,-2.7642605304718018,-1.0335326194763184
1790163380300608500,11.4686083984375,-0.7677769660949707,-2.18092679977417,-0.686833381652832
1790163380310608600,11.478608642578125,-0.01342010498046875,-1.3820571899414062,0.7373390197753906
1790163380320608500,11.4886083984375,0.5283961296081543,-0.5142989158630371,2.2077889442443848
1790163380330608600,11.498608642578125,1.0991768836975098,0.2069106101989746,2.99381685256958
1790163380340608500,11.5086083984375,1.510322093963623,0.6398401260375977,3.0512337684631348
1790163380350608600,11.518608642578124,1.5254614353179932,0.8034052848815918,2.1009669303894043
1790163380360608500,11.5286083984375,1.1005020141601562,0.7524900436401367,1.0823001861572266
1790163380370608600,11.538608642578126,0.8589320182800293,0.8230905532836914,0.6782069206237793
1790163380380608500,11.5486083984375,0.6976752281188965,1.0211906433105469,0.5509076118469238
1790163380390608600,11.558608642578125,0.854130744934082,0.9032611846923828,1.116487979888916
1790163380400608500,11.5686083984375,1.3992643356323242,0.4553351402282715,1.6996822357177734
1790163380410608600,11.578608642578125,2.8740546703338623,0.2536149024963379,2.366940498352051
1790163380420608500,11.5886083984375,3.8327174186706543,-0.031649112701416016,2.562047243118286
1790163380430608600,11.598608642578125,2.2672581672668457,-0.45099973678588867,1.3870244026184082
1790163380440608500,11.6086083984375,-0.13985300064086914,-0.8695693016052246,0.7352800369262695
1790163380450608600,11.618608642578126,-0.5694470405578613,-0.9983944892883301,1.1887145042419434
1790163380460608500,11.6286083984375,0.3572812080383301,-0.7141752243041992,0.785590648651123
1790163380470608600,11.638608642578125,0.10090351104736328,-0.13055706024169922,-0.6053929328918457
1790163380480608500,11.6486083984375,-0.5097107887268066,0.44174861907958984,-1.3417587280273438
1790163380490608600,11.658608642578125,-0.9375214576721191,0.6082453727722168,-1.1666693687438965
1790163380500608500,11.6686083984375,-1.7585558891296387,0.37009286880493164,-0.5836086273193359
1790163380510608600,11.678608642578125,-2.616694450378418,0.1869368553161621,-0.21809625625610352
1790163380520608500,11.6886083984375,-2.9390649795532227,-0.009717464447021484,-0.26192665100097656
1790163380530608600,11.698608642578124,-2.8884453773498535,0.05591535568237305,0.11477971076965332
1790163380540608500,11.7086083984375,-2.291637420654297,0.35852909088134766,1.1175098419189453
1790163380550608600,11.718608642578126,-1.9558415412902832,0.9032177925109863,1.4601116180419922
1790163380560608500,11.7286083984375,-1.2825641632080078,1.39768648147583,0.8572163581848145
1790163380570608600,11.738608642578125,-0.6925101280212402,1.2109436988830566,-0.2240903377532959
1790163380580608500,11.7486083984375,-0.4537782669067383,0.9997568130493164,-1.0057270526885986
1790163380590608600,11.758608642578125,-0.3570694923400879,0.8140988349914551,-1.6444857120513916
1790163380600608500,11.7686083984375,-0.4244084358215332,0.6604719161987305,-2.0384387969970703
1790163380610608600,11.778608642578124,-0.1953105926513672,0.6116962432861328,-1.6820602416992188
1790163380620608500,11.7886083984375,0.05884552001953125,0.4483370780944824,-1.252556324005127
1790163380630608600,11.798608642578126,-0.05898427963256836,0.3673572540283203,-1.1868345737457275
1790163380640608500,11.8086083984375,-0.08063077926635742,0.23425579071044922,-1.557326316833496
1790163380650608600,11.818608642578125,-0.26088428497314453,0.17728614807128906,-1.9235939979553223
1790163380660608500,11.8286083984375,-0.6294326782226562,0.25246572494506836,-2.1591291427612305
1790163380670608600,11.838608642578125,-0.9993162155151367,0.2801666259765625,-2.158832311630249
1790163380680608500,11.8486083984375,-1.033216953277588,0.2582669258117676,-1.896533489227295
1790163380690608600,11.858608642578124,-0.9602384567260742,0.1366138458251953,-1.3610410690307617
1790163380700608500,11.8686083984375,-0.6245326995849609,0.1732649803161621,-0.7490479946136475
1790163380710608600,11.878608642578126,-0.3059573173522949,0.28147411346435547,-0.7567217350006104
1790163380720608500,11.8886083984375,-0.2266397476196289,0.4814882278442383,-1.316058874130249
1790163380730608600,11.898608642578125,-0.25199460983276367,0.6557431221008301,-1.9818520545959473
1790163380740608500,11.9086083984375,-0.3097705841064453,0.6399259567260742,-2.1926000118255615
1790163380750608600,11.918608642578125,-0.577824592590332,0.6521263122558594,-2.1440885066986084
1790163380760608500,11.9286083984375,-0.7395858764648438,0.6146001815795898,-1.9576950073242188
1790163380770608600,11.938608642578124,-0.6650948524475098,0.420989990234375,-1.672170639038086
1790163380780608500,11.9486083984375,-0.39673662185668945,0.3362746238708496,-1.2911036014556885
1790163380790608600,11.958608642578126,-0.32001733779907227,0.3116722106933594,-0.8455536365509033
1790163380800608500,11.9686083984375,-0.33725786209106445,0.42112207412719727,-0.773714542388916
1790163380810608600,11.978608642578125,-0.3705759048461914,0.6936407089233398,-1.0973567962646484
1790163380820608500,11.9886083984375,-0.2811579704284668,0.9023451805114746,-1.4262287616729736
1790163380830608600,11.998608642578125,-0.11959171295166016,1.0973882675170898,-1.7907519340515137
1790163380840608500,12.0086083984375,0.06382894515991211,1.2091937065124512,-2.0542588233947754
1790163380850608600,12.018608642578124,-0.03754901885986328,1.3663063049316406,-2.078080177307129
1790163380860608500,12.0286083984375,-0.29320526123046875,1.4872965812683105,-1.9316861629486084
1790163380870608600,12.038608642578126,-0.6775155067443848,1.563873291015625,-1.5690886974334717
1790163380880608500,12.0486083984375,-0.9610428810119629,1.5573325157165527,-1.3205642700195312
1790163380890608600,12.058608642578125,-1.040776252746582,1.4904041290283203,-1.2670948505401611
1790163380900608500,12.0686083984375,-0.9929618835449219,1.3775386810302734,-1.0289340019226074
1790163380910608600,12.078608642578125,-0.568814754486084,1.5413060188293457,-1.0354642868041992
1790163380920608500,12.0886083984375,-0.3505072593688965,1.8290605545043945,-0.7580270767211914
1790163380930608600,12.098608642578125,-0.5386533737182617,1.9050612449645996,0.0490260124206543
1790163380940608500,12.1086083984375,-0.7149720191955566,2.0424766540527344,0.3488607406616211
1790163380950608600,12.118608642578126,-0.7856864929199219,1.9575214385986328,0.4648275375366211
1790163380960608500,12.1286083984375,-0.44313907623291016,1.7427387237548828,0.030409812927246094
1790163380970608600,12.138608642578125,0.07599258422851562,1.8250336647033691,0.43521738052368164
1790163380980608500,12.1486083984375,0.06786346435546875,1.9020299911499023,0.26938629150390625
1790163380990608600,12.158608642578125,0.05137443542480469,1.9156336784362793,-0.1760883331298828
1790163381000608500,12.1686083984375,0.3256244659423828,1.715780258178711,-0.09351015090942383
1790163381010608600,12.178608642578125,0.5731596946716309,1.3523564338684082,0.666135311126709
1790163381020608500,12.1886083984375,0.6511096954345703,0.9811925888061523,1.329683780670166
1790163381030608600,12.198608642578124,0.5092811584472656,0.6866559982299805,1.7230033874511719
1790163381040608500,12.2086083984375,0.6067295074462891,0.4929938316345215,1.791111946105957
1790163381050608600,12.218608642578126,0.5417389869689941,0.4999864101409912,1.591756820678711
1790163381060608500,12.2286083984375,0.5783491134643555,0.435335636138916,1.6303601264953613
1790163381070608600,12.238608642578125,1.166032314300537,0.2402958869934082,1.585646629333496
1790163381080608500,12.2486083984375,1.7774147987365723,0.3362009525299072,0.9550199508666992
1790163381090608600,12.258608642578125,1.8396759033203125,0.10386800765991211,1.4283208847045898
1790163381100608500,12.2686083984375,1.688723087310791,0.17527127265930176,1.675459384918213
1790163381110608600,12.278608642578124,1.156684398651123,0.367384672164917,2.120631456375122
1790163381120608500,12.2886083984375,0.9254069328308105,0.6470272541046143,1.7123541831970215
1790163381130608600,12.298608642578126,0.7728919982910156,0.01970696449279785,1.9383165836334229
1790163381140608500,12.3086083984375,0.7624468803405762,-0.2290515899658203,1.3228063583374023
1790163381150608600,12.318608642578125,0.583031177520752,-0.17180228233337402,0.7321958541870117
1790163381160608500,12.3286083984375,0.7569694519042969,-0.31284570693969727,0.5545568466186523
1790163381170608600,12.338608642578125,1.163454532623291,-0.22212505340576172,0.463925838470459
1790163381180608500,12.3486083984375,1.110002040863037,-0.8980891704559326,1.133124828338623
1790163381190608600,12.358608642578124,0.9848132133483887,-1.0940766334533691,1.2677597999572754
1790163381200608500,12.3686083984375,0.40911388397216797,-0.7635449171066284,0.6640105247497559
1790163381210608600,12.378608642578126,0.230926513671875,-0.7266026735305786,0.6091351509094238
1790163381220608500,12.3886083984375,0.3939218521118164,-0.7778117656707764,1.056107997894287
1790163381230608600,12.398608642578125,0.6264300346374512,-0.3418009281158447,0.49469566345214844
1790163381240608500,12.4086083984375,0.843773365020752,-0.6668890714645386,1.3021302223205566
1790163381250608600,12.418608642578125,0.8053488731384277,-0.7930738925933838,1.6134390830993652
1790163381260608500,12.4286083984375,0.6852116584777832,-0.9452781081199646,1.9500436782836914
1790163381270608600,12.438608642578124,0.6740589141845703,-1.048604130744934,2.0769405364990234
1790163381280608500,12.4486083984375,0.6193370819091797,-1.172247052192688,2.6266255378723145
1790163381290608600,12.458608642578126,0.4073028564453125,-1.208764910697937,3.0277342796325684
1790163381300608500,12.4686083984375,0.3559694290161133,-1.2159240245819092,2.641754627227783
1790163381310608600,12.478608642578125,0.47335100173950195,-1.212032675743103,2.428406238555908
1790163381320608500,12.4886083984375,0.48047733306884766,-1.0110094547271729,2.050325632095337
1790163381330608600,12.498608642578125,0.629274845123291,-0.7212096452713013,1.5514001846313477
1790163381340608500,12.5086083984375,0.7145423889160156,-0.4701266288757324,0.9419527053833008
1790163381350608600,12.518608642578124,0.4916524887084961,-0.29281049966812134,0.5861172676086426
1790163381360608500,12.5286083984375,0.3073863983154297,-0.3209395408630371,0.3823838233947754
1790163381370608600,12.538608642578126,0.15557432174682617,-0.532376229763031,0.4463324546813965
1790163381380608500,12.5486083984375,0.1870126724243164,-0.6226946115493774,0.7396388053894043
1790163381390608600,12.558608642578125,0.3580636978149414,-0.6177417039871216,0.9552760124206543
1790163381400608500,12.5686083984375,0.553001880645752,-0.6439902782440186,1.057755470275879
1790163381410608600,12.578608642578125,0.6876544952392578,-0.5694187879562378,1.081934928894043
1790163381420608500,12.5886083984375,0.758580207824707,-0.4551945924758911,1.149869441986084
1790163381430608600,12.598608642578125,0.633455753326416,-0.3505542278289795,1.2370219230651855
1790163381440608500,12.6086083984375,0.389432430267334,-0.4236396551132202,1.1850895881652832
1790163381450608600,12.618608642578126,0.43999671936035156,-0.39881277084350586,1.1246023178100586
1790163381460608500,12.6286083984375,0.4400796890258789,-0.20824193954467773,0.7912144660949707
1790163381470608600,12.638608642578125,0.38627147674560547,-0.0024576187133789062,0.28124046325683594
1790163381480608500,12.6486083984375,0.43885135650634766,0.18840599060058594,-0.1274428367614746
1790163381490608600,12.658608642578125,0.543612003326416,0.24422001838684082,-0.41056156158447266
1790163381500608500,12.6686083984375,0.5802359580993652,0.2817831039428711,-0.6103677749633789
1790163381510608600,12.678608642578125,0.3914508819580078,0.21807312965393066,-0.6102838516235352
1790163381520608500,12.6886083984375,0.5180072784423828,0.19463324546813965,0.22362041473388672
1790163381530608600,12.698608642578124,0.7451753616333008,0.4482097625732422,1.3639426231384277
1790163381540608500,12.7086083984375,0.7121992111206055,0.6071639060974121,1.8145599365234375
1790163381550608600,12.718608642578126,0.5412278175354004,0.6605756282806396,1.6224985122680664
1790163381560608500,12.7286083984375,0.34719324111938477,0.6461906433105469,1.202667236328125
1790163381570608600,12.738608642578125,0.020799636840820312,0.5648486614227295,0.6846275329589844
