time,seconds_elapsed,z,y,x
1790163368897117700,0.06511767578125,0.06750056147575378,-0.06291907280683517,-0.09239330142736435
1790163368914372400,0.082372314453125,0.06933315098285675,0.01649334840476513,-0.11988221108913422
1790163368931626800,0.099626708984375,0.03390299528837204,0.10690133273601532,-0.09361502528190613
1790163368948881400,0.11688134765625,0.013133592903614044,0.1594357043504715,-0.03741546720266342
1790163368966135800,0.1341357421875,-0.006414080038666725,0.06047561392188072,-0.06123919412493706
1790163368983390500,0.151390380859375,0.0021380267571657896,-0.21197007596492767,-0.21029019355773926
1790163369000644900,0.168644775390625,-0.02718348242342472,-0.38179048895835876,-0.3972148299217224
1790163369017899500,0.1858994140625,-0.07849612087011337,-0.9309579133987427,-0.6507236957550049
1790163369035154200,0.203154296875,-0.19272783398628235,-1.6316198110580444,-0.8431460857391357
1790163369052408600,0.22040869140625,-0.1805105358362198,-0.9498947262763977,-0.5212203860282898
1790163369069663200,0.237663330078125,-0.015577051788568497,-0.19242240488529205,0.15745039284229279
1790163369086917600,0.254917724609375,0.08093958348035812,0.4043924808502197,0.7750346660614014
1790163369104172300,0.27217236328125,-0.04245510324835777,0.8552106618881226,0.8733839392662048
1790163369121427000,0.289427001953125,-0.15485422313213348,1.5149446725845337,0.4072940945625305
1790163369138681300,0.306681396484375,0.006414080038666725,2.543030023574829,-0.16447533667087555
1790163369155936000,0.32393603515625,0.4877755343914032,3.358534574508667,-0.7087558507919312
1790163369173190400,0.3411904296875,0.4376846253871918,2.283412456512451,-1.042288064956665
1790163369190445000,0.358445068359375,0.3552178740501404,1.212566614151001,-1.2841905355453491
1790163369207699500,0.375699462890625,0.23793183267116547,1.656665325164795,-1.5242602825164795
1790163369224954000,0.3929541015625,0.45539969205856323,2.033568859100342,-1.6158900260925293
1790163369242208800,0.410208740234375,0.9685261249542236,2.5546364784240723,-1.1931716203689575
1790163369259463200,0.427463134765625,-0.49144071340560913,3.44283390045166,-0.23655737936496735
1790163369276717800,0.4447177734375,-0.795040488243103,2.27119517326355,-0.1773035079240799
1790163369293972200,0.46197216796875,-0.10231985151767731,0.6401863098144531,-0.41004297137260437
1790163369311227000,0.479226806640625,-0.04001164436340332,-0.842382550239563,-0.22495095431804657
1790163369328481500,0.4964814453125,0.1328630894422531,-1.7073670625686646,0.2643517255783081
1790163369345736000,0.51373583984375,-0.05833758786320686,-1.8319834470748901,0.4396699368953705
1790163369362990600,0.530990478515625,-0.5244274139404297,-1.9468261003494263,0.30711227655410767
1790163369380245000,0.548244873046875,-0.6887500286102295,-2.604116439819336,0.11591159552335739
1790163369397499600,0.565499755859375,-0.5158752799034119,-3.521024703979492,0.1415679156780243
1790163369414754000,0.582754150390625,-0.2110537886619568,-4.097681045532227,0.38530296087265015
1790163369432008700,0.6000087890625,-0.19089524447917938,-2.6700899600982666,0.16478078067302704
1790163369449263400,0.617263427734375,-0.17256930470466614,-1.0323615074157715,0.26740604639053345
1790163369466517800,0.634517822265625,0.1127045527100563,-0.9541707634925842,0.07742711156606674
1790163369483772400,0.6517724609375,0.282524973154068,-0.7281508445739746,-0.30375251173973083
1790163369501027000,0.669027099609375,0.28496840596199036,-0.637742817401886,-0.49800750613212585
1790163369518281500,0.686281494140625,0.4053087830543518,-0.8857539296150208,-0.490066260099411
1790163369535536000,0.7035361328125,0.41386088728904724,-1.0067051649093628,-0.37033677101135254
1790163369552790500,0.72079052734375,0.27519458532333374,-1.4398082494735718,-0.11866047978401184
1790163369570045200,0.738045166015625,0.10720676928758621,-2.2449281215667725,0.2124282270669937
1790163369587299600,0.755299560546875,-0.08521563559770584,-2.7647740840911865,0.4066832363605499
1790163369604554200,0.77255419921875,-0.08765909820795059,-2.6285512447357178,0.4488328993320465
1790163369621809000,0.789808837890625,0.010690134018659592,-2.9321508407592773,0.5111411213874817
1790163369639063300,0.807063232421875,-0.13225223124027252,-3.872882604598999,0.6876810193061829
1790163369656318000,0.82431787109375,-0.07849612087011337,-5.1703596115112305,0.8226821422576904
1790163369673572600,0.841572509765625,0.35094180703163147,-6.792816162109375,0.5551233887672424
1790163369690827000,0.858826904296875,0.5879573225975037,-7.9064226150512695,0.0743727833032608
1790163369708081700,0.87608154296875,0.14019346237182617,-7.2436347007751465,-0.2646571695804596
1790163369725336300,0.89333642578125,-0.8103121519088745,-5.344455718994141,-0.35017824172973633
1790163369742590700,0.9105908203125,-1.046105980873108,-4.885085582733154,-0.33368489146232605
1790163369759845400,0.927845458984375,-0.8634573817253113,-5.904007911682129,-0.1614210158586502
1790163369777100000,0.94510009765625,-0.9080504775047302,-6.7463908195495605,0.38408124446868896
1790163369794354400,0.9623544921875,-0.8720094561576843,-7.661466121673584,1.1323906183242798
1790163369811609000,0.979609130859375,-0.3075704276561737,-8.740253448486328,1.800676703453064
1790163369828863700,0.99686376953125,0.38698282837867737,-8.984599113464355,2.321744203567505
1790163369846118100,1.0141181640625,0.8891136646270752,-8.128777503967285,2.8880159854888916
1790163369863372800,1.031372802734375,0.8078686594963074,-6.456840515136719,3.548360824584961
1790163369880627200,1.048627197265625,0.5494728684425354,-4.780016899108887,3.816530466079712
1790163369897881900,1.0658818359375,0.4926624298095703,-3.7898051738739014,3.6314384937286377
1790163369915136500,1.083136474609375,0.33200499415397644,-3.166112184524536,3.28019118309021
1790163369932391000,1.100390869140625,0.25992295145988464,-2.5833470821380615,2.8409793376922607
1790163369949645600,1.1176455078125,-0.028405211865901947,-2.1704025268554688,2.3492331504821777
1790163369966900200,1.134900146484375,-0.4883863925933838,-1.8796309232711792,1.87459135055542
1790163369984154600,1.152154541015625,-0.9410371780395508,-2.3066253662109375,1.3523019552230835
1790163370001409300,1.1694091796875,-1.3472622632980347,-2.66275954246521,0.7408262491226196
1790163370018664000,1.186663818359375,-1.2336413860321045,-1.916893720626831,0.22220206260681152
1790163370035918300,1.20391845703125,0.2098320573568344,-0.2419024556875229,-0.5480984449386597
1790163370053173000,1.221173095703125,0.5910117030143738,-0.23335035145282745,-0.6757691502571106
1790163370070427600,1.238427734375,0.022907428443431854,0.10201441496610641,-0.39965829253196716
1790163370087682000,1.25568212890625,-0.36682429909706116,0.861319363117218,-0.03558287397027016
1790163370104936700,1.272936767578125,-0.323452889919281,2.579681873321533,0.0902552679181099
1790163370122191400,1.29019140625,-0.32162031531333923,4.657844066619873,-0.16386447846889496
1790163370139445800,1.30744580078125,-0.7254019379615784,7.118407249450684,-0.045967575162649155
1790163370156700400,1.324700439453125,-0.8610138893127441,8.94855785369873,-0.551152765750885
1790163370173955000,1.341955078125,-0.5531380772590637,11.188599586486816,-1.011744737625122
1790163370191209500,1.35920947265625,0.3845393657684326,12.90268611907959,-0.9127846956253052
1790163370208464100,1.376464111328125,1.4840959310531616,14.42862606048584,-1.106428861618042
1790163370225718800,1.39371875,2.0497567653656006,15.348587989807129,-1.3122903108596802
1790163370242973200,1.41097314453125,1.7858631610870361,14.953969955444336,-1.486386775970459
1790163370260227800,1.428227783203125,0.9844086170196533,12.617411613464355,-1.113759160041809
1790163370277482500,1.445482421875,0.6948586702346802,10.23137378692627,-0.5963567495346069
1790163370294737000,1.46273681640625,0.795040488243103,7.622981548309326,-0.3507890999317169
1790163370311991600,1.479991455078125,0.6979129910469055,4.512458324432373,-0.35017824172973633
1790163370329246200,1.49724609375,0.281914085149765,2.006079912185669,-0.1510363221168518
1790163370346500600,1.51450048828125,-0.09315688163042068,0.7709113359451294,0.11652245372533798
1790163370363755300,1.53175537109375,-0.028405211865901947,0.41844236850738525,0.26190826296806335
1790163370381010000,1.549010009765625,0.2159406989812851,0.3384190797805786,0.3529271185398102
1790163370398264300,1.566264404296875,0.1591302752494812,0.21258094906806946,0.20693044364452362
1790163370415519000,1.58351904296875,-0.2971857190132141,0.23457208275794983,0.09208786487579346
1790163370432773600,1.600773681640625,-0.45417797565460205,-0.16676609218120575,0.1104138121008873
1790163370450028000,1.618028076171875,-0.374765545129776,-0.5668824911117554,0.4237874448299408
1790163370467282700,1.63528271484375,-0.3753764033317566,-0.80389803647995,0.6980656981468201
1790163370484537300,1.652537353515625,-0.5158752799034119,-0.646905779838562,0.6528617143630981
1790163370501791700,1.669791748046875,-0.7174606919288635,-0.6872228980064392,0.5722275972366333
1790163370519046400,1.68704638671875,-0.8335250020027161,-0.7104357481002808,0.5563451051712036
1790163370536301000,1.704301025390625,-0.9306524991989136,-0.7147117853164673,0.6314814686775208
1790163370553555500,1.721555419921875,-1.691789984703064,0.34697118401527405,0.9057597517967224
1790163370570810000,1.73881005859375,-2.055865526199341,0.9407317638397217,1.195920467376709
1790163370588064800,1.756064697265625,-1.870773434638977,0.8582650423049927,1.7402009963989258
1790163370605319200,1.773319091796875,-1.0564906597137451,0.04581485688686371,1.6821688413619995
1790163370622573800,1.79057373046875,-0.12247838824987411,-1.6768238544464111,0.42073312401771545
1790163370639828500,1.807828369140625,-0.3075704276561737,-0.45448338985443115,-0.0948367565870285
1790163370657169200,1.825169189453125,-0.3026835024356842,0.6737838387489319,-0.7429642677307129
1790163370674774300,1.842774169921875,-0.05222893878817558,1.3817760944366455,-1.3434443473815918
1790163370692373000,1.860373046875,-0.015577051788568497,1.2693769931793213,-1.3984222412109375
1790163370709973000,1.877972900390625,-0.026572618633508682,0.8674280047416687,-1.0190751552581787
1790163370727573000,1.895572998046875,-0.1744018942117691,0.5540543794631958,-0.7441860437393188
1790163370745173000,1.913173095703125,-0.2886336147785187,0.3225366175174713,-0.4857902228832245
1790163370762686700,1.930686767578125,-0.29413139820098877,0.21685700118541718,-0.2890917658805847
1790163370780286700,1.94828662109375,-0.2611446976661682,0.6426297426223755,-0.4179842174053192
1790163370797886700,1.96588671875,-0.061391908675432205,1.580307126045227,-0.8700241446495056
1790163370815486700,1.98348681640625,0.008246674202382565,1.9022328853607178,-1.1699587106704712
1790163370833086700,2.001086669921875,0.07544180005788803,1.6084070205688477,-1.143080711364746
1790163370850686700,2.018686767578125,0.07788526266813278,0.952949047088623,-0.6537780165672302
1790163370868286700,2.03628662109375,-0.06566796451807022,0.30482152104377747,-0.12110394239425659
1790163370885800400,2.053800537109375,-0.14019346237182617,-0.023823726922273636,0.1055268943309784
1790163370903400400,2.071400390625,-0.07849612087011337,-0.09529490768909454,0.208152174949646
1790163370921000000,2.089,0.0412333719432354,-0.10690133273601532,0.25091269612312317
1790163370938599700,2.106599609375,0.06872228533029556,-0.10506874322891235,0.19593487679958344
1790163370956199200,2.12419921875,0.03023780696094036,-0.1692095398902893,0.0792597085237503
1790163370973798700,2.141798583984375,-0.024740023538470268,-0.277332603931427,0.008399390615522861
1790163370991398400,2.1593984375,-0.06261363625526428,-0.42882707715034485,0.01695149764418602
1790163371008998000,2.176997802734375,-0.08643736690282822,-0.7116574645042419,0.12140937149524689
1790163371026597400,2.194597412109375,-0.11514800786972046,-1.164919137954712,0.310166597366333
1790163371044197000,2.212197021484375,-0.16096286475658417,-1.6016874313354492,0.4451677203178406
1790163371061796600,2.229796630859375,-0.054672397673130035,-2.358548879623413,0.2906189262866974
1790163371079396000,2.24739599609375,0.12370011955499649,-3.2461354732513428,0.18005239963531494
1790163371096995600,2.26499560546875,0.10965022444725037,-3.9351909160614014,0.38957902789115906
1790163371114329000,2.2823291015625,0.019853105768561363,-4.714043617248535,0.734106719493866
1790163371131583700,2.299583740234375,-0.6087267398834229,-4.979158878326416,0.7866411209106445
1790163371148838400,2.31683837890625,-1.3295471668243408,-5.015199661254883,0.8147408962249756
1790163371166093000,2.334093017578125,-1.5299108028411865,-5.311469078063965,0.976620078086853
1790163371183347500,2.351347412109375,-1.0033453702926636,-6.628493785858154,1.1122320890426636
1790163371200602000,2.36860205078125,-0.2776380479335785,-8.682831764221191,1.1006256341934204
1790163371217856500,2.3858564453125,0.3906480371952057,-10.21549129486084,0.8819360136985779
1790163371235111200,2.403111083984375,0.7602212429046631,-9.770782470703125,0.3559814393520355
1790163371252365800,2.42036572265625,0.3631591200828552,-7.741489410400391,-0.22678354382514954
1790163371269620200,2.4376201171875,-0.13530655205249786,-6.498990535736084,-0.7014254927635193
1790163371286875000,2.454875,0.2868010103702545,-8.072578430175781,-0.6592758297920227
1790163371304129500,2.472129638671875,0.89705491065979,-10.397529602050781,-0.15347976982593536
1790163371321384200,2.48938427734375,0.6349939107894897,-10.746944427490234,0.44761115312576294
1790163371338638600,2.506638671875,-0.12675444781780243,-9.688315391540527,0.7286089658737183
1790163371355893200,2.523893310546875,-0.5794052481651306,-9.16969108581543,0.9747874736785889
1790163371373148000,2.54114794921875,-0.4529562294483185,-8.34196949005127,1.4054471254348755
1790163371390402300,2.55840234375,-0.1432477980852127,-7.459270000457764,1.6998839378356934
1790163371407657000,2.575656982421875,0.3491092324256897,-8.201470375061035,1.994931697845459
1790163371424911400,2.592911376953125,1.0473276376724243,-8.486743927001953,0.2838993966579437
1790163371442166000,2.610166015625,2.240957498550415,-4.072635650634766,-1.78937566280365
1790163371459420700,2.627420654296875,2.76385760307312,-1.5552617311477661,-1.6085597276687622
1790163371476675300,2.64467529296875,2.020435333251953,-1.0567960739135742,-0.5358811020851135
1790163371493929700,2.6619296875,0.8659008145332336,-1.4721840620040894,0.21731515228748322
1790163371511184400,2.679184326171875,0.15485422313213348,-1.7299690246582031,0.22159120440483093
1790163371528439000,2.69643896484375,0.12431098520755768,-1.490510106086731,-0.1363755613565445
1790163371545693400,2.713693359375,0.38820457458496094,-1.1606431007385254,-0.37949973344802856
1790163371562948000,2.730947998046875,0.49510589241981506,-1.110552191734314,-0.38927358388900757
1790163371580202800,2.74820263671875,0.37720900774002075,-1.0018181800842285,-0.2945895493030548
1790163371597457200,2.76545703125,0.19883649051189423,-0.7696896195411682,-0.1815795600414276
1790163371614711800,2.7827119140625,0.10842850059270859,-0.6340776681900024,-0.06062832847237587
1790163371631966500,2.799966552734375,0.129197895526886,-0.42882707715034485,0.03955349326133728
1790163371649221000,2.81722119140625,0.20250166952610016,-0.07513637095689774,0.12751802802085876
1790163371666475500,2.8344755859375,0.1792888194322586,-0.11972949653863907,0.23136503994464874
1790163371683730200,2.851730224609375,-0.06261363625526428,-0.2309068888425827,0.3559814393520355
1790163371700985000,2.868985107421875,-0.210442915558815,-0.235793799161911,0.4402807950973511
1790163371718239500,2.886239501953125,-0.15607595443725586,-0.050090912729501724,0.4085158109664917
1790163371735494000,2.903493896484375,-0.08521563559770584,0.1490510106086731,0.3614792227745056
1790163371752748300,2.920748291015625,-0.13469567894935608,0.20830489695072174,0.3040579557418823
1790163371770002700,2.938002685546875,-0.2367101013660431,0.18325942754745483,0.16050471365451813
1790163371787256800,2.9552568359375,-0.2513708472251892,0.07269290834665298,0.010842849500477314
1790163371804511500,2.972511474609375,-0.13713914155960083,-0.021380268037319183,-0.06551524996757507
1790163371821766000,2.989765869140625,0.01802051067352295,-0.01893680728971958,-0.036804601550102234
1790163371839020500,3.0070205078125,0.14019346237182617,0.004886918235570192,0.09941824525594711
1790163371856275200,3.024275146484375,0.189673513174057,-0.03481929376721382,0.23136503994464874
1790163371873529600,3.041529541015625,0.16584978997707367,-0.040317077189683914,0.2655734717845917
1790163371890784300,3.0587841796875,0.10537417232990265,0.05558869615197182,0.1672242283821106
1790163371908039000,3.076038818359375,0.032070402055978775,0.1288924664258957,0.025503603741526604
1790163371925293800,3.0932939453125,-0.018631376326084137,0.09040798991918564,-0.06979130208492279
1790163371942548500,3.110548583984375,-0.06261363625526428,-0.031154103577136993,-0.08017600327730179
1790163371959803100,3.12780322265625,-0.05222893878817558,-0.043371398001909256,-0.02519817277789116
1790163371977057800,3.145057861328125,0.010690134018659592,0.0054977829568088055,0.025503603741526604
1790163371994312200,3.162312255859375,0.004581485874950886,-0.04276053607463837,0.002901607658714056
1790163372011566800,3.17956689453125,-0.051618073135614395,-0.10567960888147354,-0.04108065739274025
1790163372028821500,3.196821533203125,-0.06811141967773438,-0.04764745384454727,-0.04841103404760361
1790163372046076000,3.214075927734375,-0.05528326332569122,0.13744457066059113,-0.045967575162649155
1790163372063330600,3.23133056640625,-0.04550942778587341,0.31520622968673706,-0.09239330142736435
1790163372080585200,3.248585205078125,-0.07422006875276566,0.38240134716033936,-0.24327689409255981
1790163372097839900,3.26583984375,-0.1957821547985077,0.5668824911117554,-0.29397866129875183
1790163372115094300,3.28309423828125,-0.5396990180015564,1.0091485977172852,-0.16997312009334564
1790163372132349000,3.300348876953125,-1.0063997507095337,2.483776092529297,-0.25060728192329407
1790163372149603600,3.317603515625,-1.6972877979278564,5.25893497467041,-0.550541877746582
1790163372166858000,3.33485791015625,-2.4639229774475098,7.864883899688721,-0.5560396909713745
1790163372184112600,3.352112548828125,-2.6001458168029785,10.644929885864258,-0.2909243404865265
1790163372201367300,3.3693671875,-2.302043914794922,10.908212661743164,-0.18463388085365295
1790163372218622000,3.3866220703125,-2.559828758239746,10.248477935791016,0.5490147471427917
1790163372235876400,3.40387646484375,-2.8200571537017822,10.013906478881836,0.6852375864982605
1790163372253131000,3.421131103515625,-2.4016149044036865,7.502030372619629,0.3272708058357239
1790163372270385700,3.4383857421875,-0.7425061464309692,6.063443660736084,-0.2994764447212219
1790163372287640000,3.45564013671875,0.8842267394065857,7.128180980682373,-0.892015278339386
1790163372304894700,3.472894775390625,1.8011348247528076,9.55820083618164,-1.3348922729492188
1790163372322149400,3.4901494140625,1.8451170921325684,11.773807525634766,-1.4430153369903564
1790163372339404000,3.507404052734375,0.8915571570396423,11.988832473754883,-2.114966630935669
1790163372356658400,3.524658447265625,0.7492256760597229,9.7347412109375,-2.6390886306762695
1790163372373913000,3.5419130859375,0.8701768517494202,7.051823139190674,-1.539531946182251
1790163372391167700,3.559167724609375,0.4407389461994171,4.4916887283325195,-0.4802924394607544
1790163372408422100,3.576422119140625,-0.04245510324835777,2.793484687805176,-0.039858926087617874
1790163372425676800,3.5936767578125,-0.3808741867542267,1.9932518005371094,-0.3575085997581482
1790163372442931500,3.610931396484375,-0.6698132157325745,1.5876375436782837,-0.19135339558124542
1790163372460186400,3.628186279296875,-0.20311254262924194,1.682321548461914,-0.2591593861579895
1790163372477441000,3.64544091796875,0.23854269087314606,2.1050400733947754,-0.41676250100135803
1790163372494696000,3.662696044921875,0.09987638890743256,2.539975643157959,-0.502894401550293
1790163372511950600,3.67995068359375,-0.8261946439743042,2.36893367767334,-0.35934120416641235
1790163372529205500,3.69720556640625,-2.7003278732299805,2.7617197036743164,0.20082180202007294
1790163372546460200,3.714460205078125,-2.78890323638916,0.9602794051170349,0.5624537467956543
1790163372563714800,3.73171484375,-1.581834316253662,0.01649334840476513,-0.01847865991294384
1790163372580969200,3.74896923828125,-0.7070759534835815,0.7898481488227844,-0.5829176902770996
1790163372598224000,3.766223876953125,-0.10415244847536087,1.4257583618164062,-0.8797979950904846
1790163372615478500,3.783478515625,0.032681263983249664,1.2877029180526733,-1.2328778505325317
1790163372632733000,3.80073291015625,0.12247838824987411,0.8527672290802002,-1.068555235862732
1790163372649987600,3.817987548828125,0.37171122431755066,0.32009315490722656,-0.5963567495346069
1790163372667242200,3.8352421875,0.3136790692806244,0.3078758418560028,-0.18402300775051117
1790163372684497000,3.852496826171875,-0.06505709886550903,0.1490510106086731,0.09392046183347702
1790163372701751300,3.869751220703125,-0.6710349321365356,0.18142683804035187,0.24785839021205902
1790163372719006000,3.887005859375,-1.3576469421386719,-0.19730933010578156,0.33337944746017456
1790163372736260600,3.904260498046875,-2.0491459369659424,-1.064737319946289,0.29367324709892273
1790163372753515300,3.921515380859375,-2.274554967880249,-2.000582218170166,0.2533561587333679
1790163372770770200,3.938770263671875,-1.7088942527770996,-2.556469202041626,0.2942841053009033
1790163372788025000,3.956025146484375,-0.9929606914520264,-2.1019856929779053,0.8104648590087891
1790163372805366000,3.973365966796875,-0.35643959045410156,0.12583814561367035,1.5612176656723022
1790163372822966000,3.990966064453125,0.20677772164344788,3.2223117351531982,1.9802708625793457
1790163372840565800,4.008565673828125,0.0974329337477684,4.088518142700195,2.0022621154785156
1790163372858165500,4.02616552734375,0.35582873225212097,1.5033382177352905,0.9509637355804443
1790163372875765200,4.04376513671875,0.1695149689912796,0.03909534588456154,0.09575305134057999
1790163372893365000,4.061364990234375,-0.09804379940032959,0.4111120104789734,0.15378521382808685
1790163372910964700,4.07896484375,-0.03329212963581085,0.962722897529602,0.3510945439338684
1790163372928564200,4.096564208984375,0.01740964688360691,1.0207550525665283,0.23625195026397705
1790163372946164000,4.1141640625,0.08338304609060287,0.9602794051170349,-0.15409064292907715
1790163372963763500,4.131763427734375,0.2764163017272949,0.7880155444145203,-0.35323256254196167
1790163372981363200,4.14936328125,0.3491092324256897,0.5968148708343506,-0.1974620372056961
1790163372998962700,4.166962646484375,0.17806708812713623,0.6181951761245728,0.040775224566459656
1790163373016348400,4.184348388671875,0.06872228533029556,0.627968966960907,0.187382772564888
1790163373033663000,4.2016630859375,0.09376774728298187,0.3035998046398163,0.19104796648025513
1790163373050977800,4.218977783203125,0.06566796451807022,0.13133592903614044,0.17088942229747772
1790163373068292400,4.236292236328125,0.18112140893936157,0.03909534588456154,0.1818849891424179
1790163373085607000,4.25360693359375,0.29962918162345886,0.09957095980644226,0.35537058115005493
1790163373102921500,4.27092138671875,0.17562362551689148,0.9401208758354187,0.4751000702381134
1790163373120176000,4.288176025390625,0.1285870373249054,1.7678426504135132,0.6308705806732178
1790163373137430500,4.305430419921875,0.16218459606170654,2.6480987071990967,0.6870701313018799
1790163373154685200,4.322685302734375,0.11148282140493393,2.7672173976898193,0.6296488642692566
1790163373171939800,4.33993994140625,0.23732095956802368,2.2229368686676025,0.5013672709465027
1790163373189194200,4.3571943359375,0.25809037685394287,2.0659446716308594,0.342542439699173
1790163373206449000,4.374448974609375,-0.057726722210645676,0.3585776388645172,-0.1931859850883484
1790163373223703600,4.39170361328125,-0.21899501979351044,-0.5045742988586426,-0.6574432253837585
1790163373240958200,4.408958251953125,-0.17256930470466614,-0.4471530318260193,-0.6763800382614136
1790163373258212600,4.426212646484375,0.03756818547844887,-0.2761108875274658,-0.31291547417640686
1790163373275467300,4.44346728515625,0.19394956529140472,-0.1844811588525772,0.004123337101191282
1790163373292722000,4.460721923828125,0.1487455666065216,-0.06841685622930527,0.09758564829826355
1790163373508405200,4.6764052734375,0.008857538923621178,0.031154103577136993,-0.07834340631961823
1790163373525660000,4.693659912109375,-0.016187917441129684,0.18081597983837128,-0.25060728192329407
1790163373542914600,4.71091455078125,0.0027488914784044027,0.03848448023200035,-0.16447533667087555
1790163373560169000,4.7281689453125,-0.01435532234609127,-0.1081230640411377,-0.0007635809597559273
1790163373577423600,4.745423583984375,0.008857538923621178,-0.049480047076940536,0.09269873052835464
1790163373594678300,4.76267822265625,0.0461202897131443,0.014049889519810677,0.0847574844956398
1790163373611933000,4.779932861328125,0.054672397673130035,0.06414080411195755,0.02611446939408779
1790163373629187600,4.7971875,0.06322450190782547,0.1386663019657135,0.012675444595515728
1790163373646442200,4.814442138671875,0.06383536756038666,0.18875721096992493,0.02367101050913334
1790163373663697200,4.831697265625,0.051618073135614395,0.14660754799842834,0.030390523374080658
1790163373680951600,4.84895166015625,0.03023780696094036,0.08063415437936783,-0.010537417605519295
1790163373698206200,4.866206298828125,0.025961752980947495,0.05497783049941063,-0.05635227635502815
1790163373715460900,4.8834609375,0.0461202897131443,0.03543015569448471,-0.06490438431501389
1790163373732715500,4.900715576171875,0.06200277432799339,0.0360410213470459,-0.07101303339004517
1790163373749970200,4.91797021484375,0.03695731982588768,0.02626718580722809,-0.06490438431501389
1790163373767224800,4.935224853515625,0.029626941308379173,-0.000610864779446274,-0.030695954337716103
1790163373784479500,4.9524794921875,0.035124726593494415,-0.04214967042207718,0.03527744114398956
1790163373801734100,4.969734130859375,0.048563748598098755,-0.04825831577181816,0.05177079141139984
1790163373818988500,4.986988525390625,0.05222893878817558,0.025045456364750862,0.009621120058000088
1790163373836243200,5.0042431640625,0.0204639695584774,0.06780599057674408,-0.0642935186624527
1790163373853497900,5.021497802734375,0.0027488914784044027,0.11606431007385254,-0.1357647031545639
1790163373870752500,5.03875244140625,-0.013133592903614044,0.11972949653863907,-0.18524473905563354
1790163373888007200,5.056007080078125,-0.02107483521103859,0.0922405794262886,-0.1931859850883484
1790163373905261800,5.07326171875,-0.029016077518463135,0.09957095980644226,-0.16752967238426208
1790163373922516500,5.0905166015625,-0.057726722210645676,0.07941242307424545,-0.0948367565870285
1790163373939771100,5.107771240234375,-0.09376774728298187,0.0256563201546669,0.05971203371882439
1790163373957025500,5.125025634765625,-0.14080433547496796,-0.056810423731803894,0.2997818887233734
1790163373974280200,5.1422802734375,-0.0925460159778595,-0.046425722539424896,0.20631958544254303
1790163373991534800,5.159534912109375,-0.051618073135614395,-0.013439024798572063,0.07131846249103546
1790163374008789500,5.17678955078125,0.021685699000954628,-0.30115634202957153,-0.005039634648710489
1790163374026044200,5.194044189453125,0.035735588520765305,-0.49968740344047546,0.04810560122132301
1790163374043298800,5.211298828125,-0.005192350596189499,-0.45875945687294006,0.09575305134057999
1790163374060553500,5.228553466796875,0.004581485874950886,-0.24251331388950348,0.10125083476305008
1790163374077807900,5.245807861328125,0.005803215317428112,0,0.07070759683847427
1790163374095062500,5.2630625,0.003970621153712273,0.1588248461484909,0.0639880821108818
1790163374112317200,5.280317138671875,-0.019853105768561363,0.21746785938739777,0.060322895646095276
1790163374129571800,5.29757177734375,-0.05589412897825241,0.11606431007385254,0.03222311660647392
1790163374146826200,5.314826171875,-0.05711585655808449,0.03787361457943916,-0.019700389355421066
1790163374164081000,5.332080810546875,-0.016798781231045723,0.021991131827235222,-0.04046979174017906
1790163374181335600,5.34933544921875,0.022296564653515816,0.003665188793092966,-0.0038179049734026194
1790163374198590200,5.366590087890625,0.015577051788568497,-0.025045456364750862,0.06765327602624893
1790163374215844900,5.383844970703125,-0.025961752980947495,0.017104214057326317,0.08720094710588455
1790163374233099500,5.401099609375,-0.06872228533029556,0.05742128938436508,0.05849030241370201
1790163374250354200,5.418354248046875,-0.06200277432799339,-0.040317077189683914,0.03405570983886719
1790163374267608800,5.43560888671875,-0.014966187067329884,-0.12095122784376144,0.01206457894295454
1790163374284863200,5.45286328125,0.022296564653515816,-0.1130099818110466,0.008399390615522861
1790163374302118100,5.4701181640625,0.013133592903614044,-0.07880155742168427,0.05849030241370201
1790163374319372500,5.48737255859375,-0.03145953640341759,-0.0922405794262886,0.09147699922323227
1790163374336627200,5.504627197265625,-0.057726722210645676,-0.13194678723812103,0.09941824525594711
1790163374353881900,5.5218818359375,-0.05345066636800766,-0.11178825795650482,0.07315105944871902
1790163374371136500,5.539136474609375,-0.041844237595796585,-0.06475166976451874,0.009621120058000088
1790163374388391200,5.55639111328125,-0.0015271619195118546,-0.06108647957444191,-0.039248060435056686
1790163374405645800,5.573645751953125,0.029626941308379173,-0.07086031138896942,-0.05818486958742142
1790163374422900500,5.590900390625,0.019242240116000175,-0.1185077652335167,-0.02825249545276165
1790163374440155100,5.608155029296875,0.0015271619195118546,-0.17348559200763702,0.02000582218170166
1790163374457409500,5.625409423828125,-0.004581485874950886,-0.12156209349632263,0.04505127668380737
1790163374474664200,5.642664306640625,-0.010690134018659592,0.04276053607463837,0.031612250953912735
1790163374491918800,5.6599189453125,-0.01435532234609127,0.07086031138896942,0.02611446939408779
1790163374509173500,5.677173583984375,-0.00946840364485979,0.024434590712189674,0.04260781779885292
1790163374526428200,5.69442822265625,0.0027488914784044027,0.011606430634856224,0.04321868345141411
1790163374543682800,5.711682861328125,-0.0009162971982732415,0.003665188793092966,0.041386090219020844
1790163374560937500,5.7289375,-0.01802051067352295,-0.012217295356094837,0.04321868345141411
1790163374578192100,5.746192138671875,-0.03329212963581085,-0.01893680728971958,0.007788525894284248
1790163374595446800,5.76344677734375,-0.021685699000954628,-0.037262752652168274,-0.03497200831770897
1790163374612701400,5.780701416015625,-0.007024944759905338,-0.10384701192378998,-0.042913250625133514
1790163374629956000,5.7979560546875,0.007024944759905338,-0.21991132199764252,-0.03497200831770897
1790163374647210800,5.815210693359375,0.0027488914784044027,-0.4159989058971405,-0.0019853105768561363
1790163374664465200,5.832465087890625,-0.013744457624852657,-0.5913171172142029,0.0743727833032608
1790163374681719800,5.8497197265625,0.06933315098285675,-0.7623592615127563,0.10980294644832611
1790163374698974500,5.866974365234375,0.1285870373249054,-0.9718858599662781,0.09086613357067108
1790163374716229000,5.88422900390625,0.13103049993515015,-1.2742639780044556,0.0743727833032608
1790163374733483800,5.90148388671875,0.0668896958231926,-1.0793980360031128,0.12935061752796173
1790163374750738400,5.918738525390625,0.041844237595796585,-0.6444623470306396,0.12140937149524689
1790163374767993000,5.9359931640625,0.005192350596189499,-0.24251331388950348,0.07192932814359665
1790163374785247700,5.953247802734375,-0.13164135813713074,0.12705987691879272,0.07376192510128021
1790163374802502400,5.97050244140625,-0.14508038759231567,0.4685332775115967,0.17394374310970306
1790163374819757000,5.987757080078125,-0.022907428443431854,0.6151408553123474,0.351705402135849
1790163374837011700,6.00501171875,-0.05955931544303894,0.6988292932510376,0.27840161323547363
1790163374854266400,6.022266357421875,0.17256930470466614,0.3329212963581085,-0.15531237423419952
1790163374871521000,6.03952099609375,0.27580544352531433,-0.3500255048274994,-0.3715584874153137
1790163374888775700,6.056775634765625,-0.12553271651268005,-0.5723803043365479,-0.26160284876823425
1790163374906030300,6.0740302734375,-0.34238970279693604,-0.4789179861545563,-0.10399972647428513
1790163374923285000,6.091284912109375,-0.2971857190132141,0.14294235408306122,-0.0850629210472107
1790163374940539600,6.10853955078125,-0.272751122713089,0.998763918876648,0.04505127668380737
1790163374957794300,6.125794189453125,-0.20311254262924194,1.2736530303955078,0.07498364895582199
1790163374975048700,6.143048583984375,-0.17195843160152435,1.0250310897827148,-0.09239330142736435
1790163374992303600,6.1603037109375,-0.272751122713089,0.7312051653862,0.0694858655333519
1790163375009558000,6.17755810546875,-0.2556469142436981,0.5571087002754211,0.23564109206199646
1790163375026813000,6.19481298828125,-0.21899501979351044,0.4734202027320862,0.17821979522705078
1790163375044067600,6.212067626953125,-0.29535311460494995,0.28466299176216125,0.001679878099821508
1790163375061322000,6.229322021484375,-0.4150826036930084,0.002443459117785096,-0.22617268562316895
1790163375078577000,6.246576904296875,-0.5195404887199402,-0.17776164412498474,-0.3556760251522064
1790163375095831300,6.263831298828125,-0.5128209590911865,-0.8173370957374573,-0.39049530029296875
1790163375113086200,6.281086181640625,-0.2507599890232086,-1.6450588703155518,-0.2903134822845459
1790163375130340900,6.2983408203125,-0.210442915558815,-1.464242935180664,-0.16997312009334564
1790163375147595300,6.31559521484375,-0.14263692498207092,-1.0231984853744507,-0.08872810751199722
1790163375164850200,6.33285009765625,-0.03145953640341759,-0.7116574645042419,-0.20112723112106323
1790163375182104800,6.350104736328125,-0.20433427393436432,0.1545487940311432,-0.4454731345176697
1790163375199359500,6.367359375,-0.19761475920677185,0.33719736337661743,-0.6953168511390686
1790163375216614100,6.3846142578125,-0.003359756199643016,-0.21135921776294708,-0.7655662894248962
1790163375233868800,6.401868896484375,0.3845393657684326,-1.414151906967163,-0.3379609286785126
1790163375251123500,6.41912353515625,0.40286532044410706,-1.3249657154083252,-0.0795651376247406
1790163375268378000,6.436378173828125,-0.26542073488235474,-1.155145287513733,0.12018764764070511
1790163375285632800,6.4536328125,-0.19944734871387482,-0.9553925395011902,0.3510945439338684
1790163375302887400,6.470887451171875,0.2935205399990082,-0.7599157691001892,0.07070759683847427
1790163375320142000,6.48814208984375,0.4572322964668274,-0.9181297421455383,-0.4173733592033386
1790163375337396700,6.505396728515625,0.72173672914505,-0.8191696405410767,-0.6635518670082092
1790163375354651400,6.5226513671875,0.9508110284805298,-0.9688315391540527,-0.5981893539428711
1790163375371906000,6.539906005859375,0.9642500281333923,-0.7922916412353516,-0.4124864339828491
1790163375389160700,6.55716064453125,1.036942958831787,1.1954623460769653,-0.6543889045715332
1790163375406415400,6.574415283203125,0.702799916267395,0.28405213356018066,-0.6354520916938782
1790163375423670000,6.591669921875,0.32162031531333923,-1.342680811882019,-0.1467602699995041
1790163375440925000,6.608925048828125,0.41935867071151733,-1.3481786251068115,0.24052800238132477
1790163375458179600,6.6261796875,0.6777544617652893,-0.8362739086151123,0.443945974111557
1790163375475434200,6.643434326171875,0.8042035102844238,-1.3115266561508179,0.46715885400772095
1790163375492689000,6.66068896484375,0.48533207178115845,-2.7794346809387207,0.2551887631416321
1790163375509943600,6.677943603515625,0.09804379940032959,-4.57659912109375,-0.14492766559123993
1790163375527198200,6.6951982421875,0.10170898586511612,-6.638267517089844,-0.5199986696243286
1790163375544452900,6.712452880859375,0.20250166952610016,-8.557604789733887,-0.7130318880081177
1790163375561707500,6.72970751953125,0.14508038759231567,-10.159292221069336,-0.60490882396698
1790163375578962200,6.746962158203125,-0.18417572975158691,-11.038326263427734,-0.43142324686050415
1790163375596216800,6.764216796875,-0.5763509273529053,-11.555728912353516,0.19165882468223572
1790163375613471500,6.781471435546875,-1.036942958831787,-12.500125885009766,1.050534725189209
1790163375630726100,6.79872607421875,-0.9856303334236145,-13.930160522460938,1.6546800136566162
1790163375647981000,6.81598095703125,0.33628106117248535,-12.246617317199707,1.2704460620880127
1790163375665235700,6.833235595703125,1.0552688837051392,-10.005965232849121,-0.2994764447212219
1790163375682490400,6.850490478515625,1.1853830814361572,-9.279035568237305,-1.631772518157959
1790163375699745000,6.8677451171875,2.4217734336853027,-9.800714492797852,-1.7832670211791992
1790163375716999700,6.884999755859375,3.0045385360717773,-9.743292808532715,-0.8516982197761536
1790163375734254300,6.90225439453125,2.13527774810791,-7.325490474700928,-0.1571449637413025
1790163375751509000,6.919509033203125,1.0705405473709106,-4.783681869506836,0.29245150089263916
1790163375768763600,6.936763671875,0.6740893125534058,-3.3799147605895996,0.6351466774940491
1790163375786018300,6.954018310546875,0.795040488243103,-2.5027129650115967,0.7133373618125916
1790163375803273200,6.971273193359375,1.0161736011505127,-2.780045509338379,0.1922696828842163
1790163375820527900,6.98852783203125,1.1462877988815308,-2.218660831451416,-0.43631017208099365
1790163375837782500,7.005782470703125,0.9886846542358398,-1.2742639780044556,-0.6452259421348572
1790163375855037200,7.023037109375,0.5378664135932922,-0.8912517428398132,-0.6128500699996948
1790163375872291800,7.040291748046875,0.09132428467273712,-0.8240565657615662,-0.33857181668281555
1790163375889546500,7.05754638671875,-0.0308486707508564,-0.675616443157196,-0.20479241013526917
1790163375906801200,7.07480126953125,-0.010690134018659592,-0.2724456787109375,-0.009926552884280682
1790163375924055800,7.092055908203125,-0.10965022444725037,0.3396408259868622,0.14950916171073914
1790163375941310500,7.109310546875,-0.2684750556945801,0.7531962990760803,0.19349141418933868
1790163375958565000,7.126565185546875,-0.4199695289134979,0.7617483735084534,0.1611155867576599
1790163375975819500,7.143819580078125,-0.4615083336830139,0.6041452884674072,0.027947064489126205
1790163375993074200,7.16107421875,-0.3796524703502655,0.48075059056282043,-0.1571449637413025
1790163376010328800,7.178328857421875,-0.250149130821228,0.38301220536231995,-0.22434009611606598
1790163376027583200,7.195583251953125,-0.18723005056381226,0.14660754799842834,-0.05757400393486023
1790163376044838000,7.212837890625,-0.15118902921676636,0.06963858753442764,0.12140937149524689
1790163376062092500,7.230092529296875,-0.09804379940032959,0.06780599057674408,0.1928805559873581
1790163376079347200,7.24734716796875,-0.12675444781780243,0.11728604137897491,0.16661337018013
1790163376096601600,7.2646015625,-0.2776380479335785,0.21868959069252014,0.09758564829826355
1790163376113856500,7.2818564453125,-0.46883872151374817,0.40317076444625854,0.02000582218170166
1790163376131111200,7.299111083984375,-0.6038398146629333,0.5296197533607483,-0.014202605932950974
1790163376148366000,7.316365966796875,-0.7412844300270081,0.8258891701698303,-0.02519817277789116
1790163376165620700,7.333620849609375,-0.9410371780395508,1.3463460206985474,-0.11621702462434769
1790163376182875600,7.350875732421875,-1.3600903749465942,2.2644758224487305,-0.2756527364253998
1790163376200130300,7.36813037109375,-2.0357067584991455,3.3915212154388428,-0.36483898758888245
1790163376217385200,7.38538525390625,-2.63435435295105,4.4947428703308105,-0.23655737936496735
1790163376234640000,7.402639892578125,-2.9776604175567627,4.860040187835693,0.20021092891693115
1790163376251894800,7.419894775390625,-2.870148181915283,4.78856897354126,0.718224287033081
1790163376269149400,7.4371494140625,-2.1865904331207275,3.766592264175415,0.34315329790115356
1790163376286404400,7.454404296875,-1.4388920068740845,-0.8252783417701721,-3.0104942321777344
1790163376303659000,7.471658935546875,-2.7876813411712646,0.12400554865598679,-3.775297164916992
1790163376320913700,7.48891357421875,-5.016726970672607,1.6927063465118408,-2.942077398300171
1790163376338168300,7.506168212890625,-7.020974159240723,2.433074474334717,-1.7539454698562622
1790163376355422700,7.523422607421875,-9.09669303894043,2.704298496246338,0.228921577334404
1790163376372677400,7.540677490234375,-10.714262962341309,1.212566614151001,2.3736677169799805
1790163376389932000,7.55793212890625,-11.799159049987793,-0.5467239618301392,3.973522663116455
1790163376407186700,7.575186767578125,-12.546856880187988,-1.630398154258728,5.384620189666748
1790163376424441600,7.592441650390625,-12.56457233428955,-3.7287185192108154,5.939285755157471
1790163376441696300,7.6096962890625,-11.766172409057617,-4.418385028839111,5.0645270347595215
1790163376458951200,7.626951171875,-10.071022033691406,-2.8954989910125732,3.9716901779174805
1790163376476205800,7.644205810546875,-8.14863109588623,-0.9718858599662781,2.3571743965148926
1790163376493460700,7.661460693359375,-6.107731342315674,0.7513636946678162,0.5031998753547668
1790163376510715400,7.67871533203125,-4.814530849456787,1.3713914155960083,-0.9665408134460449
1790163376527969800,7.6959697265625,-4.148688316345215,1.2315033674240112,-1.5932880640029907
1790163376545224400,7.713224365234375,-3.2782058715820312,0.43982264399528503,-1.4051417112350464
1790163376562479000,7.73047900390625,-2.372293472290039,0.3787361681461334,-0.44791659712791443
1790163376579733500,7.7477333984375,-1.572060465812683,-0.010384701192378998,0.7041743993759155
1790163376596988200,7.76498828125,-0.9954041838645935,0.12034036219120026,1.538004755973816
1790163376614243000,7.7822431640625,-1.7980804443359375,-0.36224281787872314,-1.2218822240829468
1790163376631497700,7.799497802734375,-1.7828088998794556,0.13072505593299866,-2.962235927581787
1790163376648752600,7.816752685546875,-1.4223986864089966,1.313359260559082,-2.265850067138672
1790163376666007300,7.83400732421875,-1.2818996906280518,1.5821397304534912,-1.0545053482055664
1790163376683262200,7.85126220703125,-0.8652899861335754,0.9761618971824646,0.6626355648040771
1790163376700516900,7.868516845703125,-1.6410882472991943,0.860708475112915,1.5459460020065308
1790163376717771500,7.885771484375,-2.5836524963378906,1.2925899028778076,1.3547453880310059
1790163376735026200,7.903026123046875,-2.7229297161102295,1.3897173404693604,0.6821832656860352
1790163376752280600,7.920280517578125,-2.914130449295044,0.5571087002754211,-0.08933897316455841
1790163376769535200,7.93753515625,-3.176802396774292,0.07086031138896942,-0.4747946560382843
1790163376786790000,7.954789794921875,-3.070511817932129,-0.35063639283180237,-0.42653632164001465
1790163376804044500,7.97204443359375,-2.7864596843719482,-1.0928370952606201,-0.26221370697021484
1790163376821299200,7.98929931640625,-2.603811025619507,-2.1606287956237793,0.034666575491428375
1790163376838554000,8.00655419921875,-2.4022257328033447,-2.821584463119507,0.3822486400604248
1790163376855808800,8.023808837890625,-2.0497567653656006,-3.079369306564331,0.4225656986236572
1790163376873063700,8.041063720703125,-1.7431026697158813,-3.4556620121002197,0.09086613357067108
1790163376890318300,8.058318359375,-1.534186840057373,-3.9229736328125,-0.2854265570640564
1790163376907573200,8.0755732421875,-1.479209065437317,-4.358520030975342,-0.41126471757888794
1790163376924828200,8.092828125,-1.5225805044174194,-4.158767223358154,-0.14309507608413696
1790163376942082800,8.110082763671874,-1.3289363384246826,-3.2284202575683594,0.18982623517513275
1790163376959337700,8.127337646484374,-1.0137300491333008,-5.680431365966797,-1.3306162357330322
1790163376976592400,8.14459228515625,-0.7425061464309692,-5.850252151489258,-2.1565053462982178
1790163376993847300,8.161847412109376,-0.9538653492927551,-6.931482791900635,-2.260963201522827
1790163377011101700,8.179101806640626,-1.481041669845581,-3.570504665374756,-1.9457570314407349
1790163377028356400,8.1963564453125,-1.648418664932251,-3.6566364765167236,-2.0245585441589355
1790163377045611000,8.213611083984375,-1.1560616493225098,-3.486816167831421,-2.28539776802063
1790163377062865700,8.23086572265625,-0.5122101306915283,-1.694538950920105,-2.4601051807403564
1790163377080120000,8.2481201171875,0.02718348242342472,-0.9578359723091125,-1.6855286359786987
1790163377097374700,8.265374755859375,-0.18417572975158691,-2.6090035438537598,-0.9182825088500977
1790163377114629600,8.282629638671875,-0.942258894443512,-2.4996585845947266,-0.3153589367866516
1790163377131884300,8.29988427734375,-0.45967575907707214,-0.08979712426662445,-0.09666935354471207
1790163377149139200,8.31713916015625,0.5109884142875671,1.8704679012298584,-0.6183478832244873
1790163377166393900,8.334393798828126,1.1316269636154175,2.8209736347198486,-1.1253656148910522
1790163377183648800,8.351648681640626,1.4327833652496338,3.769646644592285,-1.2298234701156616
1790163377200903400,8.3689033203125,1.5488476753234863,4.4440412521362305,-1.2053889036178589
1790163377218158300,8.386158447265625,1.7168354988098145,4.641961574554443,-1.3061816692352295
1790163377235413000,8.4034130859375,2.148106098175049,4.265668869018555,-1.3220640420913696
1790163377252668000,8.42066796875,2.7956225872039795,3.8160722255706787,-1.2634210586547852
1790163377269922600,8.437922607421875,3.260490655899048,3.043328285217285,-1.4998257160186768
1790163377287177500,8.455177490234375,3.255603790283203,1.7910555601119995,-1.725234866142273
1790163377304432000,8.47243212890625,2.9098544120788574,0.3909534513950348,-1.5615230798721313
1790163377321686800,8.489686767578124,2.3228132724761963,-0.6774490475654602,-1.039233684539795
1790163377338941200,8.506941162109374,1.397353172302246,-0.5705476999282837,-0.8364266157150269
1790163377356195800,8.52419580078125,0.22388194501399994,0.001221729558892548,-1.2328778505325317
1790163377373450500,8.541450439453126,-0.4529562294483185,0.3090975880622864,-1.6818634271621704
1790163377390705000,8.558704833984375,-0.5849030017852783,-0.14721840620040894,-1.5987858772277832
1790163377407959800,8.575959716796875,-0.6276635527610779,-0.9755510687828064,-0.9488257169723511
1790163377425214700,8.593214599609375,-0.970969557762146,-1.3377938270568848,-0.5206094980239868
1790163377442469400,8.610469482421875,-1.6160427331924438,-1.3335177898406982,-0.36911505460739136
1790163377459724300,8.627724365234375,-2.439488410949707,-1.2712095975875854,-0.3367392122745514
1790163377476979000,8.64497900390625,-2.8707590103149414,-0.934623122215271,-0.17302745580673218
1790163377494233900,8.66223388671875,-2.668562889099121,-0.6365211009979248,0.037720900028944016
1790163377511488500,8.679488525390624,-1.9721769094467163,-1.128878116607666,0.5526798963546753
1790163377528743400,8.696743408203124,-1.4382811784744263,-1.515555500984192,1.5752675533294678
1790163377545998000,8.713998046875,-1.6142101287841797,-1.120326042175293,2.216064691543579
1790163377563253000,8.7312529296875,-2.2305727005004883,-0.12644900381565094,2.2502732276916504
1790163377580507600,8.748507568359376,-2.5726571083068848,0.7195987105369568,2.2392776012420654
1790163377597762300,8.76576220703125,-2.061974048614502,0.48441576957702637,2.1305437088012695
1790163377615017000,8.783016845703125,-1.3350449800491333,0.27427828311920166,1.4439315795898438
1790163377632271600,8.800271728515625,-0.6411026120185852,-0.06597339361906052,-0.026419902220368385
1790163377649526300,8.8175263671875,-0.6905826330184937,0.4563159942626953,0.48670652508735657
1790163377666780700,8.83478076171875,-1.498756766319275,0.730594277381897,1.3516910076141357
1790163377684035300,8.852035400390625,-1.3301581144332886,1.296255111694336,1.4695879220962524
1790163377701290000,8.8692900390625,-1.3185516595840454,2.1807873249053955,1.530063509941101
1790163377718545000,8.886544921875,-1.387579321861267,2.8631231784820557,1.281441569328308
1790163377735799600,8.903799560546876,-0.7651081085205078,2.5497496128082275,0.187382772564888
1790163377753054500,8.921054443359376,0.4773908257484436,1.3371829986572266,0.782365083694458
1790163377770309000,8.93830908203125,0.18661919236183167,0.7244856357574463,1.8519892692565918
1790163377787564000,8.95556396484375,-0.8298597931861877,0.42332929372787476,2.1690280437469482
1790163377804818700,8.972818603515625,-1.8652756214141846,0.1997527778148651,1.374903917312622
1790163377822073000,8.990072998046875,-2.3820672035217285,1.2797616720199585,0.6772963404655457
1790163377839327700,9.00732763671875,-1.8170173168182373,0.8552106618881226,0.4036289155483246
1790163377856582400,9.02458251953125,-0.16157373785972595,-0.5021308660507202,0.5648971796035767
1790163377873837000,9.041837158203125,0.9850194454193115,-2.4941608905792236,1.3981167078018188
1790163377891091500,9.059091552734374,1.5885539054870605,-4.032929420471191,1.9582797288894653
1790163377908346400,9.076346435546874,2.023489475250244,-5.064680099487305,2.607018232345581
1790163377925601300,9.093601318359376,1.4376702308654785,-4.911352634429932,2.386496067047119
1790163377942856000,9.11085595703125,0.592233419418335,-3.9333584308624268,1.345582365989685
1790163377960110800,9.12811083984375,0.11575887352228165,-2.9547529220581055,0.4543306827545166
1790163377977365500,9.145365478515625,0.4725039005279541,-2.9071054458618164,0.44761115312576294
1790163377994620400,9.162620361328125,1.4272855520248413,-2.793484687805176,0.9534072279930115
1790163378011875000,9.179875,2.6135849952697754,-0.3659079968929291,2.221562385559082
1790163378029130000,9.1971298828125,2.9177956581115723,1.8277074098587036,2.3119704723358154
1790163378046384600,9.214384521484375,2.5445573329925537,2.690859317779541,1.2203551530838013
1790163378063639600,9.2316396484375,2.0546436309814453,2.120922565460205,-0.06307178735733032
1790163378080894200,9.248894287109374,1.6789618730545044,0.8338304162025452,-0.522442102432251
1790163378098149000,9.266149169921874,1.462715744972229,-0.7037162184715271,-0.513279139995575
1790163378115403800,9.28340380859375,1.1530072689056396,-1.5668681859970093,-0.4185950756072998
1790163378132658200,9.300658203125,0.4046979248523712,-1.3103049993515015,-0.1467602699995041
1790163378149912800,9.317912841796876,0.06017018109560013,0.05436696484684944,0.14950916171073914
1790163378167167500,9.33516748046875,0.1701258420944214,0.49968740344047546,0.0847574844956398
1790163378184422000,9.352421875,0.015577051788568497,1.1294889450073242,-0.020311253145337105
1790163378201676500,9.369676513671875,-0.2556469142436981,1.7427972555160522,0.16478078067302704
1790163378218931500,9.386931396484375,-0.6319395899772644,2.634659767150879,0.8403972387313843
1790163378236186000,9.40418603515625,-0.8891136646270752,4.0164361000061035,1.3938406705856323
1790163378253441000,9.42144091796875,-0.7400626540184021,5.888736248016357,1.3266456127166748
1790163378270695700,9.43869580078125,-0.6148353815078735,6.189281940460205,0.453719824552536
1790163378287950600,9.45595068359375,-0.6520981788635254,4.287660121917725,-0.4631882309913635
1790163378305205200,9.473205322265626,-0.26419901847839355,1.1129956245422363,-1.1644610166549683
1790163378322460000,9.4904599609375,0.3246746361255646,-0.6401863098144531,-0.9366084337234497
1790163378339714600,9.507714599609375,1.2733476161956787,-0.44348782300949097,-0.09789107739925385
1790163378356969000,9.524968994140625,2.2458443641662598,1.145371437072754,0.228921577334404
1790163378374223600,9.5422236328125,2.481638193130493,2.008523464202881,1.143997073173523
1790163378391478300,9.559478271484375,1.433394193649292,1.065959095954895,0.3969093859195709
1790163378408733000,9.57673291015625,0.8097012639045715,1.2412772178649902,-0.4240928590297699
1790163378425987800,9.59398779296875,0.16035200655460358,0.28588470816612244,-0.5151117444038391
1790163378443242500,9.611242431640624,-0.3949240744113922,-1.1563670635223389,-0.40698865056037903
1790163378460497400,9.628497314453124,-0.22510367631912231,-1.7256929874420166,-0.5236638188362122
1790163378477752000,9.645751953125,0.5403099060058594,-1.1722495555877686,-0.6030762791633606
1790163378495007000,9.663007080078126,1.1866048574447632,-1.0793980360031128,-1.513264775276184
1790163378512261600,9.68026171875,1.832899808883667,-1.6572761535644531,-2.5352416038513184
1790163378529516500,9.6975166015625,2.0583088397979736,-2.20155668258667,-1.744782567024231
1790163378546771200,9.714771240234375,1.4584397077560425,-1.8826853036880493,0.4017963111400604
1790163378564026000,9.732026123046875,0.8744529485702515,-1.357952356338501,1.179427146911621
1790163378581280800,9.74928076171875,0.42424559593200684,-1.599854826927185,0.679739773273468
1790163378598535700,9.76653564453125,0.4883863925933838,-2.288910388946533,-0.036193739622831345
1790163378615790300,9.783790283203125,0.7455604672431946,-4.477027893066406,0.07742711156606674
1790163378633045200,9.801045166015625,1.4425572156906128,-3.414123296737671,0.44089165329933167
1790163378650300000,9.8182998046875,2.2592833042144775,-0.7611374855041504,-0.14798198640346527
1790163378667554800,9.835554931640624,2.5360050201416016,1.3164136409759521,-0.8773545622825623
1790163378684809500,9.8528095703125,2.8787002563476562,2.1300854682922363,-0.9866993427276611
1790163378702064400,9.870064453125,3.568366527557373,1.3634501695632935,-0.29764387011528015
1790163378719318800,9.88731884765625,3.824929714202881,0.8991929292678833,0.33948808908462524
1790163378736573400,9.904573486328125,3.646557331085205,1.3481786251068115,0.3370446562767029
1790163378753828000,9.921828125,3.699702501296997,1.5888593196868896,0.1256854236125946
1790163378771082500,9.93908251953125,3.339292287826538,1.0800089836120605,0.4237874448299408
1790163378788337200,9.956337158203125,0.7058542370796204,1.0060943365097046,1.0822997093200684
1790163378805592000,9.973592041015625,-1.06443190574646,0.7886264324188232,2.4634649753570557
1790163378822846700,9.9908466796875,-0.7449495792388916,2.973078966140747,2.4762930870056152
1790163378840101600,10.0081015625,-1.2116502523422241,3.604712963104248,1.7151556015014648
1790163378857356300,10.025356201171874,-2.0772457122802734,2.8124215602874756,0.29733842611312866
1790163378874611200,10.042611083984376,-1.8683298826217651,1.1123847961425781,-0.8547525405883789
1790163378891865900,10.059865966796876,-0.8365793228149414,-0.637742817401886,-0.9579886794090271
1790163378909120500,10.07712060546875,-0.9214895367622375,-1.1282672882080078,-0.6409498453140259
1790163378926375200,10.094375244140625,-2.115730047225952,-0.9004147052764893,-0.4179842174053192
1790163378943629800,10.1116298828125,-3.74918270111084,-1.2870920896530151,-0.09605848789215088
1790163378960884200,10.12888427734375,-4.579958915710449,-2.065333843231201,-0.028863361105322838
1790163378978139000,10.146138916015625,-4.730231285095215,-1.588248372077942,-0.4399753510951996
1790163378995393500,10.1633935546875,-2.7369797229766846,0.43921178579330444,-1.0123556852340698
1790163379012648200,10.180648193359374,-0.7583886384963989,0.5528326034545898,-0.8290961980819702
1790163379029903000,10.197903076171874,0.3454440236091614,-0.6927206516265869,0.04993819445371628
1790163379047157800,10.21515771484375,1.0809252262115479,-0.2981020212173462,0.393244206905365
1790163379064412700,10.23241259765625,1.7608177661895752,0.2516762912273407,0.32971426844596863
1790163379081667300,10.249667236328126,2.0106613636016846,0.4196641147136688,0.23441936075687408
1790163379098922200,10.266922119140625,1.9953898191452026,0.13622283935546875,0.2606865465641022
1790163379116177000,10.284177001953125,1.2244784832000732,1.1074978113174438,-0.09117157012224197
1790163379133431800,10.301431884765625,0.48655378818511963,1.8466442823410034,-0.4595230221748352
1790163379150686500,10.3186865234375,0.13041962683200836,2.2168283462524414,-0.8724676370620728
1790163379167941400,10.33594140625,0.14202606678009033,1.9370522499084473,-0.9812015295028687
1790163379185196300,10.3531962890625,-0.005192350596189499,0.9016364216804504,-0.7136427760124207
1790163379202451000,10.370450927734375,0.08338304609060287,0.3170388340950012,-0.4631882309913635
1790163379219705600,10.38770556640625,0.6447677612304688,0.8118392825126648,-0.7228057384490967
1790163379236960000,10.4049599609375,1.324660301208496,1.334128737449646,-1.0428988933563232
1790163379254214700,10.422214599609376,1.870773434638977,1.0128138065338135,-0.5707004070281982
1790163379271469300,10.43946923828125,2.696662664413452,1.036637544631958,0.09392046183347702
1790163379288723700,10.4567236328125,3.061959743499756,3.12701678276062,0.25274530053138733
1790163379305978600,10.473978515625,1.915366530418396,4.400670051574707,0.38652467727661133
1790163379323233300,10.4912333984375,0.8542944192886353,2.1917827129364014,0.6125446557998657
1790163379340488200,10.50848828125,0.31673339009284973,-0.46486809849739075,0.873994767665863
1790163379357742800,10.525742919921875,0.11209368705749512,-1.6762129068374634,1.2191333770751953
1790163379374997800,10.542997802734375,-0.038789913058280945,-2.7006332874298096,1.4213296175003052
1790163379392252400,10.56025244140625,-0.4584540128707886,-2.9651377201080322,0.7127264738082886
1790163379409507300,10.57750732421875,-0.619722306728363,-2.4287984371185303,-0.4228711426258087
1790163379426762000,10.594761962890624,-0.40225446224212646,-2.2052218914031982,-0.46746426820755005
1790163379444017000,10.612016845703126,-0.24220788478851318,-1.8240422010421753,-0.18524473905563354
1790163379461271600,10.629271484375,-0.16340632736682892,-1.081230640411377,-0.13332124054431915
1790163379478526500,10.6465263671875,-0.12003492563962936,-0.9004147052764893,0.04810560122132301
1790163379495781000,10.663781005859375,-0.29413139820098877,-0.9053016304969788,0.20509785413742065
1790163379513035800,10.681035888671875,-0.23365578055381775,-0.20647229254245758,0.01511890348047018
1790163379530290400,10.69829052734375,0.03145953640341759,0.3481929302215576,-0.07040216773748398
1790163379547545000,10.715545166015625,0.1737910360097885,0.38179048895835876,0.008399390615522861
1790163379564799500,10.732799560546875,0.129197895526886,-0.027488915249705315,0.11407899856567383
1790163379582054100,10.75005419921875,-0.0668896958231926,-0.6108647584915161,0.23564109206199646
1790163379599308800,10.767308837890624,-0.2415970265865326,-2.1618504524230957,0.5233584046363831
1790163379616563500,10.7845634765625,-0.0461202897131443,-1.7947207689285278,0.012675444595515728
1790163379633818400,10.801818359375,-0.14202606678009033,-0.9315688014030457,-0.023976443335413933
1790163379651073000,10.819072998046876,-0.508544921875,-0.49113526940345764,-0.0539088174700737
1790163379668328000,10.836327880859375,-0.9312633275985718,0.06352993845939636,-0.07895427197217941
1790163379685582800,10.853582763671875,-1.1334595680236816,0.4990765154361725,-0.15958842635154724
1790163379702837500,10.87083740234375,-0.8341358304023743,0.8197805285453796,-0.18524473905563354
1790163379720092400,10.888092529296875,-0.33628106117248535,0.30115634202957153,0.02916879393160343
1790163379737347000,10.90534716796875,-0.19211697578430176,-0.3640754222869873,0.258853942155838
1790163379754602000,10.92260205078125,-0.37659814953804016,-0.27366742491722107,0.3065013885498047
1790163379771856600,10.939856689453125,-0.3607156574726105,0.05253437161445618,0.14828743040561676
1790163379789111600,10.957111572265624,-0.23915356397628784,0.22235478460788727,-0.005039634648710489
1790163379806538800,10.974538818359376,-0.15057817101478577,0.1588248461484909,-0.09300415962934494
1790163379824138800,10.992138671875,-0.03329212963581085,0.08491020649671555,-0.11927134543657303
1790163379841738500,11.009738525390626,-0.04428769648075104,0.1698204129934311,-0.1107192412018776
1790163379859338200,11.027338134765625,-0.047952886670827866,0.6603448390960693,-0.055741410702466965
1790163379876938000,11.04493798828125,-0.01435532234609127,1.18446683883667,0.04016435891389847
1790163379894537700,11.062537841796875,0.05955931544303894,0.7354812026023865,-0.16875138878822327
1790163379912137500,11.080137451171876,0.4321868419647217,-2.5167629718780518,-1.251814603805542
1790163379929737000,11.097737060546875,0.21777328848838806,-1.5741984844207764,-0.4637990891933441
1790163379947336700,11.115336669921875,1.5690062046051025,3.2540767192840576,1.6913318634033203
1790163379964936200,11.132936279296874,1.0112866163253784,0.6389645338058472,0.9155336022377014
1790163379982535700,11.15053564453125,0.13713914155960083,2.109316110610962,-0.036193739622831345
1790163380000135400,11.168135498046874,-0.12186752259731293,2.4886631965637207,-0.15409064292907715
1790163380017450200,11.1854501953125,-0.9135482907295227,1.9028438329696655,-0.33307403326034546
1790163380034765000,11.20276513671875,-2.2653920650482178,1.433088779449463,-0.9579886794090271
1790163380052079900,11.220079833984375,-2.4010040760040283,-0.1954767256975174,-1.4338523149490356
1790163380069394400,11.23739453125,-1.3173298835754395,-1.0482439994812012,-1.5865685939788818
1790163380086709200,11.254709228515624,-0.5513054728507996,-1.074511170387268,-0.9866993427276611
1790163380104009200,11.27200927734375,-0.07910698652267456,-2.926042318344116,-0.07773254066705704
1790163380121263900,11.289263916015624,0.15790854394435883,-4.881420612335205,-0.17363831400871277
1790163380138518800,11.306518798828124,0.2263254076242447,-4.278496742248535,-0.3153589367866516
1790163380155773400,11.3237734375,0.13958260416984558,-2.204000234603882,0.012675444595515728
1790163380173028400,11.3410283203125,0.10659590363502502,-0.8454368710517883,0.5154171586036682
1790163380190283000,11.358282958984375,0.11392628401517868,-0.33169957995414734,0.8471167087554932
1790163380207537700,11.37553759765625,-0.048563748598098755,-0.03298669680953026,0.7194460034370422
1790163380224792300,11.392792236328125,0.0821613147854805,0.015271619893610477,0.38652467727661133
1790163380242047000,11.410046875,0.5574141144752502,-0.47097674012184143,0.4182896614074707
1790163380259301600,11.427301513671875,0.9856303334236145,-1.0060943365097046,0.2741255760192871
1790163380276556000,11.44455615234375,1.2666281461715698,-1.1215476989746094,-0.0539088174700737
1790163380293810700,11.461810791015624,1.627649188041687,-0.9731075763702393,-0.25671592354774475
1790163380311065300,11.4790654296875,1.777311086654663,-0.7024945020675659,-0.4179842174053192
1790163380328320300,11.4963203125,1.4669917821884155,-0.32192572951316833,-0.4631882309913635
1790163380345575000,11.513574951171876,1.0467168092727661,0.29565855860710144,-0.3605629503726959
1790163380362829800,11.530829833984376,1.0399973392486572,1.0341941118240356,-0.36972591280937195
1790163380380084500,11.54808447265625,1.2690715789794922,0.9028581380844116,-0.449138343334198
1790163380397339400,11.56533935546875,1.4254529476165771,0.7244856357574463,-0.49800750613212585
1790163380414594000,11.582593994140625,1.2818996906280518,0.39828383922576904,-0.2438877671957016
1790163380431848400,11.599848388671875,1.2037090063095093,0.021991131827235222,0.23991714417934418
1790163380449103000,11.61710302734375,1.2745693922042847,1.110552191734314,0.2961167097091675
1790163380466357800,11.634357666015624,1.2806780338287354,1.8063271045684814,0.3529271185398102
1790163380483612400,11.6516123046875,1.4114030599594116,1.3390156030654907,0.18310672044754028
1790163380500866800,11.66886669921875,1.5042544603347778,0.8203914165496826,-0.05818486958742142
1790163380518121700,11.686121826171876,1.6050472259521484,0.4355465769767761,-0.3507890999317169
1790163380535376600,11.703376708984376,1.710115909576416,0.1496618688106537,-0.624456524848938
1790163380552631300,11.72063134765625,1.3906337022781372,0.5082395076751709,-0.9121738076210022
1790163380569886200,11.73788623046875,1.1896591186523438,0.6493492722511292,-1.049007534980774
1790163380587140900,11.755140869140625,1.3081669807434082,0.4050033390522003,-0.9812015295028687
1790163380604395500,11.7723955078125,1.4254529476165771,-0.009162971749901772,-0.9702059626579285
1790163380621650200,11.789650146484375,1.2788454294204712,-0.025045456364750862,-0.8804088830947876
1790163380638904800,11.80690478515625,1.025336503982544,0.19853104650974274,-0.7038689255714417
1790163380656159500,11.824159423828124,0.8396336436271667,0.28527384996414185,-0.4540252387523651
1790163380673414000,11.841413818359374,0.6441569328308105,0.0360410213470459,-0.32940882444381714
1790163380690668500,11.85866845703125,0.40958482027053833,-0.18264856934547424,-0.25243985652923584
1790163380707923200,11.875923095703126,0.1640172004699707,-0.03787361457943916,-0.09178243577480316
1790163380725178000,11.89317822265625,-0.019853105768561363,0.15149445831775665,0.08414662629365921
1790163380742432800,11.910432861328125,-0.18173226714134216,0.22479823231697083,0.2234237939119339
1790163380759687700,11.927687744140625,-0.40714138746261597,0.09285144507884979,0.27656903862953186
1790163380776942300,11.9449423828125,-0.6441569328308105,-0.1337793916463852,0.3113883137702942
1790163380794197200,11.962197265625,-0.8378010392189026,-0.1594357043504715,0.4390590488910675
1790163380811452000,11.979451904296875,-1.0222822427749634,-0.11728604137897491,0.5612320303916931
1790163380828706800,11.996706787109375,-1.2330305576324463,-0.06719512492418289,0.6534726023674011
1790163380845961500,12.01396142578125,-1.4608831405639648,-0.15271618962287903,0.7475457787513733
1790163380863216400,12.03121630859375,-1.7241657972335815,-0.13927717506885529,0.817184329032898
1790163380880471000,12.048470947265624,-1.9917246103286743,0.09957095980644226,0.8532254099845886
1790163380897726000,12.065725830078126,-2.179871082305908,0.37751442193984985,0.9259182810783386
1790163380914980600,12.082980712890626,-2.3014330863952637,0.34574946761131287,1.0499238967895508
1790163380932235000,12.100235107421875,-2.495687961578369,0.17104214429855347,1.0462586879730225
1790163380949489700,12.11748974609375,-2.6056437492370605,0.4013381600379944,1.0034980773925781
1790163380966744300,12.134744384765625,-2.542724609375,0.5998691916465759,1.0535889863967896
1790163380983999000,12.1519990234375,-2.4987423419952393,0.3744601011276245,1.0523673295974731
1790163381001253600,12.169253662109375,-2.4565927982330322,0.021991131827235222,0.9808961153030396
1790163381018508300,12.18650830078125,-2.385732412338257,0.010384701192378998,0.9912807941436768
1790163381035763200,12.20376318359375,-2.2653920650482178,0.3023780584335327,0.9790635108947754
1790163381053017900,12.221017822265624,-2.1187844276428223,0.4269944727420807,0.8831577301025391
1790163381070272800,12.238272705078124,-2.0302090644836426,0.3035998046398163,0.8165735006332397
1790163381087527400,12.25552734375,-1.814573884010315,0.2877173125743866,0.9503529071807861
1790163381104782000,12.272781982421876,-1.6899573802947998,0.2932150959968567,1.0089958906173706
1790163381122036700,12.29003662109375,-1.634368658065796,0.39828383922576904,0.9075923562049866
1790163381139291400,12.30729150390625,-1.5286891460418701,0.4379900395870209,0.773202121257782
1790163381156545800,12.3245458984375,-1.2727367877960205,0.43982264399528503,0.6742420196533203
1790163381173800400,12.341800537109375,-1.0992511510849,0.37751442193984985,0.6827940940856934
1790163381191055000,12.35905517578125,-1.06443190574646,0.2883281707763672,0.7017309069633484
1790163381208309800,12.376309814453125,-0.9593631625175476,0.4001164436340332,0.6259836554527283
1790163381225564700,12.393564697265624,-0.907439649105072,0.5326740741729736,0.5795579552650452
1790163381242819300,12.4108193359375,-0.7345649003982544,0.5668824911117554,0.5740602016448975
1790163381260074200,12.42807421875,-0.5623010396957397,0.4324922561645508,0.5160280466079712
1790163381277329000,12.445328857421876,-0.38759371638298035,0.20280711352825165,0.45799586176872253
1790163381294583800,12.462583740234376,-0.29962918162345886,0.08979712426662445,0.37064221501350403
1790163381311838500,12.47983837890625,-0.12736530601978302,0.039706211537122726,0.2741255760192871
1790163381329092900,12.4970927734375,0.06750056147575378,0.039706211537122726,0.17333288490772247
1790163381346347500,12.514347412109375,0.21960589289665222,-0.09468404203653336,0.04810560122132301
1790163381363602200,12.531602294921875,0.38209593296051025,-0.2981020212173462,-0.1467602699995041
1790163381380856600,12.548856689453125,0.5513054728507996,-0.31459537148475647,-0.3196350038051605
1790163381398111200,12.566111328125,0.6533198952674866,-0.17165300250053406,-0.4143190383911133
1790163381415366100,12.5833662109375,0.7748819589614868,-0.14233149588108063,-0.5016726851463318
1790163381432620800,12.600620849609374,0.981354296207428,-0.19608759880065918,-0.6000219583511353
1790163381449875700,12.617875732421876,1.2318087816238403,-0.235793799161911,-0.6702713966369629
1790163381467130400,12.63513037109375,1.3747512102127075,-0.12767073512077332,-0.6904299259185791
1790163381484385300,12.65238525390625,1.48776113986969,-0.03848448023200035,-0.7564033269882202
1790163381501640200,12.66964013671875,1.6759074926376343,-0.1844811588525772,-0.7942769527435303
1790163381518894600,12.68689453125,1.9642356634140015,-0.5436696410179138,-0.8297070860862732
1790163381536149200,12.704149169921875,2.0112721920013428,-0.3445277214050293,-0.7570141553878784
1790163381553404000,12.72140380859375,1.889099359512329,0.04153880476951599,-0.7673988938331604
1790163381570658300,12.738658203125,1.8347324132919312,0.1588248461484909,-0.8724676370620728
1790163381587913000,12.755912841796874,1.9288055896759033,-0.16859868168830872,-1.0123556852340698
1790163381605167600,12.773167724609374,2.266613721847534,-0.8185588121414185,-1.1748456954956055
1790163381622422500,12.790422607421876,2.4040584564208984,-0.647516667842865,-1.1168135404586792
1790163381639677200,12.80767724609375,2.1493277549743652,0.01282816007733345,-1.1180353164672852
1790163381656932000,12.82493212890625,2.034485101699829,0.19914191961288452,-1.197447657585144
1790163381674186800,12.842186767578125,2.2421791553497314,-0.16126830875873566,-1.345276951789856
1790163381691441700,12.859441650390625,2.4627013206481934,-0.6878337264060974,-1.43873929977417
1790163381708696300,12.8766962890625,2.352745771408081,-0.3237583339214325,-1.2713623046875
1790163381725951200,12.893951171875,1.887266755104065,0.4471530318260193,-1.213940978050232
1790163381743206000,12.911205810546875,1.7229441404342651,0.5253437161445618,-1.2108867168426514
1790163381760460800,12.928460693359375,1.7693698406219482,0.028099779039621353,-1.188895583152771
1790163381777715500,12.945715576171875,1.821904182434082,-0.4257727563381195,-1.1699587106704712
1790163381794970400,12.962970458984374,1.749211311340332,-0.5772672295570374,-1.0441206693649292
1790163381812225000,12.98022509765625,1.468213438987732,-0.24862197041511536,-0.8211549520492554
1790163381829479400,12.9974794921875,1.293506145477295,-0.002443459117785096,-0.6085740327835083
1790163381846734000,13.014734130859376,1.1982113122940063,-0.16065743565559387,-0.48273590207099915
1790163381863988700,13.03198876953125,1.016784429550171,-0.42882707715034485,-0.4021017551422119
1790163381881243400,13.049243408203125,0.7754928469657898,-0.4251618981361389,-0.212733656167984
1790163381898497800,13.066497802734375,0.42424559593200684,-0.14172062277793884,0.016340631991624832
1790163381915752700,13.083752685546875,0.2159406989812851,-0.02932151034474373,0.14828743040561676
1790163381933007400,13.10100732421875,0.12064579129219055,-0.09285144507884979,0.2136499583721161
1790163381950262300,13.11826220703125,-0.029016077518463135,-0.16004657745361328,0.30222535133361816
1790163381967517000,13.135516845703124,-0.23487751185894012,-0.13072505593299866,0.4384481906890869
1790163381984771800,13.152771728515624,-0.3790415823459625,-0.08307760953903198,0.568562388420105
1790163382002026500,13.170026611328124,-0.508544921875,-0.07880155742168427,0.6571378111839294
1790163382019281200,13.18728125,-0.6795870661735535,-0.07330377399921417,0.698676586151123
1790163382036535800,13.204535888671876,-0.8506292104721069,-0.053756099194288254,0.7652608752250671
1790163382053790200,13.221790283203125,-1.0375537872314453,-0.06291907280683517,0.8526145219802856
1790163382071044900,13.239044921875,-1.2104285955429077,-0.04276053607463837,0.855668842792511
1790163382088299500,13.256299560546875,-1.3338232040405273,-0.012217295356094837,0.8226821422576904
1790163382105554200,13.27355419921875,-1.461493968963623,0.05803215503692627,0.855057954788208
1790163382122809000,13.29080908203125,-1.6258165836334229,0.1026252806186676,0.966235339641571
1790163382140063700,13.308063720703124,-1.7791436910629272,0.000610864779446274,0.9870047569274902
1790163382157318700,13.325318603515624,-1.999055027961731,-0.1185077652335167,0.8452841639518738
1790163382174573300,13.3425732421875,-2.1810927391052246,0.009773836471140385,0.8067996501922607
1790163382191828200,13.359828125,-2.311206817626953,0.19792018830776215,0.9039271473884583
1790163382209083000,13.377082763671876,-2.3973388671875,0.29626941680908203,1.00594162940979
1790163382226337300,13.394337158203125,-2.4553709030151367,0.2510654330253601,0.9973894953727722
1790163382243592000,13.411592041015625,-2.4798054695129395,0.39217519760131836,0.966235339641571
1790163382260846600,13.4288466796875,-2.5408921241760254,0.5583304166793823,0.9198096394538879
1790163382278101000,13.44610107421875,-2.5384485721588135,0.48563748598098755,0.9014837145805359
1790163382295355600,13.463355712890625,-2.3900084495544434,0.30482152104377747,0.8776599764823914
1790163382312610600,13.480610595703125,-2.201251268386841,0.20952661335468292,0.8636100888252258
1790163382329865200,13.497865234375,-2.0693044662475586,0.1795942485332489,0.8965967893600464
1790163382347120000,13.5151201171875,-1.9654574394226074,0.29138249158859253,0.9625701904296875
1790163382364374800,13.532374755859376,-1.8964296579360962,0.3176496922969818,0.9778417944908142
1790163382381629700,13.549629638671876,-1.7828088998794556,0.18142683804035187,0.9326378107070923
1790163382398884400,13.56688427734375,-1.6606359481811523,0.11484257876873016,0.8623883724212646
1790163382416139000,13.584138916015625,-1.589775562286377,0.2565632164478302,0.7958040833473206
1790163382433393700,13.6013935546875,-1.4602723121643066,0.25473061203956604,0.7310523986816406
1790163382450648300,13.6186484375,-1.3460404872894287,0.1893680840730667,0.688902735710144
1790163382467902700,13.63590283203125,-1.2409718036651611,0.23396120965480804,0.6638572812080383
1790163382485157400,13.653157470703125,-1.1450660228729248,0.3182605504989624,0.6131555438041687
1790163382502412000,13.670412109375,-1.0045671463012695,0.22907429933547974,0.476321816444397
1790163382519666700,13.687666748046874,-0.8701768517494202,0.09712749719619751,0.281455934047699
1790163382536921600,13.704921630859374,-0.7443387508392334,0.07086031138896942,0.09819651395082474
1790163382554176300,13.72217626953125,-0.5415316224098206,0.05558869615197182,-0.049021899700164795
1790163382571431200,13.73943115234375,-0.2874118685722351,0.012217295356094837,-0.21578797698020935
1790163382588686000,13.75668603515625,-0.021685699000954628,-0.053756099194288254,-0.42164942622184753
1790163382605940700,13.773940673828125,0.27397283911705017,-0.17898337543010712,-0.6232348084449768
1790163382623195600,13.791195556640625,0.581848680973053,-0.34086254239082336,-0.7948877811431885
1790163382640450300,13.8084501953125,0.8206968307495117,-0.3347539007663727,-0.9482148289680481
1790163382657705200,13.825705322265625,0.980743408203125,-0.26389357447624207,-1.1003202199935913
1790163382674960000,13.8429599609375,1.1957677602767944,-0.3090975880622864,-1.1858412027359009
1790163382692214800,13.86021484375,1.4504984617233276,-0.5699368119239807,-1.234710454940796
1790163382709469400,13.877469482421875,1.7266093492507935,-0.7293725609779358,-1.30923593044281
1790163382726723800,13.894723876953124,1.8652756214141846,-0.46425724029541016,-1.3532181978225708
1790163382743978500,13.911978515625,1.7748676538467407,-0.036651886999607086,-1.3862049579620361
1790163382761233200,13.929233154296876,1.6759074926376343,0.16126830875873566,-1.402698278427124
1790163382778487600,13.946487548828125,1.8151847124099731,-0.11178825795650482,-1.3623812198638916
1790163382795742200,13.9637421875,2.1926991939544678,-0.6530144214630127,-1.2505929470062256
1790163382812997000,13.9809970703125,2.462090492248535,-0.7330377101898193,-1.111926555633545
1790163382830251800,13.998251708984375,2.3490805625915527,-0.20769402384757996,-1.1534653902053833
1790163382847506700,14.015506591796875,2.193920850753784,-0.008552107028663158,-1.2860230207443237
1790163382864761300,14.03276123046875,2.1951425075531006,-0.33658650517463684,-1.3397791385650635
1790163382882016300,14.050016357421875,2.361297845840454,-0.9926552772521973,-1.3886483907699585
1790163382899271000,14.06727099609375,2.5109596252441406,-1.4923427104949951,-1.3807071447372437
1790163382916525600,14.084525634765624,2.3961172103881836,-0.9370665550231934,-1.0453423261642456
1790163382933780200,14.1017802734375,2.087019443511963,-0.023212861269712448,-0.799774706363678
1790163382951034600,14.11903466796875,1.9220860004425049,0.3066541254520416,-0.7936660647392273
1790163382968289300,14.136289306640625,1.870773434638977,-0.020769402384757996,-0.88285231590271
1790163382985544000,14.1535439453125,1.7858631610870361,-0.4984656572341919,-0.921336829662323
1790163383002798600,14.170798583984375,1.7143919467926025,-0.6267472505569458,-0.8639155030250549
1790163383020053200,14.18805322265625,1.5164718627929688,-0.053145237267017365,-0.6830995678901672
1790163383037308200,14.20530810546875,1.3038908243179321,0.5571087002754211,-0.5804742574691772
1790163383054562800,14.222562744140625,1.2257001399993896,0.5564978122711182,-0.5554288029670715
1790163383071817700,14.239817626953124,1.1352921724319458,0.19608759880065918,-0.5328267812728882
1790163383089072600,14.25707275390625,0.9550870656967163,-0.08124501258134842,-0.4857902228832245
1790163383106327300,14.274327392578124,0.8035926222801208,-0.22907429933547974,-0.40576693415641785
1790163383123582200,14.291582275390626,0.5702422857284546,-0.05436696484684944,-0.2029598206281662
1790163383140836900,14.3088369140625,0.2666424810886383,0.25961753726005554,-0.03375028073787689
1790163383158091800,14.326091796875,0.022907428443431854,0.22724169492721558,0.06704241037368774
1790163383175346400,14.343346435546875,-0.18234314024448395,0.023823726922273636,0.12935061752796173
1790163383192601300,14.360601318359375,-0.3631591200828552,-0.07635809481143951,0.13912445306777954
1790163383209855700,14.377855712890625,-0.528092622756958,-0.059864748269319534,0.1360701322555542
1790163383227110400,14.3951103515625,-0.685084879398346,0.0513126403093338,0.21731515228748322
1790163383244365000,14.412364990234375,-0.8353576064109802,0.19914191961288452,0.3529271185398102
1790163383261619700,14.42961962890625,-0.9764673709869385,0.17287473380565643,0.45799586176872253
1790163383278874000,14.4468740234375,-1.1395682096481323,0.014660755172371864,0.5532907843589783
1790163383296128800,14.464128662109376,-1.3203842639923096,-0.10995566099882126,0.6357575058937073
1790163383313383700,14.4813837890625,-1.4865394830703735,-0.10690133273601532,0.7475457787513733
1790163383330638300,14.498638427734376,-1.675296664237976,0.12217295914888382,0.9338595271110535
1790163383347893200,14.515893310546875,-1.8555017709732056,0.370184063911438,1.1091777086257935
1790163383365148000,14.53314794921875,-1.934914231300354,0.3744601011276245,1.2075269222259521
1790163383382402800,14.55040283203125,-1.9905028343200684,0.17715078592300415,1.2405136823654175
1790163383399657500,14.567657470703125,-2.076024055480957,0.08674279600381851,1.2496765851974487
1790163383416912100,14.584912109375,-2.128558397293091,0.043982263654470444,1.198974847793579
1790163383434166800,14.602166748046875,-2.112065076828003,0.037262752652168274,1.1458295583724976
1790163383451421400,14.61942138671875,-2.154825448989868,0.1698204129934311,1.2234094142913818
1790163383468675800,14.63667578125,-2.215301036834717,0.3549124300479889,1.3138173818588257
1790163383485930500,14.653930419921876,-2.1774275302886963,0.4221075773239136,1.263115644454956
1790163383503185200,14.67118505859375,-2.0607523918151855,0.34208428859710693,1.2032508850097656
1790163383520439800,14.688439697265625,-1.9465205669403076,0.21258094906806946,1.1097885370254517
1790163383537694700,14.70569482421875,-1.8041890859603882,0.16249002516269684,1.0706932544708252
1790163383554949400,14.722949462890625,-1.6349796056747437,0.43860089778900146,1.1519381999969482
1790163383572204300,14.740204345703125,-1.461493968963623,0.6743947267532349,1.244789719581604
1790163383589459200,14.757459228515625,-1.2788454294204712,0.34147340059280396,1.2038617134094238
1790163383606713900,14.7747138671875,-1.1511746644973755,-0.026878049597144127,1.088408350944519
1790163383623968300,14.79196826171875,-1.0473276376724243,-0.13194678723812103,0.9888373613357544
1790163383641223000,14.809222900390624,-0.9862411618232727,-0.09896009415388107,0.9717331528663635
1790163383658477600,14.8264775390625,-0.9379828572273254,0.06719512492418289,0.9155336022377014
1790163383675732200,14.843732177734376,-0.8707877397537231,0.17715078592300415,0.8446732759475708
1790163383692986600,14.860986572265626,-0.8280271887779236,0.16126830875873566,0.7652608752250671
1790163383710241500,14.878241455078125,-0.7559451460838318,0.05803215503692627,0.6131555438041687
1790163383727496200,14.89549609375,-0.6404917240142822,0.043371398001909256,0.48792824149131775
1790163383744751000,14.912751220703125,-0.435241162776947,0.11911863088607788,0.3987419903278351
1790163383762005800,14.930005859375,-0.20616686344146729,0.1539379209280014,0.27840161323547363
1790163383779260700,14.9472607421875,-0.023518294095993042,0.13500112295150757,0.10674861818552017
1790163383796515300,14.964515380859375,0.1389717310667038,0.10079269111156464,-0.023365577682852745
1790163383813770200,14.981770263671875,0.31673339009284973,-0.01649334840476513,-0.1363755613565445
1790163383831025000,14.99902490234375,0.509155809879303,-0.2101374864578247,-0.2945895493030548
1790163383848279800,15.01627978515625,0.6728675365447998,-0.2657261788845062,-0.44119709730148315
1790163383865534500,15.033534423828126,0.7980948090553284,-0.21197007596492767,-0.549930989742279
1790163383882789400,15.050789306640626,0.9269872903823853,-0.16310089826583862,-0.623845636844635
1790163383900044000,15.0680439453125,1.043662428855896,-0.2614501118659973,-0.6629409790039062
1790163383917298700,15.085298583984375,1.1279618740081787,-0.6536253094673157,-0.7283035516738892
1790163383934553300,15.10255322265625,1.286786675453186,-0.9859357476234436,-0.8981239199638367
1790163383951807700,15.119807861328125,1.311832070350647,-0.7599157691001892,-1.0202969312667847
1790163383969062400,15.1370625,1.2336413860321045,-0.41355544328689575,-1.0600031614303589
1790163383986317000,15.154317138671875,1.204319953918457,-0.3585776388645172,-1.0202969312667847
1790163384003571700,15.17157177734375,1.2794562578201294,-0.6432406306266785,-1.0166317224502563
1790163384020826400,15.188826416015624,1.508530616760254,-1.211344838142395,-1.0447314977645874
1790163384038081300,15.206081298828124,1.656970739364624,-1.0763437747955322,-0.9030108451843262
1790163384055336000,15.2233359375,1.573282241821289,-0.32070401310920715,-0.808937668800354
1790163384072590800,15.2405908203125,1.5409064292907715,0.007941242307424545,-0.8297070860862732
1790163384089845800,15.257845703125,1.7088942527770996,-0.15271618962287903,-0.8681915402412415
1790163384107100400,15.275100341796875,1.969733476638794,-0.5900954008102417,-0.8290961980819702
1790163384124354800,15.292354736328125,2.30570912361145,-0.924849271774292,-0.8462004065513611
1790163384141609500,15.309609375,2.3209807872772217,-0.30115634202957153,-0.8266527652740479
1790163384158864100,15.326864013671875,2.0809109210968018,0.6304124593734741,-0.8443678617477417
1790163384176118800,15.344118896484375,2.0796890258789062,0.8594867587089539,-0.9231693744659424
1790163384193373200,15.361373291015624,2.22385311126709,0.5100721120834351,-1.0691660642623901
1790163384210628000,15.378628173828124,2.3319764137268066,0.01954767294228077,-1.1760674715042114
1790163384227882800,15.3958828125,2.330754518508911,-0.3329212963581085,-1.1656826734542847
1790163384245137700,15.4131376953125,2.123671293258667,0.10567960888147354,-0.9500474333763123
1790163384262392300,15.430392333984376,1.9147557020187378,0.6053670048713684,-0.8846849203109741
1790163384279647200,15.447647216796875,1.8628321886062622,0.48441576957702637,-0.8303179740905762
1790163384296902000,15.46490185546875,1.7498221397399902,-0.0256563201546669,-0.7814487814903259
1790163384314156500,15.482156494140625,1.5311325788497925,-0.36285367608070374,-0.7851139307022095
1790163384331411200,15.4994111328125,1.303279995918274,-0.3591884970664978,-0.6806560754776001
1790163384348665600,15.51666552734375,0.9825760126113892,0.17653992772102356,-0.42042768001556396
1790163384365920300,15.533920166015625,0.6991347670555115,0.35124725103378296,-0.29214608669281006
1790163384383175000,15.5511748046875,0.5598575472831726,0.12034036219120026,-0.23105959594249725
1790163384400429600,15.5684296875,0.374765545129776,-0.12705987691879272,-0.17791436612606049
1790163384417684200,15.585684326171876,0.12675444781780243,-0.29565855860710144,-0.1418733447790146
1790163384434939100,15.602939208984376,-0.08521563559770584,-0.29016077518463135,-0.01847865991294384
1790163384452193800,15.62019384765625,-0.30024003982543945,-0.000610864779446274,0.1366809904575348
1790163384469448700,15.63744873046875,-0.4364628791809082,0.11606431007385254,0.24052800238132477
1790163384486703400,15.654703369140625,-0.5842921733856201,0.07513637095689774,0.3633118271827698
1790163384503958300,15.671958251953125,-0.7638863921165466,-0.034208428114652634,0.4744892120361328
1790163384521213000,15.689212890625,-0.9734130501747131,-0.13072505593299866,0.5276344418525696
1790163384538467800,15.7064677734375,-1.1224640607833862,-0.14233149588108063,0.5471821427345276
1790163384555722500,15.723722412109375,-1.2269219160079956,-0.06230820715427399,0.6101012229919434
1790163384572977400,15.740977294921874,-1.3466514348983765,0.08063415437936783,0.6772963404655457
1790163384590232300,15.758232421875,-1.4871503114700317,0.11239911615848541,0.688902735710144
1790163384607486700,15.77548681640625,-1.6783509254455566,-0.01588248461484909,0.6821832656860352
1790163384624741400,15.792741455078126,-1.859777808189392,-0.056199558079242706,0.7628173828125
1790163384641996000,15.80999609375,-1.9636248350143433,0.14599667489528656,0.9350812435150146
1790163384659250700,15.827250732421875,-2.0436480045318604,0.4214966893196106,1.0682498216629028
1790163384676505000,15.844505126953125,-2.140775680541992,0.46425724029541016,1.1250602006912231
1790163384693759700,15.861759765625,-2.229351043701172,0.26022839546203613,1.1830923557281494
1790163384711014700,15.8790146484375,-2.2140793800354004,0.05436696484684944,1.28083074092865
1790163384728269300,15.896269287109375,-2.182925224304199,0.20402882993221283,1.4237730503082275
1790163384745524200,15.913524169921875,-2.146273374557495,0.5033525824546814,1.5013529062271118
1790163384762779000,15.93077880859375,-2.1468842029571533,0.49968740344047546,1.4689770936965942
1790163384780033800,15.94803369140625,-2.1700971126556396,0.3500255048274994,1.4530946016311646
1790163384797288400,15.965288330078126,-2.1523821353912354,0.328645259141922,1.5196788311004639
1790163384814543000,15.982543212890626,-2.082132577896118,0.43371400237083435,1.5587742328643799
1790163384831797500,15.999797607421876,-1.961792230606079,0.44409868121147156,1.5392265319824219
1790163384849052200,16.01705224609375,-1.7944152355194092,0.36163195967674255,1.549611210823059
1790163384866306800,16.034306884765623,-1.5946625471115112,0.28466299176216125,1.531285285949707
1790163384883561500,16.0515615234375,-1.4718786478042603,0.22907429933547974,1.4396555423736572
1790163384900816100,16.068816162109375,-1.444389820098877,0.12034036219120026,1.3235912322998047
1790163384918070800,16.08607080078125,-1.4688243865966797,0.1178968995809555,1.205694317817688
1790163384935325700,16.10332568359375,-1.4486658573150635,0.22357651591300964,1.0664172172546387
1790163384952580400,16.120580322265624,-1.3869684934616089,0.2632827162742615,0.9185879230499268
1790163384969835300,16.137835205078126,-1.3099994659423828,0.2107483446598053,0.7878628373146057
1790163384987090000,16.15508984375,-1.2470804452896118,0.2003636509180069,0.6717985272407532
1790163385004344800,16.1723447265625,-1.1133010387420654,0.23396120965480804,0.5997164845466614
1790163385021599200,16.18959912109375,-0.888502836227417,0.2260199636220932,0.4140135943889618
1790163385038854000,16.20685400390625,-0.6093376278877258,0.17348559200763702,0.15989385545253754
1790163385056108500,16.224108642578123,-0.3686569035053253,0.04764745384454727,-0.07895427197217941
1790163385073363200,16.24136328125,-0.16829325258731842,-0.03543015569448471,-0.27198755741119385
1790163385090617600,16.25861767578125,0.022296564653515816,-0.13927717506885529,-0.3764454126358032
1790163385107872300,16.275872314453125,0.22815799713134766,-0.20280711352825165,-0.46257734298706055
1790163385125127200,16.293127197265626,0.45051276683807373,-0.2614501118659973,-0.5658134818077087
1790163385142381800,16.3103818359375,0.6698132157325745,-0.38301220536231995,-0.6916516423225403
1790163385159636700,16.32763671875,0.8707877397537231,-0.39217519760131836,-0.8242093324661255
1790163385176891600,16.3448916015625,1.063210129737854,-0.4453204274177551,-0.9195042252540588
1790163385194146300,16.362146240234374,1.2880083322525024,-0.5308414697647095,-0.9909753799438477
1790163385211401200,16.379401123046875,1.4688243865966797,-0.40927940607070923,-1.0038034915924072
1790163385228655900,16.39665576171875,1.5861103534698486,-0.10445787757635117,-0.9121738076210022
1790163385245910800,16.413910888671875,1.7058398723602295,-0.01649334840476513,-0.8022181987762451
1790163385263165400,16.43116552734375,1.8878775835037231,-0.1698204129934311,-0.9158390164375305
1790163385280420400,16.44842041015625,2.1310017108917236,-0.48013970255851746,-1.070387840270996
1790163385297675000,16.465675048828125,2.2873830795288086,-0.49541133642196655,-1.08810293674469
1790163385314929700,16.4829296875,2.325256824493408,-0.20280711352825165,-1.0538945198059082
1790163385332184300,16.500184326171876,2.2672245502471924,-0.13011419773101807,-1.0343468189239502
1790163385349438700,16.517438720703126,2.2165229320526123,-0.555276095867157,-1.085659384727478
1790163385366693400,16.534693359375,2.308152675628662,-1.2076796293258667,-1.154076337814331
1790163385383948000,16.551947998046874,2.3826780319213867,-1.0641264915466309,-0.9078977704048157
1790163385401202700,16.56920263671875,2.252563953399658,-0.1802051067352295,-0.6861538887023926
1790163385418457300,16.586457275390625,2.069915294647217,0.2205221801996231,-0.7050906419754028
1790163385435712300,16.603712158203123,2.0124940872192383,0.06291907280683517,-0.8303179740905762
1790163385452967000,16.620966796875,2.037539482116699,-0.28588470816612244,-0.9231693744659424
1790163385470221800,16.638221923828127,2.0974042415618896,-0.6243038177490234,-0.9781472086906433
1790163385487476500,16.6554765625,2.0112721920013428,-0.4001164436340332,-0.828485369682312
1790163385504731400,16.6727314453125,1.7828088998794556,0.2315177470445633,-0.6904299259185791
1790163385521985800,16.68998583984375,1.6545273065567017,0.3194822669029236,-0.6366738080978394
1790163385539240400,16.707240478515626,1.655748963356018,-0.004886918235570192,-0.6360629796981812
1790163385556495000,16.7244951171875,1.6581923961639404,-0.4379900395870209,-0.633619487285614
1790163385573749500,16.74174951171875,1.6001602411270142,-0.656679630279541,-0.6586649417877197
1790163385591004200,16.759004150390624,1.3869684934616089,-0.3811796307563782,-0.5566505193710327
1790163385608258800,16.7762587890625,1.1261292695999146,0.18081597983837128,-0.43203410506248474
1790163385625513700,16.793513671875,1.00762140750885,0.3029889166355133,-0.3575085997581482
1790163385642768400,16.810768310546877,0.8805615901947021,0.11239911615848541,-0.32391104102134705
1790163385660023300,16.828023193359375,0.7076868414878845,0.014049889519810677,-0.28848087787628174
1790163385677278200,16.8452783203125,0.5219839811325073,-0.01649334840476513,-0.2548833191394806
1790163385694532900,16.862532958984374,0.3503309488296509,0.02626718580722809,-0.1565341055393219
1790163385711787500,16.87978759765625,0.1902843713760376,0.185092031955719,0.02306014485657215
1790163385729042000,16.8970419921875,0.07116574794054031,0.18692462146282196,0.11346813291311264
1790163385746296600,16.914296630859376,-0.05528326332569122,0.06841685622930527,0.15561780333518982
1790163385763551200,16.93155126953125,-0.20922118425369263,-0.034208428114652634,0.2124282270669937
1790163385780806000,16.948805908203123,-0.38881543278694153,-0.08368847519159317,0.3016144931316376
1790163385798060500,16.966060546875,-0.5238165259361267,-0.08491020649671555,0.3779725730419159
1790163385815315200,16.983315185546875,-0.5506945848464966,0.01282816007733345,0.39446592330932617
1790163385832570000,17.000570068359377,-0.6178897023200989,0.006108647678047419,0.4378373324871063
1790163385849824800,17.01782470703125,-0.7803797721862793,-0.08368847519159317,0.47754353284835815
1790163385867079700,17.03507958984375,-0.9453132748603821,-0.10323614627122879,0.48853909969329834
1790163385884334300,17.052334228515626,-1.0613775253295898,-0.11972949653863907,0.5416843295097351
1790163385901589200,17.06958935546875,-1.184772253036499,-0.1233946830034256,0.5801688432693481
1790163385918843600,17.08684375,-1.3435970544815063,-0.06719512492418289,0.5807796716690063
1790163385936098300,17.104098388671876,-1.4950915575027466,0.03237583488225937,0.6320923566818237
1790163385953353000,17.12135302734375,-1.6172645092010498,0.05192350596189499,0.7365502119064331
1790163385970607600,17.138607666015623,-1.7595959901809692,-0.049480047076940536,0.7866411209106445
1790163385987862000,17.155862060546873,-1.8799363374710083,-0.24495677649974823,0.7188351154327393
1790163386005116700,17.17311669921875,-1.9587379693984985,-0.370184063911438,0.6455313563346863
1790163386022371600,17.19037158203125,-2.006385326385498,-0.27427828311920166,0.5997164845466614
1790163386039626200,17.207626220703126,-2.05953049659729,-0.16737695038318634,0.5600103139877319
1790163386056881200,17.224881103515624,-2.162766695022583,-0.04459312930703163,0.5251910090446472
1790163386074135800,17.2421357421875,-2.2055273056030273,0.13011419773101807,0.5105302333831787
1790163386091390700,17.259390625,-2.2079708576202393,0.30482152104377747,0.4738783538341522
1790163386108645400,17.276645263671874,-2.1872012615203857,0.2993237376213074,0.4231765866279602
1790163386125900300,17.293900390625,-2.1169519424438477,0.2932150959968567,0.36880961060523987
1790163386143155000,17.311155029296874,-2.073580503463745,0.4679224193096161,0.37369653582572937
1790163386160409900,17.328409912109375,-2.006385326385498,0.5925388336181641,0.39568766951560974
1790163386177664800,17.345664794921873,-1.9025382995605469,0.6004800796508789,0.393244206905365
1790163386194919400,17.36291943359375,-1.7229441404342651,0.5980366468429565,0.3816377818584442
1790163386212174000,17.380174072265625,-1.5286891460418701,0.5845975875854492,0.4072940945625305
1790163386229428700,17.3974287109375,-1.398574948310852,0.5387827157974243,0.45127636194229126
1790163386246683100,17.41468310546875,-1.2519673109054565,0.42271843552589417,0.47693267464637756
1790163386263937800,17.431937744140626,-1.0833686590194702,0.22724169492721558,0.4751000702381134
1790163386281192400,17.4491923828125,-0.952643632888794,0.07635809481143951,0.45127636194229126
1790163386298447000,17.466447021484374,-0.8567378520965576,0.07452550530433655,0.4335612654685974
1790163386315701800,17.48370166015625,-0.8017600178718567,0.07574722915887833,0.40118545293807983
1790163386332956700,17.500956787109374,-0.7522799968719482,0.14294235408306122,0.3633118271827698
1790163386350211300,17.51821142578125,-0.6618719696998596,0.20463970303535461,0.33765551447868347
1790163386367466200,17.53546630859375,-0.5109884142875671,0.16737695038318634,0.2906189262866974
1790163386384721000,17.552720947265627,-0.3759872615337372,0.10323614627122879,0.2032652497291565
1790163386401975800,17.569975830078125,-0.2409861534833908,0.09407317638397217,0.11591159552335739
1790163386419230200,17.587230224609375,-0.07299833744764328,0.09834922850131989,0.05238165333867073
1790163386436484900,17.60448486328125,0.11392628401517868,0.05864302068948746,0.011453714221715927
1790163386453739500,17.621739501953126,0.28069236874580383,-0.06597339361906052,-0.045967575162649155
1790163386470994000,17.638993896484376,0.4425715208053589,-0.2052505612373352,-0.12476912885904312
1790163386488248600,17.65624853515625,0.5934551358222961,-0.19242240488529205,-0.17608177661895752
1790163386505503200,17.673503173828124,0.7241802215576172,-0.05558869615197182,-0.20601414144039154
1790163386522758100,17.690758056640625,0.8659008145332336,-0.03481929376721382,-0.2530507445335388
1790163386540012800,17.7080126953125,0.9789108037948608,-0.14599667489528656,-0.3061959743499756
1790163386557267700,17.725267822265625,1.074205756187439,-0.23029601573944092,-0.34345871210098267
1790163386574522400,17.7425224609375,1.1866048574447632,-0.39889469742774963,-0.31780239939689636
1790163386591777300,17.75977734375,1.2440260648727417,-0.5882627964019775,-0.2738201320171356
1790163386609032000,17.777031982421875,1.2721259593963623,-0.6597339510917664,-0.39416050910949707
1790163386626286600,17.79428662109375,1.3374884128570557,-0.7098248600959778,-0.5108356475830078
1790163386643541000,17.811541015625,1.4309507608413696,-0.758694052696228,-0.5138899683952332
1790163386660795600,17.828795654296876,1.5152500867843628,-0.7666352987289429,-0.4228711426258087
1790163386678050300,17.84605029296875,1.5146392583847046,-0.37751442193984985,-0.2890917658805847
1790163386695304700,17.8633046875,1.461493968963623,0.046425722539424896,-0.2695440948009491
1790163386712559600,17.8805595703125,1.5066980123519897,0.028099779039621353,-0.39599308371543884
1790163386729814300,17.897814208984375,1.6838487386703491,-0.27977606654167175,-0.5682569742202759
1790163386747069200,17.915069091796877,1.9129230976104736,-0.535728394985199,-0.5664243698120117
1790163386764324000,17.932323974609375,1.989281177520752,-0.22357651591300964,-0.44669488072395325
1790163386781578800,17.949578857421876,1.953240156173706,0.20219624042510986,-0.47357290983200073
1790163386798833700,17.966833740234375,1.9905028343200684,0.2877173125743866,-0.5908589363098145
1790163386816088000,17.984088134765624,2.1297800540924072,0.06719512492418289,-0.7234166264533997
1790163386833342700,18.0013427734375,2.296546220779419,-0.23029601573944092,-0.8559742569923401
1790163386850597400,18.018597412109376,2.185368776321411,0.006108647678047419,-0.8290961980819702
1790163386867851800,18.035851806640625,1.8866559267044067,0.5711585879325867,-0.8510873317718506
1790163386885106400,18.0531064453125,1.7437134981155396,0.665842592716217,-0.8993456959724426
1790163386902361000,18.070361083984373,1.8359540700912476,0.3750709891319275,-0.975703775882721
1790163386919616000,18.087615966796875,1.9538509845733643,-0.020769402384757996,-1.0374010801315308
1790163386936870700,18.10487060546875,1.978285551071167,-0.26939135789871216,-1.041066288948059
1790163386954125600,18.12212548828125,1.7424918413162231,-0.013439024798572063,-0.8962913751602173
1790163386971380200,18.139380126953125,1.4743221998214722,0.35124725103378296,-0.7832813858985901
1790163386988635100,18.15663525390625,1.2892301082611084,0.36285367608070374,-0.6940951347351074
1790163387005889800,18.173889892578124,1.117577075958252,0.1545487940311432,-0.634230375289917
1790163387023144400,18.19114453125,0.9453132748603821,-0.026878049597144127,-0.5823068618774414
1790163387040398800,18.20839892578125,0.7076868414878845,-0.056810423731803894,-0.4430296719074249
1790163387057653500,18.225653564453125,0.4046979248523712,0.21930044889450073,-0.2328922003507614
1790163387074908200,18.242908203125,0.16829325258731842,0.34086254239082336,-0.12354740500450134
1790163387092162600,18.26016259765625,-0.025350889191031456,0.15699224174022675,-0.04413498193025589
1790163387109417500,18.27741748046875,-0.24281874299049377,-0.05864302068948746,0.06520981341600418
1790163387126672100,18.294672119140625,-0.4657844007015228,-0.1588248461484909,0.1971566081047058
1790163387143927000,18.311927001953126,-0.6563742160797119,-0.17653992772102356,0.3407098352909088
1790163387161181700,18.329181640625,-0.7980948090553284,-0.09040798991918564,0.513584554195404
1790163387178436600,18.3464365234375,-0.9343177080154419,-0.06963858753442764,0.6406444311141968
1790163387195691300,18.363691162109376,-1.0674861669540405,-0.17531819641590118,0.7145590782165527
1790163387212946200,18.3809462890625,-1.1969895362854004,-0.26389357447624207,0.7603739500045776
1790163387230200800,18.398200927734376,-1.3655881881713867,-0.23457208275794983,0.7945823669433594
1790163387247455700,18.415455810546874,-1.4963133335113525,-0.07147117704153061,0.8074105381965637
1790163387264710700,18.432710693359375,-1.554956316947937,0.10567960888147354,0.8416189551353455
1790163387281965300,18.44996533203125,-1.647196888923645,0.1893680840730667,0.9063706398010254
1790163387299220000,18.467219970703123,-1.8408410549163818,0.04153880476951599,0.8709404468536377
1790163387316474600,18.484474609375,-2.028376579284668,-0.12278381735086441,0.8135191798210144
1790163387333729300,18.501729248046875,-2.045480728149414,-0.10506874322891235,0.8257364630699158
1790163387350984000,18.51898388671875,-1.9929463863372803,-0.029932374134659767,0.8629992008209229
1790163387368238300,18.53623828125,-1.9752312898635864,0.17348559200763702,0.8727730512619019
1790163387385493000,18.553492919921876,-2.022878646850586,0.35124725103378296,0.846505880355835
1790163387402747600,18.57074755859375,-2.0546436309814453,0.3329212963581085,0.7958040833473206
1790163387420002600,18.58800244140625,-2.070526123046875,0.1380554437637329,0.69012451171875
1790163387437257200,18.60525732421875,-2.0295982360839844,0.012217295356094837,0.6223185062408447
1790163387454512000,18.62251220703125,-1.9495749473571777,0.08429934084415436,0.6840158104896545
1790163387471766800,18.639766845703125,-1.87932550907135,0.3909534513950348,0.7933606505393982
1790163387489021700,18.657021728515623,-1.8261802196502686,0.5198459029197693,0.801301896572113
1790163387506276400,18.6742763671875,-1.736383080482483,0.2932150959968567,0.7066178321838379
1790163387523530800,18.69153076171875,-1.6264275312423706,-0.06536252796649933,0.6369792222976685
1790163387540785400,18.708785400390624,-1.451720118522644,-0.23212862014770508,0.6107120513916016
1790163387558040000,18.7260400390625,-1.3154972791671753,-0.05742128938436508,0.6076577305793762
1790163387575294700,18.743294677734376,-1.2971713542938232,0.04214967042207718,0.6046034097671509
1790163387592549000,18.760549072265626,-1.2861758470535278,-0.01893680728971958,0.58749920129776
1790163387609804000,18.777803955078124,-1.24769127368927,-0.1130099818110466,0.5184714794158936
1790163387627058700,18.79505859375,-1.211039423942566,-0.07391463965177536,0.44638943672180176
1790163387644313600,18.812313720703123,-1.1731657981872559,0.0616973415017128,0.40485063195228577
1790163387661568300,18.829568359375,-1.1414008140563965,0.17898337543010712,0.37369653582572937
1790163387678823200,18.8468232421875,-1.10230553150177,0.1692095398902893,0.3462076187133789
1790163387696077800,18.864077880859377,-1.0491602420806885,0.08796452730894089,0.2991710305213928
1790163387713332500,18.88133251953125,-0.9599739909172058,-0.0360410213470459,0.22769984602928162
1790163387730587100,18.898587158203124,-0.850018322467804,-0.12522727251052856,0.1611155867576599
1790163387747841800,18.915841796875,-0.7651081085205078,-0.09957095980644226,0.1464548259973526
1790163387765096200,18.93309619140625,-0.6881392002105713,-0.07880155742168427,0.18310672044754028
1790163387782350800,18.950350830078126,-0.5989528894424438,-0.11423171311616898,0.19654574990272522
1790163387799605500,18.96760546875,-0.4718930423259735,-0.1649334877729416,0.14950916171073914
1790163387816860200,18.984860107421873,-0.30451610684394836,-0.14660754799842834,0.07009673118591309
1790163387834115000,19.002114990234375,-0.129197895526886,-0.10140355676412582,0.012675444595515728
1790163387851370000,19.019369873046877,0.06872228533029556,-0.18753549456596375,-0.08811724185943604
1790163387868624600,19.036624755859375,0.2782489061355591,-0.3243691921234131,-0.24205516278743744
1790163387885879600,19.053879638671877,0.4841103255748749,-0.3646862804889679,-0.366060733795166
1790163387903134200,19.07113427734375,0.6343830823898315,-0.2412915825843811,-0.4094321131706238
1790163387920388900,19.088388916015624,0.7553343176841736,-0.32559093832969666,-0.45219266414642334
1790163387937643300,19.105643310546874,0.9453132748603821,-0.695164144039154,-0.5456549525260925
1790163387954898000,19.12289794921875,1.1621702909469604,-0.963333785533905,-0.6653844714164734
1790163387972152600,19.140152587890626,1.3252711296081543,-1.0525200366973877,-0.6916516423225403
1790163387989407000,19.157406982421875,1.424842119216919,-0.6627882719039917,-0.5462658405303955
1790163388006662000,19.174661865234373,1.4718786478042603,-0.056810423731803894,-0.37522369623184204
1790163388023916500,19.19191650390625,1.5806126594543457,0.15760311484336853,-0.3208567202091217
1790163388041171500,19.20917138671875,1.6875139474868774,-0.04581485688686371,-0.39477136731147766
1790163388058426000,19.226426025390627,1.7919718027114868,-0.4453204274177551,-0.5163334608078003
1790163388075681000,19.243680908203125,1.9184207916259766,-0.7458658814430237,-0.5645917654037476
1790163388092935700,19.260935791015626,1.8976514339447021,-0.45326167345046997,-0.4864010810852051
1790163388110190300,19.2781904296875,1.787084937095642,-0.08124501258134842,-0.43692103028297424
1790163388127445000,19.295445068359374,1.8585560321807861,-0.07269290834665298,-0.4961749315261841
1790163388144699600,19.31269970703125,2.082132577896118,-0.4422661066055298,-0.5871937870979309
1790163388161954000,19.3299541015625,2.385732412338257,-0.9053016304969788,-0.6067414283752441
1790163388179208700,19.347208740234375,2.565326690673828,-0.9334014058113098,-0.4967857897281647
1790163388196463400,19.36446337890625,2.358854293823242,-0.12767073512077332,-0.3782780170440674
1790163388213718000,19.381718017578127,2.095571517944336,0.5082395076751709,-0.45097091794013977
1790163388230973000,19.398972900390625,2.0381503105163574,0.5314523577690125,-0.5975784659385681
1790163388248227600,19.4162275390625,2.1694862842559814,0.2052505612373352,-0.6873756051063538
1790163388265482500,19.433482421875,2.3203699588775635,-0.12156209349632263,-0.74540776014328
1790163388282737200,19.450737060546874,2.1951425075531006,0.02626718580722809,-0.7032580971717834
1790163388299992000,19.467991943359376,1.9049818515777588,0.5760455131530762,-0.6757691502571106
1790163388317246500,19.48524658203125,1.7235549688339233,0.7538071274757385,-0.6849321126937866
1790163388334501000,19.502501220703124,1.7162245512008667,0.5632173418998718,-0.7570141553878784
1790163388351755800,19.519755859375,1.6520837545394897,0.21991132199764252,-0.8254310488700867
1790163388369010400,19.537010498046875,1.4981458187103271,0.05742128938436508,-0.8229875564575195
1790163388386264800,19.554264892578125,1.3142756223678589,0.014049889519810677,-0.7539598345756531
1790163388403519500,19.57151953125,1.0650427341461182,0.2559523284435272,-0.5994110703468323
1790163388420774400,19.5887744140625,0.8158099055290222,0.5351175665855408,-0.522442102432251
1790163388438029000,19.606029052734375,0.6539307236671448,0.4575377106666565,-0.4558578431606293
1790163388455284000,19.623283935546876,0.4419606626033783,0.26511532068252563,-0.3404043912887573
1790163388472539000,19.640538818359374,0.1493564397096634,0.1490510106086731,-0.22006404399871826
1790163388489793500,19.65779345703125,-0.1432477980852127,0.05864302068948746,-0.07345648854970932
1790163388507048200,19.675048095703126,-0.35155269503593445,0.07147117704153061,0.07376192510128021
1790163388524302800,19.692302734375,-0.46456265449523926,0.13072505593299866,0.2234237939119339
1790163388541557500,19.7095576171875,-0.5543597936630249,0.06414080411195755,0.3523162603378296
1790163388558812000,19.72681201171875,-0.6655371785163879,-0.09896009415388107,0.4653262495994568
1790163388576066600,19.744066650390625,-0.7834340929985046,-0.23029601573944092,0.5435169339179993
1790163388593321200,19.7613212890625,-0.898276686668396,-0.258395791053772,0.5899426341056824
1790163388610576000,19.778575927734376,-1.0241148471832275,-0.19608759880065918,0.6021599769592285
1790163388627830800,19.795830810546875,-1.1841614246368408,-0.13500112295150757,0.6149880886077881
1790163388645085400,19.81308544921875,-1.3515383005142212,-0.1288924664258957,0.6363683938980103
1790163388662340400,19.83034033203125,-1.5030328035354614,-0.1380554437637329,0.6522508859634399
1790163388679595000,19.847594970703124,-1.6129884719848633,-0.034208428114652634,0.6443096399307251
1790163388696850000,19.864849853515626,-1.7143919467926025,0.07574722915887833,0.5710058808326721
1790163388714104300,19.882104248046875,-1.8096868991851807,0.19303326308727264,0.5025889873504639
1790163388731359000,19.89935888671875,-1.8811581134796143,0.23273947834968567,0.5306887626647949
1790163388748613600,19.916613525390623,-1.87932550907135,0.16859868168830872,0.6235402226448059
1790163388765868300,19.933868408203125,-1.8438953161239624,0.0977383628487587,0.6290380358695984
1790163388783122700,19.951122802734375,-1.8652756214141846,0.20341797173023224,0.578336238861084
1790163388800377300,19.96837744140625,-1.887266755104065,0.4056142270565033,0.5502364635467529
1790163388817632300,19.98563232421875,-1.9770638942718506,0.4569268524646759,0.5569559335708618
1790163388834887000,20.002886962890624,-1.9746203422546387,0.3182605504989624,0.49220430850982666
1790163388852141800,20.020141845703126,-1.851225733757019,0.08857539296150208,0.4134027361869812
1790163388869396500,20.037396484375,-1.728441834449768,0.16126830875873566,0.42562004923820496
1790163388886651400,20.0546513671875,-1.7070616483688354,0.4422661066055298,0.45616328716278076
1790163388903906000,20.071906005859375,-1.7516547441482544,0.5326740741729736,0.48792824149131775
1790163388921160700,20.08916064453125,-1.7302744388580322,0.4410443603992462,0.5154171586036682
1790163388938415000,20.1064150390625,-1.6404774188995361,0.4825831651687622,0.513584554195404
1790163388955669800,20.123669677734377,-1.5653409957885742,0.5314523577690125,0.5062541961669922
1790163388972924400,20.14092431640625,-1.4932589530944824,0.5681042671203613,0.5606211423873901
1790163388990179000,20.158178955078125,-1.4016292095184326,0.43493571877479553,0.597273051738739
1790163389007433700,20.175433837890626,-1.295338749885559,0.24495677649974823,0.606436014175415
1790163389024688400,20.1926884765625,-1.2531890869140625,0.16676609218120575,0.5740602016448975
1790163389041943300,20.209943359375,-1.2580760717391968,0.14110976457595825,0.5471821427345276
1790163389059198200,20.2271982421875,-1.2397500276565552,0.1545487940311432,0.523969292640686
1790163389076452900,20.244452880859374,-1.138346552848816,0.14172062277793884,0.4915934205055237
1790163389093707800,20.261707763671875,-1.0210604667663574,0.12156209349632263,0.4225656986236572
1790163389110962200,20.278962158203125,-0.9337068200111389,0.11545344442129135,0.2900080680847168
1790163389128216800,20.296216796875,-0.8506292104721069,0.09712749719619751,0.12324196845293045
1790163389145471500,20.313471435546877,-0.72173672914505,0.04459312930703163,0.001679878099821508
1790163389162726000,20.330725830078126,-0.5048797130584717,-0.015271619893610477,-0.09117157012224197
1790163389179980500,20.34798046875,-0.25381430983543396,-0.021991131827235222,-0.18829907476902008
1790163389197235200,20.365235107421874,-0.03634645417332649,-0.031154103577136993,-0.264046311378479
1790163389214490000,20.382489990234376,0.1737910360097885,-0.1637117564678192,-0.31902414560317993
1790163389231744800,20.399744873046874,0.40714138746261597,-0.31154105067253113,-0.4130973219871521
1790163389248999700,20.416999755859376,0.6490437984466553,-0.3903425931930542,-0.4857902228832245
1790163389266254300,20.43425439453125,0.850018322467804,-0.33597561717033386,-0.5187768936157227
1790163389283509200,20.45150927734375,0.9923498630523682,-0.2809978127479553,-0.5676460862159729
1790163389300764000,20.468763916015625,1.1133010387420654,-0.3756818473339081,-0.6348412036895752
1790163389318018600,20.4860185546875,1.2238675355911255,-0.6487383842468262,-0.6702713966369629
1790163389335273000,20.50327294921875,1.3533709049224854,-0.8356630206108093,-0.6788234710693359
1790163389352527600,20.520527587890626,1.3820815086364746,-0.5320632457733154,-0.5902481079101562
1790163389369782300,20.5377822265625,1.379027247428894,-0.3090975880622864,-0.5065596103668213
1790163389387036700,20.55503662109375,1.4578287601470947,-0.44898560643196106,-0.490677148103714
1790163389404291600,20.57229150390625,1.5977168083190918,-0.8057306408882141,-0.49189886450767517
1790163389421546000,20.5895458984375,1.755930781364441,-1.007315993309021,-0.4540252387523651
1790163389438800600,20.606800537109375,1.8127412796020508,-0.685390293598175,-0.3556760251522064
1790163389456055300,20.62405517578125,1.7748676538467407,-0.30604326725006104,-0.295811265707016
1790163389473309700,20.641309814453123,1.8750494718551636,-0.26389357447624207,-0.2835939824581146
1790163389490564400,20.658564453125,2.092517375946045,-0.5619956254959106,-0.29336780309677124
1790163389507819000,20.675819091796875,2.3228132724761963,-0.9193515181541443,-0.35017824172973633
1790163389525074000,20.693073974609376,2.441931962966919,-0.9859357476234436,-0.3837758004665375
1790163389542328600,20.71032861328125,2.4455971717834473,-0.6218603253364563,-0.36422812938690186
1790163389559583500,20.72758349609375,2.369239091873169,-0.02260199747979641,-0.32818710803985596
1790163389576838100,20.744838134765626,2.304487466812134,0.3585776388645172,-0.3715584874153137
1790163389594093000,20.762093017578124,2.2427899837493896,0.46425724029541016,-0.502894401550293
1790163389611347700,20.77934765625,2.1700971126556396,0.4459312856197357,-0.595745861530304
1790163389628602400,20.796602294921875,2.0937390327453613,0.3799578845500946,-0.6042979955673218
1790163389645856800,20.813856689453125,2.0222678184509277,0.42394015192985535,-0.5523744821548462
1790163389663111400,20.831111328125,1.9459097385406494,0.3952295184135437,-0.5786416530609131
1790163389680366000,20.848365966796877,1.877492904663086,0.3952295184135437,-0.6256782412528992
1790163389697620500,20.865620361328126,1.8109086751937866,0.30115634202957153,-0.6195695996284485
1790163389714875400,20.88287548828125,1.702785611152649,0.10323614627122879,-0.6159043908119202
1790163389732130000,20.900130126953126,1.5708388090133667,-0.09407317638397217,-0.5755873322486877
1790163389749385000,20.917385009765624,1.3936879634857178,-0.18631376326084137,-0.4754055142402649
1790163389766639900,20.934639892578126,1.117577075958252,-0.08307760953903198,-0.38988444209098816
1790163389783894500,20.95189453125,0.8775072693824768,0.056810423731803894,-0.3214675784111023
1790163389801149200,20.969149169921874,0.7113520503044128,0.09040798991918564,-0.2383899837732315
1790163389818403800,20.98640380859375,0.5170970559120178,0.08491020649671555,-0.11743875592947006
1790163389835658500,21.003658447265625,0.2886336147785187,0.09162971377372742,0.013897174037992954
1790163389852913200,21.0209130859375,0.0772743970155716,0.04153880476951599,0.1311832070350647
1790163389870167600,21.03816748046875,-0.10720676928758621,-0.07391463965177536,0.22159120440483093
1790163389887422200,21.055422119140626,-0.2684750556945801,-0.1844811588525772,0.32299473881721497
1790163389904676900,21.0726767578125,-0.4266890585422516,-0.2761108875274658,0.44700029492378235
1790163389921931800,21.089931884765626,-0.5787943601608276,-0.2779434621334076,0.5410735011100769
1790163389939186400,21.1071865234375,-0.7559451460838318,-0.21319180727005005,0.6327031850814819
1790163389956441300,21.12444140625,-0.9159917235374451,-0.13744457066059113,0.7377719283103943
1790163389973696000,21.141696044921876,-1.0583232641220093,-0.19303326308727264,0.7579304575920105
1790163389990951000,21.158950927734374,-1.2018764019012451,-0.30970844626426697,0.7170025110244751
1790163390008205600,21.17620556640625,-1.332601547241211,-0.33231043815612793,0.7072287201881409
1790163390025460000,21.1934599609375,-1.5030328035354614,-0.21991132199764252,0.7053961157798767
1790163390042714600,21.210714599609375,-1.69301176071167,-0.09468404203653336,0.671187698841095
1790163390059969300,21.22796923828125,-1.8353432416915894,-0.03298669680953026,0.6333140730857849
1790163390077224000,21.245223876953126,-1.961181402206421,-0.04459312930703163,0.5954404473304749
1790163390094478300,21.262478271484376,-2.037539482116699,-0.09101885557174683,0.5581777095794678
1790163390111733200,21.279733154296874,-2.106567144393921,-0.0513126403093338,0.4805978536605835
1790163390128988000,21.29698779296875,-2.159712314605713,0.10567960888147354,0.4072940945625305
1790163390146242800,21.314242919921874,-2.2427899837493896,0.23273947834968567,0.43233954906463623
1790163390163497500,21.33149755859375,-2.3509130477905273,0.2968802750110626,0.48792824149131775
1790163390180752400,21.34875244140625,-2.3790128231048584,0.4056142270565033,0.4958694875240326
1790163390198007000,21.366007080078123,-2.3319764137268066,0.5027416944503784,0.485484778881073
1790163390215261700,21.38326171875,-2.2427899837493896,0.5522217750549316,0.48670652508735657
1790163390232516400,21.400516357421875,-2.1755948066711426,0.500298261642456,0.4702131748199463
1790163390249770800,21.417770751953125,-2.065028429031372,0.4324922561645508,0.46227192878723145
1790163390267025400,21.435025390625,-1.9825615882873535,0.5082395076751709,0.5471821427345276
1790163390284280000,21.452280029296876,-1.8445061445236206,0.6780598759651184,0.699287474155426
1790163390301534700,21.46953466796875,-1.729663610458374,0.667064368724823,0.744491457939148
1790163390318789400,21.486789306640624,-1.6435316801071167,0.46364638209342957,0.6913462281227112
1790163390336044300,21.504044189453126,-1.4669917821884155,0.3127627670764923,0.6944005489349365
1790163390353299200,21.52129931640625,-1.2831214666366577,0.1893680840730667,0.7738129496574402
1790163390370553900,21.538553955078125,-1.1310161352157593,0.11423171311616898,0.8312342762947083
1790163390387808800,21.555808837890623,-1.0778708457946777,0.03848448023200035,0.8214604258537292
1790163390405063400,21.5730634765625,-1.118798851966858,-0.06963858753442764,0.7548761367797852
1790163390422318000,21.590318115234375,-1.0992511510849,-0.05436696484684944,0.670576810836792
1790163390439572500,21.607572509765625,-1.0790926218032837,-0.046425722539424896,0.6259836554527283
1790163390456827100,21.6248271484375,-1.0870338678359985,-0.11117739230394363,0.5917752385139465
1790163390474081800,21.642081787109376,-0.9269872903823853,-0.15210533142089844,0.5013672709465027
1790163390491336200,21.659336181640626,-0.814588189125061,-0.18814635276794434,0.42562004923820496
