time,seconds_elapsed,z,y,x
1790163368897117700,0.06511767578125,0.06780599057674408,-0.0665842592716217,-0.09896009415388107
1790163368914372400,0.082372314453125,0.06963858753442764,0.01282816007733345,-0.12644900381565094
1790163368931626800,0.099626708984375,0.034208428114652634,0.10323614627122879,-0.10018182545900345
1790163368948881400,0.11688134765625,0.013439024798572063,0.15577052533626556,-0.043982263654470444
1790163368966135800,0.1341357421875,-0.006108647678047419,0.056810423731803894,-0.06780599057674408
1790163368983390500,0.151390380859375,0.002443459117785096,-0.2156352698802948,-0.21685700118541718
1790163369000644900,0.168644775390625,-0.026878049597144127,-0.3854556679725647,-0.40378162264823914
1790163369017899500,0.1858994140625,-0.07819069176912308,-0.934623122215271,-0.657290518283844
1790163369035154200,0.203154296875,-0.19242240488529205,-1.6352850198745728,-0.8497129082679749
1790163369052408600,0.22040869140625,-0.1802051067352295,-0.953559935092926,-0.5277871489524841
1790163369069663200,0.237663330078125,-0.015271619893610477,-0.19608759880065918,0.15088360011577606
1790163369086917600,0.254917724609375,0.08124501258134842,0.4007273018360138,0.768467903137207
1790163369104172300,0.27217236328125,-0.04214967042207718,0.851545512676239,0.8668171167373657
1790163369121427000,0.289427001953125,-0.1545487940311432,1.5112794637680054,0.4007273018360138
1790163369138681300,0.306681396484375,0.006719512399286032,2.539364814758301,-0.17104214429855347
1790163369155936000,0.32393603515625,0.4880809485912323,3.3548693656921387,-0.7153226733207703
1790163369173190400,0.3411904296875,0.4379900395870209,2.279747247695923,-1.0488548278808594
1790163369190445000,0.358445068359375,0.3555232882499695,1.2089014053344727,-1.2907572984695435
1790163369207699500,0.375699462890625,0.23823726177215576,1.6530001163482666,-1.5308271646499634
1790163369224954000,0.3929541015625,0.4557051360607147,2.0299036502838135,-1.6224569082260132
1790163369242208800,0.410208740234375,0.9688315391540527,2.550971269607544,-1.1997383832931519
1790163369259463200,0.427463134765625,-0.49113526940345764,3.439168691635132,-0.24312418699264526
1790163369276717800,0.4447177734375,-0.7947350740432739,2.2675299644470215,-0.18387030065059662
1790163369293972200,0.46197216796875,-0.10201441496610641,0.6365211009979248,-0.4166097939014435
1790163369311227000,0.479226806640625,-0.039706211537122726,-0.8460476994514465,-0.2315177470445633
1790163369328481500,0.4964814453125,0.1331685185432434,-1.7110322713851929,0.2577849328517914
1790163369345736000,0.51373583984375,-0.05803215503692627,-1.8356486558914185,0.43310311436653137
1790163369362990600,0.530990478515625,-0.5241219997406006,-1.950491189956665,0.30054548382759094
1790163369380245000,0.548244873046875,-0.6884446144104004,-2.6077816486358643,0.10934479534626007
1790163369397499600,0.565499755859375,-0.5155698657035828,-3.5246896743774414,0.13500112295150757
1790163369414754000,0.582754150390625,-0.2107483446598053,-4.101346015930176,0.3787361681461334
1790163369432008700,0.6000087890625,-0.1905898153781891,-2.673755168914795,0.15821397304534912
1790163369449263400,0.617263427734375,-0.17226386070251465,-1.0360267162322998,0.2608392536640167
1790163369466517800,0.634517822265625,0.1130099818110466,-0.9578359723091125,0.07086031138896942
1790163369483772400,0.6517724609375,0.2828303873538971,-0.7318159937858582,-0.31031930446624756
1790163369501027000,0.669027099609375,0.28527384996414185,-0.6414080262184143,-0.5045742988586426
1790163369518281500,0.686281494140625,0.4056142270565033,-0.8894191384315491,-0.49663305282592773
1790163369535536000,0.7035361328125,0.41416633129119873,-1.0103703737258911,-0.37690356373786926
1790163369552790500,0.72079052734375,0.27550002932548523,-1.4434734582901,-0.12522727251052856
1790163369570045200,0.738045166015625,0.10751219838857651,-2.248593330383301,0.205861434340477
1790163369587299600,0.755299560546875,-0.08491020649671555,-2.768439292907715,0.4001164436340332
1790163369604554200,0.77255419921875,-0.0873536616563797,-2.632216453552246,0.4422661066055298
1790163369621809000,0.789808837890625,0.010995565913617611,-2.9358160495758057,0.5045742988586426
1790163369639063300,0.807063232421875,-0.13194678723812103,-3.8765478134155273,0.6811142563819885
1790163369656318000,0.82431787109375,-0.07819069176912308,-5.17402458190918,0.8161153197288513
1790163369673572600,0.841572509765625,0.35124725103378296,-6.796481609344482,0.5485565662384033
1790163369690827000,0.858826904296875,0.5882627964019775,-7.910088062286377,0.06780599057674408
1790163369708081700,0.87608154296875,0.14049890637397766,-7.247299671173096,-0.2712239623069763
1790163369725336300,0.89333642578125,-0.8100066781044006,-5.348121166229248,-0.35674503445625305
1790163369742590700,0.9105908203125,-1.0458004474639893,-4.888751029968262,-0.3402516841888428
1790163369759845400,0.927845458984375,-0.8631519079208374,-5.907673358917236,-0.16798780858516693
1790163369777100000,0.94510009765625,-0.9077450633049011,-6.75005578994751,0.37751442193984985
1790163369794354400,0.9623544921875,-0.8717040419578552,-7.665131092071533,1.125823736190796
1790163369811609000,0.979609130859375,-0.3072649836540222,-8.743918418884277,1.79410982131958
1790163369828863700,0.99686376953125,0.38728827238082886,-8.988264083862305,2.3151774406433105
1790163369846118100,1.0141181640625,0.8894191384315491,-8.132442474365234,2.8814492225646973
1790163369863372800,1.031372802734375,0.8081740736961365,-6.460505962371826,3.5417940616607666
1790163369880627200,1.048627197265625,0.5497782826423645,-4.783681869506836,3.8099637031555176
1790163369897881900,1.0658818359375,0.4929678738117218,-3.7934703826904297,3.6248714923858643
1790163369915136500,1.083136474609375,0.33231043815612793,-3.1697773933410645,3.2736244201660156
1790163369932391000,1.100390869140625,0.26022839546203613,-2.58701229095459,2.8344125747680664
1790163369949645600,1.1176455078125,-0.028099779039621353,-2.174067735671997,2.3426663875579834
1790163369966900200,1.134900146484375,-0.4880809485912323,-1.8832961320877075,1.868024468421936
1790163369984154600,1.152154541015625,-0.9407317638397217,-2.310290575027466,1.3457350730895996
1790163370001409300,1.1694091796875,-1.3469568490982056,-2.6664247512817383,0.7342594861984253
1790163370018664000,1.186663818359375,-1.2333359718322754,-1.9205588102340698,0.2156352698802948
1790163370035918300,1.20391845703125,0.2101374864578247,-0.24556763470172882,-0.554665207862854
1790163370053173000,1.221173095703125,0.5913171172142029,-0.2370155304670334,-0.6823359727859497
1790163370070427600,1.238427734375,0.023212861269712448,0.09834922850131989,-0.4062250852584839
1790163370087682000,1.25568212890625,-0.36651885509490967,0.8576541543006897,-0.04214967042207718
1790163370104936700,1.272936767578125,-0.3231474757194519,2.576016664505005,0.08368847519159317
1790163370122191400,1.29019140625,-0.32131487131118774,4.654178619384766,-0.17043127119541168
1790163370139445800,1.30744580078125,-0.7250964641571045,7.114742279052734,-0.05253437161445618
1790163370156700400,1.324700439453125,-0.860708475112915,8.944892883300781,-0.5577195286750793
1790163370173955000,1.341955078125,-0.5528326034545898,11.18493366241455,-1.018311619758606
1790163370191209500,1.35920947265625,0.3848448097705841,12.89902114868164,-0.9193515181541443
1790163370208464100,1.376464111328125,1.4844014644622803,14.42496109008789,-1.1129956245422363
1790163370225718800,1.39371875,2.0500621795654297,15.34492301940918,-1.3188570737838745
1790163370242973200,1.41097314453125,1.7861685752868652,14.950304985046387,-1.4929535388946533
1790163370260227800,1.428227783203125,0.9847140312194824,12.613746643066406,-1.120326042175293
1790163370277482500,1.445482421875,0.695164144039154,10.22770881652832,-0.6029235124588013
1790163370294737000,1.46273681640625,0.7953459620475769,7.619316577911377,-0.35735589265823364
1790163370311991600,1.479991455078125,0.6982184648513794,4.508792877197266,-0.35674503445625305
1790163370329246200,1.49724609375,0.2822195291519165,2.0024147033691406,-0.15760311484336853
1790163370346500600,1.51450048828125,-0.09285144507884979,0.7672461867332458,0.10995566099882126
1790163370363755300,1.53175537109375,-0.028099779039621353,0.4147771894931793,0.25534147024154663
1790163370381010000,1.549010009765625,0.2162461280822754,0.3347539007663727,0.34636032581329346
1790163370398264300,1.566264404296875,0.1594357043504715,0.20891575515270233,0.2003636509180069
1790163370415519000,1.58351904296875,-0.2968802750110626,0.2309068888425827,0.08552107214927673
1790163370432773600,1.600773681640625,-0.45387253165245056,-0.17043127119541168,0.10384701192378998
1790163370450028000,1.618028076171875,-0.3744601011276245,-0.5705476999282837,0.4172206521034241
1790163370467282700,1.63528271484375,-0.3750709891319275,-0.8075632452964783,0.6914989352226257
1790163370484537300,1.652537353515625,-0.5155698657035828,-0.6505709886550903,0.6462949514389038
1790163370501791700,1.669791748046875,-0.7171552777290344,-0.6908880472183228,0.5656607747077942
1790163370519046400,1.68704638671875,-0.833219587802887,-0.7141009569168091,0.5497782826423645
1790163370536301000,1.704301025390625,-0.9303470849990845,-0.7183769941329956,0.6249146461486816
1790163370553555500,1.721555419921875,-1.6914845705032349,0.3433060050010681,0.8991929292678833
1790163370570810000,1.73881005859375,-2.0555598735809326,0.9370665550231934,1.1893537044525146
1790163370588064800,1.756064697265625,-1.8704679012298584,0.8545998334884644,1.7336342334747314
1790163370605319200,1.773319091796875,-1.056185245513916,0.04214967042207718,1.6756020784378052
1790163370622573800,1.79057373046875,-0.12217295914888382,-1.6804890632629395,0.41416633129119873
1790163370639828500,1.807828369140625,-0.3072649836540222,-0.4581485986709595,-0.10140355676412582
1790163370657169200,1.825169189453125,-0.3023780584335327,0.6701186895370483,-0.749531090259552
1790163370674774300,1.842774169921875,-0.05192350596189499,1.3781108856201172,-1.3500111103057861
1790163370692373000,1.860373046875,-0.015271619893610477,1.265711784362793,-1.4049890041351318
1790163370709973000,1.877972900390625,-0.02626718580722809,0.8637627959251404,-1.025641918182373
1790163370727573000,1.895572998046875,-0.1740964651107788,0.5503891706466675,-0.7507528066635132
1790163370745173000,1.913173095703125,-0.2883281707763672,0.318871408700943,-0.4923570156097412
1790163370762686700,1.930686767578125,-0.2938259541988373,0.21319180727005005,-0.29565855860710144
1790163370780286700,1.94828662109375,-0.2608392536640167,0.6389645338058472,-0.42455101013183594
1790163370797886700,1.96588671875,-0.06108647957444191,1.5766420364379883,-0.8765909671783447
1790163370815486700,1.98348681640625,0.008552107028663158,1.8985676765441895,-1.176525592803955
1790163370833086700,2.001086669921875,0.07574722915887833,1.6047418117523193,-1.1496474742889404
1790163370850686700,2.018686767578125,0.07819069176912308,0.9492838382720947,-0.6603448390960693
1790163370868286700,2.03628662109375,-0.06536252796649933,0.30115634202957153,-0.12767073512077332
1790163370885800400,2.053800537109375,-0.13988803327083588,-0.027488915249705315,0.09896009415388107
1790163370903400400,2.071400390625,-0.07819069176912308,-0.09896009415388107,0.20158538222312927
1790163370921000000,2.089,0.04153880476951599,-0.11056652665138245,0.24434591829776764
1790163370938599700,2.106599609375,0.06902772188186646,-0.10873392969369888,0.1893680840730667
1790163370956199200,2.12419921875,0.030543239787220955,-0.17287473380565643,0.07269290834665298
1790163370973798700,2.141798583984375,-0.024434590712189674,-0.2809978127479553,0.001832594396546483
1790163370991398400,2.1593984375,-0.06230820715427399,-0.4324922561645508,0.010384701192378998
1790163371008998000,2.176997802734375,-0.08613193035125732,-0.7153226733207703,0.11484257876873016
1790163371026597400,2.194597412109375,-0.11484257876873016,-1.1685843467712402,0.3035998046398163
1790163371044197000,2.212197021484375,-0.16065743565559387,-1.6053526401519775,0.43860089778900146
1790163371061796600,2.229796630859375,-0.05436696484684944,-2.3622140884399414,0.28405213356018066
1790163371079396000,2.24739599609375,0.12400554865598679,-3.249800682067871,0.17348559200763702
1790163371096995600,2.26499560546875,0.10995566099882126,-3.9388561248779297,0.38301220536231995
1790163371114329000,2.2823291015625,0.020158538594841957,-4.717708587646484,0.7275399565696716
1790163371131583700,2.299583740234375,-0.6084213256835938,-4.982823848724365,0.7800742983818054
1790163371148838400,2.31683837890625,-1.3292417526245117,-5.01886510848999,0.8081740736961365
1790163371166093000,2.334093017578125,-1.5296053886413574,-5.315134525299072,0.9700532555580139
1790163371183347500,2.351347412109375,-1.0030399560928345,-6.6321587562561035,1.1056652069091797
1790163371200602000,2.36860205078125,-0.277332603931427,-8.68649673461914,1.094058871269226
1790163371217856500,2.3858564453125,0.3909534513950348,-10.219157218933105,0.8753692507743835
1790163371235111200,2.403111083984375,0.7605266571044922,-9.774447441101074,0.3494146466255188
1790163371252365800,2.42036572265625,0.3634645342826843,-7.74515438079834,-0.23335035145282745
1790163371269620200,2.4376201171875,-0.13500112295150757,-6.502655506134033,-0.7079922556877136
1790163371286875000,2.454875,0.287106454372406,-8.07624340057373,-0.665842592716217
1790163371304129500,2.472129638671875,0.8973603844642639,-10.40119457244873,-0.16004657745361328
1790163371321384200,2.48938427734375,0.6352993845939636,-10.750609397888184,0.4410443603992462
1790163371338638600,2.506638671875,-0.12644900381565094,-9.691980361938477,0.7220421433448792
1790163371355893200,2.523893310546875,-0.5790998339653015,-9.173356056213379,0.9682206511497498
1790163371373148000,2.54114794921875,-0.4526508152484894,-8.345634460449219,1.3988803625106812
1790163371390402300,2.55840234375,-0.14294235408306122,-7.462934970855713,1.693317174911499
1790163371407657000,2.575656982421875,0.3494146466255188,-8.205135345458984,1.988364815711975
1790163371424911400,2.592911376953125,1.0476330518722534,-8.490409851074219,0.277332603931427
1790163371442166000,2.610166015625,2.241262912750244,-4.076300621032715,-1.7959424257278442
1790163371459420700,2.627420654296875,2.764163017272949,-1.5589269399642944,-1.6151264905929565
1790163371476675300,2.64467529296875,2.0207407474517822,-1.0604612827301025,-0.5424479246139526
1790163371493929700,2.6619296875,0.8662062287330627,-1.4758492708206177,0.2107483446598053
1790163371511184400,2.679184326171875,0.15515965223312378,-1.7336342334747314,0.21502439677715302
1790163371528439000,2.69643896484375,0.12461641430854797,-1.4941751956939697,-0.14294235408306122
1790163371545693400,2.713693359375,0.38850998878479004,-1.1643083095550537,-0.3860665261745453
1790163371562948000,2.730947998046875,0.49541133642196655,-1.1142174005508423,-0.3958403766155243
1790163371580202800,2.74820263671875,0.37751442193984985,-1.0054833889007568,-0.30115634202957153
1790163371597457200,2.76545703125,0.19914191961288452,-0.7733548283576965,-0.18814635276794434
1790163371614711800,2.7827119140625,0.10873392969369888,-0.637742817401886,-0.06719512492418289
1790163371631966500,2.799966552734375,0.12950333952903748,-0.4324922561645508,0.03298669680953026
1790163371649221000,2.81722119140625,0.20280711352825165,-0.07880155742168427,0.12095122784376144
1790163371666475500,2.8344755859375,0.1795942485332489,-0.1233946830034256,0.22479823231697083
1790163371683730200,2.851730224609375,-0.06230820715427399,-0.23457208275794983,0.3494146466255188
1790163371700985000,2.868985107421875,-0.2101374864578247,-0.23945899307727814,0.43371400237083435
1790163371718239500,2.886239501953125,-0.15577052533626556,-0.053756099194288254,0.401949018239975
1790163371735494000,2.903493896484375,-0.08491020649671555,0.14538581669330597,0.3549124300479889
1790163371752748300,2.920748291015625,-0.13439024984836578,0.20463970303535461,0.2974911332130432
1790163371770002700,2.938002685546875,-0.2364046722650528,0.1795942485332489,0.1539379209280014
1790163371787256800,2.9552568359375,-0.2510654330253601,0.06902772188186646,0.004276053514331579
1790163371804511500,2.972511474609375,-0.13683371245861053,-0.025045456364750862,-0.0720820426940918
1790163371821766000,2.989765869140625,0.018325943499803543,-0.02260199747979641,-0.043371398001909256
1790163371839020500,3.0070205078125,0.14049890637397766,0.001221729558892548,0.09285144507884979
1790163371856275200,3.024275146484375,0.1899789422750473,-0.03848448023200035,0.22479823231697083
1790163371873529600,3.041529541015625,0.16615521907806396,-0.043982263654470444,0.25900667905807495
1790163371890784300,3.0587841796875,0.10567960888147354,0.05192350596189499,0.16065743565559387
1790163371908039000,3.076038818359375,0.03237583488225937,0.12522727251052856,0.01893680728971958
1790163371925293800,3.0932939453125,-0.018325943499803543,0.08674279600381851,-0.07635809481143951
1790163371942548500,3.110548583984375,-0.06230820715427399,-0.03481929376721382,-0.08674279600381851
1790163371959803100,3.12780322265625,-0.05192350596189499,-0.047036588191986084,-0.03176496922969818
1790163371977057800,3.145057861328125,0.010995565913617611,0.001832594396546483,0.01893680728971958
1790163371994312200,3.162312255859375,0.004886918235570192,-0.046425722539424896,-0.003665188793092966
1790163372011566800,3.17956689453125,-0.0513126403093338,-0.10934479534626007,-0.04764745384454727
1790163372028821500,3.196821533203125,-0.06780599057674408,-0.0513126403093338,-0.05497783049941063
1790163372046076000,3.214075927734375,-0.05497783049941063,0.1337793916463852,-0.05253437161445618
1790163372063330600,3.23133056640625,-0.04520399495959282,0.31154105067253113,-0.09896009415388107
1790163372080585200,3.248585205078125,-0.07391463965177536,0.3787361681461334,-0.24984370172023773
1790163372097839900,3.26583984375,-0.1954767256975174,0.5632173418998718,-0.30054548382759094
1790163372115094300,3.28309423828125,-0.5393936038017273,1.0054833889007568,-0.17653992772102356
1790163372132349000,3.300348876953125,-1.0060943365097046,2.4801111221313477,-0.2571740746498108
1790163372149603600,3.317603515625,-1.6969823837280273,5.255269527435303,-0.5571087002754211
1790163372166858000,3.33485791015625,-2.4636175632476807,7.8612189292907715,-0.5626064538955688
1790163372184112600,3.352112548828125,-2.5998404026031494,10.641264915466309,-0.2974911332130432
1790163372201367300,3.3693671875,-2.3017385005950928,10.904546737670898,-0.19120067358016968
1790163372218622000,3.3866220703125,-2.559523344039917,10.244812965393066,0.5424479246139526
1790163372235876400,3.40387646484375,-2.819751739501953,10.010241508483887,0.6786707639694214
1790163372253131000,3.421131103515625,-2.4013094902038574,7.49836540222168,0.32070401310920715
1790163372270385700,3.4383857421875,-0.7422007322311401,6.059778690338135,-0.30604326725006104
1790163372287640000,3.45564013671875,0.8845322132110596,7.124516010284424,-0.8985821008682251
1790163372304894700,3.472894775390625,1.8014402389526367,9.554535865783691,-1.341459035873413
1790163372322149400,3.4901494140625,1.8454225063323975,11.770142555236816,-1.4495820999145508
1790163372339404000,3.507404052734375,0.8918625712394714,11.985166549682617,-2.1215333938598633
1790163372356658400,3.524658447265625,0.749531090259552,9.73107624053955,-2.645655393600464
1790163372373913000,3.5419130859375,0.870482325553894,7.048157691955566,-1.5460987091064453
1790163372391167700,3.559167724609375,0.4410443603992462,4.48802375793457,-0.4868592321872711
1790163372408422100,3.576422119140625,-0.04214967042207718,2.7898194789886475,-0.046425722539424896
1790163372425676800,3.5936767578125,-0.3805687427520752,1.989586591720581,-0.3640754222869873
1790163372442931500,3.610931396484375,-0.6695078015327454,1.5839723348617554,-0.19792018830776215
1790163372460186400,3.628186279296875,-0.20280711352825165,1.6786564588546753,-0.2657261788845062
1790163372477441000,3.64544091796875,0.23884813487529755,2.101374864578247,-0.42332929372787476
1790163372494696000,3.662696044921875,0.10018182545900345,2.5363106727600098,-0.5094612240791321
1790163372511950600,3.67995068359375,-0.8258891701698303,2.3652684688568115,-0.3659079968929291
1790163372529205500,3.69720556640625,-2.7000222206115723,2.758054494857788,0.19425499439239502
1790163372546460200,3.714460205078125,-2.788597822189331,0.9566142559051514,0.5558869242668152
1790163372563714800,3.73171484375,-1.581528902053833,0.01282816007733345,-0.025045456364750862
1790163372580969200,3.74896923828125,-0.7067705392837524,0.7861829996109009,-0.5894845128059387
1790163372598224000,3.766223876953125,-0.10384701192378998,1.422093152999878,-0.8863648176193237
1790163372615478500,3.783478515625,0.03298669680953026,1.284037709236145,-1.239444613456726
1790163372632733000,3.80073291015625,0.12278381735086441,0.8491020202636719,-1.0751219987869263
1790163372649987600,3.817987548828125,0.37201663851737976,0.31642794609069824,-0.6029235124588013
1790163372667242200,3.8352421875,0.3139844834804535,0.3042106628417969,-0.1905898153781891
1790163372684497000,3.852496826171875,-0.06475166976451874,0.14538581669330597,0.0873536616563797
1790163372701751300,3.869751220703125,-0.6707295179367065,0.17776164412498474,0.2412915825843811
1790163372719006000,3.887005859375,-1.3573415279388428,-0.2009745091199875,0.32681265473365784
1790163372736260600,3.904260498046875,-2.0488405227661133,-1.0684025287628174,0.287106454372406
1790163372753515300,3.921515380859375,-2.27424955368042,-2.0042474269866943,0.2467893660068512
1790163372770770200,3.938770263671875,-1.7085888385772705,-2.560134172439575,0.2877173125743866
1790163372788025000,3.956025146484375,-0.9926552772521973,-2.1056509017944336,0.80389803647995
1790163372805366000,3.973365966796875,-0.35613417625427246,0.12217295914888382,1.554650902748108
1790163372822966000,3.990966064453125,0.20708316564559937,3.21864652633667,1.9737040996551514
1790163372840565800,4.008565673828125,0.0977383628487587,4.084852695465088,1.9956952333450317
1790163372858165500,4.02616552734375,0.35613417625427246,1.4996730089187622,0.94439697265625
1790163372875765200,4.04376513671875,0.1698204129934311,0.03543015569448471,0.08918625861406326
1790163372893365000,4.061364990234375,-0.0977383628487587,0.40744680166244507,0.14721840620040894
1790163372910964700,4.07896484375,-0.03298669680953026,0.9590576887130737,0.3445277214050293
1790163372928564200,4.096564208984375,0.017715077847242355,1.01708984375,0.22968515753746033
1790163372946164000,4.1141640625,0.08368847519159317,0.9566142559051514,-0.16065743565559387
1790163372963763500,4.131763427734375,0.2767217457294464,0.7843503952026367,-0.3597993552684784
1790163372981363200,4.14936328125,0.3494146466255188,0.593149721622467,-0.20402882993221283
1790163372998962700,4.166962646484375,0.17837251722812653,0.6145299673080444,0.034208428114652634
1790163373016348400,4.184348388671875,0.06902772188186646,0.6243038177490234,0.18081597983837128
1790163373033663000,4.2016630859375,0.09407317638397217,0.29993459582328796,0.1844811588525772
1790163373050977800,4.218977783203125,0.06597339361906052,0.12767073512077332,0.164322629570961
1790163373068292400,4.236292236328125,0.18142683804035187,0.03543015569448471,0.17531819641590118
1790163373085607000,4.25360693359375,0.29993459582328796,0.09590577334165573,0.3488037884235382
1790163373102921500,4.27092138671875,0.17592905461788177,0.9364557266235352,0.4685332775115967
1790163373120176000,4.288176025390625,0.1288924664258957,1.7641774415969849,0.6243038177490234
1790163373137430500,4.305430419921875,0.16249002516269684,2.6444337368011475,0.6805033683776855
1790163373154685200,4.322685302734375,0.11178825795650482,2.763552188873291,0.6230821013450623
1790163373171939800,4.33993994140625,0.23762640357017517,2.219271659851074,0.49480047821998596
1790163373189194200,4.3571943359375,0.258395791053772,2.062279462814331,0.33597561717033386
1790163373206449000,4.374448974609375,-0.05742128938436508,0.3549124300479889,-0.1997527778148651
1790163373223703600,4.39170361328125,-0.21868959069252014,-0.5082395076751709,-0.6640099883079529
1790163373240958200,4.408958251953125,-0.17226386070251465,-0.4508182108402252,-0.6829468011856079
1790163373258212600,4.426212646484375,0.03787361457943916,-0.27977606654167175,-0.3194822669029236
1790163373275467300,4.44346728515625,0.19425499439239502,-0.18814635276794434,-0.002443459117785096
1790163373292722000,4.460721923828125,0.1490510106086731,-0.0720820426940918,0.09101885557174683
1790163373508405200,4.6764052734375,0.009162971749901772,0.027488915249705315,-0.08491020649671555
1790163373525660000,4.693659912109375,-0.01588248461484909,0.17715078592300415,-0.2571740746498108
1790163373542914600,4.71091455078125,0.0030543238390237093,0.03481929376721382,-0.17104214429855347
1790163373560169000,4.7281689453125,-0.014049889519810677,-0.11178825795650482,-0.007330377586185932
1790163373577423600,4.745423583984375,0.009162971749901772,-0.053145237267017365,0.08613193035125732
1790163373594678300,4.76267822265625,0.046425722539424896,0.010384701192378998,0.07819069176912308
1790163373611933000,4.779932861328125,0.05497783049941063,0.06047561392188072,0.01954767294228077
1790163373646442200,4.814442138671875,0.06414080411195755,0.185092031955719,0.017104214057326317
1790163373663697200,4.831697265625,0.05192350596189499,0.14294235408306122,0.023823726922273636
1790163373680951600,4.84895166015625,0.030543239787220955,0.0769689604640007,-0.017104214057326317
1790163373698206200,4.866206298828125,0.02626718580722809,0.0513126403093338,-0.06291907280683517
1790163373715460900,4.8834609375,0.046425722539424896,0.03176496922969818,-0.07147117704153061
1790163373732715500,4.900715576171875,0.06230820715427399,0.03237583488225937,-0.07757982611656189
1790163373749970200,4.91797021484375,0.037262752652168274,0.02260199747979641,-0.07147117704153061
1790163373767224800,4.935224853515625,0.029932374134659767,-0.004276053514331579,-0.037262752652168274
1790163373784479500,4.9524794921875,0.03543015569448471,-0.04581485688686371,0.02871064469218254
1790163373801734100,4.969734130859375,0.04886918142437935,-0.05192350596189499,0.04520399495959282
1790163373818988500,4.986988525390625,0.05253437161445618,0.021380268037319183,0.0030543238390237093
1790163373836243200,5.0042431640625,0.020769402384757996,0.06414080411195755,-0.07086031138896942
1790163373853497900,5.021497802734375,0.0030543238390237093,0.11239911615848541,-0.14233149588108063
1790163373870752500,5.03875244140625,-0.01282816007733345,0.11606431007385254,-0.19181154668331146
1790163373888007200,5.056007080078125,-0.020769402384757996,0.08857539296150208,-0.1997527778148651
1790163373905261800,5.07326171875,-0.02871064469218254,0.09590577334165573,-0.1740964651107788
1790163373922516500,5.0905166015625,-0.05742128938436508,0.07574722915887833,-0.10140355676412582
1790163373939771100,5.107771240234375,-0.09346231073141098,0.021991131827235222,0.053145237267017365
1790163373957025500,5.125025634765625,-0.14049890637397766,-0.06047561392188072,0.2932150959968567
1790163373974280200,5.1422802734375,-0.0922405794262886,-0.050090912729501724,0.1997527778148651
1790163373991534800,5.159534912109375,-0.0513126403093338,-0.017104214057326317,0.06475166976451874
1790163374008789500,5.17678955078125,0.021991131827235222,-0.30482152104377747,-0.011606430634856224
1790163374026044200,5.194044189453125,0.0360410213470459,-0.5033525824546814,0.04153880476951599
1790163374043298800,5.211298828125,-0.004886918235570192,-0.462424635887146,0.08918625861406326
1790163374060553500,5.228553466796875,0.004886918235570192,-0.2461785078048706,0.09468404203653336
1790163374077807900,5.245807861328125,0.006108647678047419,-0.003665188793092966,0.06414080411195755
1790163374095062500,5.2630625,0.004276053514331579,0.15515965223312378,0.05742128938436508
1790163374112317200,5.280317138671875,-0.01954767294228077,0.21380266547203064,0.053756099194288254
1790163374129571800,5.29757177734375,-0.05558869615197182,0.11239911615848541,0.0256563201546669
1790163374146826200,5.314826171875,-0.056810423731803894,0.034208428114652634,-0.02626718580722809
1790163374164081000,5.332080810546875,-0.01649334840476513,0.018325943499803543,-0.047036588191986084
1790163374181335600,5.34933544921875,0.02260199747979641,0,-0.010384701192378998
1790163374198590200,5.366590087890625,0.01588248461484909,-0.02871064469218254,0.06108647957444191
1790163374215844900,5.383844970703125,-0.0256563201546669,0.013439024798572063,0.08063415437936783
1790163374233099500,5.401099609375,-0.06841685622930527,0.053756099194288254,0.05192350596189499
1790163374250354200,5.418354248046875,-0.0616973415017128,-0.043982263654470444,0.027488915249705315
1790163374267608800,5.43560888671875,-0.014660755172371864,-0.12461641430854797,0.0054977829568088055
1790163374284863200,5.45286328125,0.02260199747979641,-0.11667517572641373,0.001832594396546483
1790163374302118100,5.4701181640625,0.013439024798572063,-0.0824667438864708,0.05192350596189499
1790163374319372500,5.48737255859375,-0.031154103577136993,-0.09590577334165573,0.08491020649671555
1790163374336627200,5.504627197265625,-0.05742128938436508,-0.13561198115348816,0.09285144507884979
1790163374353881900,5.5218818359375,-0.053145237267017365,-0.11545344442129135,0.0665842592716217
1790163374371136500,5.539136474609375,-0.04153880476951599,-0.06841685622930527,0.0030543238390237093
1790163374388391200,5.55639111328125,-0.001221729558892548,-0.06475166976451874,-0.04581485688686371
1790163374405645800,5.573645751953125,0.029932374134659767,-0.07452550530433655,-0.06475166976451874
1790163374422900500,5.590900390625,0.01954767294228077,-0.12217295914888382,-0.03481929376721382
1790163374440155100,5.608155029296875,0.001832594396546483,-0.17715078592300415,0.013439024798572063
1790163374457409500,5.625409423828125,-0.004276053514331579,-0.12522727251052856,0.03848448023200035
1790163374474664200,5.642664306640625,-0.010384701192378998,0.03909534588456154,0.025045456364750862
1790163374491918800,5.6599189453125,-0.014049889519810677,0.06719512492418289,0.01954767294228077
1790163374509173500,5.677173583984375,-0.009162971749901772,0.020769402384757996,0.0360410213470459
1790163374526428200,5.69442822265625,0.0030543238390237093,0.007941242307424545,0.036651886999607086
1790163374543682800,5.711682861328125,-0.000610864779446274,0,0.03481929376721382
1790163374560937500,5.7289375,-0.017715077847242355,-0.01588248461484909,0.036651886999607086
1790163374578192100,5.746192138671875,-0.03298669680953026,-0.02260199747979641,0.001221729558892548
1790163374595446800,5.76344677734375,-0.021380268037319183,-0.0409279391169548,-0.04153880476951599
1790163374612701400,5.780701416015625,-0.006719512399286032,-0.10751219838857651,-0.049480047076940536
1790163374629956000,5.7979560546875,0.007330377586185932,-0.22357651591300964,-0.04153880476951599
1790163374647210800,5.815210693359375,0.0030543238390237093,-0.4196641147136688,-0.008552107028663158
1790163374664465200,5.832465087890625,-0.013439024798572063,-0.5949822664260864,0.06780599057674408
1790163374681719800,5.8497197265625,0.06963858753442764,-0.7660244107246399,0.10323614627122879
1790163374698974500,5.866974365234375,0.1288924664258957,-0.9755510687828064,0.08429934084415436
1790163374716229000,5.88422900390625,0.13133592903614044,-1.2779290676116943,0.06780599057674408
1790163374733483800,5.90148388671875,0.06719512492418289,-1.0830632448196411,0.12278381735086441
1790163374750738400,5.918738525390625,0.04214967042207718,-0.648127555847168,0.11484257876873016
1790163374767993000,5.9359931640625,0.0054977829568088055,-0.2461785078048706,0.06536252796649933
1790163374785247700,5.953247802734375,-0.13133592903614044,0.1233946830034256,0.06719512492418289
1790163374802502400,5.97050244140625,-0.14477495849132538,0.46486809849739075,0.16737695038318634
1790163374819757000,5.987757080078125,-0.02260199747979641,0.6114756464958191,0.3451386094093323
1790163374837011700,6.00501171875,-0.05925388261675835,0.695164144039154,0.2718348205089569
1790163374854266400,6.022266357421875,0.17287473380565643,0.3292561173439026,-0.16187916696071625
1790163374871521000,6.03952099609375,0.2761108875274658,-0.3536907136440277,-0.37812530994415283
1790163374888775700,6.056775634765625,-0.12522727251052856,-0.5760455131530762,-0.268169641494751
1790163374906030300,6.0740302734375,-0.34208428859710693,-0.4825831651687622,-0.11056652665138245
1790163374923285000,6.091284912109375,-0.2968802750110626,0.13927717506885529,-0.09162971377372742
1790163374940539600,6.10853955078125,-0.2724456787109375,0.9950987100601196,0.03848448023200035
1790163374957794300,6.125794189453125,-0.20280711352825165,1.2699878215789795,0.06841685622930527
1790163374975048700,6.143048583984375,-0.17165300250053406,1.0213658809661865,-0.09896009415388107
1790163374992303600,6.1603037109375,-0.2724456787109375,0.7275399565696716,0.06291907280683517
1790163375009558000,6.17755810546875,-0.25534147024154663,0.5534434914588928,0.22907429933547974
1790163375026813000,6.19481298828125,-0.21868959069252014,0.46975502371788025,0.17165300250053406
1790163375044067600,6.212067626953125,-0.29504770040512085,0.2809978127479553,-0.004886918235570192
1790163375061322000,6.229322021484375,-0.4147771894931793,-0.001221729558892548,-0.23273947834968567
1790163375078577000,6.246576904296875,-0.5192350745201111,-0.18142683804035187,-0.36224281787872314
1790163375095831300,6.263831298828125,-0.5125155448913574,-0.8210022449493408,-0.3970620930194855
1790163375113086200,6.281086181640625,-0.25045454502105713,-1.64872407913208,-0.2968802750110626
1790163375130340900,6.2983408203125,-0.2101374864578247,-1.4679080247879028,-0.17653992772102356
1790163375147595300,6.31559521484375,-0.14233149588108063,-1.026863694190979,-0.09529490768909454
1790163375164850200,6.33285009765625,-0.031154103577136993,-0.7153226733207703,-0.20769402384757996
1790163375182104800,6.350104736328125,-0.20402882993221283,0.15088360011577606,-0.4520399272441864
1790163375199359500,6.367359375,-0.19730933010578156,0.3335321843624115,-0.7018836140632629
1790163375216614100,6.3846142578125,-0.0030543238390237093,-0.21502439677715302,-0.7721330523490906
1790163375233868800,6.401868896484375,0.3848448097705841,-1.4178171157836914,-0.3445277214050293
1790163375251123500,6.41912353515625,0.40317076444625854,-1.3286309242248535,-0.08613193035125732
1790163375268378000,6.436378173828125,-0.26511532068252563,-1.1588104963302612,0.11362084746360779
1790163375285632800,6.4536328125,-0.19914191961288452,-0.9590576887130737,0.3445277214050293
1790163375302887400,6.470887451171875,0.2938259541988373,-0.7635809779167175,0.06414080411195755
1790163375320142000,6.48814208984375,0.4575377106666565,-0.9217949509620667,-0.42394015192985535
1790163375337396700,6.505396728515625,0.7220421433448792,-0.822834849357605,-0.6701186895370483
1790163375354651400,6.5226513671875,0.9511164426803589,-0.972496747970581,-0.6047561168670654
1790163375371906000,6.539906005859375,0.9645555019378662,-0.7959567904472351,-0.41905322670936584
1790163375389160700,6.55716064453125,1.0372483730316162,1.191797137260437,-0.6609556674957275
1790163375406415400,6.574415283203125,0.7031053900718689,0.28038692474365234,-0.6420188546180725
1790163375423670000,6.591669921875,0.32192572951316833,-1.3463460206985474,-0.1533270627260208
1790163375440925000,6.608925048828125,0.4196641147136688,-1.3518437147140503,0.23396120965480804
1790163375458179600,6.6261796875,0.6780598759651184,-0.8399390578269958,0.4373791813850403
1790163375475434200,6.643434326171875,0.8045089244842529,-1.3151918649673462,0.46059203147888184
1790163375492689000,6.66068896484375,0.48563748598098755,-2.783099889755249,0.24862197041511536
1790163375509943600,6.677943603515625,0.09834922850131989,-4.580264091491699,-0.15149445831775665
1790163375527198200,6.6951982421875,0.10201441496610641,-6.641932964324951,-0.526565432548523
1790163375544452900,6.712452880859375,0.20280711352825165,-8.561269760131836,-0.7195987105369568
1790163375561707500,6.72970751953125,0.14538581669330597,-10.162957191467285,-0.6114756464958191
1790163375578962200,6.746962158203125,-0.18387030065059662,-11.0419921875,-0.4379900395870209
1790163375596216800,6.764216796875,-0.5760455131530762,-11.559393882751465,0.185092031955719
1790163375613471500,6.781471435546875,-1.036637544631958,-12.503790855407715,1.0439679622650146
1790163375630726100,6.79872607421875,-0.9853248596191406,-13.933825492858887,1.6481131315231323
1790163375647981000,6.81598095703125,0.33658650517463684,-12.250282287597656,1.2638791799545288
1790163375665235700,6.833235595703125,1.0555742979049683,-10.00963020324707,-0.30604326725006104
1790163375682490400,6.850490478515625,1.1856884956359863,-9.28270149230957,-1.6383392810821533
1790163375699745000,6.8677451171875,2.422078847885132,-9.8043794631958,-1.7898337841033936
1790163375716999700,6.884999755859375,3.0048439502716064,-9.74695873260498,-0.8582650423049927
1790163375734254300,6.90225439453125,2.1355831623077393,-7.329155445098877,-0.1637117564678192
1790163375751509000,6.919509033203125,1.0708459615707397,-4.787347316741943,0.28588470816612244
1790163375768763600,6.936763671875,0.6743947267532349,-3.383579969406128,0.62857985496521
1790163375786018300,6.954018310546875,0.7953459620475769,-2.506378173828125,0.7067705392837524
1790163375803273200,6.971273193359375,1.0164790153503418,-2.7837107181549072,0.18570289015769958
1790163375820527900,6.98852783203125,1.1465932130813599,-2.2223260402679443,-0.4428769648075104
1790163375837782500,7.005782470703125,0.988990068435669,-1.2779290676116943,-0.6517927050590515
1790163375855037200,7.023037109375,0.5381718873977661,-0.8949168920516968,-0.6194168925285339
1790163375872291800,7.040291748046875,0.09162971377372742,-0.8277217745780945,-0.3451386094093323
1790163375889546500,7.05754638671875,-0.030543239787220955,-0.6792816519737244,-0.21135921776294708
1790163375906801200,7.07480126953125,-0.010384701192378998,-0.2761108875274658,-0.01649334840476513
1790163375924055800,7.092055908203125,-0.10934479534626007,0.33597561717033386,0.14294235408306122
1790163375941310500,7.109310546875,-0.268169641494751,0.749531090259552,0.18692462146282196
1790163375958565000,7.126565185546875,-0.4196641147136688,0.758083164691925,0.1545487940311432
1790163375975819500,7.143819580078125,-0.4612029194831848,0.6004800796508789,0.021380268037319183
1790163375993074200,7.16107421875,-0.379347026348114,0.4770853817462921,-0.1637117564678192
1790163376010328800,7.178328857421875,-0.24984370172023773,0.379347026348114,-0.2309068888425827
1790163376027583200,7.195583251953125,-0.18692462146282196,0.14294235408306122,-0.06414080411195755
1790163376044838000,7.212837890625,-0.15088360011577606,0.06597339361906052,0.11484257876873016
1790163376062092500,7.230092529296875,-0.0977383628487587,0.06414080411195755,0.18631376326084137
1790163376079347200,7.24734716796875,-0.12644900381565094,0.11362084746360779,0.16004657745361328
1790163376096601600,7.2646015625,-0.277332603931427,0.21502439677715302,0.09101885557174683
1790163376113856500,7.2818564453125,-0.4685332775115967,0.3995055556297302,0.013439024798572063
1790163376131111200,7.299111083984375,-0.6035344004631042,0.5259546041488647,-0.020769402384757996
1790163376148366000,7.316365966796875,-0.7409789562225342,0.8222240209579468,-0.03176496922969818
1790163376165620700,7.333620849609375,-0.9407317638397217,1.342680811882019,-0.12278381735086441
1790163376182875600,7.350875732421875,-1.3597849607467651,2.260810613632202,-0.2822195291519165
1790163376200130300,7.36813037109375,-2.0354013442993164,3.3878560066223145,-0.37140578031539917
1790163376217385200,7.38538525390625,-2.6340489387512207,4.491077899932861,-0.24312418699264526
1790163376234640000,7.402639892578125,-2.9773550033569336,4.856375217437744,0.19364413619041443
1790163376251894800,7.419894775390625,-2.869842767715454,4.7849040031433105,0.7116574645042419
1790163376269149400,7.4371494140625,-2.1862850189208984,3.7629270553588867,0.33658650517463684
1790163376286404400,7.454404296875,-1.4385865926742554,-0.8289434909820557,-3.017061233520508
1790163376303659000,7.471658935546875,-2.7873759269714355,0.12034036219120026,-3.7818639278411865
1790163376320913700,7.48891357421875,-5.016421794891357,1.6890411376953125,-2.9486443996429443
1790163376338168300,7.506168212890625,-7.020668983459473,2.4294092655181885,-1.760512351989746
1790163376355422700,7.523422607421875,-9.09638786315918,2.7006332874298096,0.22235478460788727
1790163376372677400,7.540677490234375,-10.713957786560059,1.2089014053344727,2.367100954055786
1790163376389932000,7.55793212890625,-11.798852920532227,-0.5503891706466675,3.9669559001922607
1790163376407186700,7.575186767578125,-12.546551704406738,-1.6340632438659668,5.378053665161133
1790163376424441600,7.592441650390625,-12.5642671585083,-3.7323837280273438,5.932718753814697
1790163376441696300,7.6096962890625,-11.76586627960205,-4.4220499992370605,5.057960510253906
1790163376458951200,7.626951171875,-10.070716857910156,-2.8991641998291016,3.965123176574707
1790163376476205800,7.644205810546875,-8.148324966430664,-0.9755510687828064,2.3506076335906982
1790163376493460700,7.661460693359375,-6.107426166534424,0.7476984858512878,0.49663305282592773
1790163376510715400,7.67871533203125,-4.814225196838379,1.36772620677948,-0.9731075763702393
1790163376527969800,7.6959697265625,-4.148382663726807,1.227838158607483,-1.599854826927185
1790163376545224400,7.713224365234375,-3.277900457382202,0.4361574649810791,-1.4117084741592407
1790163376562479000,7.73047900390625,-2.371987819671631,0.3750709891319275,-0.45448338985443115
1790163376579733500,7.7477333984375,-1.571755051612854,-0.014049889519810677,0.6976075768470764
1790163376596988200,7.76498828125,-0.9950987100601196,0.11667517572641373,1.5314379930496216
1790163376614243000,7.7822431640625,-1.7977750301361084,-0.3659079968929291,-1.2284491062164307
1790163376631497700,7.799497802734375,-1.7825034856796265,0.12705987691879272,-2.9688029289245605
1790163376648752600,7.816752685546875,-1.422093152999878,1.3096940517425537,-2.2724170684814453
1790163376666007300,7.83400732421875,-1.2815942764282227,1.5784746408462524,-1.0610721111297607
1790163376683262200,7.85126220703125,-0.8649845123291016,0.972496747970581,0.6560688018798828
1790163376700516900,7.868516845703125,-1.6407828330993652,0.8570432662963867,1.5393792390823364
1790163376717771500,7.885771484375,-2.5833470821380615,1.2889246940612793,1.3481786251068115
1790163376735026200,7.903026123046875,-2.7226243019104004,1.386052131652832,0.675616443157196
1790163376752280600,7.920280517578125,-2.913825035095215,0.5534434914588928,-0.09590577334165573
1790163376769535200,7.93753515625,-3.176496744155884,0.06719512492418289,-0.481361448764801
1790163376786790000,7.954789794921875,-3.0702064037323,-0.3543015718460083,-0.43310311436653137
1790163376804044500,7.97204443359375,-2.786154270172119,-1.0965023040771484,-0.26878049969673157
1790163376821299200,7.98929931640625,-2.6035056114196777,-2.1642940044403076,0.028099779039621353
1790163376838554000,8.00655419921875,-2.4019203186035156,-2.825249671936035,0.3756818473339081
1790163376855808800,8.023808837890625,-2.0494513511657715,-3.0830345153808594,0.4159989058971405
1790163376873063700,8.041063720703125,-1.7427972555160522,-3.459327220916748,0.08429934084415436
1790163376890318300,8.058318359375,-1.533881425857544,-3.9266388416290283,-0.2919933497905731
1790163376907573200,8.0755732421875,-1.4789036512374878,-4.362185478210449,-0.41783151030540466
1790163376924828200,8.092828125,-1.5222749710083008,-4.162432670593262,-0.1496618688106537
1790163376942082800,8.110082763671874,-1.3286309242248535,-3.2320854663848877,0.18325942754745483
1790163376959337700,8.127337646484374,-1.0134246349334717,-5.684096813201904,-1.3371829986572266
1790163376976592400,8.14459228515625,-0.7422007322311401,-5.853917121887207,-2.163072109222412
1790163376993847300,8.161847412109376,-0.953559935092926,-6.935147762298584,-2.2675299644470215
1790163377011101700,8.179101806640626,-1.480736255645752,-3.574169874191284,-1.9523237943649292
1790163377028356400,8.1963564453125,-1.6481131315231323,-3.660301685333252,-2.03112530708313
1790163377045611000,8.213611083984375,-1.1557561159133911,-3.490481376647949,-2.2919647693634033
1790163377062865700,8.23086572265625,-0.5119046568870544,-1.6982040405273438,-2.466671943664551
1790163377080120000,8.2481201171875,0.027488915249705315,-0.9615011811256409,-1.692095398902893
1790163377097374700,8.265374755859375,-0.18387030065059662,-2.612668752670288,-0.924849271774292
1790163377114629600,8.282629638671875,-0.9419534802436829,-2.503323793411255,-0.32192572951316833
1790163377131884300,8.29988427734375,-0.45937031507492065,-0.09346231073141098,-0.10323614627122879
1790163377149139200,8.31713916015625,0.5112938284873962,1.8668028116226196,-0.6249146461486816
1790163377166393900,8.334393798828126,1.1319323778152466,2.8173084259033203,-1.1319323778152466
1790163377183648800,8.351648681640626,1.433088779449463,3.765981435775757,-1.2363903522491455
1790163377200903400,8.3689033203125,1.5491530895233154,4.440376281738281,-1.2119556665420532
1790163377218158300,8.386158447265625,1.7171409130096436,4.638296127319336,-1.3127484321594238
1790163377235413000,8.4034130859375,2.148411512374878,4.262003421783447,-1.3286309242248535
1790163377252668000,8.42066796875,2.7959280014038086,3.8124070167541504,-1.2699878215789795
1790163377269922600,8.437922607421875,3.260796308517456,3.039663076400757,-1.5063925981521606
1790163377287177500,8.455177490234375,3.2559092044830322,1.7873903512954712,-1.7318016290664673
1790163377304432000,8.47243212890625,2.9101598262786865,0.38728827238082886,-1.5680898427963257
1790163377321686800,8.489686767578124,2.3231186866760254,-0.6811142563819885,-1.0458004474639893
1790163377338941200,8.506941162109374,1.3976585865020752,-0.574212908744812,-0.8429933786392212
1790163377356195800,8.52419580078125,0.22418737411499023,-0.002443459117785096,-1.239444613456726
1790163377373450500,8.541450439453126,-0.4526508152484894,0.30543237924575806,-1.6884303092956543
1790163377390705000,8.558704833984375,-0.5845975875854492,-0.15088360011577606,-1.6053526401519775
1790163377407959800,8.575959716796875,-0.6273581385612488,-0.9792162179946899,-0.9553925395011902
1790163377425214700,8.593214599609375,-0.9706641435623169,-1.341459035873413,-0.5271763205528259
1790163377442469400,8.610469482421875,-1.6157373189926147,-1.3371829986572266,-0.3756818473339081
1790163377459724300,8.627724365234375,-2.439182996749878,-1.2748748064041138,-0.3433060050010681
1790163377476979000,8.64497900390625,-2.8704535961151123,-0.9382883310317993,-0.1795942485332489
1790163377494233900,8.66223388671875,-2.668257474899292,-0.6401863098144531,0.031154103577136993
1790163377511488500,8.679488525390624,-1.9718714952468872,-1.1325433254241943,0.546113133430481
1790163377528743400,8.696743408203124,-1.4379756450653076,-1.5192207098007202,1.5687007904052734
1790163377545998000,8.713998046875,-1.6139047145843506,-1.1239912509918213,2.2094979286193848
1790163377563253000,8.7312529296875,-2.230267286300659,-0.13011419773101807,2.243706226348877
1790163377580507600,8.748507568359376,-2.5723516941070557,0.7159335017204285,2.232710838317871
1790163377597762300,8.76576220703125,-2.061668634414673,0.48075059056282043,2.123976945877075
1790163377615017000,8.783016845703125,-1.3347395658493042,0.2706131041049957,1.4373648166656494
1790163377632271600,8.800271728515625,-0.6407971382141113,-0.06963858753442764,-0.03298669680953026
1790163377649526300,8.8175263671875,-0.6902772188186646,0.4526508152484894,0.48013970255851746
1790163377666780700,8.83478076171875,-1.4984513521194458,0.7269290685653687,1.3451242446899414
1790163377684035300,8.852035400390625,-1.32985258102417,1.2925899028778076,1.463021159172058
1790163377701290000,8.8692900390625,-1.3182462453842163,2.177122116088867,1.5234967470169067
1790163377718545000,8.886544921875,-1.387273907661438,2.8594579696655273,1.2748748064041138
1790163377735799600,8.903799560546876,-0.7648026943206787,2.546084403991699,0.18081597983837128
1790163377753054500,8.921054443359376,0.4776962697505951,1.3335177898406982,0.7757982611656189
1790163377770309000,8.93830908203125,0.18692462146282196,0.720820426940918,1.8454225063323975
1790163377787564000,8.95556396484375,-0.8295543789863586,0.4196641147136688,2.162461280822754
1790163377804818700,8.972818603515625,-1.8649702072143555,0.19608759880065918,1.3683371543884277
1790163377822073000,8.990072998046875,-2.3817617893218994,1.2760965824127197,0.6707295179367065
1790163377839327700,9.00732763671875,-1.8167119026184082,0.851545512676239,0.3970620930194855
1790163377856582400,9.02458251953125,-0.16126830875873566,-0.5057960152626038,0.5583304166793823
1790163377873837000,9.041837158203125,0.9853248596191406,-2.497826099395752,1.3915499448776245
1790163377891091500,9.059091552734374,1.5888593196868896,-4.036594390869141,1.951712965965271
1790163377908346400,9.076346435546874,2.0237951278686523,-5.068345069885254,2.6004514694213867
1790163377925601300,9.093601318359376,1.4379756450653076,-4.915018081665039,2.3799290657043457
1790163377942856000,9.11085595703125,0.5925388336181641,-3.937023401260376,1.3390156030654907
1790163377960110800,9.12811083984375,0.11606431007385254,-2.958418130874634,0.4477638900279999
1790163377977365500,9.145365478515625,0.4728093445301056,-2.9107706546783447,0.4410443603992462
1790163377994620400,9.162620361328125,1.4275909662246704,-2.797149896621704,0.9468404054641724
1790163378011875000,9.179875,2.6138904094696045,-0.3695732057094574,2.2149956226348877
1790163378029130000,9.1971298828125,2.9181010723114014,1.8240422010421753,2.305403709411621
1790163378046384600,9.214384521484375,2.544862747192383,2.6871941089630127,1.2137882709503174
1790163378063639600,9.2316396484375,2.0549490451812744,2.1172573566436768,-0.06963858753442764
1790163378080894200,9.248894287109374,1.6792672872543335,0.8301652073860168,-0.5290089249610901
1790163378098149000,9.266149169921874,1.463021159172058,-0.7073814272880554,-0.5198459029197693
1790163378115403800,9.28340380859375,1.1533126831054688,-1.5705333948135376,-0.4251618981361389
1790163378132658200,9.300658203125,0.4050033390522003,-1.3139700889587402,-0.1533270627260208
1790163378149912800,9.317912841796876,0.06047561392188072,0.05070177838206291,0.14294235408306122
1790163378167167500,9.33516748046875,0.17043127119541168,0.49602219462394714,0.07819069176912308
1790163378184422000,9.352421875,0.01588248461484909,1.125823736190796,-0.026878049597144127
1790163378201676500,9.369676513671875,-0.25534147024154663,1.739132046699524,0.15821397304534912
1790163378218931500,9.386931396484375,-0.6316341757774353,2.6309945583343506,0.8338304162025452
1790163378236186000,9.40418603515625,-0.8888082504272461,4.012770652770996,1.387273907661438
1790163378253441000,9.42144091796875,-0.739757239818573,5.885071277618408,1.320078730583191
1790163378270695700,9.43869580078125,-0.6145299673080444,6.185616970062256,0.4471530318260193
1790163378287950600,9.45595068359375,-0.6517927050590515,4.283994674682617,-0.46975502371788025
1790163378305205200,9.473205322265626,-0.26389357447624207,1.109330415725708,-1.1710277795791626
1790163378322460000,9.4904599609375,0.3249800503253937,-0.6438514590263367,-0.943175196647644
1790163378339714600,9.507714599609375,1.2736530303955078,-0.4471530318260193,-0.10445787757635117
1790163378356969000,9.524968994140625,2.246149778366089,1.1417062282562256,0.22235478460788727
1790163378374223600,9.5422236328125,2.4819436073303223,2.0048582553863525,1.137430191040039
1790163378391478300,9.559478271484375,1.433699607849121,1.0622938871383667,0.3903425931930542
1790163378408733000,9.57673291015625,0.8100066781044006,1.237612009048462,-0.430659681558609
1790163378425987800,9.59398779296875,0.16065743565559387,0.2822195291519165,-0.5216785073280334
1790163378443242500,9.611242431640624,-0.3946186602115631,-1.1600322723388672,-0.41355544328689575
1790163378460497400,9.628497314453124,-0.22479823231697083,-1.729358196258545,-0.5302306413650513
1790163378477752000,9.645751953125,0.5406153202056885,-1.1759146451950073,-0.6096430420875549
1790163378495007000,9.663007080078126,1.1869102716445923,-1.0830632448196411,-1.5198315382003784
1790163378512261600,9.68026171875,1.833205223083496,-1.6609413623809814,-2.5418083667755127
1790163378529516500,9.6975166015625,2.0586142539978027,-2.2052218914031982,-1.7513493299484253
1790163378546771200,9.714771240234375,1.4587451219558716,-1.886350393295288,0.3952295184135437
1790163378564026000,9.732026123046875,0.8747583627700806,-1.3616175651550293,1.1728603839874268
1790163378581280800,9.74928076171875,0.42455101013183594,-1.6035200357437134,0.6731730103492737
1790163378598535700,9.76653564453125,0.4886918365955353,-2.2925755977630615,-0.04276053607463837
1790163378615790300,9.783790283203125,0.7458658814430237,-4.480693340301514,0.07086031138896942
1790163378633045200,9.801045166015625,1.442862629890442,-3.417788505554199,0.43432486057281494
1790163378650300000,9.8182998046875,2.2595887184143066,-0.7648026943206787,-0.1545487940311432
1790163378667554800,9.835554931640624,2.5363106727600098,1.3127484321594238,-0.8839213252067566
1790163378684809500,9.8528095703125,2.8790056705474854,2.126420259475708,-0.9932661056518555
1790163378702064400,9.870064453125,3.568671941757202,1.3597849607467651,-0.3042106628417969
1790163378719318800,9.88731884765625,3.825235366821289,0.8955277800559998,0.3329212963581085
1790163378736573400,9.904573486328125,3.646862745285034,1.3445134162902832,0.33047783374786377
1790163378753828000,9.921828125,3.700007915496826,1.5851941108703613,0.11911863088607788
1790163378771082500,9.93908251953125,3.339597702026367,1.0763437747955322,0.4172206521034241
1790163378788337200,9.956337158203125,0.7061597108840942,1.0024291276931763,1.0757328271865845
1790163378805592000,9.973592041015625,-1.0641264915466309,0.7849612236022949,2.4568982124328613
1790163378822846700,9.9908466796875,-0.7446441650390625,2.9694137573242188,2.469726324081421
1790163378840101600,10.0081015625,-1.211344838142395,3.601047992706299,1.7085888385772705
1790163378857356300,10.025356201171874,-2.0769402980804443,2.8087563514709473,0.29077163338661194
1790163378874611200,10.042611083984376,-1.868024468421936,1.1087195873260498,-0.861319363117218
1790163378891865900,10.059865966796876,-0.8362739086151123,-0.6414080262184143,-0.9645555019378662
1790163378909120500,10.07712060546875,-0.9211840629577637,-1.1319323778152466,-0.647516667842865
1790163378926375200,10.094375244140625,-2.115424633026123,-0.9040798544883728,-0.42455101013183594
1790163378943629800,10.1116298828125,-3.7488770484924316,-1.2907572984695435,-0.1026252806186676
1790163378960884200,10.12888427734375,-4.579653263092041,-2.0689990520477295,-0.03543015569448471
1790163378978139000,10.146138916015625,-4.729926109313965,-1.5919135808944702,-0.4465421438217163
1790163378995393500,10.1633935546875,-2.7366743087768555,0.4355465769767761,-1.0189224481582642
1790163379012648200,10.180648193359374,-0.758083164691925,0.5491674542427063,-0.8356630206108093
1790163379029903000,10.197903076171874,0.34574946761131287,-0.6963858604431152,0.043371398001909256
1790163379047157800,10.21515771484375,1.081230640411377,-0.3017672002315521,0.38667741417884827
1790163379064412700,10.23241259765625,1.7611231803894043,0.24801109731197357,0.3231474757194519
1790163379081667300,10.249667236328126,2.0109667778015137,0.4159989058971405,0.22785256803035736
1790163379098922200,10.266922119140625,1.9956952333450317,0.13255766034126282,0.25411975383758545
1790163379116177000,10.284177001953125,1.2247838973999023,1.1038326025009155,-0.0977383628487587
1790163379133431800,10.301431884765625,0.4868592321872711,1.842979073524475,-0.46608981490135193
1790163379150686500,10.3186865234375,0.13072505593299866,2.213163137435913,-0.8790343999862671
1790163379167941400,10.33594140625,0.14233149588108063,1.933387041091919,-0.9877683520317078
1790163379185196300,10.3531962890625,-0.004886918235570192,0.8979712128639221,-0.7202095985412598
1790163379202451000,10.370450927734375,0.08368847519159317,0.3133736252784729,-0.46975502371788025
1790163379219705600,10.38770556640625,0.6450732350349426,0.8081740736961365,-0.7293725609779358
1790163379236960000,10.4049599609375,1.3249657154083252,1.3304635286331177,-1.0494656562805176
1790163379254214700,10.422214599609376,1.8710788488388062,1.0091485977172852,-0.5772672295570374
1790163379271469300,10.43946923828125,2.6969680786132812,1.0329723358154297,0.0873536616563797
1790163379288723700,10.4567236328125,3.062265157699585,3.123351573944092,0.2461785078048706
1790163379305978600,10.473978515625,1.915671944618225,4.3970046043396,0.3799578845500946
1790163379323233300,10.4912333984375,0.8545998334884644,2.188117742538452,0.6059778332710266
1790163379340488200,10.50848828125,0.3170388340950012,-0.4685332775115967,0.8674280047416687
1790163379357742800,10.525742919921875,0.11239911615848541,-1.6798781156539917,1.212566614151001
1790163379374997800,10.542997802734375,-0.03848448023200035,-2.704298496246338,1.4147628545761108
1790163379392252400,10.56025244140625,-0.4581485986709595,-2.9688029289245605,0.7061597108840942
1790163379409507300,10.57750732421875,-0.6194168925285339,-2.4324636459350586,-0.42943793535232544
1790163379426762000,10.594761962890624,-0.401949018239975,-2.2088871002197266,-0.4740310609340668
1790163379444017000,10.612016845703126,-0.2419024556875229,-1.8277074098587036,-0.19181154668331146
1790163379461271600,10.629271484375,-0.16310089826583862,-1.0848958492279053,-0.13988803327083588
1790163379478526500,10.6465263671875,-0.11972949653863907,-0.9040798544883728,0.04153880476951599
1790163379495781000,10.663781005859375,-0.2938259541988373,-0.9089667797088623,0.19853104650974274
1790163379513035800,10.681035888671875,-0.23335035145282745,-0.2101374864578247,0.008552107028663158
1790163379530290400,10.69829052734375,0.03176496922969818,0.3445277214050293,-0.0769689604640007
1790163379547545000,10.715545166015625,0.1740964651107788,0.37812530994415283,0.001832594396546483
1790163379564799500,10.732799560546875,0.12950333952903748,-0.031154103577136993,0.10751219838857651
1790163379582054100,10.75005419921875,-0.0665842592716217,-0.6145299673080444,0.22907429933547974
1790163379599308800,10.767308837890624,-0.2412915825843811,-2.165515661239624,0.516791582107544
1790163379616563500,10.7845634765625,-0.04581485688686371,-1.7983858585357666,0.006108647678047419
1790163379633818400,10.801818359375,-0.14172062277793884,-0.9352339506149292,-0.030543239787220955
1790163379651073000,10.819072998046876,-0.5082395076751709,-0.49480047821998596,-0.06047561392188072
1790163379668328000,10.836327880859375,-0.9309579133987427,0.059864748269319534,-0.08552107214927673
1790163379685582800,10.853582763671875,-1.1331541538238525,0.49541133642196655,-0.16615521907806396
1790163379702837500,10.87083740234375,-0.8338304162025452,0.8161153197288513,-0.19181154668331146
1790163379720092400,10.888092529296875,-0.33597561717033386,0.2974911332130432,0.02260199747979641
1790163379737347000,10.90534716796875,-0.19181154668331146,-0.36774060130119324,0.2522871494293213
1790163379754602000,10.92260205078125,-0.37629270553588867,-0.277332603931427,0.29993459582328796
1790163379771856600,10.939856689453125,-0.360410213470459,0.04886918142437935,0.14172062277793884
1790163379789111600,10.957111572265624,-0.23884813487529755,0.21868959069252014,-0.011606430634856224
1790163379806538800,10.974538818359376,-0.15027274191379547,0.15515965223312378,-0.09957095980644226
1790163379824138800,10.992138671875,-0.03298669680953026,0.08124501258134842,-0.12583814561367035
1790163379841738500,11.009738525390626,-0.043982263654470444,0.16615521907806396,-0.11728604137897491
1790163379859338200,11.027338134765625,-0.04764745384454727,0.656679630279541,-0.06230820715427399
1790163379876938000,11.04493798828125,-0.014049889519810677,1.1808016300201416,0.033597562462091446
1790163379894537700,11.062537841796875,0.059864748269319534,0.7318159937858582,-0.17531819641590118
1790163379912137500,11.080137451171876,0.4324922561645508,-2.52042818069458,-1.2583814859390259
1790163379929737000,11.097737060546875,0.21807873249053955,-1.5778636932373047,-0.47036588191986084
1790163379947336700,11.115336669921875,1.5693116188049316,3.2504115104675293,1.684765100479126
1790163379964936200,11.132936279296874,1.0115920305252075,0.6352993845939636,0.9089667797088623
1790163379982535700,11.15053564453125,0.13744457066059113,2.1056509017944336,-0.04276053607463837
1790163380000135400,11.168135498046874,-0.12156209349632263,2.4849979877471924,-0.16065743565559387
1790163380017450200,11.1854501953125,-0.9132428169250488,1.8991786241531372,-0.3396408259868622
1790163380034765000,11.20276513671875,-2.2650866508483887,1.4294235706329346,-0.9645555019378662
1790163380052079900,11.220079833984375,-2.400698661804199,-0.19914191961288452,-1.4404191970825195
1790163380069394400,11.23739453125,-1.3170244693756104,-1.0519092082977295,-1.5931353569030762
1790163380086709200,11.254709228515624,-0.5510000586509705,-1.0781763792037964,-0.9932661056518555
1790163380104009200,11.27200927734375,-0.07880155742168427,-2.9297075271606445,-0.08429934084415436
1790163380121263900,11.289263916015624,0.15821397304534912,-4.885085582733154,-0.1802051067352295
1790163380138518800,11.306518798828124,0.22663083672523499,-4.282162189483643,-0.32192572951316833
1790163380155773400,11.3237734375,0.13988803327083588,-2.207665205001831,0.006108647678047419
1790163380173028400,11.3410283203125,0.10690133273601532,-0.8491020202636719,0.5088503360748291
1790163380190283000,11.358282958984375,0.11423171311616898,-0.33536475896835327,0.8405499458312988
1790163380207537700,11.37553759765625,-0.04825831577181816,-0.036651886999607086,0.7128791809082031
1790163380224792300,11.392792236328125,0.0824667438864708,0.011606430634856224,0.3799578845500946
1790163380242047000,11.410046875,0.5577195286750793,-0.47464191913604736,0.411722868680954
1790163380259301600,11.427301513671875,0.9859357476234436,-1.0097594261169434,0.2675587832927704
1790163380276556000,11.44455615234375,1.266933560371399,-1.1252129077911377,-0.06047561392188072
1790163380293810700,11.461810791015624,1.6279546022415161,-0.9767727851867676,-0.2632827162742615
1790163380311065300,11.4790654296875,1.7776165008544922,-0.7061597108840942,-0.42455101013183594
1790163380328320300,11.4963203125,1.4672971963882446,-0.32559093832969666,-0.46975502371788025
1790163380345575000,11.513574951171876,1.0470222234725952,0.2919933497905731,-0.36712974309921265
1790163380362829800,11.530829833984376,1.0403027534484863,1.0305289030075073,-0.37629270553588867
1790163380380084500,11.54808447265625,1.2693769931793213,0.8991929292678833,-0.4557051360607147
1790163380397339400,11.56533935546875,1.4257583618164062,0.720820426940918,-0.5045742988586426
1790163380414594000,11.582593994140625,1.2822052240371704,0.3946186602115631,-0.25045454502105713
1790163380431848400,11.599848388671875,1.204014539718628,0.018325943499803543,0.23335035145282745
1790163380449103000,11.61710302734375,1.2748748064041138,1.1068869829177856,0.28954991698265076
1790163380466357800,11.634357666015624,1.2809834480285645,1.8026620149612427,0.34636032581329346
1790163380483612400,11.6516123046875,1.4117084741592407,1.3353503942489624,0.17653992772102356
1790163380500866800,11.66886669921875,1.5045599937438965,0.8167262077331543,-0.06475166976451874
1790163380518121700,11.686121826171876,1.6053526401519775,0.4318813979625702,-0.35735589265823364
1790163380535376600,11.703376708984376,1.7104213237762451,0.14599667489528656,-0.6310232877731323
1790163380552631300,11.72063134765625,1.3909391164779663,0.5045742988586426,-0.9187406301498413
1790163380569886200,11.73788623046875,1.1899645328521729,0.6456840634346008,-1.0555742979049683
1790163380587140900,11.755140869140625,1.3084723949432373,0.4013381600379944,-0.9877683520317078
1790163380604395500,11.7723955078125,1.4257583618164062,-0.01282816007733345,-0.9767727851867676
1790163380621650200,11.789650146484375,1.2791508436203003,-0.02871064469218254,-0.8869756460189819
1790163380638904800,11.80690478515625,1.025641918182373,0.1948658674955368,-0.7104357481002808
1790163380656159500,11.824159423828124,0.8399390578269958,0.2816086709499359,-0.46059203147888184
1790163380673414000,11.841413818359374,0.6444623470306396,0.03237583488225937,-0.33597561717033386
1790163380690668500,11.85866845703125,0.4098902642726898,-0.18631376326084137,-0.25900667905807495
1790163380707923200,11.875923095703126,0.164322629570961,-0.04153880476951599,-0.09834922850131989
1790163380725178000,11.89317822265625,-0.01954767294228077,0.14782927930355072,0.07757982611656189
1790163380742432800,11.910432861328125,-0.18142683804035187,0.2211330533027649,0.21685700118541718
1790163380759687700,11.927687744140625,-0.4068359434604645,0.08918625861406326,0.27000224590301514
1790163380776942300,11.9449423828125,-0.6438514590263367,-0.13744457066059113,0.30482152104377747
1790163380794197200,11.962197265625,-0.8374956250190735,-0.16310089826583862,0.4324922561645508
1790163380811452000,11.979451904296875,-1.0219768285751343,-0.12095122784376144,0.554665207862854
1790163380828706800,11.996706787109375,-1.2327251434326172,-0.07086031138896942,0.646905779838562
1790163380845961500,12.01396142578125,-1.4605777263641357,-0.15638138353824615,0.7409789562225342
1790163380863216400,12.03121630859375,-1.7238603830337524,-0.14294235408306122,0.8106175661087036
1790163380880471000,12.048470947265624,-1.9914191961288452,0.09590577334165573,0.8466585874557495
1790163380897726000,12.065725830078126,-2.1795654296875,0.3738492429256439,0.9193515181541443
1790163380914980600,12.082980712890626,-2.3011276721954346,0.34208428859710693,1.043357014656067
1790163380932235000,12.100235107421875,-2.49538254737854,0.16737695038318634,1.0396918058395386
1790163380949489700,12.11748974609375,-2.6053383350372314,0.39767298102378845,0.9969313144683838
1790163380966744300,12.134744384765625,-2.542419195175171,0.5962040424346924,1.0470222234725952
1790163380983999000,12.1519990234375,-2.49843692779541,0.3707949221134186,1.0458004474639893
1790163381001253600,12.169253662109375,-2.456287384033203,0.018325943499803543,0.9743293523788452
1790163381018508300,12.18650830078125,-2.3854269981384277,0.006719512399286032,0.9847140312194824
1790163381035763200,12.20376318359375,-2.2650866508483887,0.2987128794193268,0.972496747970581
1790163381053017900,12.221017822265624,-2.118479013442993,0.42332929372787476,0.8765909671783447
1790163381070272800,12.238272705078124,-2.0299036502838135,0.29993459582328796,0.8100066781044006
1790163381087527400,12.25552734375,-1.8142683506011963,0.28405213356018066,0.943786084651947
1790163381104782000,12.272781982421876,-1.6896519660949707,0.28954991698265076,1.0024291276931763
1790163381122036700,12.29003662109375,-1.6340632438659668,0.3946186602115631,0.9010255336761475
1790163381139291400,12.30729150390625,-1.528383731842041,0.43432486057281494,0.7666352987289429
1790163381156545800,12.3245458984375,-1.2724313735961914,0.4361574649810791,0.6676751971244812
1790163381173800400,12.341800537109375,-1.0989457368850708,0.3738492429256439,0.676227331161499
1790163381191055000,12.35905517578125,-1.0641264915466309,0.28466299176216125,0.695164144039154
1790163381208309800,12.376309814453125,-0.9590576887130737,0.3964512348175049,0.6194168925285339
1790163381225564700,12.393564697265624,-0.9071341753005981,0.5290089249610901,0.5729911923408508
1790163381242819300,12.4108193359375,-0.7342594861984253,0.5632173418998718,0.5674933791160583
1790163381260074200,12.42807421875,-0.5619956254959106,0.42882707715034485,0.5094612240791321
1790163381277329000,12.445328857421876,-0.38728827238082886,0.19914191961288452,0.4514290690422058
1790163381294583800,12.462583740234376,-0.2993237376213074,0.08613193035125732,0.3640754222869873
1790163381311838500,12.47983837890625,-0.12705987691879272,0.0360410213470459,0.2675587832927704
1790163381329092900,12.4970927734375,0.06780599057674408,0.0360410213470459,0.16676609218120575
1790163381346347500,12.514347412109375,0.21991132199764252,-0.09834922850131989,0.04153880476951599
1790163381363602200,12.531602294921875,0.38240134716033936,-0.3017672002315521,-0.1533270627260208
1790163381380856600,12.548856689453125,0.5516108870506287,-0.3182605504989624,-0.32620179653167725
1790163381398111200,12.566111328125,0.6536253094673157,-0.17531819641590118,-0.42088583111763
1790163381415366100,12.5833662109375,0.7751874327659607,-0.14599667489528656,-0.5082395076751709
1790163381432620800,12.600620849609374,0.9816597104072571,-0.1997527778148651,-0.6065887212753296
1790163381449875700,12.617875732421876,1.232114315032959,-0.23945899307727814,-0.6768381595611572
1790163381467130400,12.63513037109375,1.3750566244125366,-0.13133592903614044,-0.6969966888427734
1790163381484385300,12.65238525390625,1.488066554069519,-0.04214967042207718,-0.7629700899124146
1790163381501640200,12.66964013671875,1.6762129068374634,-0.18814635276794434,-0.8008437156677246
1790163381518894600,12.68689453125,1.9645410776138306,-0.5473348498344421,-0.8362739086151123
1790163381536149200,12.704149169921875,2.011577606201172,-0.3481929302215576,-0.7635809779167175
1790163381553404000,12.72140380859375,1.8894047737121582,0.03787361457943916,-0.7739656567573547
1790163381570658300,12.738658203125,1.8350378274917603,0.15515965223312378,-0.8790343999862671
1790163381587913000,12.755912841796874,1.9291110038757324,-0.17226386070251465,-1.0189224481582642
1790163381605167600,12.773167724609374,2.2669191360473633,-0.8222240209579468,-1.1814124584197998
1790163381622422500,12.790422607421876,2.4043638706207275,-0.6511818766593933,-1.1233803033828735
1790163381639677200,12.80767724609375,2.1496331691741943,0.009162971749901772,-1.1246020793914795
1790163381656932000,12.82493212890625,2.034790515899658,0.1954767256975174,-1.204014539718628
1790163381674186800,12.842186767578125,2.2424845695495605,-0.1649334877729416,-1.3518437147140503
1790163381691441700,12.859441650390625,2.4630067348480225,-0.6914989352226257,-1.4453060626983643
1790163381708696300,12.8766962890625,2.35305118560791,-0.3274235129356384,-1.2779290676116943
1790163381725951200,12.893951171875,1.887572169303894,0.44348782300949097,-1.2205078601837158
1790163381743206000,12.911205810546875,1.7232495546340942,0.5216785073280334,-1.2174534797668457
1790163381760460800,12.928460693359375,1.7696752548217773,0.024434590712189674,-1.1954623460769653
1790163381777715500,12.945715576171875,1.8222095966339111,-0.42943793535232544,-1.176525592803955
1790163381794970400,12.962970458984374,1.7495167255401611,-0.5809323787689209,-1.0506874322891235
1790163381812225000,12.98022509765625,1.4685189723968506,-0.2522871494293213,-0.8277217745780945
1790163381829479400,12.9974794921875,1.293811559677124,-0.006108647678047419,-0.6151408553123474
1790163381846734000,13.014734130859376,1.1985167264938354,-0.164322629570961,-0.48930269479751587
1790163381863988700,13.03198876953125,1.01708984375,-0.4324922561645508,-0.40866854786872864
1790163381881243400,13.049243408203125,0.7757982611656189,-0.42882707715034485,-0.21930044889450073
1790163381898497800,13.066497802734375,0.42455101013183594,-0.14538581669330597,0.009773836471140385
1790163381915752700,13.083752685546875,0.2162461280822754,-0.03298669680953026,0.14172062277793884
1790163381933007400,13.10100732421875,0.12095122784376144,-0.09651663154363632,0.20708316564559937
1790163381950262300,13.11826220703125,-0.02871064469218254,-0.1637117564678192,0.29565855860710144
1790163381967517000,13.135516845703124,-0.23457208275794983,-0.13439024984836578,0.4318813979625702
1790163381984771800,13.152771728515624,-0.3787361681461334,-0.08674279600381851,0.5619956254959106
1790163382002026500,13.170026611328124,-0.5082395076751709,-0.0824667438864708,0.6505709886550903
1790163382019281200,13.18728125,-0.6792816519737244,-0.0769689604640007,0.6921098232269287
1790163382036535800,13.204535888671876,-0.8503237962722778,-0.05742128938436508,0.758694052696228
1790163382053790200,13.221790283203125,-1.0372483730316162,-0.0665842592716217,0.8460476994514465
1790163382071044900,13.239044921875,-1.2101231813430786,-0.046425722539424896,0.8491020202636719
1790163382088299500,13.256299560546875,-1.3335177898406982,-0.01588248461484909,0.8161153197288513
1790163382105554200,13.27355419921875,-1.461188554763794,0.05436696484684944,0.8484911918640137
1790163382122809000,13.29080908203125,-1.6255111694335938,0.09896009415388107,0.9596685767173767
1790163382140063700,13.308063720703124,-1.7788382768630981,-0.0030543238390237093,0.9804379940032959
1790163382157318700,13.325318603515624,-1.9987496137619019,-0.12217295914888382,0.8387173414230347
1790163382174573300,13.3425732421875,-2.1807873249053955,0.006108647678047419,0.8002328872680664
1790163382191828200,13.359828125,-2.310901403427124,0.19425499439239502,0.8973603844642639
1790163382209083000,13.377082763671876,-2.397033452987671,0.2926042377948761,0.9993748068809509
1790163382226337300,13.394337158203125,-2.4550654888153076,0.24740023910999298,0.9908226728439331
1790163382243592000,13.411592041015625,-2.4795000553131104,0.38850998878479004,0.9596685767173767
1790163382260846600,13.4288466796875,-2.5405867099761963,0.554665207862854,0.9132428169250488
1790163382278101000,13.44610107421875,-2.5381431579589844,0.4819723069667816,0.8949168920516968
1790163382295355600,13.463355712890625,-2.3897030353546143,0.30115634202957153,0.8710931539535522
1790163382312610600,13.480610595703125,-2.2009458541870117,0.205861434340477,0.8570432662963867
1790163382329865200,13.497865234375,-2.0689990520477295,0.17592905461788177,0.8900299668312073
1790163382347120000,13.5151201171875,-1.9651520252227783,0.2877173125743866,0.9560033679008484
1790163382364374800,13.532374755859376,-1.896124243736267,0.3139844834804535,0.9712749719619751
1790163382381629700,13.549629638671876,-1.7825034856796265,0.17776164412498474,0.9260709881782532
1790163382398884400,13.56688427734375,-1.6603304147720337,0.11117739230394363,0.8558215498924255
1790163382416139000,13.584138916015625,-1.5894701480865479,0.2528980076313019,0.7892373204231262
1790163382433393700,13.6013935546875,-1.459966778755188,0.2510654330253601,0.7244856357574463
1790163382450648300,13.6186484375,-1.3457350730895996,0.18570289015769958,0.6823359727859497
1790163382467902700,13.63590283203125,-1.240666389465332,0.23029601573944092,0.657290518283844
1790163382485157400,13.653157470703125,-1.1447606086730957,0.31459537148475647,0.6065887212753296
1790163382502412000,13.670412109375,-1.0042617321014404,0.2254091054201126,0.46975502371788025
1790163382519666700,13.687666748046874,-0.8698714375495911,0.09346231073141098,0.27488914132118225
1790163382536921600,13.704921630859374,-0.7440332770347595,0.06719512492418289,0.09162971377372742
1790163382554176300,13.72217626953125,-0.5412262082099915,0.05192350596189499,-0.05558869615197182
1790163382571431200,13.73943115234375,-0.287106454372406,0.008552107028663158,-0.22235478460788727
1790163382588686000,13.75668603515625,-0.021380268037319183,-0.05742128938436508,-0.42821621894836426
1790163382605940700,13.773940673828125,0.27427828311920166,-0.18264856934547424,-0.6298015713691711
1790163382623195600,13.791195556640625,0.5821541547775269,-0.3445277214050293,-0.8014546036720276
1790163382640450300,13.8084501953125,0.8210022449493408,-0.3384190797805786,-0.9547816514968872
1790163382657705200,13.825705322265625,0.9810488224029541,-0.2675587832927704,-1.1068869829177856
1790163382674960000,13.8429599609375,1.196073293685913,-0.3127627670764923,-1.1924080848693848
1790163382692214800,13.86021484375,1.4508038759231567,-0.573602020740509,-1.2412772178649902
1790163382709469400,13.877469482421875,1.7269147634506226,-0.7330377101898193,-1.3158026933670044
1790163382726723800,13.894723876953124,1.8655810356140137,-0.4679224193096161,-1.3597849607467651
1790163382743978500,13.911978515625,1.7751730680465698,-0.040317077189683914,-1.3927717208862305
1790163382761233200,13.929233154296876,1.6762129068374634,0.15760311484336853,-1.4092650413513184
1790163382778487600,13.946487548828125,1.8154901266098022,-0.11545344442129135,-1.368947982788086
1790163382795742200,13.9637421875,2.193004608154297,-0.656679630279541,-1.25715970993042
1790163382812997000,13.9809970703125,2.4623959064483643,-0.7367029190063477,-1.1184934377670288
1790163382830251800,13.998251708984375,2.349385976791382,-0.21135921776294708,-1.1600322723388672
1790163382847506700,14.015506591796875,2.1942262649536133,-0.012217295356094837,-1.2925899028778076
1790163382864761300,14.03276123046875,2.1954479217529297,-0.3402516841888428,-1.3463460206985474
1790163382882016300,14.050016357421875,2.361603260040283,-0.9963204264640808,-1.3952151536941528
1790163382899271000,14.06727099609375,2.5112650394439697,-1.4960078001022339,-1.387273907661438
1790163382916525600,14.084525634765624,2.3964226245880127,-0.9407317638397217,-1.0519092082977295
1790163382933780200,14.1017802734375,2.087324857711792,-0.026878049597144127,-0.8063415288925171
1790163382951034600,14.11903466796875,1.922391414642334,0.3029889166355133,-0.8002328872680664
1790163382968289300,14.136289306640625,1.8710788488388062,-0.024434590712189674,-0.8894191384315491
1790163382985544000,14.1535439453125,1.7861685752868652,-0.5021308660507202,-0.9279035925865173
1790163383002798600,14.170798583984375,1.7146974802017212,-0.6304124593734741,-0.870482325553894
1790163383020053200,14.18805322265625,1.5167772769927979,-0.056810423731803894,-0.6896663308143616
1790163383037308200,14.20530810546875,1.3041963577270508,0.5534434914588928,-0.5870410799980164
1790163383054562800,14.222562744140625,1.2260055541992188,0.5528326034545898,-0.5619956254959106
1790163383071817700,14.239817626953124,1.135597586631775,0.19242240488529205,-0.5393936038017273
1790163383089072600,14.25707275390625,0.9553925395011902,-0.08491020649671555,-0.4923570156097412
1790163383106327300,14.274327392578124,0.80389803647995,-0.23273947834968567,-0.41233372688293457
1790163383123582200,14.291582275390626,0.5705476999282837,-0.05803215503692627,-0.20952661335468292
1790163383140836900,14.3088369140625,0.2669478952884674,0.2559523284435272,-0.040317077189683914
1790163383158091800,14.326091796875,0.023212861269712448,0.22357651591300964,0.06047561392188072
1790163383175346400,14.343346435546875,-0.18203771114349365,0.020158538594841957,0.12278381735086441
1790163383192601300,14.360601318359375,-0.36285367608070374,-0.08002328872680664,0.13255766034126282
1790163383209855700,14.377855712890625,-0.5277871489524841,-0.06352993845939636,0.12950333952903748
1790163383227110400,14.3951103515625,-0.6847794055938721,0.04764745384454727,0.2107483446598053
1790163383244365000,14.412364990234375,-0.8350521326065063,0.1954767256975174,0.34636032581329346
1790163383261619700,14.42961962890625,-0.9761618971824646,0.1692095398902893,0.4514290690422058
1790163383278874000,14.4468740234375,-1.1392627954483032,0.010995565913617611,0.5467239618301392
1790163383296128800,14.464128662109376,-1.320078730583191,-0.11362084746360779,0.6291907429695129
1790163383313383700,14.4813837890625,-1.4862339496612549,-0.11056652665138245,0.7409789562225342
1790163383330638300,14.498638427734376,-1.674991250038147,0.1185077652335167,0.9272927641868591
1790163383347893200,14.515893310546875,-1.8551963567733765,0.36651885509490967,1.1026109457015991
1790163383365148000,14.53314794921875,-1.9346086978912354,0.3707949221134186,1.2009601593017578
1790163383382402800,14.55040283203125,-1.9901974201202393,0.17348559200763702,1.2339468002319336
1790163383399657500,14.567657470703125,-2.075718402862549,0.08307760953903198,1.2431098222732544
1790163383416912100,14.584912109375,-2.1282529830932617,0.040317077189683914,1.1924080848693848
1790163383434166800,14.602166748046875,-2.1117594242095947,0.033597562462091446,1.1392627954483032
1790163383451421400,14.61942138671875,-2.154520034790039,0.16615521907806396,1.2168426513671875
1790163383468675800,14.63667578125,-2.2149956226348877,0.35124725103378296,1.3072506189346313
1790163383485930500,14.653930419921876,-2.177122116088867,0.41844236850738525,1.2565488815307617
1790163383503185200,14.67118505859375,-2.0604469776153564,0.3384190797805786,1.1966841220855713
1790163383520439800,14.688439697265625,-1.9462151527404785,0.20891575515270233,1.1032217741012573
1790163383537694700,14.70569482421875,-1.803883671760559,0.1588248461484909,1.0641264915466309
1790163383554949400,14.722949462890625,-1.6346741914749146,0.43493571877479553,1.145371437072754
1790163383572204300,14.740204345703125,-1.461188554763794,0.6707295179367065,1.2382229566574097
1790163383589459200,14.757459228515625,-1.278540015220642,0.337808221578598,1.1972949504852295
1790163383606713900,14.7747138671875,-1.1508692502975464,-0.030543239787220955,1.0818414688110352
1790163383623968300,14.79196826171875,-1.0470222234725952,-0.13561198115348816,0.9822705388069153
1790163383641223000,14.809222900390624,-0.9859357476234436,-0.1026252806186676,0.9651663303375244
1790163383658477600,14.8264775390625,-0.9376774430274963,0.06352993845939636,0.9089667797088623
1790163383675732200,14.843732177734376,-0.870482325553894,0.17348559200763702,0.8381064534187317
1790163383692986600,14.860986572265626,-0.8277217745780945,0.15760311484336853,0.758694052696228
1790163383710241500,14.878241455078125,-0.7556397318840027,0.05436696484684944,0.6065887212753296
1790163383727496200,14.89549609375,-0.6401863098144531,0.039706211537122726,0.481361448764801
1790163383744751000,14.912751220703125,-0.43493571877479553,0.11545344442129135,0.39217519760131836
1790163383762005800,14.930005859375,-0.205861434340477,0.15027274191379547,0.2718348205089569
1790163383779260700,14.9472607421875,-0.023212861269712448,0.13133592903614044,0.10018182545900345
1790163383796515300,14.964515380859375,0.13927717506885529,0.09712749719619751,-0.029932374134659767
1790163383813770200,14.981770263671875,0.3170388340950012,-0.020158538594841957,-0.14294235408306122
1790163383831025000,14.99902490234375,0.5094612240791321,-0.21380266547203064,-0.30115634202957153
1790163383848279800,15.01627978515625,0.6731730103492737,-0.26939135789871216,-0.4477638900279999
1790163383865534500,15.033534423828126,0.7984002828598022,-0.2156352698802948,-0.5564978122711182
1790163383882789400,15.050789306640626,0.9272927641868591,-0.16676609218120575,-0.6304124593734741
1790163383900044000,15.0680439453125,1.0439679622650146,-0.26511532068252563,-0.6695078015327454
1790163383917298700,15.085298583984375,1.1282672882080078,-0.657290518283844,-0.7348703145980835
1790163383934553300,15.10255322265625,1.2870920896530151,-0.9896009564399719,-0.9046907424926758
1790163383951807700,15.119807861328125,1.3121376037597656,-0.7635809779167175,-1.026863694190979
1790163383969062400,15.1370625,1.2339468002319336,-0.4172206521034241,-1.0665699243545532
1790163383986317000,15.154317138671875,1.2046253681182861,-0.36224281787872314,-1.026863694190979
1790163384003571700,15.17157177734375,1.2797616720199585,-0.646905779838562,-1.0231984853744507
1790163384020826400,15.188826416015624,1.508836030960083,-1.2150100469589233,-1.0512982606887817
1790163384038081300,15.206081298828124,1.6572761535644531,-1.0800089836120605,-0.9095776677131653
1790163384055336000,15.2233359375,1.5735876560211182,-0.3243691921234131,-0.8155044913291931
1790163384072590800,15.2405908203125,1.5412118434906006,0.004276053514331579,-0.8362739086151123
1790163384089845800,15.257845703125,1.7091996669769287,-0.15638138353824615,-0.8747583627700806
1790163384107100400,15.275100341796875,1.970038890838623,-0.5937605500221252,-0.8356630206108093
1790163384124354800,15.292354736328125,2.3060145378112793,-0.9285144805908203,-0.8527672290802002
1790163384141609500,15.309609375,2.321286201477051,-0.30482152104377747,-0.833219587802887
1790163384158864100,15.326864013671875,2.081216335296631,0.6267472505569458,-0.850934624671936
1790163384176118800,15.344118896484375,2.0799946784973145,0.8558215498924255,-0.9297361969947815
1790163384193373200,15.361373291015624,2.224158763885498,0.5064069032669067,-1.0757328271865845
1790163384210628000,15.378628173828124,2.3322818279266357,0.01588248461484909,-1.1826342344284058
1790163384227882800,15.3958828125,2.3310599327087402,-0.33658650517463684,-1.1722495555877686
1790163384245137700,15.4131376953125,2.123976945877075,0.10201441496610641,-0.9566142559051514
1790163384262392300,15.430392333984376,1.915061116218567,0.6017017960548401,-0.8912517428398132
1790163384279647200,15.447647216796875,1.8631376028060913,0.48075059056282043,-0.8368847370147705
1790163384296902000,15.46490185546875,1.7501275539398193,-0.02932151034474373,-0.7880155444145203
1790163384314156500,15.482156494140625,1.5314379930496216,-0.36651885509490967,-0.7916807532310486
1790163384331411200,15.4994111328125,1.303585410118103,-0.36285367608070374,-0.6872228980064392
1790163384348665600,15.51666552734375,0.9828814268112183,0.17287473380565643,-0.4269944727420807
1790163384365920300,15.533920166015625,0.6994401812553406,0.347582072019577,-0.2987128794193268
1790163384383175000,15.5511748046875,0.5601630210876465,0.11667517572641373,-0.23762640357017517
1790163384400429600,15.5684296875,0.3750709891319275,-0.13072505593299866,-0.1844811588525772
1790163384417684200,15.585684326171876,0.12705987691879272,-0.2993237376213074,-0.1484401375055313
1790163384434939100,15.602939208984376,-0.08491020649671555,-0.2938259541988373,-0.025045456364750862
1790163384452193800,15.62019384765625,-0.29993459582328796,-0.004276053514331579,0.13011419773101807
1790163384469448700,15.63744873046875,-0.4361574649810791,0.11239911615848541,0.23396120965480804
1790163384486703400,15.654703369140625,-0.5839866995811462,0.07147117704153061,0.35674503445625305
1790163384503958300,15.671958251953125,-0.7635809779167175,-0.03787361457943916,0.4679224193096161
1790163384521213000,15.689212890625,-0.9731075763702393,-0.13439024984836578,0.5210676789283752
1790163384538467800,15.7064677734375,-1.1221586465835571,-0.14599667489528656,0.5406153202056885
1790163384555722500,15.723722412109375,-1.2266165018081665,-0.06597339361906052,0.6035344004631042
1790163384572977400,15.740977294921874,-1.3463460206985474,0.0769689604640007,0.6707295179367065
1790163384590232300,15.758232421875,-1.4868448972702026,0.10873392969369888,0.6823359727859497
1790163384607486700,15.77548681640625,-1.6780455112457275,-0.01954767294228077,0.675616443157196
1790163384624741400,15.792741455078126,-1.859472393989563,-0.059864748269319534,0.7562506198883057
1790163384641996000,15.80999609375,-1.9633194208145142,0.14233149588108063,0.9285144805908203
1790163384659250700,15.827250732421875,-2.0433425903320312,0.41783151030540466,1.061682939529419
1790163384676505000,15.844505126953125,-2.140470266342163,0.46059203147888184,1.1184934377670288
1790163384693759700,15.861759765625,-2.2290456295013428,0.2565632164478302,1.176525592803955
1790163384711014700,15.8790146484375,-2.2137739658355713,0.05070177838206291,1.2742639780044556
1790163384728269300,15.896269287109375,-2.18261981010437,0.2003636509180069,1.4172062873840332
1790163384745524200,15.913524169921875,-2.145967960357666,0.49968740344047546,1.4947861433029175
1790163384762779000,15.93077880859375,-2.146578788757324,0.49602219462394714,1.4624103307724
1790163384780033800,15.94803369140625,-2.1697916984558105,0.34636032581329346,1.4465278387069702
1790163384797288400,15.965288330078126,-2.1520767211914062,0.3249800503253937,1.5131120681762695
1790163384814543000,15.982543212890626,-2.081827163696289,0.43004879355430603,1.552207350730896
1790163384831797500,15.999797607421876,-1.96148681640625,0.4404335021972656,1.5326597690582275
1790163384849052200,16.01705224609375,-1.79410982131958,0.35796675086021423,1.5430444478988647
1790163384866306800,16.034306884765623,-1.5943571329116821,0.2809978127479553,1.5247185230255127
1790163384883561500,16.0515615234375,-1.4715732336044312,0.2254091054201126,1.433088779449463
1790163384900816100,16.068816162109375,-1.4440842866897583,0.11667517572641373,1.3170244693756104
1790163384918070800,16.08607080078125,-1.4685189723968506,0.11423171311616898,1.1991275548934937
1790163384935325700,16.10332568359375,-1.4483604431152344,0.21991132199764252,1.0598503351211548
1790163384952580400,16.120580322265624,-1.3866630792617798,0.25961753726005554,0.9120211005210876
1790163384969835300,16.137835205078126,-1.3096940517425537,0.20708316564559937,0.7812960743904114
1790163384987090000,16.15508984375,-1.2467750310897827,0.19669845700263977,0.6652317643165588
1790163385004344800,16.1723447265625,-1.1129956245422363,0.23029601573944092,0.593149721622467
1790163385021599200,16.18959912109375,-0.8881973624229431,0.22235478460788727,0.40744680166244507
1790163385038854000,16.20685400390625,-0.6090322136878967,0.1698204129934311,0.1533270627260208
1790163385056108500,16.224108642578123,-0.36835145950317383,0.043982263654470444,-0.08552107214927673
1790163385073363200,16.24136328125,-0.16798780858516693,-0.03909534588456154,-0.27855435013771057
1790163385090617600,16.25861767578125,0.02260199747979641,-0.14294235408306122,-0.38301220536231995
1790163385107872300,16.275872314453125,0.22846342623233795,-0.20647229254245758,-0.46914416551589966
1790163385125127200,16.293127197265626,0.4508182108402252,-0.26511532068252563,-0.5723803043365479
1790163385142381800,16.3103818359375,0.6701186895370483,-0.38667741417884827,-0.6982184648513794
1790163385159636700,16.32763671875,0.8710931539535522,-0.3958403766155243,-0.8307760953903198
1790163385176891600,16.3448916015625,1.063515543937683,-0.44898560643196106,-0.9260709881782532
1790163385194146300,16.362146240234374,1.288313865661621,-0.5345066785812378,-0.9975422024726868
1790163385211401200,16.379401123046875,1.4691298007965088,-0.41294458508491516,-1.0103703737258911
1790163385228655900,16.39665576171875,1.5864158868789673,-0.1081230640411377,-0.9187406301498413
1790163385245910800,16.413910888671875,1.7061452865600586,-0.020158538594841957,-0.8087849617004395
1790163385263165400,16.43116552734375,1.8881829977035522,-0.17348559200763702,-0.9224058389663696
1790163385280420400,16.44842041015625,2.1313071250915527,-0.4838049113750458,-1.0769546031951904
1790163385297675000,16.465675048828125,2.2876884937286377,-0.4990765154361725,-1.0946696996688843
1790163385314929700,16.4829296875,2.3255622386932373,-0.20647229254245758,-1.0604612827301025
1790163385332184300,16.500184326171876,2.2675299644470215,-0.1337793916463852,-1.0409135818481445
1790163385349438700,16.517438720703126,2.2168283462524414,-0.5589412450790405,-1.092226266860962
1790163385366693400,16.534693359375,2.308458089828491,-1.211344838142395,-1.1606431007385254
1790163385383948000,16.551947998046874,2.382983446121216,-1.0677915811538696,-0.9144645929336548
1790163385401202700,16.56920263671875,2.2528693675994873,-0.18387030065059662,-0.6927206516265869
1790163385418457300,16.586457275390625,2.070220708847046,0.21685700118541718,-0.7116574645042419
1790163385435712300,16.603712158203123,2.0127995014190674,0.05925388261675835,-0.8368847370147705
1790163385452967000,16.620966796875,2.0378448963165283,-0.28954991698265076,-0.9297361969947815
1790163385470221800,16.638221923828127,2.0977096557617188,-0.627968966960907,-0.9847140312194824
1790163385487476500,16.6554765625,2.011577606201172,-0.40378162264823914,-0.8350521326065063
1790163385504731400,16.6727314453125,1.7831143140792847,0.22785256803035736,-0.6969966888427734
1790163385521985800,16.68998583984375,1.6548327207565308,0.31581708788871765,-0.6432406306266785
1790163385539240400,16.707240478515626,1.6560543775558472,-0.008552107028663158,-0.6426297426223755
1790163385556495000,16.7244951171875,1.658497929573059,-0.4416552484035492,-0.6401863098144531
1790163385573749500,16.74174951171875,1.6004657745361328,-0.6603448390960693,-0.6652317643165588
1790163385591004200,16.759004150390624,1.387273907661438,-0.3848448097705841,-0.5632173418998718
1790163385608258800,16.7762587890625,1.1264346837997437,0.17715078592300415,-0.43860089778900146
1790163385625513700,16.793513671875,1.0079269409179688,0.2993237376213074,-0.3640754222869873
1790163385642768400,16.810768310546877,0.8808670043945312,0.10873392969369888,-0.33047783374786377
1790163385660023300,16.828023193359375,0.7079922556877136,0.010384701192378998,-0.29504770040512085
1790163385677278200,16.8452783203125,0.5222893953323364,-0.020158538594841957,-0.2614501118659973
1790163385694532900,16.862532958984374,0.35063639283180237,0.02260199747979641,-0.16310089826583862
1790163385711787500,16.87978759765625,0.1905898153781891,0.18142683804035187,0.01649334840476513
1790163385729042000,16.8970419921875,0.07147117704153061,0.18325942754745483,0.10690133273601532
1790163385746296600,16.914296630859376,-0.05497783049941063,0.06475166976451874,0.1490510106086731
1790163385763551200,16.93155126953125,-0.20891575515270233,-0.03787361457943916,0.205861434340477
1790163385780806000,16.948805908203123,-0.38850998878479004,-0.0873536616563797,0.29504770040512085
1790163385798060500,16.966060546875,-0.5235111117362976,-0.08857539296150208,0.37140578031539917
1790163385815315200,16.983315185546875,-0.5503891706466675,0.009162971749901772,0.38789913058280945
1790163385832570000,17.000570068359377,-0.6175842881202698,0.002443459117785096,0.4312705397605896
1790163385849824800,17.01782470703125,-0.7800742983818054,-0.0873536616563797,0.47097674012184143
1790163385867079700,17.03507958984375,-0.9450078010559082,-0.10690133273601532,0.4819723069667816
1790163385884334300,17.052334228515626,-1.0610721111297607,-0.1233946830034256,0.5351175665855408
1790163385901589200,17.06958935546875,-1.18446683883667,-0.12705987691879272,0.573602020740509
1790163385918843600,17.08684375,-1.3432916402816772,-0.07086031138896942,0.574212908744812
1790163385936098300,17.104098388671876,-1.4947861433029175,0.02871064469218254,0.6255255341529846
1790163385953353000,17.12135302734375,-1.6169590950012207,0.04825831577181816,0.729983389377594
1790163385970607600,17.138607666015623,-1.7592905759811401,-0.053145237267017365,0.7800742983818054
1790163385987862000,17.155862060546873,-1.8796309232711792,-0.24862197041511536,0.7122683525085449
1790163386005116700,17.17311669921875,-1.9584324359893799,-0.3738492429256439,0.6389645338058472
1790163386022371600,17.19037158203125,-2.006079912185669,-0.2779434621334076,0.593149721622467
1790163386039626200,17.207626220703126,-2.059225082397461,-0.17104214429855347,0.5534434914588928
1790163386056881200,17.224881103515624,-2.162461280822754,-0.04825831577181816,0.5186241865158081
1790163386074135800,17.2421357421875,-2.2052218914031982,0.12644900381565094,0.5039634704589844
1790163386091390700,17.259390625,-2.207665205001831,0.30115634202957153,0.4673115611076355
1790163386108645400,17.276645263671874,-2.1868958473205566,0.29565855860710144,0.4166097939014435
1790163386125900300,17.293900390625,-2.1166465282440186,0.28954991698265076,0.36224281787872314
1790163386143155000,17.311155029296874,-2.073275089263916,0.46425724029541016,0.36712974309921265
1790163386160409900,17.328409912109375,-2.006079912185669,0.5888736248016357,0.389120876789093
1790163386177664800,17.345664794921873,-1.9022328853607178,0.5968148708343506,0.38667741417884827
1790163386194919400,17.36291943359375,-1.722638726234436,0.5943714380264282,0.3750709891319275
1790163386212174000,17.380174072265625,-1.528383731842041,0.5809323787689209,0.4007273018360138
1790163386229428700,17.3974287109375,-1.398269534111023,0.5351175665855408,0.44470956921577454
1790163386246683100,17.41468310546875,-1.2516618967056274,0.41905322670936584,0.47036588191986084
1790163386263937800,17.431937744140626,-1.0830632448196411,0.22357651591300964,0.4685332775115967
1790163386281192400,17.4491923828125,-0.9523382186889648,0.07269290834665298,0.44470956921577454
1790163386298447000,17.466447021484374,-0.8564324378967285,0.07086031138896942,0.4269944727420807
1790163386315701800,17.48370166015625,-0.8014546036720276,0.0720820426940918,0.3946186602115631
1790163386332956700,17.500956787109374,-0.7519745230674744,0.13927717506885529,0.35674503445625305
1790163386350211300,17.51821142578125,-0.6615665555000305,0.2009745091199875,0.33108872175216675
1790163386367466200,17.53546630859375,-0.5106829404830933,0.1637117564678192,0.28405213356018066
1790163386384721000,17.552720947265627,-0.3756818473339081,0.09957095980644226,0.19669845700263977
1790163386401975800,17.569975830078125,-0.2406807243824005,0.09040798991918564,0.10934479534626007
1790163386419230200,17.587230224609375,-0.07269290834665298,0.09468404203653336,0.04581485688686371
1790163386436484900,17.60448486328125,0.11423171311616898,0.05497783049941063,0.004886918235570192
1790163386453739500,17.621739501953126,0.2809978127479553,-0.06963858753442764,-0.05253437161445618
1790163386470994000,17.638993896484376,0.4428769648075104,-0.20891575515270233,-0.13133592903614044
1790163386488248600,17.65624853515625,0.5937605500221252,-0.19608759880065918,-0.18264856934547424
1790163386505503200,17.673503173828124,0.7244856357574463,-0.05925388261675835,-0.21258094906806946
1790163386522758100,17.690758056640625,0.8662062287330627,-0.03848448023200035,-0.25961753726005554
1790163386540012800,17.7080126953125,0.9792162179946899,-0.1496618688106537,-0.3127627670764923
1790163386557267700,17.725267822265625,1.074511170387268,-0.23396120965480804,-0.3500255048274994
1790163386574522400,17.7425224609375,1.1869102716445923,-0.40255987644195557,-0.3243691921234131
1790163386591777300,17.75977734375,1.2443315982818604,-0.5919279456138611,-0.28038692474365234
1790163386609032000,17.777031982421875,1.2724313735961914,-0.6633991599082947,-0.4007273018360138
1790163386626286600,17.79428662109375,1.3377938270568848,-0.7134900689125061,-0.5174024701118469
1790163386643541000,17.811541015625,1.4312561750411987,-0.7623592615127563,-0.5204567909240723
1790163386660795600,17.828795654296876,1.515555500984192,-0.7703005075454712,-0.42943793535232544
1790163386678050300,17.84605029296875,1.5149446725845337,-0.3811796307563782,-0.29565855860710144
1790163386695304700,17.8633046875,1.4617993831634521,0.04276053607463837,-0.2761108875274658
1790163386712559600,17.8805595703125,1.5070034265518188,0.024434590712189674,-0.40255987644195557
1790163386729814300,17.897814208984375,1.6841541528701782,-0.2834412455558777,-0.5748237371444702
1790163386747069200,17.915069091796877,1.9132285118103027,-0.5393936038017273,-0.5729911923408508
1790163386764324000,17.932323974609375,1.989586591720581,-0.22724169492721558,-0.45326167345046997
1790163386781578800,17.949578857421876,1.9535455703735352,0.19853104650974274,-0.48013970255851746
1790163386798833700,17.966833740234375,1.990808367729187,0.28405213356018066,-0.5974257588386536
1790163386816088000,17.984088134765624,2.1300854682922363,0.06352993845939636,-0.729983389377594
1790163386833342700,18.0013427734375,2.296851634979248,-0.23396120965480804,-0.8625410795211792
1790163386850597400,18.018597412109376,2.1856741905212402,0.002443459117785096,-0.8356630206108093
1790163386867851800,18.035851806640625,1.8869613409042358,0.5674933791160583,-0.8576541543006897
1790163386885106400,18.0531064453125,1.7440189123153687,0.6621774435043335,-0.905912458896637
1790163386902361000,18.070361083984373,1.8362594842910767,0.37140578031539917,-0.9822705388069153
1790163386919616000,18.087615966796875,1.9541563987731934,-0.024434590712189674,-1.0439679622650146
1790163386936870700,18.10487060546875,1.978590965270996,-0.2730565667152405,-1.0476330518722534
1790163386954125600,18.12212548828125,1.7427972555160522,-0.017104214057326317,-0.9028581380844116
1790163386971380200,18.139380126953125,1.4746276140213013,0.347582072019577,-0.7898481488227844
1790163386988635100,18.15663525390625,1.2895355224609375,0.3591884970664978,-0.7006618976593018
1790163387005889800,18.173889892578124,1.117882490158081,0.15088360011577606,-0.6407971382141113
1790163387023144400,18.19114453125,0.9456186890602112,-0.030543239787220955,-0.5888736248016357
1790163387040398800,18.20839892578125,0.7079922556877136,-0.06047561392188072,-0.44959646463394165
1790163387057653500,18.225653564453125,0.4050033390522003,0.2156352698802948,-0.23945899307727814
1790163387074908200,18.242908203125,0.16859868168830872,0.33719736337661743,-0.13011419773101807
1790163387092162600,18.26016259765625,-0.025045456364750862,0.1533270627260208,-0.05070177838206291
1790163387109417500,18.27741748046875,-0.24251331388950348,-0.06230820715427399,0.05864302068948746
1790163387126672100,18.294672119140625,-0.46547895669937134,-0.16249002516269684,0.1905898153781891
1790163387143927000,18.311927001953126,-0.6560688018798828,-0.1802051067352295,0.3341430425643921
1790163387161181700,18.329181640625,-0.7977893948554993,-0.09407317638397217,0.5070177912712097
1790163387178436600,18.3464365234375,-0.934012234210968,-0.07330377399921417,0.6340776681900024
1790163387195691300,18.363691162109376,-1.0671807527542114,-0.17898337543010712,0.7079922556877136
1790163387212946200,18.3809462890625,-1.1966841220855713,-0.2675587832927704,0.7538071274757385
1790163387230200800,18.398200927734376,-1.3652827739715576,-0.23823726177215576,0.7880155444145203
1790163387247455700,18.415455810546874,-1.4960078001022339,-0.07513637095689774,0.8008437156677246
1790163387264710700,18.432710693359375,-1.554650902748108,0.10201441496610641,0.8350521326065063
1790163387281965300,18.44996533203125,-1.646891474723816,0.18570289015769958,0.8998038172721863
1790163387299220000,18.467219970703123,-1.8405355215072632,0.03787361457943916,0.8643736839294434
1790163387316474600,18.484474609375,-2.028071165084839,-0.12644900381565094,0.8069523572921753
1790163387333729300,18.501729248046875,-2.045175313949585,-0.10873392969369888,0.8191696405410767
1790163387350984000,18.51898388671875,-1.9926408529281616,-0.033597562462091446,0.8564324378967285
1790163387368238300,18.53623828125,-1.9749258756637573,0.1698204129934311,0.8662062287330627
1790163387385493000,18.553492919921876,-2.022573232650757,0.347582072019577,0.8399390578269958
1790163387402747600,18.57074755859375,-2.054338216781616,0.3292561173439026,0.7892373204231262
1790163387420002600,18.58800244140625,-2.070220708847046,0.13439024984836578,0.6835576891899109
1790163387437257200,18.60525732421875,-2.0292928218841553,0.008552107028663158,0.6157516837120056
1790163387454512000,18.62251220703125,-1.9492695331573486,0.08063415437936783,0.6774490475654602
1790163387471766800,18.639766845703125,-1.879020094871521,0.38728827238082886,0.7867938280105591
1790163387489021700,18.657021728515623,-1.8258748054504395,0.5161807537078857,0.7947350740432739
1790163387506276400,18.6742763671875,-1.7360776662826538,0.28954991698265076,0.7000510096549988
1790163387523530800,18.69153076171875,-1.626121997833252,-0.06902772188186646,0.6304124593734741
1790163387540785400,18.708785400390624,-1.451414704322815,-0.235793799161911,0.6041452884674072
1790163387558040000,18.7260400390625,-1.3151918649673462,-0.06108647957444191,0.6010909676551819
1790163387575294700,18.743294677734376,-1.2968659400939941,0.03848448023200035,0.5980366468429565
1790163387592549000,18.760549072265626,-1.2858703136444092,-0.02260199747979641,0.5809323787689209
1790163387609804000,18.777803955078124,-1.247385859489441,-0.11667517572641373,0.5119046568870544
1790163387627058700,18.79505859375,-1.2107340097427368,-0.07757982611656189,0.43982264399528503
1790163387644313600,18.812313720703123,-1.1728603839874268,0.05803215503692627,0.39828383922576904
1790163387661568300,18.829568359375,-1.1410953998565674,0.17531819641590118,0.36712974309921265
1790163387678823200,18.8468232421875,-1.102000117301941,0.16554436087608337,0.3396408259868622
1790163387696077800,18.864077880859377,-1.0488548278808594,0.08429934084415436,0.2926042377948761
1790163387713332500,18.88133251953125,-0.9596685767173767,-0.039706211537122726,0.2211330533027649
1790163387730587100,18.898587158203124,-0.8497129082679749,-0.1288924664258957,0.1545487940311432
1790163387747841800,18.915841796875,-0.7648026943206787,-0.10323614627122879,0.13988803327083588
1790163387765096200,18.93309619140625,-0.6878337264060974,-0.0824667438864708,0.17653992772102356
1790163387782350800,18.950350830078126,-0.5986474752426147,-0.1178968995809555,0.1899789422750473
1790163387799605500,18.96760546875,-0.471587598323822,-0.16859868168830872,0.14294235408306122
1790163387816860200,18.984860107421873,-0.3042106628417969,-0.15027274191379547,0.06352993845939636
1790163387834115000,19.002114990234375,-0.1288924664258957,-0.10506874322891235,0.006108647678047419
1790163387851370000,19.019369873046877,0.06902772188186646,-0.19120067358016968,-0.09468404203653336
1790163387868624600,19.036624755859375,0.27855435013771057,-0.3280344009399414,-0.24862197041511536
1790163387885879600,19.053879638671877,0.48441576957702637,-0.36835145950317383,-0.37262752652168274
1790163387903134200,19.07113427734375,0.6346884965896606,-0.24495677649974823,-0.4159989058971405
1790163387920388900,19.088388916015624,0.7556397318840027,-0.3292561173439026,-0.45875945687294006
1790163387937643300,19.105643310546874,0.9456186890602112,-0.6988292932510376,-0.5522217750549316
1790163387954898000,19.12289794921875,1.1624757051467896,-0.9669989347457886,-0.6719512343406677
1790163387972152600,19.140152587890626,1.3255765438079834,-1.056185245513916,-0.6982184648513794
1790163387989407000,19.157406982421875,1.425147533416748,-0.66645348072052,-0.5528326034545898
1790163388006662000,19.174661865234373,1.4721840620040894,-0.06047561392188072,-0.38179048895835876
1790163388023916500,19.19191650390625,1.5809180736541748,0.1539379209280014,-0.3274235129356384
1790163388041171500,19.20917138671875,1.6878193616867065,-0.049480047076940536,-0.4013381600379944
1790163388058426000,19.226426025390627,1.792277216911316,-0.44898560643196106,-0.5229002237319946
1790163388075681000,19.243680908203125,1.9187263250350952,-0.749531090259552,-0.5711585879325867
1790163388092935700,19.260935791015626,1.8979568481445312,-0.4569268524646759,-0.4929678738117218
1790163388110190300,19.2781904296875,1.7873903512954712,-0.08491020649671555,-0.44348782300949097
1790163388127445000,19.295445068359374,1.8588615655899048,-0.07635809481143951,-0.5027416944503784
1790163388144699600,19.31269970703125,2.0824379920959473,-0.4459312856197357,-0.5937605500221252
1790163388161954000,19.3299541015625,2.386037826538086,-0.9089667797088623,-0.6133082509040833
1790163388179208700,19.347208740234375,2.5656321048736572,-0.9370665550231934,-0.5033525824546814
1790163388196463400,19.36446337890625,2.3591597080230713,-0.13133592903614044,-0.3848448097705841
1790163388213718000,19.381718017578127,2.095877170562744,0.5045742988586426,-0.4575377106666565
1790163388230973000,19.398972900390625,2.0384557247161865,0.5277871489524841,-0.6041452884674072
1790163388248227600,19.4162275390625,2.1697916984558105,0.20158538222312927,-0.6939423680305481
1790163388265482500,19.433482421875,2.3206753730773926,-0.12522727251052856,-0.7519745230674744
1790163388282737200,19.450737060546874,2.1954479217529297,0.02260199747979641,-0.7098248600959778
1790163388299992000,19.467991943359376,1.905287265777588,0.5723803043365479,-0.6823359727859497
1790163388317246500,19.48524658203125,1.7238603830337524,0.750141978263855,-0.6914989352226257
1790163388334501000,19.502501220703124,1.7165300846099854,0.5595521330833435,-0.7635809779167175
1790163388351755800,19.519755859375,1.6523892879486084,0.2162461280822754,-0.831997811794281
1790163388369010400,19.537010498046875,1.4984513521194458,0.053756099194288254,-0.8295543789863586
1790163388386264800,19.554264892578125,1.314581036567688,0.010384701192378998,-0.7605266571044922
1790163388403519500,19.57151953125,1.0653481483459473,0.2522871494293213,-0.6059778332710266
1790163388420774400,19.5887744140625,0.8161153197288513,0.5314523577690125,-0.5290089249610901
1790163388438029000,19.606029052734375,0.6542361974716187,0.45387253165245056,-0.462424635887146
1790163388455284000,19.623283935546876,0.4422661066055298,0.2614501118659973,-0.34697118401527405
1790163388472539000,19.640538818359374,0.1496618688106537,0.14538581669330597,-0.22663083672523499
1790163388489793500,19.65779345703125,-0.14294235408306122,0.05497783049941063,-0.08002328872680664
1790163388507048200,19.675048095703126,-0.35124725103378296,0.06780599057674408,0.06719512492418289
1790163388524302800,19.692302734375,-0.46425724029541016,0.12705987691879272,0.21685700118541718
1790163388541557500,19.7095576171875,-0.5540543794631958,0.06047561392188072,0.34574946761131287
1790163388558812000,19.72681201171875,-0.6652317643165588,-0.1026252806186676,0.45875945687294006
1790163388576066600,19.744066650390625,-0.7831286191940308,-0.23396120965480804,0.5369501113891602
1790163388593321200,19.7613212890625,-0.8979712128639221,-0.2620609998703003,0.583375871181488
1790163388610576000,19.778575927734376,-1.0238093137741089,-0.1997527778148651,0.5955931544303894
1790163388627830800,19.795830810546875,-1.1838558912277222,-0.1386663019657135,0.6084213256835938
1790163388645085400,19.81308544921875,-1.351232886314392,-0.13255766034126282,0.6298015713691711
1790163388662340400,19.83034033203125,-1.5027273893356323,-0.14172062277793884,0.6456840634346008
1790163388679595000,19.847594970703124,-1.6126830577850342,-0.03787361457943916,0.637742817401886
1790163388696850000,19.864849853515626,-1.7140865325927734,0.0720820426940918,0.564439058303833
1790163388714104300,19.882104248046875,-1.8093814849853516,0.1893680840730667,0.49602219462394714
1790163388731359000,19.89935888671875,-1.8808526992797852,0.22907429933547974,0.5241219997406006
1790163388748613600,19.916613525390623,-1.879020094871521,0.1649334877729416,0.6169734001159668
1790163388765868300,19.933868408203125,-1.8435899019241333,0.09407317638397217,0.6224712133407593
1790163388783122700,19.951122802734375,-1.8649702072143555,0.1997527778148651,0.5717694163322449
1790163388800377300,19.96837744140625,-1.8869613409042358,0.401949018239975,0.5436696410179138
1790163388817632300,19.98563232421875,-1.9767584800720215,0.45326167345046997,0.5503891706466675
1790163388834887000,20.002886962890624,-1.9743149280548096,0.31459537148475647,0.48563748598098755
1790163388852141800,20.020141845703126,-1.85092031955719,0.08491020649671555,0.4068359434604645
1790163388869396500,20.037396484375,-1.728136420249939,0.15760311484336853,0.41905322670936584
1790163388886651400,20.0546513671875,-1.7067562341690063,0.43860089778900146,0.44959646463394165
1790163388903906000,20.071906005859375,-1.7513493299484253,0.5290089249610901,0.481361448764801
1790163388921160700,20.08916064453125,-1.7299690246582031,0.4373791813850403,0.5088503360748291
1790163388938415000,20.1064150390625,-1.6401718854904175,0.4789179861545563,0.5070177912712097
1790163388955669800,20.123669677734377,-1.5650355815887451,0.5277871489524841,0.49968740344047546
1790163388972924400,20.14092431640625,-1.4929535388946533,0.564439058303833,0.5540543794631958
1790163388990179000,20.158178955078125,-1.4013237953186035,0.4312705397605896,0.5907062292098999
1790163389007433700,20.175433837890626,-1.29503333568573,0.2412915825843811,0.5998691916465759
1790163389024688400,20.1926884765625,-1.2528836727142334,0.16310089826583862,0.5674933791160583
1790163389041943300,20.209943359375,-1.2577705383300781,0.13744457066059113,0.5406153202056885
1790163389059198200,20.2271982421875,-1.239444613456726,0.15088360011577606,0.5174024701118469
1790163389076452900,20.244452880859374,-1.1380411386489868,0.1380554437637329,0.48502662777900696
1790163389093707800,20.261707763671875,-1.0207550525665283,0.1178968995809555,0.4159989058971405
1790163389110962200,20.278962158203125,-0.9334014058113098,0.11178825795650482,0.2834412455558777
1790163389128216800,20.296216796875,-0.8503237962722778,0.09346231073141098,0.11667517572641373
1790163389145471500,20.313471435546877,-0.721431314945221,0.0409279391169548,-0.004886918235570192
1790163389162726000,20.330725830078126,-0.5045742988586426,-0.01893680728971958,-0.0977383628487587
1790163389179980500,20.34798046875,-0.25350889563560486,-0.0256563201546669,-0.1948658674955368
1790163389197235200,20.365235107421874,-0.0360410213470459,-0.03481929376721382,-0.2706131041049957
1790163389214490000,20.382489990234376,0.1740964651107788,-0.16737695038318634,-0.32559093832969666
1790163389231744800,20.399744873046874,0.40744680166244507,-0.31520622968673706,-0.4196641147136688
1790163389248999700,20.416999755859376,0.6493492722511292,-0.39400777220726013,-0.4923570156097412
1790163389266254300,20.43425439453125,0.8503237962722778,-0.3396408259868622,-0.5253437161445618
1790163389283509200,20.45150927734375,0.9926552772521973,-0.28466299176216125,-0.574212908744812
1790163389300764000,20.468763916015625,1.1136064529418945,-0.379347026348114,-0.6414080262184143
1790163389318018600,20.4860185546875,1.2241730690002441,-0.6524035930633545,-0.6768381595611572
1790163389335273000,20.50327294921875,1.3536763191223145,-0.8393282294273376,-0.685390293598175
1790163389352527600,20.520527587890626,1.3823870420455933,-0.535728394985199,-0.5968148708343506
1790163389369782300,20.5377822265625,1.3793326616287231,-0.3127627670764923,-0.5131264328956604
1790163389387036700,20.55503662109375,1.4581341743469238,-0.4526508152484894,-0.4972439408302307
1790163389404291600,20.57229150390625,1.598022222518921,-0.8093958497047424,-0.4984656572341919
1790163389421546000,20.5895458984375,1.75623619556427,-1.0109812021255493,-0.46059203147888184
1790163389438800600,20.606800537109375,1.8130466938018799,-0.6890554428100586,-0.36224281787872314
1790163389456055300,20.62405517578125,1.7751730680465698,-0.30970844626426697,-0.3023780584335327
1790163389473309700,20.641309814453123,1.8753548860549927,-0.2675587832927704,-0.29016077518463135
1790163389490564400,20.658564453125,2.092822790145874,-0.5656607747077942,-0.29993459582328796
1790163389507819000,20.675819091796875,2.3231186866760254,-0.9230166673660278,-0.35674503445625305
1790163389525074000,20.693073974609376,2.442237377166748,-0.9896009564399719,-0.3903425931930542
1790163389542328600,20.71032861328125,2.4459025859832764,-0.6255255341529846,-0.3707949221134186
1790163389559583500,20.72758349609375,2.369544506072998,-0.02626718580722809,-0.3347539007663727
1790163389576838100,20.744838134765626,2.304792881011963,0.3549124300479889,-0.37812530994415283
1790163389594093000,20.762093017578124,2.2430953979492188,0.46059203147888184,-0.5094612240791321
1790163389611347700,20.77934765625,2.1704025268554688,0.4422661066055298,-0.6023126840591431
1790163389628602400,20.796602294921875,2.0940444469451904,0.37629270553588867,-0.6108647584915161
1790163389645856800,20.813856689453125,2.022573232650757,0.4202749729156494,-0.5589412450790405
1790163389663111400,20.831111328125,1.9462151527404785,0.3915643095970154,-0.5852084755897522
1790163389680366000,20.848365966796877,1.877798318862915,0.3915643095970154,-0.6322450637817383
1790163389697620500,20.865620361328126,1.8112140893936157,0.2974911332130432,-0.6261364221572876
1790163389714875400,20.88287548828125,1.703091025352478,0.09957095980644226,-0.6224712133407593
1790163389732130000,20.900130126953126,1.5711442232131958,-0.0977383628487587,-0.5821541547775269
1790163389749385000,20.917385009765624,1.3939933776855469,-0.1899789422750473,-0.4819723069667816
1790163389766639900,20.934639892578126,1.117882490158081,-0.08674279600381851,-0.3964512348175049
1790163389783894500,20.95189453125,0.8778126835823059,0.053145237267017365,-0.3280344009399414
1790163389801149200,20.969149169921874,0.7116574645042419,0.08674279600381851,-0.24495677649974823
1790163389818403800,20.98640380859375,0.5174024701118469,0.08124501258134842,-0.12400554865598679
1790163389835658500,21.003658447265625,0.2889390289783478,0.08796452730894089,0.007330377586185932
1790163389852913200,21.0209130859375,0.07757982611656189,0.03787361457943916,0.12461641430854797
1790163389870167600,21.03816748046875,-0.10690133273601532,-0.07757982611656189,0.21502439677715302
1790163389887422200,21.055422119140626,-0.268169641494751,-0.18814635276794434,0.31642794609069824
1790163389904676900,21.0726767578125,-0.4263836145401001,-0.27977606654167175,0.4404335021972656
1790163389921931800,21.089931884765626,-0.5784889459609985,-0.2816086709499359,0.5345066785812378
1790163389939186400,21.1071865234375,-0.7556397318840027,-0.21685700118541718,0.6261364221572876
1790163389956441300,21.12444140625,-0.915686309337616,-0.14110976457595825,0.7312051653862
1790163389973696000,21.141696044921876,-1.0580178499221802,-0.19669845700263977,0.7513636946678162
1790163389990951000,21.158950927734374,-1.201570987701416,-0.3133736252784729,0.7104357481002808
1790163390008205600,21.17620556640625,-1.3322961330413818,-0.33597561717033386,0.7006618976593018
1790163390025460000,21.1934599609375,-1.5027273893356323,-0.22357651591300964,0.6988292932510376
1790163390042714600,21.210714599609375,-1.6927063465118408,-0.09834922850131989,0.6646208763122559
1790163390059969300,21.22796923828125,-1.8350378274917603,-0.036651886999607086,0.6267472505569458
1790163390077224000,21.245223876953126,-1.9608759880065918,-0.04825831577181816,0.5888736248016357
1790163390094478300,21.262478271484376,-2.03723406791687,-0.09468404203653336,0.5516108870506287
1790163390111733200,21.279733154296874,-2.106261730194092,-0.05497783049941063,0.4740310609340668
1790163390128988000,21.29698779296875,-2.159406900405884,0.10201441496610641,0.4007273018360138
1790163390146242800,21.314242919921874,-2.2424845695495605,0.22907429933547974,0.4257727563381195
1790163390163497500,21.33149755859375,-2.3506076335906982,0.2932150959968567,0.481361448764801
1790163390180752400,21.34875244140625,-2.3787074089050293,0.401949018239975,0.48930269479751587
1790163390198007000,21.366007080078123,-2.3316707611083984,0.4990765154361725,0.4789179861545563
1790163390215261700,21.38326171875,-2.2424845695495605,0.5485565662384033,0.48013970255851746
1790163390232516400,21.400516357421875,-2.1752893924713135,0.49663305282592773,0.46364638209342957
1790163390249770800,21.417770751953125,-2.064723014831543,0.42882707715034485,0.4557051360607147
1790163390267025400,21.435025390625,-1.9822561740875244,0.5045742988586426,0.5406153202056885
1790163390284280000,21.452280029296876,-1.8442007303237915,0.6743947267532349,0.6927206516265869
1790163390301534700,21.46953466796875,-1.729358196258545,0.6633991599082947,0.7379246354103088
1790163390318789400,21.486789306640624,-1.6432262659072876,0.45998117327690125,0.6847794055938721
1790163390336044300,21.504044189453126,-1.4666863679885864,0.3090975880622864,0.6878337264060974
1790163390353299200,21.52129931640625,-1.2828160524368286,0.18570289015769958,0.7672461867332458
1790163390370553900,21.538553955078125,-1.1307107210159302,0.11056652665138245,0.8246674537658691
1790163390387808800,21.555808837890623,-1.0775654315948486,0.03481929376721382,0.8148936033248901
1790163390405063400,21.5730634765625,-1.1184934377670288,-0.07330377399921417,0.7483093738555908
1790163390422318000,21.590318115234375,-1.0989457368850708,-0.05803215503692627,0.6640099883079529
1790163390439572500,21.607572509765625,-1.0787872076034546,-0.050090912729501724,0.6194168925285339
1790163390456827100,21.6248271484375,-1.0867284536361694,-0.11484257876873016,0.5852084755897522
1790163390474081800,21.642081787109376,-0.9266818761825562,-0.15577052533626556,0.49480047821998596
1790163390491336200,21.659336181640626,-0.8142827749252319,-0.19181154668331146,0.41905322670936584
