time,seconds_elapsed,z,y,x
1790163332005608700,0.071608642578125,0,0,0
1790163332015608600,0.081608642578125,-0.03485107421875,0.019533276557922363,0.010943889617919922
1790163332025608700,0.091608642578125,-0.05240631103515625,0.05870091915130615,-0.008633017539978027
1790163332035608600,0.101608642578125,0.0009298324584960938,0.09611058235168457,-0.05173647403717041
1790163332045608700,0.111608642578125,0.014834403991699219,0.11236011981964111,-0.050193190574645996
1790163332055608600,0.121608642578125,0.03704357147216797,0.08683896064758301,-0.003989100456237793
1790163332065608700,0.131608642578125,0.06847476959228516,0.03800690174102783,0.020935893058776855
1790163332075608600,0.141608642578125,0.06339740753173828,-0.021740078926086426,-0.0005443096160888672
1790163332085608700,0.151608642578125,0.0799722671508789,-0.07905817031860352,-0.03934478759765625
1790163332095608600,0.161608642578125,0.05443859100341797,-0.11367976665496826,-0.04603278636932373
1790163332105608700,0.171608642578125,0.02551746368408203,-0.11273312568664551,-0.024151086807250977
1790163332115608600,0.181608642578125,0.0069103240966796875,-0.08331906795501709,0.030542492866516113
1790163332125608700,0.191608642578125,-0.009504318237304688,-0.056952595710754395,0.04151153564453125
1790163332135608600,0.201608642578125,-0.08332538604736328,-0.039611101150512695,0.04039347171783447
1790163332145608700,0.211608642578125,-0.1325521469116211,-0.013522505760192871,0.011353850364685059
1790163332155608600,0.221608642578125,-0.0884237289428711,-0.007460594177246094,-0.02309417724609375
1790163332165608700,0.231608642578125,-0.002689361572265625,0.0006445646286010742,0.07819128036499023
1790163332175608600,0.241608642578125,0.09348583221435547,0.01781940460205078,0.10899519920349121
1790163332185608700,0.251608642578125,0.3269624710083008,0.005845069885253906,-0.05139768123626709
1790163332195608600,0.261608642578125,0.5888404846191406,-0.03376471996307373,-0.26214599609375
1790163332205608700,0.271608642578125,0.6853914260864258,0.03943490982055664,-0.3935084342956543
1790163332215608600,0.281608642578125,0.9768028259277344,0.15793228149414062,-0.39162302017211914
1790163332225608700,0.291608642578125,1.1038579940795898,0.16107654571533203,-0.5917813777923584
1790163332235608600,0.301608642578125,0.9285430908203125,-0.09221994876861572,-0.6460732817649841
1790163332245608700,0.311608642578125,0.3516826629638672,-0.23037731647491455,-0.7156404256820679
1790163332255608600,0.321608642578125,-0.5954046249389648,-0.27731335163116455,-0.7380204200744629
1790163332265608700,0.331608642578125,-1.3283414840698242,-0.200469970703125,-0.7884441614151001
1790163332275608600,0.341608642578125,-1.4523725509643555,0.18998968601226807,-1.0415486097335815
1790163332285608700,0.351608642578125,-1.2349567413330078,0.19898271560668945,0.09098875522613525
1790163332295608600,0.361608642578125,-0.5115299224853516,-0.16905689239501953,2.0975053310394287
1790163332305608700,0.371608642578125,-0.09308338165283203,-0.7310450077056885,1.7512600421905518
1790163332315608600,0.381608642578125,-0.2930946350097656,-1.033796787261963,1.8966760635375977
1790163332325608700,0.391608642578125,-0.5356283187866211,-0.8252276182174683,2.3512563705444336
1790163332335608600,0.401608642578125,-0.8773050308227539,-0.6734881401062012,1.9603636264801025
1790163332345608700,0.411608642578125,-1.0299043655395508,-0.4081687927246094,0.9146978855133057
1790163332355608600,0.421608642578125,-0.8079957962036133,-0.07982480525970459,-0.21630656719207764
1790163332365608700,0.431608642578125,-0.6057033538818359,0.3798285722732544,-0.756767988204956
1790163332375608600,0.441608642578125,-0.4558849334716797,0.5226880311965942,-1.543898582458496
1790163332385608700,0.451608642578125,-0.2772645950317383,0.9534777402877808,-2.3678388595581055
1790163332395608600,0.461608642578125,0.14208507537841797,1.0567649602890015,-1.2516592741012573
1790163332405608700,0.471608642578125,0.21619892120361328,0.7475918531417847,0.11180651187896729
1790163332415608600,0.481608642578125,0.19534015655517578,0.3314601182937622,0.5058953762054443
1790163332425608700,0.491608642578125,0.2479238510131836,0.1280803680419922,0.22610533237457275
1790163332435608600,0.501608642578125,0.09784507751464844,0.11435210704803467,-0.05205094814300537
1790163332445608700,0.511608642578125,-0.09443283081054688,0.1508464813232422,-0.19030535221099854
1790163332455608600,0.521608642578125,-0.18161964416503906,0.1389864683151245,-0.1182858943939209
1790163332465608700,0.531608642578125,-0.16689300537109375,-0.0060073137283325195,-0.11302244663238525
1790163332475608600,0.541608642578125,-0.06077861785888672,-0.19121718406677246,-0.25369101762771606
1790163332485608700,0.551608642578125,0.0772256851196289,-0.3231297731399536,-0.25683844089508057
1790163332495608600,0.561608642578125,0.03490447998046875,-0.24720120429992676,-0.19197189807891846
1790163332505608700,0.571608642578125,-0.10817146301269531,-0.07793974876403809,-0.16224372386932373
1790163332515608600,0.581608642578125,-0.19450664520263672,0.048192620277404785,-0.09430235624313354
1790163332525608700,0.591608642578125,-0.07879161834716797,0.09669935703277588,0.06772506237030029
1790163332535608600,0.601608642578125,0.2484731674194336,0.07204890251159668,0.15619325637817383
1790163332545608700,0.611608642578125,0.4867134094238281,0.01825857162475586,-0.05417966842651367
1790163332555608600,0.621608642578125,0.5280475616455078,0.007274270057678223,-0.26247847080230713
1790163332565608700,0.631608642578125,0.42864131927490234,0.1590743064880371,-0.3393787145614624
1790163332575608600,0.641608642578125,0.1038522720336914,0.37082982063293457,-0.3265138268470764
1790163332585608700,0.651608642578125,-0.09469985961914062,0.30142414569854736,-0.13875871896743774
1790163332595608600,0.661608642578125,-0.21054458618164062,-0.027634859085083008,0.16925787925720215
1790163332605608700,0.671608642578125,-0.05745887756347656,-0.08893477916717529,-0.10871684551239014
1790163332615608600,0.681608642578125,-0.06525325775146484,-0.30111074447631836,0.22033727169036865
1790163332625608700,0.691608642578125,-0.037970542907714844,-0.09651660919189453,0.019262313842773438
1790163332635608600,0.701608642578125,-0.06611061096191406,-0.03407692909240723,0.22661375999450684
1790163332645608700,0.711608642578125,-0.08254718780517578,0.015507698059082031,0.2652442455291748
1790163332655608600,0.721608642578125,-0.01778888702392578,0.09444320201873779,0.05730605125427246
1790163332665608700,0.731608642578125,0.06499004364013672,0.1066504716873169,-0.03650617599487305
1790163332675608600,0.741608642578125,0.047949790954589844,0.08796727657318115,0.06360244750976562
1790163332685608700,0.751608642578125,-0.05287361145019531,0.034950971603393555,-0.01060020923614502
1790163332695608600,0.761608642578125,-0.09608936309814453,-0.08539330959320068,0.06174671649932861
1790163332705608700,0.771608642578125,-0.04189872741699219,-0.17294251918792725,0.14334094524383545
1790163332715608600,0.781608642578125,0.04995536804199219,-0.1623173952102661,0.06933903694152832
1790163332725608700,0.791608642578125,0.11060047149658203,-0.08630836009979248,0.10671615600585938
1790163332735608600,0.801608642578125,0.1356525421142578,-0.006403088569641113,0.10104978084564209
1790163332745608700,0.811608642578125,-0.026732444763183594,0.04518532752990723,-0.033676326274871826
1790163332755608600,0.821608642578125,-0.27999305725097656,0.07192504405975342,-0.06789028644561768
1790163332765608700,0.831608642578125,-0.3878955841064453,0.06009948253631592,-0.015847742557525635
1790163332775608600,0.841608642578125,-0.41782188415527344,0.02974998950958252,-0.02101665735244751
1790163332785608700,0.851608642578125,-0.3536529541015625,-0.12874269485473633,-0.057041943073272705
1790163332795608600,0.861608642578125,-0.1491556167602539,-0.23275315761566162,0.007869124412536621
1790163332805608700,0.871608642578125,0.024779319763183594,-0.13032197952270508,0.14493143558502197
1790163332815608600,0.881608642578125,0.1253032684326172,0.009012818336486816,0.04712677001953125
1790163332825608700,0.891608642578125,0.08812427520751953,0.07472503185272217,-0.09424901008605957
1790163332835608600,0.901608642578125,0.09064006805419922,0.13734281063079834,-0.18003368377685547
1790163332845608700,0.911608642578125,-0.02297210693359375,0.12162113189697266,-0.17087888717651367
1790163332855608600,0.921608642578125,-0.04349994659423828,0.08060288429260254,-0.12524664402008057
1790163332865608700,0.931608642578125,0.04405403137207031,0.028597354888916016,-0.010537326335906982
1790163332875608600,0.941608642578125,0.059241294860839844,-0.0314023494720459,-0.12122595310211182
1790163332885608700,0.951608642578125,-0.004788398742675781,-0.14748477935791016,-0.22469115257263184
1790163332895608600,0.961608642578125,-0.04401588439941406,-0.11568212509155273,-0.15058130025863647
1790163332905608700,0.971608642578125,-0.3208761215209961,-0.045223236083984375,-0.10499322414398193
1790163332915608600,0.981608642578125,-0.43720340728759766,-0.030724644660949707,0.01501476764678955
1790163332925608700,0.991608642578125,-0.17425155639648438,-0.06645524501800537,0.19490516185760498
1790163332935608600,1.001608642578125,-0.0014581680297851562,-0.03539144992828369,0.1203007698059082
1790163332945608700,1.011608642578125,-0.009034156799316406,0.06270301342010498,-0.06943631172180176
1790163332955608600,1.021608642578125,-0.11662769317626953,0.10395932197570801,-0.053650856018066406
1790163332965608700,1.031608642578125,-0.2854595184326172,0.08465933799743652,0.009272933006286621
1790163332975608600,1.041608642578125,-0.49306201934814453,0.09934461116790771,0.041135966777801514
1790163332985608700,1.051608642578125,-0.4208354949951172,0.01629042625427246,0.139163076877594
1790163332995608600,1.061608642578125,-0.1564350128173828,0.12468385696411133,-0.29275259375572205
1790163333005608700,1.071608642578125,-0.026660919189453125,0.1379309892654419,-0.20382994413375854
1790163333015608600,1.081608642578125,0.009447097778320312,0.0569988489151001,-0.0495837926864624
1790163333025608700,1.091608642578125,-0.12810707092285156,-0.029031753540039062,0.07910460233688354
1790163333035608600,1.101608642578125,-0.15453147888183594,-0.11610674858093262,0.2361806035041809
1790163333045608700,1.111608642578125,-0.007068634033203125,-0.06936299800872803,0.17934423685073853
1790163333055608600,1.121608642578125,0.3864326477050781,-0.04246938228607178,0.13367164134979248
1790163333065608700,1.131608642578125,1.0132942199707031,0.0224001407623291,0.09281289577484131
1790163333075608600,1.141608642578125,1.3714361190795898,0.09195840358734131,-0.006408601999282837
1790163333085608700,1.151608642578125,1.089284896850586,0.0869607925415039,-0.17237287759780884
1790163333095608600,1.161608642578125,0.58929443359375,-0.021786093711853027,-0.08207324147224426
1790163333105608700,1.171608642578125,0.09970283508300781,-0.12414848804473877,0.13889366388320923
1790163333115608600,1.181608642578125,-0.2776670455932617,-0.02617514133453369,0.13100320100784302
1790163333125608700,1.191608642578125,-0.4773397445678711,0.18802857398986816,0.06767335534095764
1790163333135608600,1.201608642578125,-0.46098995208740234,0.13777124881744385,0.08809089660644531
1790163333145608700,1.211608642578125,-0.47836875915527344,0.19200336933135986,-0.1664896011352539
1790163333155608600,1.221608642578125,-0.5318984985351562,0.2552919387817383,-0.24582897126674652
1790163333165608700,1.231608642578125,-0.3196897506713867,0.24135315418243408,-0.09743097424507141
1790163333175608600,1.241608642578125,0.17362117767333984,0.13490474224090576,0.10818818211555481
1790163333185608700,1.251608642578125,0.5571603775024414,0.10962927341461182,0.006495118141174316
1790163333195608600,1.261608642578125,0.7303752899169922,0.06399738788604736,-0.2653682827949524
1790163333205608700,1.271608642578125,0.6224689483642578,-0.06600260734558105,-0.263306200504303
1790163333215608600,1.281608642578125,0.28054237365722656,-0.20981359481811523,-0.14102759957313538
1790163333225608700,1.291608642578125,-0.18331050872802734,-0.2719736099243164,-0.07648539543151855
1790163333235608600,1.301608642578125,-0.4832487106323242,-0.2084639072418213,-0.008549660444259644
1790163333245608700,1.311608642578125,-0.46487903594970703,-0.12382948398590088,0.09207510948181152
1790163333255608600,1.321608642578125,-0.3892965316772461,-0.08444249629974365,0.05985233187675476
1790163333265608700,1.331608642578125,-0.15568828582763672,-0.06926274299621582,0.07056906819343567
1790163333275608600,1.341608642578125,0.06424331665039062,-0.024428129196166992,0.05474996566772461
1790163333285608700,1.351608642578125,0.2144784927368164,-0.0076596736907958984,0.010984718799591064
1790163333295608600,1.361608642578125,0.25446033477783203,-0.0542757511138916,-0.0656629204750061
1790163333305608700,1.371608642578125,0.19447803497314453,-0.12708830833435059,-0.05292916297912598
1790163333315608600,1.381608642578125,0.10906982421875,-0.20259082317352295,-0.07092660665512085
1790163333325608700,1.391608642578125,0.04749488830566406,-0.19128406047821045,-0.04485628008842468
1790163333335608600,1.401608642578125,-0.01300048828125,-0.14129209518432617,-0.00998029112815857
1790163333345608700,1.411608642578125,-0.09235191345214844,-0.08818137645721436,0.032072097063064575
1790163333355608600,1.421608642578125,-0.11735820770263672,-0.06605511903762817,0.10335463285446167
1790163333365608700,1.431608642578125,-0.007281303405761719,-0.02743053436279297,0.12255248427391052
1790163333375608600,1.441608642578125,0.1180868148803711,0.01609504222869873,0.09118080139160156
1790163333385608700,1.451608642578125,0.10254669189453125,0.05976724624633789,0.03566893935203552
1790163333395608600,1.461608642578125,-0.044547080993652344,0.06925725936889648,0.01301613450050354
1790163333405608700,1.471608642578125,-0.16539764404296875,0.052322983741760254,0.007327824831008911
1790163333415608600,1.481608642578125,-0.16041278839111328,0.022404789924621582,-0.011611759662628174
1790163333425608700,1.491608642578125,-0.1368417739868164,-0.04266810417175293,0.010749578475952148
1790163333435608600,1.501608642578125,0.06776618957519531,-0.06315505504608154,0.08642712235450745
1790163333445608700,1.511608642578125,0.30053234100341797,-0.022025227546691895,0.0694115161895752
1790163333455608600,1.521608642578125,0.2766580581665039,-0.01325535774230957,0.050073325634002686
1790163333465608700,1.531608642578125,0.12903118133544922,-0.010379552841186523,-0.00451090931892395
1790163333475608600,1.541608642578125,0.04970836639404297,-0.00941014289855957,0.062198489904403687
1790163333485608700,1.551608642578125,0.062386512756347656,0.015572190284729004,0.13945186138153076
1790163333495608600,1.561608642578125,0.009730339050292969,0.05623483657836914,0.07949948310852051
1790163333505608700,1.571608642578125,-0.04896736145019531,0.05385124683380127,0.029216140508651733
1790163333515608600,1.581608642578125,-0.10545158386230469,0.05161011219024658,-0.02482283115386963
1790163333525608700,1.591608642578125,-0.12057018280029297,0.053690552711486816,0.0037599802017211914
1790163333535608600,1.601608642578125,-0.09608745574951172,0.02199023962020874,0.022132545709609985
1790163333545608700,1.611608642578125,0.019641876220703125,-0.039948344230651855,-0.022406160831451416
1790163333555608600,1.621608642578125,0.1325092315673828,-0.04140526056289673,-0.045309603214263916
1790163333565608700,1.631608642578125,0.18246078491210938,-0.026570260524749756,-0.030915915966033936
1790163333575608600,1.641608642578125,0.13509273529052734,-0.005719542503356934,0.017095297574996948
1790163333585608700,1.651608642578125,-0.039145469665527344,0.0031992197036743164,-0.01697435975074768
1790163333595608600,1.661608642578125,-0.26622676849365234,0.049179255962371826,-0.0339319109916687
1790163333605608700,1.671608642578125,-0.45954418182373047,0.03155606985092163,-0.05873513221740723
1790163333615608600,1.681608642578125,-0.5178956985473633,0.02426844835281372,-0.05739209055900574
1790163333625608700,1.691608642578125,-0.45168590545654297,0.06173890829086304,-0.03361344337463379
1790163333635608600,1.701608642578125,-0.35002899169921875,0.08421623706817627,-0.06168007850646973
1790163333645608700,1.711608642578125,-0.12328052520751953,0.035452187061309814,-0.042055338621139526
1790163333655608600,1.721608642578125,0.34334754943847656,-0.003986179828643799,0.09826326370239258
1790163333665608700,1.731608642578125,0.6649599075317383,-0.045481085777282715,0.1433219313621521
1790163333675608600,1.741608642578125,0.7551698684692383,-0.03109288215637207,-0.001184999942779541
1790163333685608700,1.751608642578125,0.5977153778076172,-0.01383662223815918,-0.0663885772228241
1790163333695608600,1.761608642578125,0.32396888732910156,0.01968330144882202,-0.07764774560928345
1790163333705608700,1.771608642578125,0.030099868774414062,0.06075310707092285,0.00276947021484375
1790163333715608600,1.781608642578125,-0.10095024108886719,0.09472531080245972,0.07254242897033691
1790163333725608700,1.791608642578125,-0.08101367950439453,0.08771753311157227,0.07279229164123535
1790163333735608600,1.801608642578125,-0.1534585952758789,0.06219208240509033,-0.021920830011367798
1790163333745608700,1.811608642578125,-0.3018627166748047,0.10669368505477905,-0.02529805898666382
1790163333755608600,1.821608642578125,-0.4455890655517578,0.23591065406799316,0.023654431104660034
1790163333765608700,1.831608642578125,-0.4891395568847656,0.260963499546051,0.054016441106796265
1790163333775608600,1.841608642578125,-0.45310306549072266,0.23462694883346558,0.10156047344207764
1790163333785608700,1.851608642578125,-0.18410873413085938,0.2355351448059082,0.15476477146148682
1790163333795608600,1.861608642578125,0.23808002471923828,0.13013315200805664,0.06387323141098022
1790163333805608700,1.871608642578125,0.28673744201660156,-0.172956645488739,-0.2238803505897522
1790163333815608600,1.881608642578125,0.3023653030395508,-0.2096477746963501,-0.18065136671066284
1790163333825608700,1.891608642578125,-0.059490203857421875,-0.028625428676605225,-0.15903383493423462
1790163333835608600,1.901608642578125,-0.14106082916259766,0.09874403476715088,-0.08502879738807678
1790163333845608700,1.911608642578125,-0.05961132049560547,0.11448675394058228,-0.1154918372631073
1790163333855608600,1.921608642578125,0.3448448181152344,0.08004838228225708,-0.07551014423370361
1790163333865608700,1.931608642578125,0.7784023284912109,0.04839372634887695,0.03793919086456299
1790163333875608600,1.941608642578125,0.23969745635986328,0.34719258546829224,-0.3486683964729309
1790163333885608700,1.951608642578125,-0.3365917205810547,0.7729858160018921,-0.9798557162284851
1790163333895608600,1.961608642578125,-0.6451005935668945,0.6393013596534729,-0.8161320686340332
1790163333905608700,1.971608642578125,-0.6534128189086914,0.3089773654937744,-0.3603348135948181
1790163333915608600,1.981608642578125,0.1075887680053711,-0.07815542817115784,0.22073966264724731
1790163333925608700,1.991608642578125,0.706019401550293,-0.4845491051673889,0.44324591755867004
1790163333935608600,2.001608642578125,0.6173305511474609,-0.7253434658050537,0.5734220743179321
1790163333945608700,2.011608642578125,0.35965728759765625,-0.7196954488754272,0.7206344604492188
1790163333955608600,2.021608642578125,0.09456729888916016,-0.5598593354225159,0.6180945634841919
1790163333965608700,2.031608642578125,-0.177703857421875,-0.3708192706108093,0.26620909571647644
1790163333975608600,2.041608642578125,-0.2114391326904297,-0.15559926629066467,-0.032735422253608704
1790163333985608700,2.051608642578125,-0.11710453033447266,-0.03358644247055054,-0.14726927876472473
1790163333995608600,2.061608642578125,0.06388187408447266,0.006161928176879883,-0.12149001657962799
1790163334005608700,2.071608642578125,0.12646007537841797,0.0919802188873291,0.025477096438407898
1790163334015608600,2.081608642578125,0.1649341583251953,0.07424375414848328,0.1812359243631363
1790163334025608700,2.091608642578125,0.36958789825439453,-0.010684400796890259,0.31773534417152405
1790163334035608600,2.101608642578125,0.6811132431030273,-0.21409492194652557,0.4647723138332367
1790163334045608700,2.111608642578125,1.3290863037109375,-0.4559824466705322,0.45122236013412476
1790163334055608600,2.121608642578125,1.7667827606201172,-0.42545244097709656,0.26443082094192505
1790163334065608700,2.131608642578125,1.601419448852539,-0.2778005599975586,0.20809006690979004
1790163334075608600,2.141608642578125,1.4035978317260742,0.2401214838027954,0.370599627494812
1790163334085608700,2.151608642578125,1.7296085357666016,0.41557788848876953,0.45965611934661865
1790163334095608600,2.161608642578125,3.1718673706054688,0.1275675892829895,-0.12948298454284668
1790163334105608700,2.171608642578125,4.923039436340332,-0.07906866073608398,-1.2768678665161133
1790163334115608600,2.181608642578125,5.878588676452637,-0.49616754055023193,-2.3374335765838623
1790163334125608700,2.191608642578125,5.25087833404541,-1.3524361848831177,-2.839606761932373
1790163334135608600,2.201608642578125,3.0964221954345703,-1.9063410758972168,-3.494950294494629
1790163334145608700,2.211608642578125,1.2979860305786133,-2.441361904144287,-3.513198137283325
1790163334155608600,2.221608642578125,0.2336416244506836,-2.3713560104370117,-1.5160112380981445
1790163334165608700,2.231608642578125,-0.19550752639770508,-1.7597662210464478,0.0461125373840332
1790163334175608600,2.241608642578125,-0.8425788879394531,-1.3660799264907837,-0.042014122009277344
1790163334185608700,2.251608642578125,-1.5960793495178223,-0.5742337703704834,-1.514376163482666
1790163334195608600,2.261608642578125,-1.78568696975708,0.2490406036376953,-2.6415300369262695
1790163334205608700,2.271608642578125,-3.5010581016540527,-0.06768488883972168,-3.4408931732177734
1790163334215608600,2.281608642578125,-4.9407758712768555,-0.11317873001098633,-3.423555374145508
1790163334225608700,2.291608642578125,-4.773388862609863,0.2991609573364258,-3.8048009872436523
1790163334235608600,2.301608642578125,-3.0497825145721436,1.1342582702636719,-3.8903608322143555
1790163334245608700,2.311608642578125,-1.8067412376403809,1.5946869850158691,-4.162301063537598
1790163334255608600,2.321608642578125,1.0418148040771484,2.3107786178588867,-3.236111640930176
1790163334265608700,2.331608642578125,4.039700508117676,2.9162521362304688,-1.6355352401733398
1790163334275608600,2.341608642578125,0.6743679046630859,1.816239833831787,-2.73968505859375
1790163334285608700,2.351608642578125,0.8846859931945801,0.31407666206359863,-2.903616428375244
1790163334295608600,2.361608642578125,1.2303639650344849,0.4060704708099365,-4.453604698181152
1790163334305608700,2.371608642578125,0.37226200103759766,0.32291722297668457,-4.3237624168396
1790163334315608600,2.381608642578125,0.6733782291412354,-0.08732461929321289,-3.523575782775879
1790163334325608700,2.391608642578125,0.5774626731872559,0.03347170352935791,-2.950439453125
1790163334335608600,2.401608642578125,-0.11376714706420898,0.08642792701721191,-2.514136791229248
1790163334345608700,2.411608642578125,-0.6542291641235352,-1.080206274986267,-1.2970008850097656
1790163334355608600,2.421608642578125,-1.1158442497253418,-2.173189640045166,0.616633415222168
1790163334365608700,2.431608642578125,-1.4481186866760254,-2.3013241291046143,2.3901138305664062
1790163334375608600,2.441608642578125,-1.4751853942871094,-2.0680174827575684,3.647655487060547
1790163334385608700,2.451608642578125,-0.6504812240600586,-2.1805076599121094,4.019153594970703
1790163334395608600,2.461608642578125,-0.27782678604125977,-2.140505790710449,3.7115087509155273
1790163334405608700,2.471608642578125,0.7697162628173828,-1.3736000061035156,2.588261604309082
1790163334415608600,2.481608642578125,0.9971432685852051,0.026478052139282227,1.3625116348266602
1790163334425608700,2.491608642578125,0.22635746002197266,0.8127775192260742,1.0454521179199219
1790163334435608600,2.501608642578125,-0.0705862045288086,0.523574948310852,0.3451976776123047
1790163334445608700,2.511608642578125,-0.2491593360900879,0.06423550844192505,-0.6961679458618164
1790163334455608600,2.521608642578125,0.30597686767578125,-0.5813624262809753,-0.6434907913208008
1790163334465608700,2.531608642578125,0.0176849365234375,-0.9754328727722168,-0.1892070770263672
1790163334475608600,2.541608642578125,0.2137460708618164,-0.6911143064498901,0.07659053802490234
1790163334485608700,2.551608642578125,3.7398178577423096,-0.8273489475250244,0.11535263061523438
1790163334495608600,2.561608642578125,2.586850643157959,-1.1355419158935547,-0.3893427848815918
1790163334505608700,2.571608642578125,2.699291706085205,-0.9533331990242004,-0.8497281074523926
1790163334515608600,2.581608642578125,2.931220293045044,-0.3394877016544342,0.11420440673828125
1790163334525608700,2.591608642578125,2.6665334701538086,0.23988988995552063,0.843806266784668
1790163334535608600,2.601608642578125,3.704634666442871,0.32418322563171387,1.1587333679199219
1790163334545608700,2.611608642578125,4.952357292175293,-0.059468746185302734,1.2060856819152832
1790163334555608600,2.621608642578125,6.007119178771973,-0.7302421927452087,1.3209471702575684
1790163334565608700,2.631608642578125,1.582742691040039,-1.143080711364746,0.9506425857543945
1790163334575608600,2.641608642578125,-5.976668357849121,-0.6576136350631714,-0.8463149070739746
1790163334585608700,2.651608642578125,-15.154162406921387,0.09854435920715332,-0.8397150039672852
1790163334595608600,2.661608642578125,-15.012212753295898,0.9201809763908386,-0.6329307556152344
1790163334605608700,2.671608642578125,-10.27789306640625,2.1494829654693604,-1.7281303405761719
1790163334615608600,2.681608642578125,-4.873002052307129,2.4586472511291504,-1.7104601860046387
1790163334625608700,2.691608642578125,-1.3073434829711914,1.4813530445098877,-1.8466339111328125
1790163334635608600,2.701608642578125,0.9339427947998047,0.4090770483016968,-2.035639762878418
1790163334645608700,2.711608642578125,2.4369421005249023,-0.2898631691932678,-1.5615429878234863
1790163334655608600,2.721608642578125,2.9288673400878906,-1.0077753067016602,-0.8875603675842285
1790163334665608700,2.731608642578125,2.876206874847412,-1.4549596309661865,-0.3048577308654785
1790163334675608600,2.741608642578125,2.6396431922912598,-1.3985674381256104,-0.042546749114990234
1790163334685608700,2.751608642578125,2.0738205909729004,-0.8452091217041016,0.14883184432983398
1790163334695608600,2.761608642578125,1.3687725067138672,-0.20528903603553772,-0.5260205268859863
1790163334705608700,2.771608642578125,0.9275145530700684,0.27057084441185,-1.518239974975586
1790163334715608600,2.781608642578125,0.5434761047363281,0.56642746925354,-1.6954047679901123
1790163334725608700,2.791608642578125,0.05695676803588867,0.7571086287498474,-1.0778746604919434
1790163334735608600,2.801608642578125,-0.2572898864746094,0.6011983752250671,-0.9520044326782227
1790163334745608700,2.811608642578125,-0.44709253311157227,0.3282822370529175,-1.3509316444396973
1790163334755608600,2.821608642578125,-0.7965612411499023,0.21036745607852936,-1.374429702758789
1790163334765608700,2.831608642578125,-1.0508804321289062,0.06454339623451233,-0.36575937271118164
1790163334775608600,2.841608642578125,-1.0301671028137207,0.08435558527708054,0.5802946090698242
1790163334785608700,2.851608642578125,-0.7849307060241699,0.13920681178569794,0.8399667739868164
1790163334795608600,2.861608642578125,-0.755368709564209,0.12678773701190948,0.560823917388916
1790163334805608700,2.871608642578125,-0.9077339172363281,0.025426089763641357,0.19893121719360352
1790163334815608600,2.881608642578125,-0.6799736022949219,-0.06611328572034836,0.01409292221069336
1790163334825608700,2.891608642578125,-0.46478986740112305,-0.023348450660705566,0.12523937225341797
1790163334835608600,2.901608642578125,-0.27832603454589844,-0.060191988945007324,-0.01552581787109375
1790163334845608700,2.911608642578125,-0.12050533294677734,-0.2150900661945343,-0.35812997817993164
1790163334855608600,2.921608642578125,0.2751579284667969,-0.3814416825771332,-0.6437053680419922
1790163334865608700,2.931608642578125,0.7122092247009277,-0.3246118128299713,-0.7306299209594727
1790163334875608600,2.941608642578125,0.9691677093505859,-0.24659201502799988,-0.8334817886352539
1790163334885608700,2.951608642578125,0.6682186126708984,-0.22557991743087769,-0.9287228584289551
1790163334895608600,2.961608642578125,0.31646299362182617,-0.11731508374214172,-1.0228166580200195
1790163334905608700,2.971608642578125,0.11075639724731445,0.005581364035606384,-1.1135239601135254
1790163334915608600,2.981608642578125,-0.06641530990600586,0.040998101234436035,-1.180004596710205
1790163334925608700,2.991608642578125,-0.1416950225830078,0.1436927318572998,-1.2073783874511719
1790163334935608600,3.001608642578125,-0.3274250030517578,0.32966017723083496,-1.352734088897705
1790163334945608700,3.011608642578125,-0.2624478340148926,0.6546487212181091,-1.6750755310058594
1790163334955608600,3.021608642578125,-0.45971202850341797,-0.003813312388956547,-1.6292109489440918
1790163334965608700,3.031608642578125,-1.96220064163208,-2.0302035808563232,-1.3214259147644043
1790163334975608600,3.041608642578125,-2.6681671142578125,-2.6009838581085205,-1.9254875183105469
1790163334985608700,3.051608642578125,-1.5282740592956543,-3.1740124225616455,-1.3766961097717285
1790163334995608600,3.061608642578125,-0.2707481384277344,-3.360975980758667,-1.549088954925537
1790163335005608700,3.071608642578125,-0.3790574073791504,-2.957341432571411,-2.4899234771728516
1790163335015608600,3.081608642578125,-3.5611772537231445,-1.948505163192749,-4.520920753479004
1790163335025608700,3.091608642578125,-6.250229835510254,-0.4639173448085785,-4.740887641906738
1790163335035608600,3.101608642578125,-7.316631317138672,1.2273797988891602,-5.428704738616943
1790163335045608700,3.111608642578125,-5.9104485511779785,1.7859435081481934,-5.835060119628906
1790163335055608600,3.121608642578125,-1.2492036819458008,0.3896710276603699,-3.4792375564575195
1790163335065608700,3.131608642578125,2.8524694442749023,-2.6898629665374756,-0.5257010459899902
1790163335075608600,3.141608642578125,5.063146591186523,-5.96901798248291,0.9442605972290039
1790163335085608700,3.151608642578125,4.313389778137207,-8.592663764953613,-1.8628921508789062
1790163335095608600,3.161608642578125,2.520820140838623,-10.804109573364258,-6.5356574058532715
1790163335105608700,3.171608642578125,1.4527630805969238,-10.870037078857422,-8.989198684692383
1790163335115608600,3.181608642578125,0.3611178398132324,-9.330350875854492,-9.284622192382812
1790163335125608700,3.191608642578125,-1.546593189239502,-6.895268440246582,-11.680646896362305
1790163335135608600,3.201608642578125,-3.697734832763672,-5.479609489440918,-13.977066993713379
1790163335145608700,3.211608642578125,-4.063207626342773,-5.387889862060547,-12.0108642578125
1790163335155608600,3.221608642578125,-3.072524070739746,-5.028133392333984,-9.231189727783203
1790163335165608700,3.231608642578125,-1.457603931427002,-5.016379356384277,-6.882389068603516
1790163335175608600,3.241608642578125,-1.087977409362793,-5.2050018310546875,-4.54142951965332
1790163335185608700,3.251608642578125,-0.569298267364502,-5.264394760131836,-3.023191213607788
1790163335195608600,3.261608642578125,0.4016103744506836,-5.246912002563477,-2.1946640014648438
1790163335205608700,3.271608642578125,1.6780691146850586,-5.58724308013916,-2.0715363025665283
1790163335215608600,3.281608642578125,3.82844877243042,-6.111873626708984,-1.5462727546691895
1790163335225608700,3.291608642578125,8.284952163696289,-5.500673294067383,-0.5601077079772949
1790163335235608600,3.301608642578125,9.778175354003906,-5.273871421813965,1.596998691558838
1790163335245608700,3.311608642578125,11.10207462310791,-5.265045166015625,3.350882053375244
1790163335255608600,3.321608642578125,11.815698623657227,-5.400882720947266,4.990140438079834
1790163335265608700,3.331608642578125,11.581819534301758,-5.334883213043213,6.067750453948975
1790163335275608600,3.341608642578125,10.41478443145752,-4.897350311279297,6.526636123657227
1790163335285608700,3.351608642578125,8.36665153503418,-4.39007568359375,7.851542949676514
1790163335295608600,3.361608642578125,6.238948822021484,-3.559467315673828,10.105269432067871
1790163335305608700,3.371608642578125,-3.9081549644470215,-2.43873929977417,14.179525375366211
1790163335315608600,3.381608642578125,-30.727920532226562,0.6886248588562012,18.632808685302734
1790163335325608700,3.391608642578125,-1.1936230659484863,3.8260486125946045,15.000930786132812
1790163335335608600,3.401608642578125,1.0970635414123535,4.5016632080078125,15.370800018310547
1790163335345608700,3.411608642578125,2.6768581867218018,3.4445552825927734,16.33570671081543
1790163335355608600,3.421608642578125,3.6410906314849854,2.091118812561035,17.212186813354492
1790163335365608700,3.431608642578125,1.2423095703125,1.467595100402832,16.146259307861328
1790163335375608600,3.441608642578125,-4.584735870361328,1.9019899368286133,13.91749382019043
1790163335385608700,3.451608642578125,-6.772518157958984,2.530357837677002,10.965789794921875
1790163335395608600,3.461608642578125,-6.791019916534424,3.1194047927856445,7.559604167938232
1790163335405608700,3.471608642578125,-7.730395793914795,4.396020412445068,3.5340542793273926
1790163335415608600,3.481608642578125,-5.922587871551514,5.4843668937683105,1.1945433616638184
1790163335425608700,3.491608642578125,-8.807770729064941,6.297209739685059,0.04996824264526367
1790163335435608600,3.501608642578125,-11.474246978759766,7.100674152374268,0.08609437942504883
1790163335445608700,3.511608642578125,-13.78152847290039,6.946969032287598,0.29581356048583984
1790163335455608600,3.521608642578125,-13.149742126464844,5.798603057861328,0.9002532958984375
1790163335465608700,3.531608642578125,-9.094441413879395,4.1431884765625,1.9803414344787598
1790163335475608600,3.541608642578125,-4.544711589813232,2.396576404571533,3.512449264526367
1790163335485608700,3.551608642578125,-2.2052741050720215,1.0339770317077637,5.730596542358398
1790163335495608600,3.561608642578125,-1.0125269889831543,0.4679431915283203,6.2184367179870605
1790163335505608700,3.571608642578125,-1.2659907341003418,0.33354711532592773,3.6169986724853516
1790163335515608600,3.581608642578125,-2.6982316970825195,0.13171625137329102,-0.20110511779785156
1790163335525608700,3.591608642578125,-2.0573039054870605,-0.044620513916015625,-1.2159037590026855
1790163335535608600,3.601608642578125,-0.0018358230590820312,0.1400289535522461,-2.684941291809082
1790163335545608700,3.611608642578125,-0.6912417411804199,-0.8437228202819824,-1.10319185256958
1790163335555608600,3.621608642578125,-0.1170654296875,-1.8507537841796875,1.5233063697814941
1790163335565608700,3.631608642578125,1.0996508598327637,-1.4340581893920898,0.750457763671875
1790163335575608600,3.641608642578125,0.6870160102844238,0.14357829093933105,-1.925093173980713
1790163335585608700,3.651608642578125,-0.8828105926513672,1.893078088760376,-6.001528739929199
1790163335595608600,3.661608642578125,-1.1047630310058594,2.8794031143188477,-8.316916465759277
1790163335605608700,3.671608642578125,0.042641639709472656,2.141685724258423,-6.726248741149902
1790163335615608600,3.681608642578125,1.175438404083252,-0.19308948516845703,-0.3167295455932617
1790163335625608700,3.691608642578125,0.6489729881286621,-0.9374182224273682,0.7466387748718262
1790163335635608600,3.701608642578125,0.3369026184082031,-0.18047261238098145,1.0723628997802734
1790163335645608700,3.711608642578125,-0.9466190338134766,0.5363025665283203,-2.395029067993164
1790163335655608600,3.721608642578125,-0.6720662117004395,1.2614941596984863,-4.238361835479736
1790163335665608700,3.731608642578125,0.04768657684326172,0.8537582159042358,-3.50270938873291
1790163335675608600,3.741608642578125,0.5224800109863281,-0.27545905113220215,-2.9358572959899902
1790163335685608700,3.751608642578125,0.6716437339782715,-1.4457190036773682,-3.644505023956299
1790163335695608600,3.761608642578125,1.0089151859283447,-2.1717288494110107,-4.496535301208496
1790163335705608700,3.771608642578125,0.4110865592956543,-2.355264186859131,-3.921812057495117
1790163335715608600,3.781608642578125,2.820890426635742,-0.9723587036132812,-4.254319190979004
1790163335725608700,3.791608642578125,4.7938151359558105,1.277888536453247,-4.03537654876709
1790163335735608600,3.801608642578125,10.14175033569336,0.5722883343696594,-2.9368810653686523
1790163335745608700,3.811608642578125,-0.8326044082641602,-2.7623095512390137,-1.3841743469238281
1790163335755608600,3.821608642578125,-3.1574149131774902,-1.4958984851837158,-4.193264007568359
1790163335765608700,3.831608642578125,7.67902946472168,0.7531322240829468,-6.275116920471191
1790163335775608600,3.841608642578125,-5.956600189208984,-0.8987390995025635,-2.8866677284240723
1790163335785608700,3.851608642578125,-7.912264347076416,0.8025239706039429,-0.053292274475097656
1790163335795608600,3.861608642578125,-6.692559242248535,3.569566249847412,2.351396083831787
1790163335805608700,3.871608642578125,-6.992830753326416,4.653041362762451,4.996951580047607
1790163335815608600,3.881608642578125,-5.473204612731934,5.659136772155762,6.860840797424316
1790163335825608700,3.891608642578125,-2.9392714500427246,5.5054826736450195,9.14869499206543
1790163335835608600,3.901608642578125,-1.3878912925720215,5.660294532775879,8.667974472045898
1790163335845608700,3.911608642578125,-2.9946022033691406,6.614822864532471,7.535078048706055
1790163335855608600,3.921608642578125,-5.098498344421387,6.516973495483398,7.661419868469238
1790163335865608700,3.931608642578125,-6.08731746673584,5.682790279388428,7.072025299072266
1790163335875608600,3.941608642578125,-6.951488494873047,4.585351467132568,4.286835670471191
1790163335885608700,3.951608642578125,-5.471149444580078,4.012121200561523,2.5655078887939453
1790163335895608600,3.961608642578125,-2.887784481048584,2.321676731109619,1.2911038398742676
1790163335905608700,3.971608642578125,0.2924995422363281,0.8418248295783997,-1.2936153411865234
1790163335915608600,3.981608642578125,1.5891947746276855,-0.1375054121017456,-2.7826461791992188
1790163335925608700,3.991608642578125,2.4502205848693848,0.30827295780181885,-5.491769790649414
1790163335935608600,4.001608642578125,2.8428702354431152,-0.40271228551864624,-8.820263862609863
1790163335945608700,4.011608642578125,4.72366189956665,-0.7754372358322144,-11.244037628173828
1790163335955608600,4.021608642578125,6.329420566558838,-1.739924669265747,-10.587111473083496
1790163335965608700,4.031608642578125,3.797297477722168,-1.9146878719329834,-9.454911231994629
1790163335975608600,4.041608642578125,1.6998066902160645,-0.5679808855056763,-11.813196182250977
1790163335985608700,4.051608642578125,0.7265796661376953,-1.000593662261963,-13.756874084472656
1790163335995608600,4.061608642578125,2.90293550491333,-3.2242321968078613,-10.765604019165039
1790163336005608700,4.071608642578125,3.087678909301758,-7.857345104217529,-3.1551523208618164
1790163336015608600,4.081608642578125,-2.0110368728637695,-11.47026252746582,1.7609362602233887
1790163336025608700,4.091608642578125,-3.7478408813476562,-10.559353828430176,4.903433322906494
1790163336035608600,4.101608642578125,-1.7538871765136719,-6.552253723144531,5.755919456481934
1790163336045608700,4.111608642578125,-1.7181620597839355,-3.0394458770751953,4.6704206466674805
1790163336055608600,4.121608642578125,-4.627468585968018,-3.121860980987549,2.5347518920898438
1790163336065608700,4.131608642578125,-5.230226039886475,-2.921794891357422,1.9711575508117676
1790163336075608600,4.141608642578125,-4.508664608001709,-1.5739502906799316,-0.3465580940246582
1790163336085608700,4.151608642578125,-5.178424835205078,0.2580149173736572,-3.855867862701416
1790163336095608600,4.161608642578125,-6.212012767791748,1.841895580291748,-5.957126617431641
1790163336105608700,4.171608642578125,-6.430161476135254,2.519366502761841,-3.976346015930176
1790163336115608600,4.181608642578125,-3.8149123191833496,1.3908408880233765,1.7758150100708008
1790163336125608700,4.191608642578125,1.3036308288574219,-3.6644115447998047,8.24801254272461
1790163336135608600,4.201608642578125,3.182419776916504,-8.264182090759277,7.93190336227417
1790163336145608700,4.211608642578125,4.315614700317383,-9.303450584411621,5.466543197631836
1790163336155608600,4.221608642578125,7.121447563171387,-6.941235542297363,3.615856647491455
1790163336165608700,4.231608642578125,8.373674392700195,-3.93087100982666,2.1335315704345703
1790163336175608600,4.241608642578125,7.461315631866455,-1.150790810585022,-1.9191861152648926
1790163336185608700,4.251608642578125,5.204789161682129,-0.3681427836418152,-3.9763028621673584
1790163336195608600,4.261608642578125,3.5918707847595215,-0.1960141658782959,-6.012762546539307
1790163336205608700,4.271608642578125,2.7817721366882324,-0.6012946367263794,-7.915685653686523
1790163336215608600,4.281608642578125,3.6012024879455566,-1.4044690132141113,-7.3902177810668945
1790163336225608700,4.291608642578125,3.1086630821228027,-2.102085828781128,-7.952516078948975
1790163336235608600,4.301608642578125,4.9644317626953125,0.6370480060577393,-7.528982162475586
1790163336245608700,4.311608642578125,6.719913482666016,2.0244462490081787,-3.614766836166382
1790163336255608600,4.321608642578125,1.1644492149353027,1.7750808000564575,2.2913312911987305
1790163336265608700,4.331608642578125,-15.853554725646973,0.19880902767181396,12.303679466247559
1790163336275608600,4.341608642578125,-11.889060974121094,-0.7002646923065186,15.474693298339844
1790163336285608700,4.351608642578125,-8.586586952209473,1.4456894397735596,14.297943115234375
1790163336295608600,4.361608642578125,-3.018754005432129,3.838263988494873,7.674646377563477
1790163336305608700,4.371608642578125,-0.2325444221496582,4.499791145324707,2.8445024490356445
1790163336315608600,4.381608642578125,2.929018020629883,2.8840866088867188,-3.13374662399292
1790163336325608700,4.391608642578125,-1.7459702491760254,4.423897743225098,-4.466098785400391
1790163336335608600,4.401608642578125,-7.269083499908447,3.4847147464752197,0.13974285125732422
1790163336345608700,4.411608642578125,-4.259731292724609,0.5861456394195557,-1.9211111068725586
1790163336355608600,4.421608642578125,0.3664579391479492,-1.5833613872528076,-4.103529453277588
1790163336365608700,4.431608642578125,7.025199890136719,-0.854110062122345,-1.5141329765319824
1790163336375608600,4.441608642578125,11.015457153320312,2.4802210330963135,0.22648906707763672
1790163336385608700,4.451608642578125,7.5605549812316895,3.936178684234619,3.5164966583251953
1790163336395608600,4.461608642578125,-1.9511446952819824,4.365835666656494,7.598448753356934
1790163336405608700,4.471608642578125,-4.294059753417969,4.744058132171631,7.773662567138672
1790163336415608600,4.481608642578125,-4.988157749176025,12.864852905273438,7.976736068725586
1790163336425608700,4.491608642578125,-4.259727478027344,14.118704795837402,9.995136260986328
1790163336435608600,4.501608642578125,-2.1077866554260254,10.90733814239502,6.387452602386475
1790163336445608700,4.511608642578125,2.6655712127685547,9.979531288146973,0.7208061218261719
1790163336455608600,4.521608642578125,7.729888916015625,3.5148463249206543,-0.9035625457763672
1790163336465608700,4.531608642578125,10.318653106689453,-0.5082027912139893,-2.685338020324707
1790163336475608600,4.541608642578125,16.608131408691406,-6.620364189147949,-5.843862533569336
1790163336485608700,4.551608642578125,9.105742454528809,-13.503623962402344,-7.6111907958984375
1790163336495608600,4.561608642578125,-5.8722453117370605,-14.666766166687012,-7.318606853485107
1790163336505608700,4.571608642578125,-6.585521221160889,-12.67662239074707,-4.488697052001953
1790163336515608600,4.581608642578125,-3.3183469772338867,-12.168367385864258,-4.211761474609375
1790163336525608700,4.591608642578125,-3.347461700439453,-11.164230346679688,-4.578459739685059
1790163336535608600,4.601608642578125,-0.49590015411376953,-7.109590530395508,-6.324775695800781
1790163336545608700,4.611608642578125,1.3941993713378906,-1.7305164337158203,-12.550930976867676
1790163336555608600,4.621608642578125,3.8035478591918945,0.7346980571746826,-13.177013397216797
1790163336565608700,4.631608642578125,5.484169006347656,0.6834423542022705,-9.607179641723633
1790163336575608600,4.641608642578125,4.575707912445068,0.2612943649291992,-5.781428813934326
1790163336585608700,4.651608642578125,1.247997760772705,0.4983692169189453,-2.204939842224121
1790163336595608600,4.661608642578125,-2.088679790496826,0.8020706176757812,0.28069567680358887
1790163336605608700,4.671608642578125,-3.902865409851074,1.1259279251098633,1.8600895404815674
1790163336615608600,4.681608642578125,-4.195165634155273,1.7016797065734863,3.2149107456207275
1790163336625608700,4.691608642578125,-3.0896997451782227,2.2655787467956543,3.784181833267212
1790163336635608600,4.701608642578125,-1.9173622131347656,2.416557788848877,3.56699275970459
1790163336645608700,4.711608642578125,-1.3280420303344727,2.3634085655212402,3.2856531143188477
1790163336655608600,4.721608642578125,-0.5418806076049805,1.9460198879241943,2.926830291748047
1790163336665608700,4.731608642578125,0.32968902587890625,1.1445353031158447,2.0612759590148926
1790163336675608600,4.741608642578125,0.7257890701293945,-0.1747441291809082,0.5449254512786865
1790163336685608700,4.751608642578125,0.7487478256225586,-1.3274221420288086,-0.25058484077453613
1790163336695608600,4.761608642578125,0.8435630798339844,-1.9813611507415771,-0.13692927360534668
1790163336705608700,4.771608642578125,1.0108346939086914,-2.0107202529907227,0.19457030296325684
1790163336715608600,4.781608642578125,1.1706452369689941,-1.9262235164642334,0.23442411422729492
1790163336725608700,4.791608642578125,1.2881908416748047,-1.2759976387023926,0.6718282699584961
1790163336735608600,4.801608642578125,1.3337182998657227,-0.5037631988525391,0.5906777381896973
1790163336745608700,4.811608642578125,0.5097522735595703,0.40690112113952637,0.8039679527282715
1790163336755608600,4.821608642578125,-2.3077878952026367,4.873898506164551,0.4294617176055908
1790163336765608700,4.831608642578125,-5.134615898132324,12.535531997680664,-0.9849998950958252
1790163336775608600,4.841608642578125,0.27728748321533203,10.211400032043457,3.958059310913086
1790163336785608700,4.851608642578125,2.3145790100097656,6.9534454345703125,4.270035743713379
1790163336795608600,4.861608642578125,2.4652185440063477,5.52062463760376,-0.8127439022064209
1790163336805608700,4.871608642578125,2.8144540786743164,2.325683832168579,-5.180781364440918
1790163336815608600,4.881608642578125,1.21321439743042,-1.173327922821045,-5.3591766357421875
1790163336825608700,4.891608642578125,-4.458838939666748,-3.9314050674438477,-3.273124933242798
1790163336835608600,4.901608642578125,-5.413609027862549,-3.552676200866699,-2.621457099914551
1790163336845608700,4.911608642578125,-0.9366183280944824,-1.9857478141784668,-3.451916217803955
1790163336855608600,4.921608642578125,9.38428783416748,7.96592903137207,-6.837578773498535
1790163336865608700,4.931608642578125,12.269098281860352,2.464522361755371,-5.496645927429199
1790163336875608600,4.941608642578125,3.294938564300537,-1.3498640060424805,-7.510584831237793
1790163336885608700,4.951608642578125,-2.333984851837158,-3.5098423957824707,-4.159336090087891
1790163336895608600,4.961608642578125,-8.425415992736816,-7.570095062255859,-1.490212321281433
1790163336905608700,4.971608642578125,-7.976735591888428,-8.017098426818848,-0.6438589096069336
1790163336915608600,4.981608642578125,-5.150986194610596,-7.867303371429443,3.9028170108795166
1790163336925608700,4.991608642578125,-1.7743644714355469,-5.445702075958252,8.382585525512695
1790163336935608600,5.001608642578125,2.067126750946045,-3.6481919288635254,7.816131591796875
1790163336945608700,5.011608642578125,4.4311909675598145,-2.0341038703918457,3.088557243347168
1790163336955608600,5.021608642578125,2.863074779510498,-1.0438323020935059,-0.3203096389770508
1790163336965608700,5.031608642578125,1.3609108924865723,-0.36408138275146484,-1.338313341140747
1790163336975608600,5.041608642578125,0.7456016540527344,-0.46085214614868164,-1.2427270412445068
1790163336985608700,5.051608642578125,-0.14532232284545898,-0.5363874435424805,-1.0460078716278076
1790163336995608600,5.061608642578125,-0.9005889892578125,-1.0059013366699219,-0.43050336837768555
1790163337005608700,5.071608642578125,-1.1028251647949219,-1.1222772598266602,0.26820969581604004
1790163337015608600,5.081608642578125,-0.49944639205932617,-0.9815511703491211,0.9372978210449219
1790163337025608700,5.091608642578125,0.3869466781616211,-0.8802552223205566,1.0995686054229736
1790163337035608600,5.101608642578125,0.8379111289978027,-0.4168095588684082,1.0147225856781006
1790163337045608700,5.111608642578125,0.1922006607055664,-1.191774845123291,-0.4946610927581787
1790163337055608600,5.121608642578125,-0.4301791191101074,-0.9000744819641113,-0.33321285247802734
1790163337065608700,5.131608642578125,-0.8898162841796875,0.3572731018066406,0.5592553615570068
1790163337075608600,5.141608642578125,-1.0463733673095703,-0.26531219482421875,-0.07989811897277832
1790163337085608700,5.151608642578125,-0.5866966247558594,-0.5141148567199707,-0.6657290458679199
1790163337095608600,5.161608642578125,-0.42840576171875,0.15207862854003906,0.2645552158355713
1790163337105608700,5.171608642578125,0.47018003463745117,-1.2778043746948242,-0.12241959571838379
1790163337115608600,5.181608642578125,0.4715423583984375,0.4035658836364746,0.4771277904510498
1790163337125608700,5.191608642578125,-0.8693766593933105,-0.31052446365356445,0.19788050651550293
1790163337135608600,5.201608642578125,-0.6876034736633301,1.1504101753234863,0.1929183006286621
1790163337145608700,5.211608642578125,-0.22160863876342773,3.4449925422668457,-0.35910940170288086
1790163337155608600,5.221608642578125,0.10358190536499023,3.5317115783691406,-1.0531084537506104
1790163337165608700,5.231608642578125,0.5401701927185059,3.2240428924560547,-1.7103886604309082
1790163337175608600,5.241608642578125,0.019791603088378906,3.189455032348633,-1.2326948642730713
1790163337185608700,5.251608642578125,-0.5185089111328125,2.7276484966278076,-0.4503438472747803
1790163337195608600,5.261608642578125,0.12744855880737305,1.8115572929382324,0.286421537399292
1790163337205608700,5.271608642578125,-0.591987133026123,1.3662481307983398,0.16533112525939941
1790163337215608600,5.281608642578125,-0.36148881912231445,-0.1242213249206543,-2.5337367057800293
1790163337225608700,5.291608642578125,0.759397029876709,-1.6806092262268066,-3.4760875701904297
1790163337235608600,5.301608642578125,0.5814061164855957,-3.0204029083251953,-2.6580190658569336
1790163337245608700,5.311608642578125,-0.7703714370727539,-3.4499316215515137,-2.693553924560547
1790163337255608600,5.321608642578125,-1.9187216758728027,-2.9989423751831055,-2.276184320449829
1790163337265608700,5.331608642578125,-1.5234918594360352,-1.214430809020996,-0.3008136749267578
1790163337275608600,5.341608642578125,-0.059970855712890625,-0.4107041358947754,1.6212997436523438
1790163337285608700,5.351608642578125,1.612785816192627,-1.5478382110595703,2.3042163848876953
1790163337295608600,5.361608642578125,2.9050564765930176,-2.161555290222168,4.128821849822998
1790163337305608700,5.371608642578125,1.7962918281555176,-1.9397096633911133,5.448376178741455
1790163337315608600,5.381608642578125,-0.310089111328125,-0.8468623161315918,5.206449031829834
1790163337325608700,5.391608642578125,-1.117715835571289,0.2684922218322754,3.6238694190979004
1790163337335608600,5.401608642578125,-0.23757171630859375,0.7624998092651367,2.1651248931884766
1790163337345608700,5.411608642578125,-0.35639524459838867,0.6898560523986816,0.656611442565918
1790163337355608600,5.421608642578125,-0.7145171165466309,1.0210447311401367,-1.0432562828063965
1790163337365608700,5.431608642578125,-0.4750051498413086,1.218048095703125,-1.8869571685791016
1790163337375608600,5.441608642578125,0.8321938514709473,1.874574899673462,-1.9703316688537598
1790163337385608700,5.451608642578125,1.7296886444091797,1.5624842643737793,-2.711536407470703
1790163337395608600,5.461608642578125,2.001119613647461,0.01936626434326172,-2.7536096572875977
1790163337405608700,5.471608642578125,0.9177699089050293,-0.9960603713989258,-1.5598969459533691
1790163337415608600,5.481608642578125,-0.5100483894348145,-1.1635346412658691,-0.5759756565093994
1790163337425608700,5.491608642578125,-1.0918011665344238,-0.850341796875,-0.13567805290222168
1790163337435608600,5.501608642578125,-0.6281108856201172,-0.24184560775756836,-0.15857529640197754
1790163337445608700,5.511608642578125,-0.09738779067993164,0.39068078994750977,-0.42229747772216797
1790163337455608600,5.521608642578125,0.4456048011779785,0.5758152008056641,-0.16622686386108398
1790163337465608700,5.531608642578125,2.162111759185791,1.2133212089538574,-0.016858339309692383
1790163337475608600,5.541608642578125,-0.3758115768432617,0.25298023223876953,-0.3836047649383545
1790163337485608700,5.551608642578125,0.410733699798584,0.10144519805908203,-1.3338837623596191
1790163337495608600,5.561608642578125,-0.33231019973754883,-0.31171369552612305,0.4082612991333008
1790163337505608700,5.571608642578125,-1.187385082244873,-0.878117561340332,1.4320526123046875
1790163337515608600,5.581608642578125,-1.2642097473144531,-0.9520759582519531,0.7144932746887207
1790163337525608700,5.591608642578125,-0.9058361053466797,-0.7721023559570312,0.4957008361816406
1790163337535608600,5.601608642578125,-0.019346237182617188,-0.11991262435913086,0.7448129653930664
1790163337545608700,5.611608642578125,-0.009677410125732422,0.16604137420654297,0.617671012878418
1790163337555608600,5.621608642578125,0.14757061004638672,0.6653947830200195,1.0915851593017578
1790163337565608700,5.631608642578125,-0.20636463165283203,0.9362139701843262,1.2145256996154785
1790163337575608600,5.641608642578125,-0.8736467361450195,0.4078226089477539,1.1608586311340332
1790163337585608700,5.651608642578125,-0.37992429733276367,-0.35997867584228516,-0.15829706192016602
1790163337595608600,5.661608642578125,-0.2905311584472656,0.27339935302734375,0.8641676902770996
1790163337605608700,5.671608642578125,0.09175634384155273,-0.3545379638671875,0.5346107482910156
1790163337615608600,5.681608642578125,0.8311147689819336,-0.8310608863830566,-0.1269207000732422
1790163337625608700,5.691608642578125,0.06920814514160156,0.4948415756225586,3.0682225227355957
1790163337635608600,5.701608642578125,-1.5328621864318848,0.673698902130127,6.620506763458252
1790163337645608700,5.711608642578125,-0.645514965057373,-2.533841133117676,1.036576271057129
1790163337655608600,5.721608642578125,0.2902951240539551,-2.4504990577697754,-2.788017749786377
1790163337665608700,5.731608642578125,0.4384188652038574,0.34737253189086914,-1.3805434703826904
1790163337675608600,5.741608642578125,-0.5872540473937988,0.31343793869018555,-0.5626721382141113
1790163337685608700,5.751608642578125,1.0449161529541016,-2.172895908355713,-5.6295366287231445
1790163337695608600,5.761608642578125,-0.4085268974304199,-0.10876035690307617,-3.2728545665740967
1790163337705608700,5.771608642578125,-0.6507792472839355,0.4550797939300537,-1.7952942848205566
1790163337715608600,5.781608642578125,-0.5604104995727539,0.16698813438415527,-2.4741406440734863
1790163337725608700,5.791608642578125,0.671083927154541,0.5054898262023926,-3.812960624694824
1790163337735608600,5.801608642578125,3.539435386657715,1.357468843460083,-1.5618622303009033
1790163337745608700,5.811608642578125,2.7379541397094727,0.9862332344055176,2.4871153831481934
1790163337755608600,5.821608642578125,0.06621456146240234,0.8767495155334473,1.3196754455566406
1790163337765608700,5.831608642578125,0.00283050537109375,0.4718470573425293,-0.14318418502807617
1790163337775608600,5.841608642578125,0.7605576515197754,0.24222326278686523,-0.022780895233154297
1790163337785608700,5.851608642578125,0.13776302337646484,1.18314790725708,0.8785686492919922
1790163337795608600,5.861608642578125,-1.052764892578125,1.0360543727874756,0.7237696647644043
1790163337805608700,5.871608642578125,1.3419365882873535,-0.7685267925262451,0.27626752853393555
1790163337815608600,5.881608642578125,-0.9484138488769531,-0.3074638843536377,-1.143092155456543
1790163337825608700,5.891608642578125,-1.3809380531311035,0.16264796257019043,-1.0850872993469238
1790163337835608600,5.901608642578125,-1.4732532501220703,0.06180834770202637,-1.1128695011138916
1790163337845608700,5.911608642578125,-0.7053241729736328,-0.5816147327423096,-0.986358642578125
1790163337855608600,5.921608642578125,-0.07598066329956055,-1.0897247791290283,-0.34320497512817383
1790163337865608700,5.931608642578125,0.22344255447387695,-1.1388537883758545,0.012259960174560547
1790163337875608600,5.941608642578125,0.6405081748962402,-0.49464988708496094,-0.37140941619873047
1790163337885608700,5.951608642578125,0.5337791442871094,-0.2085866928100586,-0.624845027923584
1790163337895608600,5.961608642578125,0.39220237731933594,-0.21800470352172852,-0.6723713874816895
1790163337905608700,5.971608642578125,0.25429248809814453,-0.2636299133300781,-0.8808443546295166
1790163337915608600,5.981608642578125,-0.008084297180175781,-0.10593485832214355,-0.8012561798095703
1790163337925608700,5.991608642578125,-0.05251884460449219,0.12046217918395996,-0.3259925842285156
1790163337935608600,6.001608642578125,-0.21425580978393555,0.318347692489624,0.272432804107666
1790163337945608700,6.011608642578125,-0.4566969871520996,0.39316272735595703,0.941070556640625
1790163337955608600,6.021608642578125,-1.226149082183838,0.30267810821533203,0.9441227912902832
1790163337965608700,6.031608642578125,-1.8723459243774414,0.1789407730102539,0.2898745536804199
1790163337975608600,6.041608642578125,-1.7596993446350098,0.3304729461669922,-0.42160654067993164
1790163337985608700,6.051608642578125,-1.803342342376709,0.766636848449707,-1.7747604846954346
1790163337995608600,6.061608642578125,-1.760441780090332,0.8269004821777344,-3.0063560009002686
1790163338005608700,6.071608642578125,-1.0570988655090332,0.9235427379608154,-4.494545936584473
1790163338015608600,6.081608642578125,-0.08682584762573242,0.903576135635376,-3.4196786880493164
1790163338025608700,6.091608642578125,2.1960268020629883,0.6509830951690674,-2.590338706970215
1790163338035608600,6.101608642578125,5.104813575744629,0.3160264492034912,-0.7828793525695801
1790163338045608700,6.111608642578125,2.1536803245544434,0.18758296966552734,-0.04551267623901367
1790163338055608600,6.121608642578125,-2.1317577362060547,0.24310731887817383,-0.591616153717041
1790163338065608700,6.131608642578125,-1.2362332344055176,0.41692304611206055,0.9346880912780762
1790163338075608600,6.141608642578125,-0.3615865707397461,0.19642186164855957,1.9417977333068848
1790163338085608700,6.151608642578125,11.230634689331055,0.8241469860076904,4.182409763336182
1790163338095608600,6.161608642578125,0.10041332244873047,-0.7898564338684082,1.2206058502197266
1790163338105608700,6.171608642578125,5.602136611938477,0.36681032180786133,-1.091695785522461
1790163338115608600,6.181608642578125,-9.90008544921875,4.060523509979248,1.5224299430847168
1790163338125608700,6.191608642578125,-2.038784980773926,2.051500082015991,7.179556369781494
1790163338135608600,6.201608642578125,-5.438705921173096,-0.5370180606842041,2.942122459411621
1790163338145608700,6.211608642578125,-2.147496223449707,-1.0705695152282715,1.095118522644043
1790163338155608600,6.221608642578125,1.1700758934020996,-1.7003700733184814,2.4633727073669434
1790163338165608700,6.231608642578125,1.7039260864257812,-2.55240535736084,3.0193238258361816
1790163338175608600,6.241608642578125,-0.284609317779541,-2.8300528526306152,2.565798759460449
1790163338185608700,6.251608642578125,-1.7117080688476562,-2.434626340866089,1.431086540222168
1790163338195608600,6.261608642578125,-1.5613713264465332,-1.5796527862548828,0.08793067932128906
1790163338205608700,6.271608642578125,-0.41172122955322266,-0.8660283088684082,-0.4960784912109375
1790163338215608600,6.281608642578125,1.6044392585754395,-0.7956688404083252,-0.3373427391052246
1790163338225608700,6.291608642578125,2.692526340484619,-0.9129133224487305,0.002239227294921875
1790163338235608600,6.301608642578125,2.895507335662842,-0.6349313259124756,0.2331404685974121
1790163338245608700,6.311608642578125,0.9818291664123535,-0.6593363285064697,-0.28290367126464844
1790163338255608600,6.321608642578125,-1.8771586418151855,-1.0353178977966309,-0.863126277923584
1790163338265608700,6.331608642578125,-3.51839542388916,-1.6641926765441895,-0.2363719940185547
1790163338275608600,6.341608642578125,-3.6488804817199707,-1.9441277980804443,0.0064849853515625
1790163338285608700,6.351608642578125,-2.6636152267456055,-1.4756155014038086,-0.5451698303222656
1790163338295608600,6.361608642578125,-1.1897597312927246,-0.35056042671203613,-1.2422022819519043
1790163338305608700,6.371608642578125,-0.17828369140625,0.8322505950927734,-1.0769782066345215
1790163338315608600,6.381608642578125,0.5620651245117188,1.593045949935913,-0.8751401901245117
1790163338325608700,6.391608642578125,0.9428186416625977,2.1944921016693115,-1.7688398361206055
1790163338335608600,6.401608642578125,0.8239750862121582,3.3232369422912598,-2.9469046592712402
1790163338345608700,6.411608642578125,3.021998405456543,5.12033224105835,-4.224873065948486
1790163338355608600,6.421608642578125,1.6109657287597656,5.714322090148926,-3.8264834880828857
1790163338365608700,6.431608642578125,1.0405583381652832,3.5062899589538574,-1.7691140174865723
1790163338375608600,6.441608642578125,3.405282735824585,-0.009982824325561523,-0.948646068572998
1790163338385608700,6.451608642578125,1.3764758110046387,-3.2941057682037354,-3.862105131149292
1790163338395608600,6.461608642578125,-1.5860533714294434,-4.167902946472168,-3.550036668777466
1790163338405608700,6.471608642578125,0.9043526649475098,-1.1742713451385498,0.7102241516113281
1790163338415608600,6.481608642578125,2.0036230087280273,1.4790852069854736,3.4466371536254883
1790163338425608700,6.491608642578125,-0.725898265838623,1.6183346509933472,3.427072525024414
1790163338435608600,6.501608642578125,-1.9661774635314941,0.49828624725341797,2.2895679473876953
1790163338445608700,6.511608642578125,-1.3071818351745605,-0.2694833278656006,1.6175832748413086
1790163338455608600,6.521608642578125,0.42336320877075195,-0.7644212245941162,1.4526252746582031
1790163338465608700,6.531608642578125,2.0543055534362793,-1.3281829357147217,0.9784846305847168
1790163338475608600,6.541608642578125,2.9931092262268066,-1.4047822952270508,0.09383201599121094
1790163338485608700,6.551608642578125,3.1267738342285156,-1.0587072372436523,-1.5233945846557617
1790163338495608600,6.561608642578125,2.857665538787842,-0.4742248058319092,-2.520028591156006
1790163338505608700,6.571608642578125,2.187338352203369,-0.2185354232788086,-1.9117827415466309
1790163338515608600,6.581608642578125,1.261791706085205,0.28316831588745117,-1.7726764678955078
1790163338525608700,6.591608642578125,0.5942015647888184,0.7682228088378906,-2.0554327964782715
1790163338535608600,6.601608642578125,0.5842251777648926,1.138927698135376,-2.200927257537842
1790163338545608700,6.611608642578125,0.40219831466674805,0.9951486587524414,-2.0592892169952393
1790163338555608600,6.621608642578125,0.31896066665649414,1.147219181060791,-2.346860408782959
1790163338565608700,6.631608642578125,0.7770700454711914,0.9852581024169922,-2.345126152038574
1790163338575608600,6.641608642578125,1.1484885215759277,0.822045087814331,-2.1687798500061035
1790163338585608700,6.651608642578125,1.403740406036377,0.7544388771057129,-2.0406174659729004
1790163338595608600,6.661608642578125,1.4375619888305664,0.6288857460021973,-2.072174072265625
1790163338605608700,6.671608642578125,1.23175048828125,0.7286126613616943,-2.5396604537963867
1790163338615608600,6.681608642578125,0.9086766242980957,0.7719354629516602,-2.8170626163482666
1790163338625608700,6.691608642578125,0.5579957962036133,0.5594124794006348,-2.381412982940674
1790163338635608600,6.701608642578125,0.21564865112304688,0.26624202728271484,-1.6654024124145508
1790163338645608700,6.711608642578125,0.2208118438720703,-0.0756688117980957,-0.9562318325042725
1790163338655608600,6.721608642578125,0.6955852508544922,-0.6194930076599121,-0.17020845413208008
1790163338665608700,6.731608642578125,1.1225104331970215,-1.0595979690551758,0.12916231155395508
1790163338675608600,6.741608642578125,1.0079360008239746,-1.2462682723999023,-0.16796493530273438
1790163338685608700,6.751608642578125,0.6034383773803711,-1.1595187187194824,-0.48505663871765137
1790163338695608600,6.761608642578125,0.023616313934326172,-0.9772396087646484,-0.6191542148590088
1790163338705608700,6.771608642578125,-0.4020557403564453,-0.875852108001709,-0.5739374160766602
1790163338715608600,6.781608642578125,-0.5633478164672852,-0.7778587341308594,-0.21994853019714355
1790163338725608700,6.791608642578125,-0.6743803024291992,-0.710026741027832,0.15074443817138672
1790163338735608600,6.801608642578125,-0.5889434814453125,-0.7591757774353027,0.3448007106781006
1790163338745608700,6.811608642578125,-0.4822230339050293,-0.8274269104003906,0.2391376495361328
1790163338755608600,6.821608642578125,-0.40765953063964844,-0.8849945068359375,0.08516550064086914
1790163338765608700,6.831608642578125,-0.5156049728393555,-0.7616219520568848,-0.03944039344787598
1790163338775608600,6.841608642578125,-0.3245363235473633,-0.5970673561096191,-0.027558326721191406
1790163338785608700,6.851608642578125,-0.3047513961791992,-0.6637568473815918,0.392547607421875
1790163338795608600,6.861608642578125,-0.24980449676513672,-1.0150642395019531,1.091947078704834
1790163338805608700,6.871608642578125,0.11865568161010742,-1.4050979614257812,1.7992799282073975
1790163338815608600,6.881608642578125,0.08909416198730469,-1.2064332962036133,1.6768684387207031
1790163338825608700,6.891608642578125,-0.4213371276855469,-0.9400310516357422,2.0130388736724854
1790163338835608600,6.901608642578125,-1.1435661315917969,-0.6227383613586426,1.9772419929504395
1790163338845608700,6.911608642578125,-1.9272513389587402,-0.3461170196533203,1.7187399864196777
1790163338855608600,6.921608642578125,-2.5055150985717773,-0.29818153381347656,1.665485143661499
1790163338865608700,6.931608642578125,-2.6907691955566406,-0.40171051025390625,1.8597426414489746
1790163338875608600,6.941608642578125,-2.506592273712158,-0.6570644378662109,2.2159595489501953
1790163338885608700,6.951608642578125,-2.227813720703125,-0.8571968078613281,1.8934941291809082
1790163338895608600,6.961608642578125,-1.5556511878967285,-1.0552663803100586,1.5473781824111938
1790163338905608700,6.971608642578125,-1.0086431503295898,-1.3391523361206055,1.7040331363677979
1790163338915608600,6.981608642578125,-1.2708635330200195,-1.6216020584106445,2.056288242340088
1790163338925608700,6.991608642578125,-2.202174663543701,-1.8410654067993164,2.6167399883270264
1790163338935608600,7.001608642578125,-3.027912139892578,-2.007427215576172,3.516796827316284
1790163338945608700,7.011608642578125,-3.4399824142456055,-1.9520807266235352,4.080317974090576
1790163338955608600,7.021608642578125,-3.5658726692199707,-1.647049903869629,4.086771488189697
1790163338965608700,7.031608642578125,-3.39816951751709,-1.4454259872436523,3.6615772247314453
1790163338975608600,7.041608642578125,-3.0931739807128906,-1.4597482681274414,2.9015049934387207
1790163338985608700,7.051608642578125,-2.684208869934082,-1.7466850280761719,2.4765143394470215
1790163338995608600,7.061608642578125,-2.444035053253174,-2.146000862121582,2.6949124336242676
1790163339005608700,7.071608642578125,-2.8142476081848145,-2.457921028137207,2.9857170581817627
1790163339015608600,7.081608642578125,-2.9794015884399414,-2.53298282623291,3.3572335243225098
1790163339025608700,7.091608642578125,-2.9774527549743652,-2.657102108001709,3.8075578212738037
1790163339035608600,7.101608642578125,-3.0736451148986816,-2.9258995056152344,4.016958236694336
1790163339045608700,7.111608642578125,-2.6480908393859863,-3.2222843170166016,3.880312442779541
1790163339055608600,7.121608642578125,-1.855588436126709,-3.7424306869506836,3.803328275680542
1790163339065608700,7.131608642578125,-1.094050407409668,-4.1660919189453125,3.902818441390991
1790163339075608600,7.141608642578125,-0.7687182426452637,-4.169247627258301,3.375541925430298
1790163339085608700,7.151608642578125,-0.9685416221618652,-3.937563419342041,2.5587050914764404
1790163339095608600,7.161608642578125,-1.3457708358764648,-3.762022018432617,1.620581865310669
1790163339105608700,7.171608642578125,-1.403864860534668,-3.5157899856567383,1.1643180847167969
1790163339115608600,7.181608642578125,-1.1217784881591797,-3.205589771270752,1.0750017166137695
1790163339125608700,7.191608642578125,-0.5333132743835449,-3.1103219985961914,1.119776725769043
1790163339135608600,7.201608642578125,0.4582524299621582,-3.734562873840332,1.646402359008789
1790163339145608700,7.211608642578125,0.8484106063842773,-3.776663303375244,1.5469093322753906
1790163339155608600,7.221608642578125,0.41399431228637695,-2.947634696960449,0.2615966796875
1790163339165608700,7.231608642578125,-0.3769841194152832,-2.0849404335021973,-1.529825210571289
1790163339175608600,7.241608642578125,-0.3806285858154297,-1.7083024978637695,-2.631453514099121
1790163339185608700,7.251608642578125,0.4566826820373535,-1.820479393005371,-2.919560432434082
1790163339195608600,7.261608642578125,1.392251968383789,-1.912867546081543,-2.895775318145752
1790163339205608700,7.271608642578125,1.9355816841125488,-2.0610036849975586,-2.8054909706115723
1790163339215608600,7.281608642578125,2.2288804054260254,-2.2178008556365967,-2.8530170917510986
1790163339225608700,7.291608642578125,2.291238784790039,-2.1647307872772217,-3.1706767082214355
1790163339235608600,7.301608642578125,1.974684238433838,-1.9724647998809814,-3.2446165084838867
1790163339245608700,7.311608642578125,1.6264877319335938,-1.7704582214355469,-3.3543567657470703
1790163339255608600,7.321608642578125,1.5380029678344727,-1.5139415264129639,-3.0254998207092285
1790163339265608700,7.331608642578125,1.797539234161377,-1.3152427673339844,-2.9863035678863525
1790163339275608600,7.341608642578125,2.1170616149902344,-1.1418249607086182,-2.825788974761963
1790163339285608700,7.351608642578125,2.3219785690307617,-0.9125611782073975,-2.878288745880127
1790163339295608600,7.361608642578125,2.196275234222412,-0.6505012512207031,-2.6975975036621094
1790163339305608700,7.371608642578125,2.0252342224121094,-0.4556560516357422,-2.4971799850463867
1790163339315608600,7.381608642578125,1.8486976623535156,-0.31772303581237793,-1.8802061080932617
1790163339325608700,7.391608642578125,1.800154209136963,-0.25469911098480225,-1.4198179244995117
1790163339335608600,7.401608642578125,1.887463092803955,-0.1927558183670044,-1.543344497680664
1790163339345608700,7.411608642578125,2.1663389205932617,0.07473206520080566,-2.3609492778778076
1790163339355608600,7.421608642578125,2.2314605712890625,0.34034252166748047,-2.585573196411133
1790163339365608700,7.431608642578125,1.9702959060668945,0.6055817008018494,-2.7970473766326904
1790163339375608600,7.441608642578125,1.7907085418701172,0.8216999769210815,-2.9273409843444824
1790163339385608700,7.451608642578125,2.0652780532836914,1.0755506753921509,-2.8557746410369873
1790163339395608600,7.461608642578125,2.2271738052368164,1.3175907135009766,-2.597046375274658
1790163339405608700,7.471608642578125,2.1071434020996094,1.5404220819473267,-2.584230661392212
1790163339415608600,7.481608642578125,2.225497245788574,1.7311450242996216,-2.7382283210754395
1790163339425608700,7.491608642578125,2.5120468139648438,1.8115359544754028,-2.933833599090576
1790163339435608600,7.501608642578125,2.7786993980407715,1.7721350193023682,-3.4651131629943848
1790163339445608700,7.511608642578125,2.9527063369750977,1.788545846939087,-4.020556449890137
1790163339455608600,7.521608642578125,3.0117101669311523,1.7686083316802979,-4.355684280395508
1790163339465608700,7.531608642578125,3.004767417907715,1.7030410766601562,-4.562291622161865
1790163339475608600,7.541608642578125,2.991878032684326,1.6588268280029297,-4.782364845275879
1790163339485608700,7.551608642578125,2.860729217529297,1.5652520656585693,-4.771064758300781
1790163339495608600,7.561608642578125,2.7991390228271484,1.3372286558151245,-4.596837520599365
1790163339505608700,7.571608642578125,2.629061698913574,1.1420235633850098,-4.381153106689453
1790163339515608600,7.581608642578125,2.3844833374023438,1.035942554473877,-4.094610691070557
1790163339525608700,7.591608642578125,2.1008644104003906,1.0024170875549316,-3.788668394088745
1790163339535608600,7.601608642578125,1.9310965538024902,0.7876341342926025,-3.5238914489746094
1790163339545608700,7.611608642578125,1.6504082679748535,0.5174577832221985,-3.098679780960083
1790163339555608600,7.621608642578125,1.5273361206054688,0.24485355615615845,-2.691615104675293
1790163339565608700,7.631608642578125,1.7598075866699219,0.042112767696380615,-2.4054782390594482
1790163339575608600,7.641608642578125,1.7034692764282227,-0.10751783847808838,-2.147273063659668
1790163339585608700,7.651608642578125,0.8099145889282227,-0.3776034116744995,-2.0583043098449707
1790163339595608600,7.661608642578125,0.44913673400878906,-0.7850226163864136,-1.920630931854248
1790163339605608700,7.671608642578125,0.7536029815673828,-1.3374642133712769,-1.583512783050537
1790163339615608600,7.681608642578125,1.0720233917236328,-1.8825191259384155,-1.422905445098877
1790163339625608700,7.691608642578125,1.2913851737976074,-2.144676685333252,-1.3553886413574219
1790163339635608600,7.701608642578125,0.8443694114685059,-2.1163671016693115,-1.2550404071807861
1790163339645608700,7.711608642578125,0.20760679244995117,-1.8391406536102295,-1.4100909233093262
1790163339655608600,7.721608642578125,-0.02512836456298828,-1.5462918281555176,-1.6435813903808594
1790163339665608700,7.731608642578125,0.028041839599609375,-1.4824740886688232,-1.7013554573059082
1790163339675608600,7.741608642578125,0.2683749198913574,-1.556807279586792,-1.8079233169555664
1790163339685608700,7.751608642578125,0.210479736328125,-1.681757926940918,-1.7431225776672363
1790163339695608600,7.761608642578125,0.34626340866088867,-1.8515119552612305,-1.2871742248535156
1790163339705608700,7.771608642578125,0.8521480560302734,-2.015896797180176,-1.0316033363342285
1790163339715608600,7.781608642578125,0.7679448127746582,-2.100405216217041,-1.0088887214660645
1790163339725608700,7.791608642578125,0.21477746963500977,-1.9634966850280762,-1.0863769054412842
1790163339735608600,7.801608642578125,-0.06956291198730469,-1.7457714080810547,-1.2587676048278809
1790163339745608700,7.811608642578125,-0.16719627380371094,-1.5978779792785645,-1.2088875770568848
1790163339755608600,7.821608642578125,-0.21920299530029297,-1.6603174209594727,-0.7355589866638184
1790163339765608700,7.831608642578125,0.14192914962768555,-1.8899579048156738,-0.07701635360717773
1790163339775608600,7.841608642578125,0.6226019859313965,-2.1953988075256348,0.5646538734436035
1790163339785608700,7.851608642578125,1.0265116691589355,-2.291677951812744,1.0068669319152832
1790163339795608600,7.861608642578125,0.9535512924194336,-2.0125598907470703,0.660106897354126
1790163339805608700,7.871608642578125,0.6906499862670898,-1.7313446998596191,0.0771951675415039
1790163339815608600,7.881608642578125,0.6326050758361816,-1.6372709274291992,-0.24175596237182617
1790163339825608700,7.891608642578125,0.35843992233276367,-1.745737075805664,-0.27561497688293457
1790163339835608600,7.901608642578125,-0.4560084342956543,-1.9080071449279785,-0.14359307289123535
1790163339845608700,7.911608642578125,-1.0308265686035156,-1.8774495124816895,0.08391404151916504
1790163339855608600,7.921608642578125,-0.7539219856262207,-1.8146438598632812,0.4267458915710449
1790163339865608700,7.931608642578125,-0.5887050628662109,-2.0493345260620117,0.8495025634765625
1790163339875608600,7.941608642578125,-0.39870643615722656,-2.36421537399292,1.5478665828704834
1790163339885608700,7.951608642578125,-0.47324419021606445,-2.517336845397949,1.4779140949249268
1790163339895608600,7.961608642578125,-0.7853660583496094,-2.1950182914733887,1.783911943435669
1790163339905608700,7.971608642578125,-1.111854076385498,-1.851858139038086,1.8451645374298096
1790163339915608600,7.981608642578125,-1.3872108459472656,-1.6716256141662598,1.9998533725738525
1790163339925608700,7.991608642578125,-1.834477424621582,-1.8139996528625488,1.8699748516082764
1790163339935608600,8.001608642578125,-1.6625328063964844,-1.8699240684509277,2.360987663269043
1790163339945608700,8.011608642578125,-0.9792838096618652,-1.8507566452026367,2.8160266876220703
1790163339955608600,8.021608642578125,-0.7123427391052246,-1.9673523902893066,2.7934799194335938
1790163339965608700,8.031608642578124,-0.8292279243469238,-1.867034912109375,2.837066650390625
1790163339975608600,8.041608642578124,-1.1731328964233398,-1.393467903137207,2.9998092651367188
1790163339985608700,8.051608642578126,-1.4482440948486328,-1.1379761695861816,3.792320728302002
1790163339995608600,8.061608642578125,-1.6899909973144531,-1.0313806533813477,3.7499308586120605
1790163340005608700,8.071608642578125,-2.053434371948242,-0.8615274429321289,3.197265148162842
1790163340015608600,8.081608642578125,-2.197559356689453,-0.6473331451416016,3.2449822425842285
1790163340025608700,8.091608642578125,-2.0145859718322754,-0.4070396423339844,3.0730888843536377
1790163340035608600,8.101608642578125,-1.7465229034423828,-0.2931385040283203,2.982743740081787
1790163340045608700,8.111608642578124,-1.6684751510620117,-0.43661022186279297,3.4151318073272705
1790163340055608600,8.121608642578124,-1.873183250427246,-0.3885040283203125,3.3213400840759277
1790163340065608700,8.131608642578126,-2.109410285949707,-0.3462038040161133,3.183605909347534
1790163340075608600,8.141608642578126,-2.142411231994629,-0.23075389862060547,2.909708023071289
1790163340085608700,8.151608642578125,-2.030956745147705,-0.21143817901611328,2.9536991119384766
1790163340095608600,8.161608642578125,-1.8326454162597656,-0.1803731918334961,2.8170578479766846
1790163340105608700,8.171608642578125,-1.5890140533447266,-0.17841720581054688,2.6833791732788086
1790163340115608600,8.181608642578125,-1.5006427764892578,-0.1871938705444336,2.7043957710266113
1790163340125608700,8.191608642578124,-1.6508879661560059,-0.21828079223632812,2.7122695446014404
1790163340135608600,8.201608642578124,-1.95306396484375,-0.2986259460449219,2.7266101837158203
1790163340145608700,8.211608642578126,-2.1893157958984375,-0.41974639892578125,2.7031140327453613
1790163340155608600,8.221608642578126,-2.1643929481506348,-0.6031703948974609,2.6091067790985107
1790163340165608700,8.231608642578125,-1.7879424095153809,-0.8048067092895508,2.3487746715545654
1790163340175608600,8.241608642578125,-1.2996501922607422,-1.0606775283813477,2.004556179046631
1790163340185608700,8.251608642578125,-1.210646629333496,-1.2811660766601562,1.7092299461364746
1790163340195608600,8.261608642578125,-1.3937349319458008,-1.412245273590088,1.5712502002716064
1790163340205608700,8.271608642578125,-1.532461166381836,-1.5870227813720703,1.7079005241394043
1790163340215608600,8.281608642578124,-1.6837167739868164,-1.8635973930358887,1.9950919151306152
1790163340225608700,8.291608642578124,-1.8659477233886719,-2.1253437995910645,2.112563371658325
1790163340235608600,8.301608642578126,-1.8041658401489258,-2.2913565635681152,2.09724760055542
1790163340245608700,8.311608642578125,-1.5491399765014648,-2.4643702507019043,2.1239867210388184
1790163340255608600,8.321608642578125,-1.116532802581787,-2.594973564147949,1.906935691833496
1790163340265608700,8.331608642578125,-1.0615572929382324,-2.6867494583129883,1.6789650917053223
1790163340275608600,8.341608642578125,-1.0686779022216797,-2.644716262817383,1.3868820667266846
1790163340285608700,8.351608642578125,-1.2131061553955078,-2.544339179992676,1.25471830368042
1790163340295608600,8.361608642578124,-1.6620135307312012,-2.542034149169922,1.079240083694458
1790163340305608700,8.371608642578124,-1.8399171829223633,-2.6523962020874023,0.8715701103210449
1790163340315608600,8.381608642578126,-1.6778721809387207,-2.8826513290405273,0.9141485691070557
1790163340325608700,8.391608642578126,-1.3513383865356445,-3.123776435852051,1.0764715671539307
1790163340335608600,8.401608642578125,-0.8291749954223633,-3.2669053077697754,0.8000812530517578
1790163340345608700,8.411608642578125,-0.43080568313598633,-3.3905787467956543,0.216339111328125
1790163340355608600,8.421608642578125,0.12964105606079102,-3.458202838897705,-0.13666868209838867
1790163340365608700,8.431608642578125,0.49339866638183594,-3.4696807861328125,-0.522697925567627
1790163340375608600,8.441608642578124,0.4409170150756836,-3.1732254028320312,-1.1822521686553955
1790163340385608700,8.451608642578124,0.2842526435852051,-2.7561349868774414,-1.8106045722961426
1790163340395608600,8.461608642578126,0.3681631088256836,-2.3744711875915527,-2.002267360687256
1790163340405608700,8.471608642578126,0.5510740280151367,-2.0310463905334473,-1.9505376815795898
1790163340415608600,8.481608642578125,0.9783644676208496,-1.7606720924377441,-2.207113265991211
1790163340425608700,8.491608642578125,1.1599845886230469,-1.5024104118347168,-2.5852303504943848
1790163340435608600,8.501608642578125,1.1283483505249023,-1.3506252765655518,-2.6930480003356934
1790163340445608700,8.511608642578125,1.0437908172607422,-1.23482346534729,-2.26556396484375
1790163340455608600,8.521608642578125,1.208420753479004,-1.2040681838989258,-1.5258748531341553
1790163340465608700,8.531608642578124,1.4614167213439941,-1.2560961246490479,-1.1085214614868164
1790163340475608600,8.541608642578124,1.6867427825927734,-1.3110275268554688,-1.1412968635559082
1790163340485608700,8.551608642578126,1.7357215881347656,-1.2649867534637451,-1.2585678100585938
1790163340495608600,8.561608642578125,1.7984232902526855,-1.1848866939544678,-1.345571517944336
1790163340505608700,8.571608642578125,2.0528125762939453,-1.0837279558181763,-1.1567792892456055
1790163340515608600,8.581608642578125,2.1199169158935547,-1.1636937856674194,-0.8848280906677246
1790163340525608700,8.591608642578125,1.7839007377624512,-1.1995532512664795,-0.8135619163513184
1790163340535608600,8.601608642578125,1.6466498374938965,-0.9958113431930542,-1.0660204887390137
1790163340545608700,8.611608642578124,1.5330500602722168,-0.7341631650924683,-1.602309226989746
1790163340555608600,8.621608642578124,1.7150940895080566,-0.41891682147979736,-1.9941074848175049
1790163340565608700,8.631608642578126,1.865211009979248,-0.08457034826278687,-2.268123149871826
1790163340575608600,8.641608642578126,1.7361254692077637,0.20838749408721924,-2.1495823860168457
1790163340585608700,8.651608642578125,1.8123688697814941,0.38623565435409546,-1.8462352752685547
1790163340595608600,8.661608642578125,1.9860591888427734,0.3478415012359619,-1.7953734397888184
1790163340605608700,8.671608642578125,2.3638734817504883,0.19607889652252197,-2.2876996994018555
1790163340615608600,8.681608642578125,2.622325897216797,0.11654508113861084,-3.025460720062256
1790163340625608700,8.691608642578124,2.5904555320739746,0.3250192403793335,-3.7547924518585205
1790163340635608600,8.701608642578124,2.6278247833251953,0.43773528933525085,-3.914830446243286
1790163340645608700,8.711608642578126,2.6829257011413574,0.6468381881713867,-4.106348514556885
1790163340655608600,8.721608642578126,2.726193428039551,0.8685714602470398,-4.237377643585205
1790163340665608700,8.731608642578125,2.8187255859375,1.1236287355422974,-4.294167518615723
1790163340675608600,8.741608642578125,2.8344106674194336,1.4273483753204346,-4.547618389129639
1790163340685608700,8.751608642578125,2.860018730163574,1.7191582918167114,-4.612003326416016
1790163340695608600,8.761608642578125,2.974201202392578,1.9757980108261108,-4.539337158203125
1790163340705608700,8.771608642578125,3.0850181579589844,2.0857701301574707,-4.590524673461914
1790163340715608600,8.781608642578124,3.253854274749756,2.1079537868499756,-4.633898735046387
1790163340725608700,8.791608642578124,3.0428576469421387,2.0655417442321777,-4.53842830657959
1790163340735608600,8.801608642578126,2.6301450729370117,1.9418373107910156,-4.325927734375
1790163340745608700,8.811608642578125,2.294163227081299,1.8224456310272217,-4.026508331298828
1790163340755608600,8.821608642578125,2.177164077758789,1.6675103902816772,-3.628058910369873
1790163340765608700,8.831608642578125,2.066315174102783,1.3483548164367676,-3.209354877471924
1790163340775608600,8.841608642578125,1.9629111289978027,0.9493061304092407,-2.8408541679382324
1790163340785608700,8.851608642578125,1.8414030075073242,0.6716943979263306,-2.645394802093506
1790163340795608600,8.861608642578124,1.7130661010742188,0.4798092842102051,-2.6010820865631104
1790163340805608700,8.871608642578124,1.5201597213745117,0.29094284772872925,-2.56843638420105
1790163340815608600,8.881608642578126,1.267566204071045,-0.028853416442871094,-2.189610004425049
1790163340825608700,8.891608642578126,0.9039154052734375,-0.26809072494506836,-1.6066179275512695
1790163340835608600,8.901608642578125,0.6612868309020996,-0.3601341247558594,-1.2656350135803223
1790163340845608700,8.911608642578125,0.5454401969909668,-0.3926295042037964,-1.2272791862487793
1790163340855608600,8.921608642578125,0.5153465270996094,-0.5118275880813599,-1.4974770545959473
1790163340865608700,8.931608642578125,0.5849246978759766,-0.6922652721405029,-2.088104724884033
1790163340875608600,8.941608642578124,0.8500432968139648,-0.7688852548599243,-2.603781223297119
1790163340885608700,8.951608642578124,0.7620849609375,-0.8655784130096436,-2.739624500274658
1790163340895608600,8.961608642578126,0.35925817489624023,-1.0094616413116455,-2.4646172523498535
1790163340905608700,8.971608642578126,0.09856128692626953,-1.1811528205871582,-1.6279373168945312
1790163340915608600,8.981608642578125,0.2540874481201172,-1.3301310539245605,-0.828620433807373
1790163340925608700,8.991608642578125,0.4297933578491211,-1.3651697635650635,-0.46364736557006836
1790163340935608600,9.001608642578125,0.4633188247680664,-1.2382218837738037,-0.38469886779785156
1790163340945608700,9.011608642578125,0.6720967292785645,-1.3211824893951416,-0.7088079452514648
1790163340955608600,9.021608642578125,0.9981493949890137,-1.5220413208007812,-1.5140495300292969
1790163340965608700,9.031608642578124,0.8618440628051758,-1.8337278366088867,-2.291018009185791
1790163340975608600,9.041608642578124,0.05239725112915039,-2.185612678527832,-2.322683095932007
1790163340985608700,9.051608642578126,-0.24100303649902344,-2.6780738830566406,-1.4483928680419922
1790163340995608600,9.061608642578125,-0.03329896926879883,-3.1553564071655273,-0.05069160461425781
1790163341005608700,9.071608642578125,0.34286975860595703,-3.516005039215088,1.1422343254089355
1790163341015608600,9.081608642578125,0.3995804786682129,-3.5589985847473145,1.9467673301696777
1790163341025608700,9.091608642578125,0.41114044189453125,-3.3968968391418457,2.0048208236694336
1790163341035608600,9.101608642578125,0.2788724899291992,-3.0774455070495605,1.2719364166259766
1790163341045608700,9.111608642578124,-0.533538818359375,-2.6419496536254883,0.07458114624023438
1790163341055608600,9.121608642578124,-1.5331201553344727,-2.4741902351379395,-1.4453201293945312
1790163341065608700,9.131608642578126,-2.2002182006835938,-2.449347972869873,-1.5321435928344727
1790163341075608600,9.141608642578126,-1.5683650970458984,-2.7897086143493652,-0.33391380310058594
1790163341085608700,9.151608642578125,-0.47757673263549805,-3.1596665382385254,1.0480866432189941
1790163341095608600,9.161608642578125,0.45169639587402344,-3.337820053100586,2.2300288677215576
1790163341105608700,9.171608642578125,0.21674203872680664,-2.970432758331299,2.811093330383301
1790163341115608600,9.181608642578125,-0.8009738922119141,-2.2886037826538086,2.586989641189575
1790163341125608700,9.191608642578124,-1.6943960189819336,-1.6437397003173828,2.0896599292755127
1790163341135608600,9.201608642578124,-2.383796215057373,-1.2860069274902344,1.7604179382324219
1790163341145608700,9.211608642578126,-2.905087471008301,-1.1011648178100586,1.4832098484039307
1790163341155608600,9.221608642578126,-2.8187904357910156,-0.9603548049926758,1.4774854183197021
1790163341165608700,9.231608642578125,-1.690248966217041,-1.0796661376953125,1.967609167098999
1790163341175608600,9.241608642578125,-0.5910015106201172,-1.4237723350524902,2.3870155811309814
1790163341185608700,9.251608642578125,0.01026773452758789,-1.5422749519348145,2.6392223834991455
1790163341195608600,9.261608642578125,0.2072310447692871,-1.358530044555664,3.113525867462158
1790163341205608700,9.271608642578125,-0.29255008697509766,-1.153348445892334,3.65116024017334
1790163341215608600,9.281608642578124,-1.2781486511230469,-1.03163480758667,4.195472717285156
1790163341225608700,9.291608642578124,-2.0733251571655273,-0.7424607276916504,4.282140731811523
1790163341235608600,9.301608642578126,-2.4460997581481934,-0.48080015182495117,4.070213317871094
1790163341245608700,9.311608642578125,-2.361417293548584,-0.44864940643310547,3.636568546295166
1790163341255608600,9.321608642578125,-1.874039649963379,-0.5746021270751953,3.0405030250549316
1790163341265608700,9.331608642578125,-1.281449794769287,-0.7015323638916016,2.437716007232666
1790163341275608600,9.341608642578125,-0.9260716438293457,-0.7452163696289062,2.3209128379821777
1790163341285608700,9.351608642578125,-1.094916820526123,-0.6786365509033203,2.71461820602417
1790163341295608600,9.361608642578124,-1.6550965309143066,-0.5610647201538086,3.0256333351135254
1790163341305608700,9.371608642578124,-2.05886173248291,-0.40854549407958984,3.1493141651153564
1790163341315608600,9.381608642578126,-2.226480484008789,-0.2352142333984375,3.2061076164245605
1790163341325608700,9.391608642578126,-2.158059597015381,-0.147064208984375,3.2506752014160156
1790163341335608600,9.401608642578125,-2.021519660949707,-0.14509010314941406,3.061089038848877
1790163341345608700,9.411608642578125,-1.863924503326416,-0.15884971618652344,2.6541805267333984
1790163341355608600,9.421608642578125,-1.721756935119629,-0.21141862869262695,2.369325876235962
1790163341365608700,9.431608642578125,-1.5911273956298828,-0.31995201110839844,2.3286643028259277
1790163341375608600,9.441608642578124,-1.6085548400878906,-0.4784669876098633,2.388239622116089
1790163341385608700,9.451608642578124,-1.6701440811157227,-0.6320023536682129,2.518237352371216
1790163341395608600,9.461608642578126,-1.5308303833007812,-0.9013576507568359,2.8929407596588135
1790163341405608700,9.471608642578126,-1.4704699516296387,-1.2524304389953613,3.3264763355255127
1790163341415608600,9.481608642578125,-1.4265642166137695,-1.5358567237854004,3.3777198791503906
1790163341425608700,9.491608642578125,-1.2991089820861816,-1.713951587677002,2.838751792907715
1790163341435608600,9.501608642578125,-1.2195758819580078,-1.9013586044311523,2.1585886478424072
1790163341445608700,9.511608642578125,-1.077092170715332,-2.1631646156311035,1.8782873153686523
1790163341455608600,9.521608642578125,-0.8534379005432129,-2.430020332336426,2.0890603065490723
1790163341465608700,9.531608642578124,-0.7144484519958496,-2.6275668144226074,2.4179904460906982
1790163341475608600,9.541608642578124,-0.6666450500488281,-2.6294379234313965,2.5007574558258057
1790163341485608700,9.551608642578126,-0.7672901153564453,-2.467541217803955,2.2426607608795166
1790163341495608600,9.561608642578125,-0.624718189239502,-2.2900590896606445,1.9646344184875488
1790163341505608700,9.571608642578125,-0.2688565254211426,-2.1698527336120605,1.501680850982666
1790163341515608600,9.581608642578125,0.09659147262573242,-2.1848344802856445,1.2634105682373047
1790163341525608700,9.591608642578125,0.2383737564086914,-2.3332762718200684,1.0700349807739258
1790163341535608600,9.601608642578125,0.3645939826965332,-2.45855712890625,0.5949125289916992
1790163341545608700,9.611608642578124,0.44550371170043945,-2.4126157760620117,0.2064352035522461
1790163341555608600,9.621608642578124,0.5283412933349609,-2.1969733238220215,-0.11948013305664062
1790163341565608700,9.631608642578126,0.6345739364624023,-1.9381771087646484,-0.5392580032348633
1790163341575608600,9.641608642578126,0.7929368019104004,-1.757188320159912,-0.8874359130859375
1790163341585608700,9.651608642578125,0.9611120223999023,-1.636056900024414,-1.0256943702697754
1790163341595608600,9.661608642578125,1.015657901763916,-1.454103946685791,-1.2101993560791016
1790163341605608700,9.671608642578125,0.9211506843566895,-1.33760404586792,-1.4944801330566406
1790163341615608600,9.681608642578125,0.943169116973877,-1.4390869140625,-1.6822481155395508
1790163341625608700,9.691608642578124,1.0610613822937012,-1.5685958862304688,-1.738621711730957
1790163341635608600,9.701608642578124,1.167006015777588,-1.5578060150146484,-1.8756465911865234
1790163341645608700,9.711608642578126,0.9271025657653809,-1.4016551971435547,-2.207249879837036
1790163341655608600,9.721608642578126,0.6761355400085449,-1.2227401733398438,-2.4462568759918213
1790163341665608700,9.731608642578125,0.3789362907409668,-1.2096977233886719,-2.584176778793335
1790163341675608600,9.741608642578125,0.2338852882385254,-1.3145983219146729,-2.5771727561950684
1790163341685608700,9.751608642578125,0.3336458206176758,-1.3445441722869873,-2.4585838317871094
1790163341695608600,9.761608642578125,0.3803443908691406,-1.3268532752990723,-2.2263412475585938
1790163341705608700,9.771608642578125,0.3987541198730469,-1.2907745838165283,-2.1575465202331543
1790163341715608600,9.781608642578124,0.5290589332580566,-1.2358388900756836,-2.325711488723755
1790163341725608700,9.791608642578124,0.4703693389892578,-1.227020263671875,-2.598195791244507
1790163341735608600,9.801608642578126,0.0034999847412109375,-1.2489666938781738,-2.6385445594787598
1790163341745608700,9.811608642578125,-0.15607595443725586,-1.1867320537567139,-2.466829776763916
1790163341755608600,9.821608642578125,0.16525697708129883,-0.9910366535186768,-2.4813902378082275
1790163341765608700,9.831608642578125,0.5517711639404297,-0.7858912944793701,-2.3029046058654785
1790163341775608600,9.841608642578125,0.7202634811401367,-0.7105534076690674,-1.9808073043823242
1790163341785608700,9.851608642578125,0.7666735649108887,-0.6612991094589233,-1.9845843315124512
1790163341795608600,9.861608642578124,0.8467912673950195,-0.49006617069244385,-2.339021682739258
1790163341805608700,9.871608642578124,1.1809301376342773,-0.2635776996612549,-2.741894483566284
1790163341815608600,9.881608642578126,1.4966564178466797,-0.05403625965118408,-2.8448543548583984
1790163341825608700,9.891608642578126,1.4661693572998047,0.08423304557800293,-2.544365644454956
1790163341835608600,9.901608642578125,1.0604586601257324,0.20191800594329834,-2.2501683235168457
1790163341845608700,9.911608642578125,0.7655487060546875,0.3324388861656189,-2.2989377975463867
1790163341855608600,9.921608642578125,0.9323697090148926,0.43736767768859863,-2.348726987838745
1790163341865608700,9.931608642578125,1.6200013160705566,0.5508148074150085,-2.549966335296631
1790163341875608600,9.941608642578124,2.421548366546631,0.6760286092758179,-2.827578067779541
1790163341885608700,9.951608642578124,3.4907097816467285,0.9083916544914246,-2.864867687225342
1790163341895608600,9.961608642578126,3.9928393363952637,1.1740319728851318,-3.2383248805999756
1790163341905608700,9.971608642578126,3.237030029296875,1.3423142433166504,-3.417187213897705
1790163341915608600,9.981608642578125,2.1794233322143555,1.4376126527786255,-3.5717897415161133
1790163341925608700,9.991608642578125,1.4270753860473633,1.4291012287139893,-3.7474851608276367
1790163341935608600,10.001608642578125,1.7211270332336426,1.141419529914856,-3.9214980602264404
1790163341945608700,10.011608642578125,2.411673069000244,0.9741484522819519,-3.979644298553467
1790163341955608600,10.021608642578125,2.631836414337158,1.0016257762908936,-4.038479804992676
1790163341965608700,10.031608642578124,1.9860167503356934,0.8208058476448059,-3.8727195262908936
1790163341975608600,10.041608642578124,1.0612740516662598,0.5528274774551392,-3.3740530014038086
1790163341985608700,10.051608642578126,0.6083793640136719,0.33841419219970703,-2.8513808250427246
1790163341995608600,10.061608642578125,0.7387738227844238,0.08946144580841064,-2.5257344245910645
1790163342005608700,10.071608642578125,1.2272377014160156,-0.1349095106124878,-2.288811683654785
1790163342015608600,10.081608642578125,1.5344314575195312,-0.3377854824066162,-2.0706429481506348
1790163342025608700,10.091608642578125,1.5200328826904297,-0.5152947902679443,-1.92812180519104
1790163342035608600,10.101608642578125,1.2817678451538086,-0.5914316177368164,-2.050015449523926
1790163342045608700,10.111608642578124,0.9756741523742676,-0.6415150165557861,-2.3644206523895264
1790163342055608600,10.121608642578124,0.8426084518432617,-0.7009296417236328,-2.2438507080078125
1790163342065608700,10.131608642578126,0.8740086555480957,-0.865328311920166,-1.848376750946045
1790163342075608600,10.141608642578126,1.2195801734924316,-1.0150961875915527,-1.4995851516723633
1790163342085608700,10.151608642578125,1.5109519958496094,-0.977349042892456,-1.2977633476257324
1790163342095608600,10.161608642578125,1.6951508522033691,-0.7870090007781982,-1.3645310401916504
1790163342105608700,10.171608642578125,1.5910730361938477,-0.44725918769836426,-1.5932693481445312
1790163342115608600,10.181608642578125,1.38983154296875,-0.08981037139892578,-1.987022876739502
1790163342125608700,10.191608642578124,0.8497881889343262,-0.010369300842285156,-1.8009846210479736
1790163342135608600,10.201608642578124,0.5569663047790527,-0.3765537738800049,-0.9621610641479492
1790163342145608700,10.211608642578126,0.695711612701416,-0.8269271850585938,0.13400506973266602
1790163342155608600,10.221608642578126,0.8923578262329102,-1.1679468154907227,0.7737975120544434
1790163342165608700,10.231608642578125,0.9030427932739258,-1.2922024726867676,0.8305730819702148
1790163342175608600,10.241608642578125,0.8184514045715332,-1.076683521270752,0.37356090545654297
1790163342185608700,10.251608642578125,0.6138749122619629,-0.7037367820739746,-0.3700089454650879
1790163342195608600,10.261608642578125,0.2068920135498047,-0.4810609817504883,-1.1031198501586914
1790163342205608700,10.271608642578125,-0.003906726837158203,-0.7960138320922852,-1.2895667552947998
1790163342215608600,10.281608642578124,-0.32999229431152344,-1.6009306907653809,-1.010190725326538
1790163342225608700,10.291608642578124,-0.43222713470458984,-2.361849784851074,-0.4266505241394043
1790163342235608600,10.301608642578126,-0.3930978775024414,-2.549156665802002,0.18581533432006836
1790163342245608700,10.311608642578125,-0.3024301528930664,-2.502967357635498,0.525421142578125
1790163342255608600,10.321608642578125,-0.1861863136291504,-2.447503089904785,0.655789852142334
1790163342265608700,10.331608642578125,-0.373598575592041,-2.2552051544189453,0.5802597999572754
1790163342275608600,10.341608642578125,-0.6961708068847656,-1.952578067779541,0.41495847702026367
1790163342285608700,10.351608642578125,-0.8442950248718262,-1.645205020904541,0.34099674224853516
1790163342295608600,10.361608642578124,-0.8114652633666992,-1.5088725090026855,0.5026333332061768
1790163342305608700,10.371608642578124,-0.5519180297851562,-1.6787958145141602,1.2072536945343018
1790163342315608600,10.381608642578126,-0.6500654220581055,-2.0378007888793945,1.8675498962402344
1790163342325608700,10.391608642578126,-0.9979867935180664,-2.180361270904541,2.4754445552825928
1790163342335608600,10.401608642578125,-1.3342370986938477,-1.9238648414611816,2.4390673637390137
1790163342345608700,10.411608642578125,-1.5121893882751465,-1.6485652923583984,2.149027109146118
1790163342355608600,10.421608642578125,-1.5106663703918457,-1.3416972160339355,1.8563604354858398
1790163342365608700,10.431608642578125,-1.4091382026672363,-1.0424327850341797,1.706263542175293
1790163342375608600,10.441608642578124,-1.2908339500427246,-1.0198650360107422,1.6276235580444336
1790163342385608700,10.451608642578124,-1.0989141464233398,-1.3713464736938477,2.2374322414398193
1790163342395608600,10.461608642578126,-0.6652989387512207,-1.8806147575378418,3.303828239440918
1790163342405608700,10.471608642578126,-0.27813100814819336,-2.189418315887451,4.183628082275391
1790163342415608600,10.481608642578125,-0.3993382453918457,-1.927734375,4.13784646987915
1790163342425608700,10.491608642578125,-0.9076929092407227,-1.3395366668701172,3.7803401947021484
1790163342435608600,10.501608642578125,-1.344381332397461,-0.8108434677124023,3.5304903984069824
1790163342445608700,10.511608642578125,-1.6590757369995117,-0.5029678344726562,3.4122490882873535
1790163342455608600,10.521608642578125,-1.788039207458496,-0.45801734924316406,3.1993703842163086
1790163342465608700,10.531608642578124,-1.7762951850891113,-0.4620981216430664,3.058587074279785
1790163342475608600,10.541608642578124,-1.7136669158935547,-0.5939760208129883,3.0295181274414062
1790163342485608700,10.551608642578126,-1.5918617248535156,-0.719334602355957,3.0624842643737793
1790163342495608600,10.561608642578125,-1.5922155380249023,-0.7023153305053711,3.1167960166931152
1790163342505608700,10.571608642578125,-1.8461885452270508,-0.5521945953369141,3.2192869186401367
1790163342515608600,10.581608642578125,-2.215599536895752,-0.35779571533203125,3.3766567707061768
1790163342525608700,10.591608642578125,-2.4336977005004883,-0.2536430358886719,3.4310362339019775
1790163342535608600,10.601608642578125,-2.492318630218506,-0.3571767807006836,3.3900094032287598
1790163342545608700,10.611608642578124,-2.502598285675049,-0.5970497131347656,3.2882676124572754
1790163342555608600,10.621608642578124,-2.643472671508789,-0.7829742431640625,3.054744005203247
1790163342565608700,10.631608642578126,-2.893068313598633,-1.0083236694335938,2.933781862258911
1790163342575608600,10.641608642578126,-2.9176225662231445,-1.2360916137695312,2.892155408859253
1790163342585608700,10.651608642578125,-2.6943368911743164,-1.5103349685668945,2.9252116680145264
1790163342595608600,10.661608642578125,-2.4621872901916504,-1.8229308128356934,2.950632333755493
1790163342605608700,10.671608642578125,-2.328767776489258,-2.219557285308838,3.0761237144470215
1790163342615608600,10.681608642578125,-2.069685935974121,-2.610931873321533,3.3343231678009033
1790163342625608700,10.691608642578124,-1.7384963035583496,-2.8688488006591797,3.5321977138519287
1790163342635608600,10.701608642578124,-1.2794384956359863,-3.090122699737549,3.543793201446533
1790163342645608700,10.711608642578126,-0.808525562286377,-3.367428779602051,3.5017287731170654
1790163342655608600,10.721608642578126,-0.637627124786377,-3.544642925262451,3.458522319793701
1790163342665608700,10.731608642578125,-0.8263020515441895,-3.422858715057373,2.9825806617736816
1790163342675608600,10.741608642578125,-1.010087013244629,-3.122199058532715,2.24021577835083
1790163342685608700,10.751608642578125,-0.7356400489807129,-2.844428062438965,1.5735411643981934
1790163342695608600,10.761608642578125,-0.18446683883666992,-2.702026844024658,1.0613703727722168
1790163342705608700,10.771608642578125,0.3460416793823242,-2.59915828704834,0.8147420883178711
1790163342715608600,10.781608642578124,0.8024015426635742,-2.4647340774536133,0.7013993263244629
1790163342725608700,10.791608642578124,1.2050809860229492,-2.330369472503662,0.552070140838623
1790163342735608600,10.801608642578126,1.5599231719970703,-2.278904438018799,0.3490309715270996
1790163342745608700,10.811608642578125,1.9573941230773926,-2.2749624252319336,0.13565587997436523
1790163342755608600,10.821608642578125,2.136821746826172,-2.162586212158203,-0.3193211555480957
1790163342765608700,10.831608642578125,2.228095054626465,-1.8770480155944824,-1.0746173858642578
1790163342775608600,10.841608642578125,2.149540901184082,-1.504371166229248,-1.7199516296386719
1790163342785608700,10.851608642578125,1.8558778762817383,-1.2504878044128418,-1.857492446899414
1790163342795608600,10.861608642578124,1.5965619087219238,-1.104227066040039,-1.805999755859375
1790163342805608700,10.871608642578124,1.2054271697998047,-1.0260810852050781,-1.710618019104004
1790163342815608600,10.881608642578126,0.8549613952636719,-1.0490620136260986,-1.8086786270141602
1790163342825608700,10.891608642578126,0.7395310401916504,-1.1667389869689941,-2.1473946571350098
1790163342835608600,10.901608642578125,0.7821211814880371,-1.1806321144104004,-2.5391011238098145
1790163342845608700,10.911608642578125,0.7836027145385742,-1.082188367843628,-2.5003063678741455
1790163342855608600,10.921608642578125,0.6365647315979004,-1.094655990600586,-1.9915471076965332
1790163342865608700,10.931608642578125,0.371060848236084,-1.1428687572479248,-1.4844493865966797
1790163342875608600,10.941608642578124,0.2694516181945801,-1.2044346332550049,-1.521745204925537
1790163342885608700,10.951608642578124,0.47232675552368164,-1.294201374053955,-1.9641456604003906
1790163342895608600,10.961608642578126,0.7081294059753418,-1.3529263734817505,-2.4813151359558105
1790163342905608700,10.971608642578126,0.9588565826416016,-1.376686453819275,-3.042569875717163
1790163342915608600,10.981608642578125,1.0249876976013184,-1.3411955833435059,-3.167116641998291
1790163342925608700,10.991608642578125,1.0799975395202637,-1.270134687423706,-2.873713970184326
1790163342935608600,11.001608642578125,1.178145408630371,-1.1502768993377686,-2.3207693099975586
1790163342945608700,11.011608642578125,0.9471430778503418,-0.961974024772644,-1.9664244651794434
1790163342955608600,11.021608642578125,0.8933539390563965,-0.6373077630996704,-2.180967330932617
1790163342965608700,11.031608642578124,1.1351590156555176,-0.3620646595954895,-2.5071139335632324
1790163342975608600,11.041608642578124,1.3963656425476074,-0.17658531665802002,-2.6894826889038086
1790163342985608700,11.051608642578126,1.7503957748413086,-0.06414884328842163,-2.905247211456299
1790163342995608600,11.061608642578125,2.056769371032715,0.031121432781219482,-2.9473257064819336
1790163343005608700,11.071608642578125,2.045078754425049,0.18795666098594666,-3.1323320865631104
1790163343015608600,11.081608642578125,2.0104870796203613,0.3750779628753662,-3.3581960201263428
1790163343025608700,11.091608642578125,2.103929042816162,0.5324235558509827,-3.488964080810547
1790163343035608600,11.101608642578125,2.3230485916137695,0.7315006256103516,-3.685853958129883
1790163343045608700,11.111608642578124,2.5875496864318848,1.0482232570648193,-3.7481577396392822
1790163343055608600,11.121608642578124,2.839855670928955,1.2146484851837158,-3.7257578372955322
1790163343065608700,11.131608642578126,3.019984245300293,1.3349432945251465,-3.815413475036621
1790163343075608600,11.141608642578126,3.0438742637634277,1.472949743270874,-4.185457229614258
1790163343085608700,11.151608642578125,2.929810047149658,1.6099748611450195,-4.595882415771484
1790163343095608600,11.161608642578125,2.677602767944336,1.7189356088638306,-4.866123199462891
1790163343105608700,11.171608642578125,2.3752923011779785,1.875027060508728,-4.9572062492370605
1790163343115608600,11.181608642578125,2.2519001960754395,1.8395116329193115,-4.89496374130249
1790163343125608700,11.191608642578124,2.2632851600646973,1.6446536779403687,-4.583118915557861
1790163343135608600,11.201608642578124,2.157214641571045,1.4727369546890259,-4.178220272064209
1790163343145608700,11.211608642578126,1.7800540924072266,1.314055323600769,-3.6675214767456055
1790163343155608600,11.221608642578126,1.563796043395996,1.1061726808547974,-3.2424798011779785
1790163343165608700,11.231608642578125,1.0551319122314453,0.9656468629837036,-2.9600138664245605
1790163343175608600,11.241608642578125,0.5458698272705078,0.8305343985557556,-2.7498786449432373
1790163343185608700,11.251608642578125,0.5165219306945801,0.7428776025772095,-2.7847349643707275
1790163343195608600,11.261608642578125,0.8515353202819824,0.5711135864257812,-3.105706214904785
1790163343205608700,11.271608642578125,1.0752105712890625,0.08801734447479248,-3.224886178970337
1790163343215608600,11.281608642578124,0.9495630264282227,-0.7450145483016968,-2.581662178039551
1790163343225608700,11.291608642578124,0.8086943626403809,-1.3816132545471191,-1.9092965126037598
1790163343235608600,11.301608642578126,0.6963419914245605,-1.7026116847991943,-1.5145888328552246
1790163343245608700,11.311608642578125,0.42023324966430664,-1.8898476362228394,-1.2600975036621094
1790163343255608600,11.321608642578125,0.010702133178710938,-1.8370251655578613,-1.2579736709594727
1790163343265608700,11.331608642578125,-0.6987700462341309,-1.556838035583496,-1.3030304908752441
1790163343275608600,11.341608642578125,-1.1924629211425781,-1.3106801509857178,-1.6389617919921875
1790163343285608700,11.351608642578125,-0.6014618873596191,-1.4873771667480469,-1.558485507965088
1790163343295608600,11.361608642578124,0.4585914611816406,-1.8755531311035156,-0.8145956993103027
1790163343305608700,11.371608642578124,1.0308737754821777,-2.168111562728882,-0.41544151306152344
1790163343315608600,11.381608642578126,1.065464973449707,-2.0681779384613037,-0.08688783645629883
1790163343325608700,11.391608642578126,1.03334379196167,-1.99845290184021,0.2592902183532715
1790163343335608600,11.401608642578125,0.9772286415100098,-1.9504354000091553,0.4607234001159668
1790163343345608700,11.411608642578125,0.7822756767272949,-1.7339227199554443,0.3378944396972656
1790163343355608600,11.421608642578125,0.2560882568359375,-1.277834415435791,-0.28942012786865234
1790163343365608700,11.431608642578125,-0.1629180908203125,-0.7621641159057617,-1.3558273315429688
1790163343375608600,11.441608642578124,-0.27008533477783203,-0.45776987075805664,-1.8995716571807861
1790163343385608700,11.451608642578124,0.27390527725219727,-0.6054582595825195,-1.431183099746704
1790163343395608600,11.461608642578126,1.1011710166931152,-1.266726016998291,-0.5759320259094238
1790163343405608700,11.471608642578126,1.32122802734375,-2.072511672973633,0.38382434844970703
1790163343415608600,11.481608642578125,1.4117178916931152,-2.573580741882324,1.4282565116882324
1790163343425608700,11.491608642578125,1.4137802124023438,-2.6588211059570312,1.7305707931518555
1790163343435608600,11.501608642578125,1.1388659477233887,-2.3220291137695312,1.1987204551696777
1790163343445608700,11.511608642578125,0.7097058296203613,-2.0094714164733887,0.4401884078979492
1790163343455608600,11.521608642578125,0.34097766876220703,-1.8978443145751953,0.054364681243896484
1790163343465608700,11.531608642578124,-0.4781198501586914,-1.942692756652832,-0.12030577659606934
1790163343475608600,11.541608642578124,-1.5638160705566406,-2.046029567718506,-0.18705272674560547
1790163343485608700,11.551608642578126,-1.4377326965332031,-2.233882427215576,0.38640689849853516
1790163343495608600,11.561608642578125,-1.0277457237243652,-2.586425304412842,1.2036399841308594
1790163343505608700,11.571608642578125,-0.9688606262207031,-2.7629947662353516,1.6104824542999268
1790163343515608600,11.581608642578125,-0.8835668563842773,-2.619521141052246,1.717761516571045
1790163343525608700,11.591608642578125,-0.7850146293640137,-2.4408740997314453,1.547060251235962
1790163343535608600,11.601608642578125,-0.7941427230834961,-2.253917694091797,1.3645970821380615
1790163343545608700,11.611608642578124,-0.676140308380127,-2.1080222129821777,1.4117450714111328
1790163343555608600,11.621608642578124,-0.5748052597045898,-2.00339937210083,1.7880640029907227
1790163343565608700,11.631608642578126,-0.847383975982666,-1.8741135597229004,2.1648752689361572
1790163343575608600,11.641608642578126,-0.7794737815856934,-1.811173439025879,2.6581432819366455
1790163343585608700,11.651608642578125,-0.6109724044799805,-1.7453360557556152,3.1186468601226807
1790163343595608600,11.661608642578125,-0.8349189758300781,-1.6892061233520508,3.533783197402954
1790163343605608700,11.671608642578125,-1.3644328117370605,-1.4971342086791992,3.8431901931762695
1790163343615608600,11.681608642578125,-2.0366225242614746,-1.0711784362792969,3.7430455684661865
1790163343625608700,11.691608642578124,-2.558969020843506,-0.5660991668701172,3.4307594299316406
1790163343635608600,11.701608642578124,-2.5908803939819336,-0.3344917297363281,3.3253097534179688
1790163343645608700,11.711608642578126,-2.414094924926758,-0.4518136978149414,3.409613609313965
1790163343655608600,11.721608642578126,-2.0538330078125,-0.7025985717773438,3.3711624145507812
1790163343665608700,11.731608642578125,-1.7167878150939941,-0.9845046997070312,3.2600908279418945
1790163343675608600,11.741608642578125,-1.23016357421875,-1.0071029663085938,2.7744853496551514
1790163343685608700,11.751608642578125,-0.8829431533813477,-0.8791694641113281,2.5958940982818604
1790163343695608600,11.761608642578125,-1.0284051895141602,-0.7126398086547852,3.131312847137451
1790163343705608700,11.771608642578125,-1.6032419204711914,-0.5764656066894531,3.6456618309020996
1790163343715608600,11.781608642578124,-2.1685190200805664,-0.42444610595703125,3.8020946979522705
1790163343725608700,11.791608642578124,-2.3522448539733887,-0.29639720916748047,3.7767879962921143
1790163343735608600,11.801608642578126,-2.193286418914795,-0.31153297424316406,3.5857646465301514
1790163343745608700,11.811608642578125,-2.002070426940918,-0.42444419860839844,3.0995688438415527
1790163343755608600,11.821608642578125,-1.8429527282714844,-0.5362529754638672,2.488832712173462
1790163343765608700,11.831608642578125,-1.5700764656066895,-0.66357421875,2.0130298137664795
1790163343775608600,11.841608642578125,-1.4539480209350586,-0.7759771347045898,1.6996333599090576
1790163343785608700,11.851608642578125,-1.3818597793579102,-0.968724250793457,1.5707876682281494
1790163343795608600,11.861608642578124,-1.20774507522583,-1.2415409088134766,1.898345947265625
1790163343805608700,11.871608642578124,-1.133749008178711,-1.4667201042175293,2.474109649658203
1790163343815608600,11.881608642578126,-1.2026686668395996,-1.5729165077209473,2.9510843753814697
1790163343825608700,11.891608642578126,-1.3312606811523438,-1.5905466079711914,3.0614705085754395
1790163343835608600,11.901608642578125,-1.2729201316833496,-1.6198482513427734,2.704514503479004
1790163343845608700,11.911608642578125,-1.106295108795166,-1.661855697631836,2.271639585494995
1790163343855608600,11.921608642578125,-0.9241862297058105,-1.7478947639465332,1.8035781383514404
1790163343865608700,11.931608642578125,-0.7093310356140137,-1.8049373626708984,1.463517427444458
1790163343875608600,11.941608642578124,-0.3548426628112793,-1.9385504722595215,1.6975126266479492
1790163343885608700,11.951608642578124,-0.1138162612915039,-2.216414451599121,2.135965585708618
1790163343895608600,11.961608642578126,-0.013973236083984375,-2.426219940185547,2.1949687004089355
1790163343905608700,11.971608642578126,0.2105722427368164,-2.3574466705322266,1.8372430801391602
1790163343915608600,11.981608642578125,0.3423604965209961,-2.1874094009399414,1.1725201606750488
1790163343925608700,11.991608642578125,0.2836170196533203,-2.0995736122131348,0.610785961151123
1790163343935608600,12.001608642578125,0.06741905212402344,-2.323117256164551,0.7123017311096191
1790163343945608700,12.011608642578125,-0.14816665649414062,-2.8404812812805176,1.2310419082641602
1790163343955608600,12.021608642578125,-0.11197853088378906,-3.1395998001098633,1.4238991737365723
1790163343965608700,12.031608642578124,0.22105789184570312,-2.7756896018981934,0.7782130241394043
1790163343975608600,12.041608642578124,0.30870819091796875,-2.2189273834228516,-0.4981694221496582
1790163343985608700,12.051608642578126,-0.0250091552734375,-1.8671960830688477,-1.777897834777832
1790163343995608600,12.061608642578125,-0.10833406448364258,-1.718714714050293,-2.310488700866699
1790163344005608700,12.071608642578125,0.016599655151367188,-1.7541184425354004,-2.369401454925537
1790163344015608600,12.081608642578125,0.055857181549072266,-1.743095874786377,-2.626255989074707
1790163344025608700,12.091608642578125,0.2979292869567871,-1.5309882164001465,-2.8403682708740234
1790163344035608600,12.101608642578125,0.596954345703125,-1.5274066925048828,-2.595963716506958
1790163344045608700,12.111608642578124,0.5335469245910645,-1.6200337409973145,-2.2766001224517822
1790163344055608600,12.121608642578124,0.46670007705688477,-1.4888181686401367,-2.080047607421875
1790163344065608700,12.131608642578126,0.33901166915893555,-1.2855353355407715,-2.1825294494628906
1790163344075608600,12.141608642578126,0.3601040840148926,-1.1241390705108643,-2.3137311935424805
1790163344085608700,12.151608642578125,0.5421109199523926,-0.94002366065979,-2.3181419372558594
1790163344095608600,12.161608642578125,0.45078563690185547,-0.7662687301635742,-2.3295583724975586
1790163344105608700,12.171608642578125,0.2998533248901367,-0.594963550567627,-2.441640853881836
1790163344115608600,12.181608642578125,0.05907487869262695,-0.5123252868652344,-2.4057517051696777
1790163344125608700,12.191608642578124,-0.24324369430541992,-0.5726640224456787,-1.8786768913269043
1790163344135608600,12.201608642578124,-0.05721426010131836,-0.7395811080932617,-1.1234769821166992
1790163344145608700,12.211608642578126,0.5120682716369629,-0.9826259613037109,-0.4415555000305176
1790163344155608600,12.221608642578126,0.8998384475708008,-1.076042890548706,-0.3847837448120117
1790163344165608700,12.231608642578125,1.120694637298584,-0.9760737419128418,-1.067305088043213
1790163344175608600,12.241608642578125,1.0496959686279297,-0.7164738178253174,-2.0914039611816406
1790163344185608700,12.251608642578125,0.8502035140991211,-0.44071006774902344,-2.586604595184326
1790163344195608600,12.261608642578125,0.8437008857727051,-0.20610690116882324,-2.4790849685668945
1790163344205608700,12.271608642578125,1.1330699920654297,-0.15626013278961182,-2.028681755065918
1790163344215608600,12.281608642578124,1.436563491821289,-0.11464571952819824,-1.5897088050842285
1790163344225608700,12.291608642578124,1.5790138244628906,-0.0126420259475708,-1.5303101539611816
1790163344235608600,12.301608642578126,1.4927864074707031,0.0807262659072876,-1.6906824111938477
1790163344245608700,12.311608642578125,1.494575023651123,0.12593507766723633,-1.9957342147827148
1790163344255608600,12.321608642578125,1.7831449508666992,0.2198026180267334,-2.346524715423584
1790163344265608700,12.331608642578125,2.053546905517578,0.4093198776245117,-2.622330665588379
1790163344275608600,12.341608642578125,2.276254177093506,0.6332256197929382,-2.7688403129577637
1790163344285608700,12.351608642578125,2.3976922035217285,0.9688501954078674,-2.760167121887207
1790163344295608600,12.361608642578124,2.415910243988037,1.2829195261001587,-2.5910897254943848
1790163344305608700,12.371608642578124,2.471017360687256,1.464439868927002,-2.3913979530334473
1790163344315608600,12.381608642578126,2.56040620803833,1.5438028573989868,-2.4925293922424316
1790163344325608700,12.391608642578126,2.642287254333496,1.542405128479004,-2.779947519302368
1790163344335608600,12.401608642578125,2.603848934173584,1.5699613094329834,-3.2214388847351074
1790163344345608700,12.411608642578125,2.5834426879882812,1.6413509845733643,-3.7280261516571045
1790163344355608600,12.421608642578125,2.526083469390869,1.7299292087554932,-4.208581924438477
1790163344365608700,12.431608642578125,2.215005874633789,1.7433804273605347,-4.485422134399414
1790163344375608600,12.441608642578124,2.057548999786377,1.676162838935852,-4.471560001373291
1790163344385608700,12.451608642578124,1.9373183250427246,1.592970371246338,-4.3208231925964355
