time,seconds_elapsed,z,y,x
1790267366625566000,0.06456591796875,0,0,0
1790267366635566000,0.074566162109375,-0.2308940887451172,-0.1413097381591797,0.08189105987548828
1790267366645566000,0.08456591796875,-0.4912090301513672,-0.8198423385620117,0.7394278049468994
1790267366655566000,0.094566162109375,-0.7060050964355469,-1.016444444656372,1.5534756183624268
1790267366665566000,0.10456591796875,-1.4326667785644531,-0.2546813488006592,0.21708250045776367
1790267366675566000,0.114566162109375,-2.472705841064453,-0.4261765480041504,-0.27366483211517334
1790267366685566000,0.12456591796875,-2.5238046646118164,0.2188563346862793,-0.23074650764465332
1790267366695566000,0.134566162109375,-1.9707622528076172,0.7597050666809082,0.0393216609954834
1790267366705566000,0.14456591796875,-2.009638786315918,0.5525994300842285,0.3259315490722656
1790267366715566000,0.154566162109375,-1.8030281066894531,0.7152447700500488,-0.2878285050392151
1790267366725566000,0.16456591796875,-1.929896354675293,0.6267518997192383,-0.49977195262908936
1790267366735566000,0.174566162109375,-2.2181668281555176,0.409848690032959,-0.6664885878562927
1790267366745566000,0.18456591796875,-2.289015769958496,0.23491668701171875,-0.473369836807251
1790267366755566000,0.194566162109375,-2.003127098083496,0.13167405128479004,-0.040161848068237305
1790267366765566000,0.20456591796875,-1.8673453330993652,-0.11830568313598633,0.49797797203063965
1790267366775566000,0.214566162109375,-2.6333045959472656,-0.5757617950439453,0.8696354031562805
1790267366785566000,0.22456591796875,-2.9244232177734375,-1.5531017780303955,1.428253412246704
1790267366795566000,0.234566162109375,-2.2267489433288574,-0.846691370010376,0.4562004804611206
1790267366805566000,0.24456591796875,-0.19031953811645508,1.9926178455352783,-3.0665738582611084
1790267366815566000,0.254566162109375,-1.2268385887145996,4.307234764099121,-4.315505027770996
1790267366825566000,0.26456591796875,-2.921680450439453,3.3729562759399414,-3.365661859512329
1790267366835566000,0.274566162109375,-3.060472011566162,0.2452385425567627,-0.27123188972473145
1790267366845566000,0.28456591796875,-2.4849462509155273,-1.5843859910964966,1.3884918689727783
1790267366855566000,0.294566162109375,-0.7309885025024414,-1.7593364715576172,1.5695396661758423
1790267366865566000,0.30456591796875,1.6224956512451172,-1.178840160369873,1.0866835117340088
1790267366875566000,0.314566162109375,2.4589881896972656,-0.7420167922973633,1.2208552360534668
1790267366885566000,0.32456591796875,3.2799482345581055,-0.8369008302688599,1.4091814756393433
1790267366895566000,0.334566162109375,3.8313040733337402,-1.2995535135269165,1.5448710918426514
1790267366905566000,0.34456591796875,3.6614131927490234,-1.9244284629821777,0.8530067205429077
1790267366915566000,0.354566162109375,3.171614646911621,-2.159811019897461,-0.7814774513244629
1790267366925566000,0.36456591796875,2.550334930419922,-1.8213425874710083,-2.7116127014160156
1790267366935566000,0.374566162109375,2.0397186279296875,-1.1737003326416016,-4.272335052490234
1790267366945566000,0.38456591796875,1.4264373779296875,-0.8080883026123047,-4.31615686416626
1790267366955566000,0.394566162109375,0.6376752853393555,-0.8212518692016602,-3.2496204376220703
1790267366965566000,0.40456591796875,0.02414703369140625,-0.823062539100647,-2.043282985687256
1790267366975566000,0.414566162109375,-0.2502927780151367,-0.6738221645355225,-1.2880823612213135
1790267366985566000,0.42456591796875,-0.3178415298461914,-0.4443413019180298,-0.647036075592041
1790267366995566000,0.434566162109375,0.027413368225097656,-0.3779565095901489,0.14911985397338867
1790267367005566000,0.44456591796875,0.6370859146118164,-0.4495633840560913,0.69500732421875
1790267367015566000,0.454566162109375,0.7022409439086914,-0.3606905937194824,0.44843077659606934
1790267367025566000,0.46456591796875,0.43021106719970703,-0.32493746280670166,-0.24980616569519043
1790267367035566000,0.474566162109375,-0.013112068176269531,-0.33134496212005615,-0.3925098180770874
1790267367045566000,0.48456591796875,-0.527618408203125,-0.3389807939529419,-0.17398357391357422
1790267367055566000,0.494566162109375,-1.2835631370544434,-0.5888758897781372,-0.15535861253738403
1790267367065566000,0.50456591796875,-0.25174617767333984,0.1239851713180542,-0.15403270721435547
1790267367075566000,0.514566162109375,0.8487958908081055,0.10658824443817139,0.5333251953125
1790267367085566000,0.52456591796875,2.2798843383789062,-0.1758061647415161,1.202439308166504
1790267367095566000,0.534566162109375,3.3538408279418945,-0.28771185874938965,1.392592191696167
1790267367105566000,0.54456591796875,3.4564151763916016,-0.48282670974731445,0.8601725101470947
1790267367115566000,0.554566162109375,2.7014589309692383,-0.7436370849609375,-0.2192649096250534
1790267367125566000,0.56456591796875,1.1632938385009766,-0.6687235832214355,-1.17261803150177
1790267367135566000,0.574566162109375,-0.12290668487548828,-0.2138916254043579,-1.6917937994003296
1790267367145566000,0.58456591796875,-0.5098476409912109,0.34123504161834717,-1.6372466087341309
1790267367155566000,0.594566162109375,-0.31152915954589844,0.4457038640975952,-0.8014178276062012
1790267367165566000,0.60456591796875,0.1840982437133789,0.40909361839294434,0.29408496618270874
1790267367175566000,0.614566162109375,0.896946907043457,0.41249704360961914,0.9717550277709961
1790267367185566000,0.62456591796875,1.280172348022461,0.39174413681030273,0.9176110625267029
1790267367195566000,0.634566162109375,1.3902645111083984,0.29523253440856934,0.9063158631324768
1790267367205566000,0.64456591796875,1.615987777709961,-0.08764100074768066,1.6133924722671509
1790267367215566000,0.654566162109375,1.560617446899414,0.10247349739074707,1.6829107999801636
1790267367225566000,0.66456591796875,1.6510334014892578,0.2734788656234741,1.0715147256851196
1790267367235566000,0.674566162109375,1.6943292617797852,-0.21625936031341553,0.5821011662483215
1790267367245566000,0.68456591796875,1.7619504928588867,-0.8119820356369019,-0.020081639289855957
1790267367255566000,0.694566162109375,1.444666862487793,-1.1969226598739624,-0.102608323097229
1790267367265566000,0.70456591796875,0.6453790664672852,-1.3291571140289307,-0.37990325689315796
1790267367275566000,0.714566162109375,-0.42150402069091797,-1.4414970874786377,-0.46133577823638916
1790267367285566000,0.72456591796875,-1.48179292678833,-1.675340175628662,-0.5519446134567261
1790267367295566000,0.734566162109375,-2.5620384216308594,-2.070009708404541,-0.6949044466018677
1790267367305566000,0.74456591796875,-3.3900346755981445,-2.5526959896087646,-0.7023899555206299
1790267367315566000,0.754566162109375,-3.647958755493164,-3.0520071983337402,-0.3082873821258545
1790267367325566000,0.76456591796875,-3.4420785903930664,-3.473114490509033,0.13267898559570312
1790267367335566000,0.774566162109375,-3.2055935859680176,-3.6724488735198975,0.16016387939453125
1790267367345566000,0.78456591796875,-3.533823013305664,-3.8660008907318115,-0.1904151439666748
1790267367355566000,0.794566162109375,-4.245875358581543,-4.757491111755371,-1.1182711124420166
1790267367365566000,0.80456591796875,-4.933939456939697,-5.94509220123291,-2.679034948348999
1790267367375566000,0.814566162109375,-5.3390212059021,-7.003311634063721,-4.005417823791504
1790267367385566000,0.82456591796875,-4.68170166015625,-7.749203681945801,-4.329601764678955
1790267367395566000,0.834566162109375,-4.729917526245117,-10.464609146118164,-2.8538155555725098
1790267367405566000,0.84456591796875,-5.075130462646484,-13.393019676208496,0.050646305084228516
1790267367415566000,0.854566162109375,-4.520115375518799,-12.16109848022461,-2.0509538650512695
1790267367425566000,0.86456591796875,-4.350195407867432,-10.743764877319336,-4.260043621063232
1790267367435566000,0.874566162109375,-4.283888816833496,-9.87464714050293,-6.14992618560791
1790267367445566000,0.88456591796875,-4.286511421203613,-9.578919410705566,-7.84941291809082
1790267367455566000,0.894566162109375,-4.813460350036621,-9.747465133666992,-8.892311096191406
1790267367465566000,0.90456591796875,-5.3244853019714355,-11.052495956420898,-6.851517677307129
1790267367475566000,0.914566162109375,-4.7415595054626465,-11.995423316955566,-2.6510848999023438
1790267367485566000,0.92456591796875,-3.4339473247528076,-11.051651000976562,1.1182222366333008
1790267367495566000,0.934566162109375,-2.1259076595306396,-9.494339942932129,3.712303638458252
1790267367505566000,0.94456591796875,-1.1089606285095215,-8.512592315673828,6.09604549407959
1790267367515566000,0.954566162109375,-0.328436017036438,-7.795079708099365,9.1834716796875
1790267367525566000,0.96456591796875,-0.32438039779663086,-6.185718059539795,14.39825439453125
1790267367535566000,0.974566162109375,-1.410833477973938,-3.590198040008545,19.324567794799805
1790267367545566000,0.98456591796875,-3.20408296585083,-0.9344677925109863,22.53061294555664
1790267367555566000,0.994566162109375,-5.191284656524658,1.3194985389709473,23.339080810546875
1790267367565566000,1.00456591796875,-6.777768611907959,2.8570828437805176,23.320552825927734
1790267367575566000,1.014566162109375,-8.47225570678711,3.8456320762634277,23.79122543334961
1790267367585566000,1.02456591796875,-10.29279613494873,5.225820064544678,22.982410430908203
1790267367595566000,1.034566162109375,-12.659527778625488,6.619505405426025,21.01540756225586
1790267367605566000,1.04456591796875,-13.478882789611816,7.441315650939941,17.932697296142578
1790267367615566000,1.054566162109375,-14.38426399230957,8.02315902709961,14.975574493408203
1790267367625566000,1.06456591796875,-14.771346092224121,8.746088027954102,12.951534271240234
1790267367635566000,1.074566162109375,-14.525978088378906,9.080645561218262,11.895148277282715
1790267367645566000,1.08456591796875,-14.2467679977417,8.338918685913086,10.710162162780762
1790267367655566000,1.094566162109375,-13.760046005249023,6.927485942840576,7.460796356201172
1790267367665566000,1.10456591796875,-11.811050415039062,5.6545610427856445,5.192968368530273
1790267367675566000,1.114566162109375,-9.674781799316406,4.675904750823975,2.8738555908203125
1790267367685566000,1.12456591796875,-6.452849864959717,4.183286190032959,0.6211376190185547
1790267367695566000,1.134566162109375,-4.3159708976745605,3.8866331577301025,-1.7319660186767578
1790267367705566000,1.14456591796875,-6.179012775421143,1.618696689605713,-4.445033073425293
1790267367715566000,1.154566162109375,-5.102627754211426,-0.33751654624938965,-8.855409622192383
1790267367725566000,1.16456591796875,-2.385612726211548,-2.0182759761810303,-13.037796020507812
1790267367735566000,1.174566162109375,-0.1506803035736084,-3.6137642860412598,-12.538872718811035
1790267367745566000,1.18456591796875,-0.7779350280761719,-2.529491662979126,-7.516265869140625
1790267367755566000,1.194566162109375,-1.5950193405151367,0.38790297508239746,-2.1794896125793457
1790267367765566000,1.20456591796875,0.0796809196472168,0.354534387588501,-1.711493968963623
1790267367775566000,1.214566162109375,0.2479257583618164,-0.21768951416015625,-3.852972984313965
1790267367785566000,1.22456591796875,-1.8928020000457764,-1.4416166543960571,-6.816145896911621
1790267367795566000,1.234566162109375,-1.530524730682373,-2.5517454147338867,-4.677227973937988
1790267367805566000,1.24456591796875,-1.3017475605010986,-1.750537633895874,0.4228658676147461
1790267367815566000,1.254566162109375,-0.6107916831970215,-0.6797970533370972,2.284602165222168
1790267367825566000,1.26456591796875,-2.1638755798339844,2.461273193359375,0.09998703002929688
1790267367835566000,1.274566162109375,-3.6343955993652344,3.00909161567688,-2.128474235534668
1790267367845566000,1.28456591796875,-3.815805435180664,4.683274269104004,-3.882017135620117
1790267367855566000,1.294566162109375,5.997952461242676,3.172102451324463,0.15405654907226562
1790267367865566000,1.30456591796875,10.747220993041992,-2.2178783416748047,2.700699806213379
1790267367875566000,1.314566162109375,10.602872848510742,-0.5708902478218079,0.7868127822875977
1790267367885566000,1.32456591796875,5.985687255859375,0.003496229648590088,-1.6187314987182617
1790267367895566000,1.334566162109375,1.2672011852264404,-1.3023098707199097,-4.504657745361328
1790267367905566000,1.34456591796875,-0.33132266998291016,-2.7589669227600098,-6.602882385253906
1790267367915566000,1.354566162109375,-3.024871349334717,-4.154130458831787,-7.306951999664307
1790267367925566000,1.36456591796875,-6.043828010559082,-4.729443073272705,-8.898543357849121
1790267367935566000,1.374566162109375,-5.8690690994262695,-5.52291202545166,-9.490570068359375
1790267367945566000,1.38456591796875,-3.0598254203796387,-6.4783172607421875,-7.676949501037598
1790267367955566000,1.394566162109375,-1.7125320434570312,-6.231770992279053,-6.389926433563232
1790267367965566000,1.40456591796875,-0.002541065216064453,-5.819248676300049,-6.215418338775635
1790267367975566000,1.414566162109375,2.063786029815674,-10.017416000366211,0.3270292282104492
1790267367985566000,1.42456591796875,5.939191818237305,-10.135734558105469,9.13790225982666
1790267367995566000,1.434566162109375,5.132212162017822,-5.213913917541504,15.381244659423828
1790267368005566000,1.44456591796875,-0.16284990310668945,-3.9822449684143066,14.49964714050293
1790267368015566000,1.454566162109375,-4.573209762573242,-4.07384729385376,9.66530990600586
1790267368025566000,1.46456591796875,-4.18174934387207,-3.724583625793457,7.984593868255615
1790267368035566000,1.474566162109375,-1.8720388412475586,-2.778074264526367,5.312958240509033
1790267368045566000,1.48456591796875,0.2538628578186035,-0.29319190979003906,3.6573596000671387
1790267368055566000,1.494566162109375,1.0681686401367188,0.9580302238464355,1.4955053329467773
1790267368065566000,1.50456591796875,1.2074110507965088,1.1243953704833984,-0.43785667419433594
1790267368075566000,1.514566162109375,1.1076383590698242,0.856285572052002,-1.4695134162902832
1790267368085566000,1.52456591796875,0.8933334350585938,0.3583664894104004,-1.633012294769287
1790267368095566000,1.534566162109375,1.6145029067993164,-0.2113056182861328,-0.7396173477172852
1790267368105566000,1.54456591796875,1.70721435546875,-0.03592395782470703,0.9935030937194824
1790267368115566000,1.554566162109375,0.2710380554199219,0.5919008255004883,1.5933847427368164
1790267368125566000,1.56456591796875,-0.0006170272827148438,1.126601219177246,1.278498649597168
1790267368135566000,1.574566162109375,0.5592594146728516,1.800898551940918,1.0928936004638672
1790267368145566000,1.58456591796875,0.3111386299133301,2.6192612648010254,1.1769952774047852
1790267368155566000,1.594566162109375,-0.09378337860107422,3.3909103870391846,1.2173805236816406
1790267368165566000,1.60456591796875,0.6947526931762695,4.134782314300537,0.8796663284301758
1790267368175566000,1.614566162109375,1.8497462272644043,4.559374809265137,0.06513786315917969
1790267368185566000,1.62456591796875,2.1362695693969727,4.543222904205322,-0.3765125274658203
1790267368195566000,1.634566162109375,1.1135010719299316,4.615700721740723,-0.07844877243041992
1790267368205566000,1.64456591796875,-0.44745635986328125,4.47713565826416,0.915776252746582
1790267368215566000,1.654566162109375,-2.3035848140716553,2.273189067840576,2.4037632942199707
1790267368225566000,1.66456591796875,-2.0665080547332764,0.973884105682373,1.2076363563537598
1790267368235566000,1.674566162109375,0.0527338981628418,1.4971675872802734,-1.126345157623291
1790267368245566000,1.68456591796875,1.6482458114624023,2.1027297973632812,-3.033745288848877
1790267368255566000,1.694566162109375,1.346428394317627,2.0734925270080566,-4.12877893447876
1790267368265566000,1.70456591796875,0.2810826301574707,0.8912510871887207,-2.0178327560424805
1790267368275566000,1.714566162109375,0.015714168548583984,-0.10814380645751953,0.18313312530517578
1790267368285566000,1.72456591796875,0.541745662689209,-1.2778983116149902,1.6647443771362305
1790267368295566000,1.734566162109375,1.6800999641418457,-2.0860328674316406,0.8181624412536621
1790267368305566000,1.74456591796875,1.8781828880310059,-2.927900791168213,-0.40754079818725586
1790267368315566000,1.754566162109375,0.5693759918212891,-3.3695216178894043,-0.12494802474975586
1790267368325566000,1.76456591796875,-1.0790915489196777,-1.9004244804382324,1.5720458030700684
1790267368335566000,1.774566162109375,-1.565290927886963,0.4938383102416992,2.464738368988037
1790267368345566000,1.78456591796875,-1.533806324005127,2.8348569869995117,1.5690813064575195
1790267368355566000,1.794566162109375,-1.420027732849121,4.847330570220947,-0.1331496238708496
1790267368365566000,1.80456591796875,-0.48252105712890625,6.153186321258545,-1.000596284866333
1790267368375566000,1.814566162109375,-0.3515157699584961,6.637763500213623,-2.0747878551483154
1790267368385566000,1.82456591796875,-0.1553020477294922,4.670309543609619,-2.329756736755371
1790267368395566000,1.834566162109375,0.14459705352783203,4.13998556137085,-2.883190393447876
1790267368405566000,1.84456591796875,0.9668178558349609,3.9302682876586914,-1.4334464073181152
1790267368415566000,1.854566162109375,1.4926214218139648,2.2229361534118652,0.9955034255981445
1790267368425566000,1.86456591796875,2.453076124191284,1.3354434967041016,1.266848087310791
1790267368435566000,1.874566162109375,4.905836582183838,0.45931482315063477,0.8688831329345703
1790267368445566000,1.88456591796875,7.450984954833984,-0.7335686683654785,-0.5725326538085938
1790267368455566000,1.894566162109375,7.736181259155273,-1.5703678131103516,-0.44413161277770996
1790267368465566000,1.90456591796875,7.366340637207031,-2.6807637214660645,-0.6193439960479736
1790267368475566000,1.914566162109375,6.177731513977051,-2.289430618286133,-2.613124370574951
1790267368485566000,1.92456591796875,4.832363605499268,-0.8656272888183594,-4.20894193649292
1790267368495566000,1.934566162109375,3.471550941467285,0.15452289581298828,-5.224859714508057
1790267368505566000,1.94456591796875,1.4320822954177856,2.75624942779541,-6.366518974304199
1790267368515566000,1.954566162109375,-0.8036277294158936,4.369332790374756,-6.671914577484131
1790267368525566000,1.96456591796875,-5.047519207000732,2.1860532760620117,-6.292547225952148
1790267368535566000,1.974566162109375,-6.2214813232421875,-1.5796222686767578,-4.837085723876953
1790267368545566000,1.98456591796875,-3.7771596908569336,-4.014810562133789,-0.7917135953903198
1790267368555566000,1.994566162109375,-0.06649315357208252,-3.8339500427246094,2.898601531982422
1790267368565566000,2.00456591796875,2.0853466987609863,-4.291576385498047,4.0025763511657715
1790267368575566000,2.014566162109375,0.8605910539627075,-6.149323463439941,3.76904296875
1790267368585566000,2.02456591796875,-0.49756741523742676,-8.646906852722168,3.097439765930176
1790267368595566000,2.034566162109375,-0.037317514419555664,-10.18724536895752,3.0592355728149414
1790267368605566000,2.04456591796875,-0.31526124477386475,-10.74012279510498,2.638827085494995
1790267368615566000,2.054566162109375,-1.9767796993255615,-10.989262580871582,0.9180275797843933
1790267368625566000,2.06456591796875,-3.8078441619873047,-10.578696250915527,-1.312964916229248
1790267368635566000,2.074566162109375,-3.7711338996887207,-8.579150199890137,-1.94429349899292
1790267368645566000,2.08456591796875,-3.312958240509033,-5.393759727478027,-1.47515869140625
1790267368655566000,2.094566162109375,-3.1915199756622314,-3.544175148010254,-1.0791913270950317
1790267368665566000,2.10456591796875,-2.4723339080810547,-2.697381019592285,-1.4379969835281372
1790267368675566000,2.114566162109375,-1.3755699396133423,-1.477828025817871,-1.5609517097473145
1790267368685566000,2.12456591796875,3.06915545463562,1.3061437606811523,-2.6354827880859375
1790267368695566000,2.134566162109375,2.159590005874634,2.153766632080078,-1.7527283430099487
1790267368705566000,2.14456591796875,2.060537338256836,2.8703527450561523,-1.0577770471572876
1790267368715566000,2.154566162109375,2.5573830604553223,3.39064884185791,-1.4383211135864258
1790267368725566000,2.16456591796875,2.4432883262634277,2.740550994873047,-1.1129422187805176
1790267368735566000,2.174566162109375,1.636920690536499,1.8402490615844727,0.016553401947021484
1790267368745566000,2.18456591796875,0.1979062557220459,1.0946846008300781,0.7366530895233154
1790267368755566000,2.194566162109375,-1.0658984184265137,0.4281578063964844,0.5656903982162476
1790267368765566000,2.20456591796875,-1.2157020568847656,0.17119789123535156,-0.022738337516784668
1790267368775566000,2.214566162109375,-0.9776451587677002,-0.15745067596435547,-0.7796593904495239
1790267368785566000,2.22456591796875,-1.231367588043213,-0.44951629638671875,-1.6425801515579224
1790267368795566000,2.234566162109375,-1.48516845703125,-0.35530662536621094,-2.2279858589172363
1790267368805566000,2.24456591796875,-0.6655721664428711,-0.12757110595703125,-2.4281158447265625
1790267368815566000,2.254566162109375,0.7195206880569458,-0.048964500427246094,-2.310861825942993
1790267368825566000,2.26456591796875,1.8508262634277344,0.45784759521484375,-1.3688256740570068
1790267368835566000,2.274566162109375,1.061949372291565,3.5892419815063477,-0.2560018301010132
1790267368845566000,2.28456591796875,-0.5823018550872803,7.972930908203125,2.397216320037842
1790267368855566000,2.294566162109375,0.9535059332847595,3.811896324157715,5.091930389404297
1790267368865566000,2.30456591796875,1.6142460107803345,0.8919925689697266,4.29987907409668
1790267368875566000,2.314566162109375,1.3210303783416748,0.9573812484741211,1.9127117395401
1790267368885566000,2.32456591796875,1.2410246133804321,1.241074562072754,0.2739008665084839
1790267368895566000,2.334566162109375,0.27613580226898193,1.0547304153442383,-0.522594690322876
1790267368905566000,2.34456591796875,0.26150715351104736,1.6876564025878906,-0.39797353744506836
1790267368915566000,2.354566162109375,1.0679805278778076,1.8759384155273438,-0.10740149021148682
1790267368925566000,2.36456591796875,0.4729761481285095,0.7427005767822266,-0.13674354553222656
1790267368935566000,2.374566162109375,-1.3669425249099731,-0.23556900024414062,0.36213088035583496
1790267368945566000,2.38456591796875,0.9878488779067993,-1.1509590148925781,1.4997320175170898
1790267368955566000,2.394566162109375,1.5321636199951172,-2.184697151184082,1.7960847616195679
1790267368965566000,2.40456591796875,1.570354700088501,-3.9593191146850586,0.8669073581695557
1790267368975566000,2.414566162109375,1.4582958221435547,-4.685063362121582,-1.0595649480819702
1790267368985566000,2.42456591796875,2.807816505432129,-4.894571304321289,-1.3632466793060303
1790267368995566000,2.434566162109375,0.21788156032562256,-5.620475769042969,-5.441533088684082
1790267369005566000,2.44456591796875,-3.593716621398926,-4.166262626647949,-8.303661346435547
1790267369015566000,2.454566162109375,-2.967299699783325,-3.6839122772216797,-6.685461521148682
1790267369025566000,2.46456591796875,-1.5623066425323486,-2.2715301513671875,-4.814938545227051
1790267369035566000,2.474566162109375,-1.4214153289794922,-1.1289186477661133,-3.091991424560547
1790267369045566000,2.48456591796875,-1.2790210247039795,-1.0442314147949219,-0.9185280799865723
1790267369055566000,2.494566162109375,-2.1497108936309814,-3.759164810180664,-0.3214256763458252
1790267369065566000,2.50456591796875,-2.3015379905700684,0.09763526916503906,1.3455064296722412
1790267369075566000,2.514566162109375,-0.6177296042442322,2.8127832412719727,5.089480400085449
1790267369085566000,2.52456591796875,0.26231649518013,3.91207218170166,5.008416652679443
1790267369095566000,2.534566162109375,0.7199729084968567,3.1682615280151367,1.7542738914489746
1790267369105566000,2.54456591796875,1.5584094524383545,1.5319175720214844,-0.536201000213623
1790267369115566000,2.554566162109375,1.4560471773147583,0.5469818115234375,-1.8058370351791382
1790267369125566000,2.56456591796875,0.5953387022018433,0.4601116180419922,-2.0392935276031494
1790267369135566000,2.574566162109375,-0.4171002507209778,0.22629737854003906,-1.6056145429611206
1790267369145566000,2.58456591796875,-0.8157355785369873,0.21940135955810547,-1.3001948595046997
1790267369155566000,2.594566162109375,-1.1499173641204834,0.5545387268066406,-0.7196035385131836
1790267369165566000,2.60456591796875,-0.7515773773193359,1.2102289199829102,-0.19037270545959473
1790267369175566000,2.614566162109375,-0.5530655980110168,1.0700311660766602,-0.35601043701171875
1790267369185566000,2.62456591796875,-0.6630982160568237,-0.012223243713378906,-0.8600590229034424
1790267369195566000,2.634566162109375,-0.9331759810447693,-2.105109214782715,-0.9526145458221436
1790267369205566000,2.64456591796875,-4.243972301483154,-3.1681108474731445,-0.21683049201965332
1790267369215566000,2.654566162109375,-7.252601623535156,-3.4177207946777344,0.174957275390625
1790267369225566000,2.66456591796875,-2.5538649559020996,-3.481675148010254,0.30820798873901367
1790267369235566000,2.674566162109375,1.6689854860305786,-1.632237434387207,1.4246716499328613
1790267369245566000,2.68456591796875,1.9166772365570068,0.4009571075439453,2.1919517517089844
1790267369255566000,2.694566162109375,0.6004973649978638,2.489555835723877,1.6810574531555176
1790267369265566000,2.70456591796875,-0.0336071252822876,4.013623237609863,1.479968786239624
1790267369275566000,2.714566162109375,-1.1726630926132202,4.626766204833984,2.127950429916382
1790267369285566000,2.72456591796875,-2.740699291229248,2.693854808807373,3.0468528270721436
1790267369295566000,2.734566162109375,-4.87450647354126,0.7194833755493164,4.569452285766602
1790267369305566000,2.74456591796875,-4.245020866394043,-3.4889278411865234,4.789121627807617
1790267369315566000,2.754566162109375,-3.647228956222534,-6.423596382141113,3.224175214767456
1790267369325566000,2.76456591796875,-3.476936101913452,-6.279123306274414,-0.44486141204833984
1790267369335566000,2.774566162109375,-2.416292905807495,-3.956562042236328,-0.37801647186279297
1790267369345566000,2.78456591796875,-1.1157820224761963,-1.6088294982910156,1.3561370372772217
1790267369355566000,2.794566162109375,0.3708629608154297,-0.04401397705078125,3.84458065032959
1790267369365566000,2.80456591796875,3.128251075744629,-0.6628885269165039,5.099386215209961
1790267369375566000,2.814566162109375,1.1431434154510498,-2.5562238693237305,3.3521997928619385
1790267369385566000,2.82456591796875,-0.4214303493499756,-2.529139518737793,0.36325788497924805
1790267369395566000,2.834566162109375,0.5281834602355957,-0.4948854446411133,-2.1092591285705566
1790267369405566000,2.84456591796875,2.929581642150879,3.7096710205078125,-4.38090181350708
1790267369415566000,2.854566162109375,6.062984466552734,9.5167818069458,-6.079920768737793
1790267369425566000,2.86456591796875,7.219703197479248,9.628093719482422,-4.081219673156738
1790267369435566000,2.874566162109375,7.611527442932129,5.784290313720703,-1.5408817529678345
1790267369445566000,2.88456591796875,8.346712112426758,3.3990116119384766,-2.197906494140625
1790267369455566000,2.894566162109375,6.662707805633545,0.4348878860473633,-3.2465693950653076
1790267369465566000,2.90456591796875,4.026041030883789,-1.7048282623291016,-4.701478004455566
1790267369475566000,2.914566162109375,0.5405216217041016,-3.3816375732421875,-5.553689956665039
1790267369485566000,2.92456591796875,-2.530582904815674,-4.93162727355957,-4.9880475997924805
1790267369495566000,2.934566162109375,-3.9167022705078125,-5.731311798095703,-3.048503875732422
1790267369505566000,2.94456591796875,-3.729301929473877,-5.966594696044922,-1.0145083665847778
1790267369515566000,2.954566162109375,-3.315248489379883,-5.712105751037598,-0.39045894145965576
1790267369525566000,2.96456591796875,-2.6642403602600098,-4.96246337890625,-1.149202585220337
1790267369535566000,2.974566162109375,-1.1602520942687988,-3.710598945617676,-2.6110897064208984
1790267369545566000,2.98456591796875,-0.4570608139038086,-2.890377998352051,-3.115119457244873
1790267369555566000,2.994566162109375,-1.6002449989318848,-2.859586715698242,-2.573761224746704
1790267369565566000,3.00456591796875,-3.8508825302124023,-3.6209716796875,-1.5166566371917725
1790267369575566000,3.014566162109375,-5.208958625793457,-3.405999183654785,-0.4768334627151489
1790267369585566000,3.02456591796875,-4.764157295227051,-2.7417373657226562,0.3868904113769531
1790267369595566000,3.034566162109375,-3.17376708984375,-2.3746280670166016,0.5397677421569824
1790267369605566000,3.04456591796875,-1.34391450881958,-2.083197593688965,0.3746304512023926
1790267369615566000,3.054566162109375,0.5523815155029297,-1.716722011566162,0.16340875625610352
1790267369625566000,3.06456591796875,2.236363410949707,-1.54976224899292,-0.20693707466125488
1790267369635566000,3.074566162109375,2.7821760177612305,-1.2319183349609375,-0.667133092880249
1790267369645566000,3.08456591796875,2.7040228843688965,-0.8074517250061035,-0.8573122024536133
1790267369655566000,3.094566162109375,2.6210007667541504,-0.5322208404541016,-0.9272295236587524
1790267369665566000,3.10456591796875,2.3552403450012207,-0.3133702278137207,-0.4937572479248047
1790267369675566000,3.114566162109375,1.775167465209961,-0.291107177734375,0.47759485244750977
1790267369685566000,3.12456591796875,0.809814453125,-0.027782917022705078,1.4943461418151855
1790267369695566000,3.134566162109375,-0.039546966552734375,0.565791130065918,2.3742876052856445
1790267369705566000,3.14456591796875,-0.1841578483581543,1.1527104377746582,2.5837535858154297
1790267369715566000,3.154566162109375,0.09403181076049805,1.6949939727783203,2.42596697807312
1790267369725566000,3.16456591796875,0.4426913261413574,2.145249366760254,2.036379814147949
1790267369735566000,3.174566162109375,0.6718158721923828,2.27139949798584,2.1234796047210693
1790267369745566000,3.18456591796875,0.8310012817382812,2.2486209869384766,2.4252758026123047
1790267369755566000,3.194566162109375,0.6622314453125,2.104114532470703,2.357804298400879
1790267369765566000,3.20456591796875,-0.1264934539794922,1.6800880432128906,1.7316148281097412
1790267369775566000,3.214566162109375,-1.3043131828308105,1.0101714134216309,1.20566987991333
1790267369785566000,3.22456591796875,-1.6897258758544922,0.25278520584106445,1.2702968120574951
1790267369795566000,3.234566162109375,-1.233567714691162,-0.3709282875061035,1.508960485458374
1790267369805566000,3.24456591796875,-0.8236937522888184,-0.6388163566589355,1.6311640739440918
1790267369815566000,3.254566162109375,-0.7576260566711426,-0.6870059967041016,1.7144184112548828
1790267369825566000,3.26456591796875,-0.7425074577331543,-0.7699093818664551,1.776651382446289
1790267369835566000,3.274566162109375,-0.5006260871887207,-0.9508833885192871,1.7588070631027222
1790267369845566000,3.28456591796875,-0.17292499542236328,-1.0852046012878418,1.5265570878982544
1790267369855566000,3.294566162109375,-0.14156341552734375,-1.1057510375976562,1.07161283493042
1790267369865566000,3.30456591796875,-0.2083454132080078,-1.077458381652832,0.5640614032745361
1790267369875566000,3.314566162109375,0.02643585205078125,-0.9949498176574707,0.23481428623199463
1790267369885566000,3.32456591796875,0.5618815422058105,-0.776954174041748,0.1662425994873047
1790267369895566000,3.334566162109375,0.7832760810852051,-0.3425865173339844,0.15616607666015625
1790267369905566000,3.34456591796875,0.40877723693847656,0.1406078338623047,0.12840616703033447
1790267369915566000,3.354566162109375,-0.0010805130004882812,0.551851749420166,0.13676846027374268
1790267369925566000,3.36456591796875,-0.002471923828125,0.8749232292175293,0.25909268856048584
1790267369935566000,3.374566162109375,-0.12649250030517578,1.0029916763305664,0.7721956968307495
1790267369945566000,3.38456591796875,0.7993135452270508,0.9191617965698242,0.9801990985870361
1790267369955566000,3.394566162109375,1.6281013488769531,1.2454462051391602,0.3464949131011963
1790267369965566000,3.40456591796875,1.5741281509399414,1.0805511474609375,0.114737868309021
1790267369975566000,3.414566162109375,-0.19419002532958984,0.3648405075073242,-0.12390005588531494
1790267369985566000,3.42456591796875,0.2633991241455078,-0.14780259132385254,0.3852800726890564
1790267369995566000,3.434566162109375,-0.12576866149902344,-0.5829107761383057,0.6397833824157715
1790267370005566000,3.44456591796875,0.027568817138671875,-0.8562493324279785,0.8265147805213928
1790267370015566000,3.454566162109375,0.4066886901855469,-1.0334222316741943,1.1887421607971191
1790267370025566000,3.46456591796875,0.6318950653076172,-1.0331082344055176,1.4143863916397095
1790267370035566000,3.474566162109375,0.6442995071411133,-0.8454551696777344,1.3986986875534058
1790267370045566000,3.48456591796875,0.5329504013061523,-0.6659188270568848,1.0127532482147217
1790267370055566000,3.494566162109375,0.7907629013061523,-0.675605297088623,0.5103573203086853
1790267370065566000,3.50456591796875,0.8946332931518555,-0.665647029876709,0.17718985676765442
1790267370075566000,3.514566162109375,0.5682687759399414,-0.39293599128723145,0.03551158308982849
1790267370085566000,3.52456591796875,0.4047088623046875,-0.09915876388549805,0.02635354921221733
1790267370095566000,3.534566162109375,0.9794168472290039,0.10856366157531738,0.32758453488349915
1790267370105566000,3.54456591796875,1.2343320846557617,0.05446815490722656,0.7514186501502991
1790267370115566000,3.554566162109375,1.1482133865356445,-0.32397592067718506,1.1435160636901855
1790267370125566000,3.56456591796875,1.0925331115722656,-0.712617039680481,1.3068203926086426
1790267370135566000,3.574566162109375,1.0718116760253906,-0.900444507598877,1.027453064918518
1790267370145566000,3.58456591796875,1.2735490798950195,-0.900924563407898,0.8426586985588074
1790267370155566000,3.594566162109375,2.222956657409668,-0.48640012741088867,0.4694922864437103
1790267370165566000,3.60456591796875,2.805755615234375,0.24816226959228516,-0.17749981582164764
1790267370175566000,3.614566162109375,2.4404220581054688,0.6740254163742065,-0.6749619245529175
1790267370185566000,3.62456591796875,1.9860754013061523,0.6188663840293884,-0.9361854791641235
1790267370195566000,3.634566162109375,1.8230972290039062,0.5276057124137878,-1.0789470672607422
1790267370205566000,3.64456591796875,2.218311309814453,0.4308260679244995,-0.7531755566596985
1790267370215566000,3.654566162109375,2.5747923851013184,0.23894858360290527,-0.6659629344940186
1790267370225566000,3.66456591796875,2.3941116333007812,0.09006959199905396,-0.8996636867523193
1790267370235566000,3.674566162109375,2.500166893005371,0.1771668791770935,-0.861181378364563
1790267370245566000,3.68456591796875,2.597720146179199,0.4699898660182953,-0.8452386856079102
1790267370255566000,3.694566162109375,1.4252557754516602,0.7228729724884033,-1.2060060501098633
1790267370265566000,3.70456591796875,0.6931076049804688,0.6580504775047302,-1.144473671913147
1790267370275566000,3.714566162109375,0.9705057144165039,0.3101157248020172,-0.34656304121017456
1790267370285566000,3.72456591796875,0.818659782409668,-0.04458099603652954,0.3149818778038025
1790267370295566000,3.734566162109375,1.686060905456543,-0.2649155855178833,0.5113041400909424
1790267370305566000,3.74456591796875,1.719407081604004,-0.26875895261764526,0.2425006777048111
1790267370315566000,3.754566162109375,2.203418731689453,-0.28688669204711914,-0.05926838889718056
1790267370325566000,3.76456591796875,2.365163803100586,-0.1546257734298706,-0.33474236726760864
1790267370335566000,3.774566162109375,2.085118293762207,0.33389395475387573,-0.638879656791687
1790267370345566000,3.78456591796875,1.9971504211425781,1.1059777736663818,-0.6509408354759216
1790267370355566000,3.794566162109375,2.307744026184082,1.727615237236023,-0.22434040904045105
1790267370365566000,3.80456591796875,2.267817497253418,1.852369785308838,0.09903408586978912
1790267370375566000,3.814566162109375,1.8706207275390625,1.6576998233795166,0.20794734358787537
1790267370385566000,3.82456591796875,1.745600700378418,1.2440978288650513,0.5174754858016968
1790267370395566000,3.834566162109375,1.9749879837036133,0.730742335319519,0.4008960723876953
1790267370405566000,3.84456591796875,2.2126636505126953,0.29056477546691895,0.004576742649078369
1790267370415566000,3.854566162109375,2.105443000793457,0.1417231559753418,-0.20330166816711426
1790267370425566000,3.86456591796875,1.9772329330444336,0.25962090492248535,-0.006277859210968018
1790267370435566000,3.874566162109375,2.1199750900268555,0.48515021800994873,0.1917014718055725
1790267370445566000,3.88456591796875,2.560793399810791,0.7968189716339111,0.32429975271224976
1790267370455566000,3.894566162109375,2.453756332397461,1.064083218574524,0.26915794610977173
1790267370465566000,3.90456591796875,1.578134536743164,1.1580607891082764,0.12629926204681396
1790267370475566000,3.914566162109375,1.231863021850586,1.048360824584961,0.15606892108917236
1790267370485566000,3.92456591796875,1.6714982986450195,0.7994413375854492,0.04694831371307373
1790267370495566000,3.934566162109375,1.9068503379821777,0.6326135396957397,-0.31610655784606934
1790267370505566000,3.94456591796875,1.4486122131347656,0.5600614547729492,-0.7023003101348877
1790267370515566000,3.954566162109375,0.8501558303833008,0.6664845943450928,-0.7586495280265808
1790267370525566000,3.96456591796875,0.8497905731201172,0.884903073310852,-0.804314374923706
1790267370535566000,3.974566162109375,1.0015816688537598,1.0735034942626953,-1.0076847076416016
1790267370545566000,3.98456591796875,0.5730199813842773,1.106868028640747,-1.054374098777771
1790267370555566000,3.994566162109375,0.4277763366699219,0.8952183723449707,-0.7354075908660889
1790267370565566000,4.00456591796875,0.7595572471618652,0.6210465431213379,-0.26735353469848633
1790267370575566000,4.014566162109375,0.9436202049255371,0.11650371551513672,-0.27161335945129395
1790267370585566000,4.02456591796875,0.9072723388671875,-0.5251500606536865,-0.6300840377807617
1790267370595566000,4.034566162109375,0.39457225799560547,-1.0375120639801025,-0.7363452911376953
1790267370605566000,4.04456591796875,0.1299581527709961,-1.3532891273498535,-0.5700042247772217
1790267370615566000,4.054566162109375,-0.5019092559814453,-1.387690544128418,-0.5808696746826172
1790267370625566000,4.06456591796875,-0.647071361541748,-1.2745137214660645,-0.8298146724700928
1790267370635566000,4.074566162109375,-0.38472843170166016,-1.1014556884765625,-1.141371726989746
1790267370645566000,4.08456591796875,-0.09989404678344727,-1.0043730735778809,-1.0989863872528076
1790267370655566000,4.094566162109375,0.7671980857849121,-1.1163640022277832,-0.761244535446167
1790267370665566000,4.10456591796875,1.2216644287109375,-1.2459101676940918,-0.39044737815856934
1790267370675566000,4.114566162109375,0.32503747940063477,-1.4327702522277832,-0.12833166122436523
1790267370685566000,4.12456591796875,-0.8838086128234863,-1.5250649452209473,-0.02773737907409668
1790267370695566000,4.134566162109375,-1.4504871368408203,-1.259047031402588,-0.1951601505279541
1790267370705566000,4.14456591796875,-1.6193451881408691,-0.7566843032836914,-0.7003271579742432
1790267370715566000,4.154566162109375,-1.7033147811889648,-0.1471118927001953,-1.0951807498931885
1790267370725566000,4.16456591796875,-1.3562345504760742,0.42447519302368164,-0.9903271198272705
1790267370735566000,4.174566162109375,-0.769345760345459,0.7424349784851074,-0.6412222385406494
1790267370745566000,4.18456591796875,-0.286318302154541,0.6735258102416992,-0.24791479110717773
1790267370755566000,4.194566162109375,-0.04743337631225586,0.31411075592041016,-0.017681598663330078
1790267370765566000,4.20456591796875,-0.578773021697998,-0.14955425262451172,-0.010328292846679688
1790267370775566000,4.214566162109375,-1.4954586029052734,-0.5871682167053223,-0.23192858695983887
1790267370785566000,4.22456591796875,-1.855428695678711,-0.8452448844909668,-0.607109785079956
1790267370795566000,4.234566162109375,-2.017902374267578,-0.8861956596374512,-1.1092746257781982
1790267370805566000,4.24456591796875,-2.4873509407043457,-0.7656807899475098,-1.5819032192230225
1790267370815566000,4.254566162109375,-2.729485034942627,-0.6494989395141602,-1.6236565113067627
1790267370825566000,4.26456591796875,-2.294527530670166,-0.6144633293151855,-1.521911859512329
1790267370835566000,4.274566162109375,-1.5062766075134277,-0.70904541015625,-1.3068468570709229
1790267370845566000,4.28456591796875,-0.8751039505004883,-0.820551872253418,-1.127291202545166
1790267370855566000,4.294566162109375,-0.8152217864990234,-0.9881606101989746,-0.8856906890869141
1790267370865566000,4.30456591796875,-0.7294368743896484,-1.144641399383545,-0.4654674530029297
1790267370875566000,4.314566162109375,-0.5827670097351074,-1.0097637176513672,-0.10014939308166504
1790267370885566000,4.32456591796875,-0.6362318992614746,-0.79766845703125,0.0542759895324707
1790267370895566000,4.334566162109375,-1.3095064163208008,-0.8240981101989746,-0.0017025470733642578
1790267370905566000,4.34456591796875,-2.1641736030578613,-0.9876308441162109,-0.07266759872436523
1790267370915566000,4.354566162109375,-2.3611369132995605,-1.1787166595458984,-0.045130252838134766
1790267370925566000,4.36456591796875,-2.180807590484619,-1.4702959060668945,-0.02072429656982422
1790267370935566000,4.374566162109375,-2.158017158508301,-1.846998691558838,0.3729851245880127
1790267370945566000,4.38456591796875,-2.0862789154052734,-2.298811435699463,1.1505825519561768
1790267370955566000,4.394566162109375,-1.6066813468933105,-2.4648828506469727,1.851053237915039
1790267370965566000,4.40456591796875,-1.4329099655151367,-2.3002405166625977,1.8072052001953125
1790267370975566000,4.414566162109375,-1.6096844673156738,-1.9653983116149902,1.3278651237487793
1790267370985566000,4.42456591796875,-1.5524072647094727,-1.5575814247131348,0.8679797649383545
1790267370995566000,4.434566162109375,-1.0830368995666504,-1.2055611610412598,0.6726083755493164
1790267371005566000,4.44456591796875,-0.7888531684875488,-1.024648666381836,0.6209917068481445
1790267371015566000,4.454566162109375,-0.9165143966674805,-1.0344133377075195,0.527101993560791
1790267371025566000,4.46456591796875,-1.4397034645080566,-1.1932811737060547,0.45319247245788574
1790267371035566000,4.474566162109375,-1.8932709693908691,-1.5485296249389648,0.529961347579956
1790267371045566000,4.48456591796875,-1.7791600227355957,-1.9267024993896484,0.7130417823791504
1790267371055566000,4.494566162109375,-1.3683323860168457,-1.949305534362793,0.7172451019287109
1790267371065566000,4.50456591796875,-0.9738359451293945,-1.5384149551391602,0.39120006561279297
1790267371075566000,4.514566162109375,-0.6215672492980957,-0.7318077087402344,-0.11801457405090332
1790267371085566000,4.52456591796875,-0.4167141914367676,0.22371673583984375,-0.6579103469848633
1790267371095566000,4.534566162109375,-0.22208595275878906,1.0275602340698242,-0.9788198471069336
1790267371105566000,4.54456591796875,0.08682537078857422,1.599771499633789,-1.0852015018463135
1790267371115566000,4.554566162109375,0.04144477844238281,1.8438539505004883,-1.016739845275879
1790267371125566000,4.56456591796875,0.16759204864501953,1.7602849006652832,-0.7826392650604248
1790267371135566000,4.574566162109375,0.08292245864868164,1.3577823638916016,-0.4077792167663574
1790267371145566000,4.58456591796875,-0.44031763076782227,0.6826925277709961,0.01906418800354004
1790267371155566000,4.594566162109375,-1.0741353034973145,-0.14228343963623047,0.3913242816925049
1790267371165566000,4.60456591796875,-1.4757285118103027,-0.8943500518798828,0.5440328121185303
1790267371175566000,4.614566162109375,-1.5048904418945312,-1.36122465133667,0.48072338104248047
1790267371185566000,4.62456591796875,-1.1274991035461426,-1.4953131675720215,0.2754209041595459
1790267371195566000,4.634566162109375,-0.6499581336975098,-1.1281328201293945,-0.06859111785888672
1790267371205566000,4.64456591796875,-0.28665590286254883,-0.4899773597717285,-0.37115025520324707
1790267371215566000,4.654566162109375,-0.11870479583740234,0.09689474105834961,-0.4414646625518799
1790267371225566000,4.66456591796875,0.05571413040161133,0.4900836944580078,-0.4634997844696045
1790267371235566000,4.674566162109375,0.3960146903991699,0.5443215370178223,-0.3909473419189453
1790267371245566000,4.68456591796875,0.5420475006103516,0.28118085861206055,-0.2735929489135742
1790267371255566000,4.694566162109375,0.19223260879516602,-0.07283782958984375,-0.15634417533874512
1790267371265566000,4.70456591796875,-0.4338870048522949,-0.4252033233642578,-0.002706766128540039
1790267371275566000,4.714566162109375,-0.9988064765930176,-0.5742073059082031,0.30129456520080566
1790267371285566000,4.72456591796875,-1.2528419494628906,-0.488919734954834,0.8436968326568604
1790267371295566000,4.734566162109375,-1.546534538269043,-0.3187589645385742,1.3598628044128418
1790267371305566200,4.744566162109375,-1.8796095848083496,-0.2969942092895508,1.701103687286377
1790267371315566300,4.75456640625,-1.993997573852539,-0.5376920700073242,1.8132710456848145
1790267371325566200,4.764566162109375,-2.0834860801696777,-1.0731382369995117,1.7004847526550293
1790267371335566300,4.77456640625,-1.8747496604919434,-1.8347973823547363,1.6413824558258057
1790267371345566200,4.784566162109375,-1.2930984497070312,-2.428798198699951,1.5056965351104736
1790267371355566300,4.79456640625,-0.7010149955749512,-2.490589141845703,0.8924160003662109
1790267371365566200,4.804566162109375,-0.18628931045532227,-2.017244815826416,0.4637720584869385
1790267371375566300,4.81456640625,-0.21451950073242188,-1.16795015335083,0.5623927116394043
1790267371385566200,4.824566162109375,-0.5689311027526855,-0.27098751068115234,0.5150797367095947
1790267371395566300,4.83456640625,-0.45861101150512695,0.5737900733947754,0.0978693962097168
1790267371405566200,4.844566162109375,0.4788661003112793,1.3403611183166504,-0.3626706600189209
1790267371415566300,4.85456640625,1.3154363632202148,1.867964267730713,-0.7753353118896484
1790267371425566200,4.864566162109375,1.472731113433838,2.103949546813965,-1.1619713306427002
1790267371435566300,4.87456640625,0.8627662658691406,2.0023045539855957,-1.4344581365585327
1790267371445566200,4.884566162109375,0.04065895080566406,1.520521640777588,-1.151092767715454
1790267371455566300,4.89456640625,-0.27382850646972656,0.8308053016662598,-0.4650309085845947
1790267371465566200,4.904566162109375,-0.43790149688720703,0.09186172485351562,0.3282461166381836
1790267371475566300,4.91456640625,-0.9849920272827148,-0.39778804779052734,0.8482811450958252
1790267371485566200,4.924566162109375,-1.4966354370117188,-0.803102970123291,1.1118268966674805
1790267371495566300,4.93456640625,-1.5136528015136719,-1.2276229858398438,1.2205336093902588
1790267371505566200,4.944566162109375,-1.0585722923278809,-1.5504355430603027,1.2091064453125
1790267371515566300,4.95456640625,-0.41873979568481445,-1.5650115013122559,1.0318856239318848
1790267371525566200,4.964566162109375,-0.03143787384033203,-1.323315143585205,0.7666518688201904
1790267371535566300,4.97456640625,-0.7629060745239258,-0.9749665260314941,0.6268837451934814
1790267371545566200,4.984566162109375,-2.039212226867676,-0.9017248153686523,0.7701926231384277
1790267371555566300,4.99456640625,-2.997128963470459,-1.2767448425292969,1.0241200923919678
1790267371565566200,5.004566162109375,-2.4106626510620117,-1.8816957473754883,1.3192944526672363
1790267371575566300,5.01456640625,-0.5094995498657227,-2.1090970039367676,1.3301969766616821
1790267371585566200,5.024566162109375,0.3298196792602539,-1.7402071952819824,1.2382467985153198
1790267371595566300,5.03456640625,-1.0972213745117188,-1.2843828201293945,1.2202589511871338
1790267371605566200,5.044566162109375,-2.985689163208008,-1.2282462120056152,1.3563647270202637
1790267371615566300,5.05456640625,-3.3186187744140625,-1.692312240600586,1.5760821104049683
1790267371625566200,5.064566162109375,-2.7304229736328125,-2.170258045196533,1.7938753366470337
1790267371635566300,5.07456640625,-1.6365470886230469,-2.2580738067626953,1.7280737161636353
1790267371645566200,5.084566162109375,-0.2977781295776367,-1.8173694610595703,1.5847690105438232
1790267371655566300,5.09456640625,0.6908340454101562,-1.2278170585632324,1.5757025480270386
1790267371665566200,5.104566162109375,0.9752235412597656,-0.8169682025909424,1.4335483312606812
1790267371675566300,5.11456640625,0.838134765625,-0.7793879508972168,1.1565642356872559
1790267371685566200,5.124566162109375,1.1202545166015625,-0.9959537982940674,1.0124402046203613
1790267371695566300,5.13456640625,1.7660913467407227,-1.0094804763793945,1.0941338539123535
1790267371705566200,5.144566162109375,2.4742136001586914,-0.852724552154541,1.1284385919570923
1790267371715566300,5.15456640625,3.2855224609375,-0.4371218681335449,1.1313101053237915
1790267371725566200,5.164566162109375,3.9039559364318848,-0.06392621994018555,1.083484411239624
1790267371735566300,5.17456640625,4.512626647949219,0.10343718528747559,0.8901857137680054
1790267371745566200,5.184566162109375,4.499293327331543,0.04941129684448242,0.5457955598831177
1790267371755566300,5.19456640625,3.794295310974121,-0.018779516220092773,-0.3937920033931732
1790267371765566200,5.204566162109375,3.2097129821777344,-0.021710991859436035,-1.4587783813476562
1790267371775566300,5.21456640625,2.700282096862793,0.02514779567718506,-2.0454916954040527
1790267371785566200,5.224566162109375,2.551387310028076,0.10694992542266846,-1.8422255516052246
1790267371795566300,5.23456640625,2.1708078384399414,0.22760140895843506,-1.4691483974456787
1790267371805566200,5.244566162109375,2.012477397918701,0.26276636123657227,-1.1631662845611572
1790267371815566300,5.25456640625,0.33440208435058594,0.3525397777557373,-1.7280352115631104
1790267371825566200,5.264566162109375,-1.675130844116211,1.0826939344406128,-2.9152252674102783
1790267371835566300,5.27456640625,-1.4850149154663086,2.2585058212280273,-2.420433282852173
1790267371845566200,5.284566162109375,-1.4510526657104492,2.9094934463500977,-1.186318278312683
1790267371855566300,5.29456640625,-2.610772132873535,2.524838447570801,-0.4662933349609375
1790267371865566200,5.304566162109375,-0.6798839569091797,0.77524334192276,0.850125789642334
1790267371875566300,5.31456640625,-1.1193113327026367,-1.5284812450408936,1.7760121822357178
1790267371885566200,5.324566162109375,-2.1200180053710938,-3.255647659301758,1.409090518951416
1790267371895566300,5.33456640625,-1.5334548950195312,-3.511174201965332,1.0373821258544922
1790267371905566200,5.344566162109375,-0.7676591873168945,-2.219294309616089,1.838353157043457
1790267371915566300,5.35456640625,0.18822479248046875,-1.160881757736206,2.941906690597534
1790267371925566200,5.364566162109375,0.9679956436157227,-1.5032625198364258,3.2388014793395996
1790267371935566300,5.37456640625,3.1835641860961914,-1.279320478439331,2.146040201187134
1790267371945566200,5.384566162109375,5.488839149475098,-0.20243442058563232,0.9351995587348938
1790267371955566300,5.39456640625,7.4695916175842285,0.9286242723464966,0.36988720297813416
1790267371965566200,5.404566162109375,7.52564001083374,1.9921786785125732,-0.6619898080825806
1790267371975566300,5.41456640625,6.721139907836914,2.6741204261779785,-1.3283846378326416
1790267371985566200,5.424566162109375,5.861993312835693,2.956648349761963,-1.0666265487670898
1790267371995566300,5.43456640625,4.849065780639648,3.03303599357605,-0.8124316334724426
1790267372005566200,5.444566162109375,3.738003730773926,2.841905117034912,-0.8369253277778625
1790267372015566300,5.45456640625,3.0739340782165527,2.2562172412872314,-1.1191167831420898
1790267372025566200,5.464566162109375,3.1523337364196777,1.4495024681091309,-0.9156573414802551
1790267372035566300,5.47456640625,3.56980037689209,1.0515623092651367,-0.470359742641449
1790267372045566200,5.484566162109375,3.8427419662475586,0.9777098894119263,-0.09751549363136292
1790267372055566300,5.49456640625,3.587799549102783,0.8887417316436768,-0.2844218611717224
1790267372065566200,5.504566162109375,2.337238311767578,0.8298448324203491,-0.3789341151714325
1790267372075566300,5.51456640625,1.3134441375732422,1.0006271600723267,0.061007022857666016
1790267372085566200,5.524566162109375,2.119551181793213,1.2264397144317627,0.8157320618629456
1790267372095566300,5.53456640625,2.618488311767578,1.3877317905426025,1.0777246952056885
1790267372105566200,5.544566162109375,2.8754305839538574,1.4236581325531006,1.4311254024505615
1790267372115566300,5.55456640625,2.6172218322753906,1.3656535148620605,1.6365513801574707
1790267372125566200,5.564566162109375,1.8241472244262695,1.1162519454956055,1.5754889249801636
1790267372135566300,5.57456640625,1.35205078125,0.7465288639068604,1.4493365287780762
1790267372145566200,5.584566162109375,1.1360301971435547,0.4494030475616455,1.3451159000396729
1790267372155566300,5.59456640625,0.5849685668945312,0.47835612297058105,1.1723788976669312
1790267372165566200,5.604566162109375,-0.02623748779296875,0.7064447402954102,0.9868255853652954
1790267372175566300,5.61456640625,-0.3536243438720703,0.9103071689605713,0.7897114753723145
1790267372185566200,5.624566162109375,-0.1855754852294922,0.9144985675811768,0.7389934062957764
1790267372195566300,5.63456640625,-0.033967018127441406,0.6046397686004639,0.8138236999511719
1790267372205566200,5.644566162109375,-0.32312774658203125,0.04566764831542969,0.9049417972564697
1790267372215566300,5.65456640625,-0.5900440216064453,-0.5654406547546387,1.0181138515472412
1790267372225566200,5.664566162109375,-0.31466007232666016,-1.1820993423461914,0.9461390972137451
1790267372235566300,5.67456640625,-0.23264503479003906,-1.8228669166564941,0.7543075084686279
1790267372245566200,5.684566162109375,0.4689521789550781,-2.312347888946533,0.20960545539855957
1790267372255566300,5.69456640625,1.4291696548461914,-2.562509536743164,-0.3231492042541504
1790267372265566200,5.704566162109375,1.3487153053283691,-2.6780781745910645,-0.841806173324585
1790267372275566300,5.71456640625,1.4294476509094238,-2.5952067375183105,-1.3181339502334595
1790267372285566200,5.724566162109375,2.7465310096740723,-2.260115146636963,-1.742396354675293
1790267372295566300,5.73456640625,3.6495046615600586,-1.7110042572021484,-2.459895133972168
1790267372305566200,5.744566162109375,3.453059434890747,-0.9540667533874512,-3.149019479751587
1790267372315566300,5.75456640625,3.0049452781677246,-0.02384185791015625,-3.3117382526397705
1790267372325566200,5.764566162109375,2.589982509613037,1.014573097229004,-3.3085174560546875
1790267372335566300,5.77456640625,1.8494234085083008,1.7817111015319824,-3.242286205291748
1790267372345566200,5.784566162109375,1.1709184646606445,2.3219738006591797,-3.1826136112213135
1790267372355566300,5.79456640625,0.902590274810791,2.607654094696045,-3.1916470527648926
1790267372365566200,5.804566162109375,0.8508672714233398,2.3493776321411133,-2.9748568534851074
1790267372375566300,5.81456640625,0.6246013641357422,1.6610102653503418,-2.516878843307495
1790267372385566200,5.824566162109375,-0.4099087715148926,0.5797114372253418,-2.021336555480957
1790267372395566300,5.83456640625,-1.3816776275634766,-0.9666538238525391,-1.229851245880127
1790267372405566200,5.844566162109375,-1.6172008514404297,-2.75223970413208,-0.5562143325805664
1790267372415566300,5.85456640625,-1.7762980461120605,-4.274313449859619,-0.26296091079711914
1790267372425566200,5.864566162109375,-1.3611936569213867,-5.1102190017700195,-0.9788510799407959
1790267372435566300,5.87456640625,-0.39363622665405273,-5.442200183868408,-1.8478238582611084
1790267372445566200,5.884566162109375,0.6610350608825684,-5.658364295959473,-1.037846326828003
1790267372455566300,5.89456640625,1.2624211311340332,-5.742661952972412,0.5370759963989258
1790267372465566200,5.904566162109375,0.2913789749145508,-5.51934289932251,2.485302686691284
1790267372475566300,5.91456640625,-1.8128809928894043,-4.5806121826171875,3.961944103240967
1790267372485566200,5.924566162109375,-3.473140239715576,-3.057535171508789,4.084046363830566
1790267372495566300,5.93456640625,-4.178142070770264,-1.8135700225830078,3.562460422515869
1790267372505566200,5.944566162109375,-3.901916742324829,-1.151444435119629,3.250481367111206
1790267372515566300,5.95456640625,-3.0784618854522705,-0.9154911041259766,3.4012491703033447
1790267372525566200,5.964566162109375,-2.288745403289795,-0.8283872604370117,3.933128833770752
1790267372535566300,5.97456640625,-1.6110529899597168,-0.7122516632080078,4.58751106262207
1790267372545566200,5.984566162109375,-1.1904191970825195,-0.5186891555786133,5.068340301513672
1790267372555566300,5.99456640625,-1.4073071479797363,-0.115692138671875,4.819013595581055
1790267372565566200,6.004566162109375,-2.595903158187866,0.058465003967285156,3.7750844955444336
1790267372575566300,6.01456640625,-3.7973532676696777,-0.18618488311767578,2.8933980464935303
1790267372585566200,6.024566162109375,-4.2789154052734375,-1.0462570190429688,2.051215648651123
1790267372595566300,6.03456640625,-4.139748573303223,-1.9319162368774414,1.3701879978179932
1790267372605566200,6.044566162109375,-3.721029281616211,-2.340219497680664,1.0113532543182373
1790267372615566300,6.05456640625,-3.020716428756714,-2.1708364486694336,0.8093109130859375
1790267372625566200,6.064566162109375,-2.0951664447784424,-1.5134620666503906,0.477567195892334
1790267372635566300,6.07456640625,-1.157743215560913,-0.6414299011230469,0.049356698989868164
1790267372645566200,6.084566162109375,-0.368990421295166,0.11205387115478516,-0.32860302925109863
1790267372655566300,6.09456640625,-0.0734720230102539,0.5282878875732422,-0.7017214298248291
1790267372665566200,6.104566162109375,-0.5864787101745605,0.29737281799316406,-0.9490439891815186
1790267372675566300,6.11456640625,-1.4916343688964844,-0.5721530914306641,-0.8045942783355713
1790267372685566200,6.124566162109375,-2.522749662399292,-1.5853347778320312,-0.46720075607299805
1790267372695566300,6.13456640625,-3.4727818965911865,-2.506715774536133,0.0419161319732666
1790267372705566200,6.144566162109375,-3.9784164428710938,-3.3680124282836914,0.6102695465087891
1790267372715566300,6.15456640625,-3.818129777908325,-3.942965507507324,1.1173522472381592
1790267372725566200,6.164566162109375,-3.2638156414031982,-4.146827697753906,1.1842913627624512
1790267372735566300,6.17456640625,-2.2407689094543457,-3.5755205154418945,0.9311132431030273
1790267372745566200,6.184566162109375,-0.7969317436218262,-2.619180679321289,0.739020586013794
1790267372755566300,6.19456640625,0.8825671672821045,-1.6337270736694336,0.749962329864502
1790267372765566200,6.204566162109375,2.0490317344665527,-0.7963151931762695,0.6740987300872803
1790267372775566300,6.21456640625,2.467050552368164,-0.1629505157470703,0.2546250820159912
1790267372785566200,6.224566162109375,2.4928133487701416,0.14793109893798828,-0.525022029876709
1790267372795566300,6.23456640625,2.2244439125061035,0.25428199768066406,-1.1602437496185303
1790267372805566200,6.244566162109375,1.9939095973968506,0.27277469635009766,-1.5897257328033447
1790267372815566300,6.25456640625,1.8372468948364258,0.2532038688659668,-1.8431638479232788
1790267372825566200,6.264566162109375,1.6754546165466309,0.30364370346069336,-1.881857991218567
1790267372835566300,6.27456640625,1.5517685413360596,0.36841821670532227,-1.5747891664505005
1790267372845566200,6.284566162109375,1.069312572479248,0.4105234146118164,-1.1282386779785156
1790267372855566300,6.29456640625,0.4947528839111328,0.4708104133605957,-0.6607437133789062
1790267372865566200,6.304566162109375,0.19282913208007812,0.5067777633666992,-0.13388490676879883
1790267372875566300,6.31456640625,0.10192060470581055,0.5547661781311035,0.2579934597015381
1790267372885566200,6.324566162109375,-0.03443717956542969,0.559814453125,0.6593043804168701
1790267372895566300,6.33456640625,-0.10533809661865234,0.5137939453125,1.1614296436309814
1790267372905566200,6.344566162109375,-0.1266465187072754,0.2911872863769531,1.6642835140228271
1790267372915566300,6.35456640625,-0.15147066116333008,-0.0790700912475586,1.9909138679504395
1790267372925566200,6.364566162109375,-0.48885393142700195,-0.551607608795166,1.8282585144042969
1790267372935566300,6.37456640625,-0.686150074005127,-0.9220137596130371,1.3946592807769775
1790267372945566200,6.384566162109375,-0.3613715171813965,-1.1980772018432617,1.17415452003479
1790267372955566300,6.39456640625,0.06847620010375977,-1.4126033782958984,1.217414140701294
1790267372965566200,6.404566162109375,0.16320514678955078,-1.5759339332580566,1.2382423877716064
1790267372975566300,6.41456640625,-0.573033332824707,-1.7230281829833984,0.8900167942047119
1790267372985566200,6.424566162109375,-1.468942642211914,-1.7104673385620117,0.3128657341003418
1790267372995566300,6.43456640625,-1.5180888175964355,-1.5086641311645508,-0.012230157852172852
1790267373005566200,6.444566162109375,-1.0969948768615723,-1.1727499961853027,0.09805679321289062
1790267373015566300,6.45456640625,-1.0823941230773926,-0.7924833297729492,0.12770915031433105
1790267373025566200,6.464566162109375,-0.975703239440918,-0.5328221321105957,0.06124424934387207
1790267373035566300,6.47456640625,-0.6664648056030273,-0.45452022552490234,0.022944211959838867
1790267373045566200,6.484566162109375,-0.4921703338623047,-0.4594917297363281,-0.0401453971862793
1790267373055566300,6.49456640625,-0.3805975914001465,-0.3734149932861328,-0.26477766036987305
1790267373065566200,6.504566162109375,-0.17080450057983398,-0.3075098991394043,-0.6409509181976318
1790267373075566300,6.51456640625,-0.03548002243041992,-0.2542734146118164,-0.9820952415466309
1790267373085566200,6.524566162109375,-0.018253803253173828,-0.28814125061035156,-1.036928653717041
1790267373095566300,6.53456640625,-0.0513920783996582,-0.39513635635375977,-0.9822266101837158
1790267373105566200,6.544566162109375,-0.1754460334777832,-0.5042595863342285,-0.8970367908477783
1790267373115566300,6.55456640625,-0.13226556777954102,-0.6188101768493652,-0.7546571493148804
1790267373125566200,6.564566162109375,-0.10628843307495117,-0.6136326789855957,-0.5419096946716309
1790267373135566300,6.57456640625,-0.4539675712585449,-0.49187421798706055,-0.33379435539245605
1790267373145566200,6.584566162109375,-0.7104578018188477,-0.3653750419616699,-0.13007831573486328
1790267373155566300,6.59456640625,-0.42711448669433594,-0.35827207565307617,0.011295080184936523
1790267373165566200,6.604566162109375,-0.059584617614746094,-0.41782569885253906,0.15223073959350586
1790267373175566300,6.61456640625,0.08434200286865234,-0.36735057830810547,0.30716681480407715
1790267373185566200,6.624566162109375,-0.197509765625,-0.33566856384277344,0.39241886138916016
1790267373195566300,6.63456640625,-0.45697784423828125,-0.3381462097167969,0.5841902494430542
1790267373205566200,6.644566162109375,-0.580775260925293,-0.4586763381958008,0.8353627920150757
1790267373215566300,6.65456640625,-0.8722009658813477,-0.7151727676391602,1.0917389392852783
1790267373225566200,6.664566162109375,-0.7347297668457031,-1.170969009399414,1.2400689125061035
1790267373235566300,6.67456640625,-0.3851003646850586,-1.6450073719024658,1.3309576511383057
1790267373245566200,6.684566162109375,-0.29024696350097656,-1.9811432361602783,1.449031949043274
1790267373255566300,6.69456640625,-0.5203380584716797,-2.0754129886627197,1.432854175567627
1790267373265566200,6.704566162109375,-0.7578849792480469,-2.019587278366089,1.2310384511947632
1790267373275566300,6.71456640625,-0.7174339294433594,-1.9705407619476318,1.2891108989715576
1790267373285566200,6.724566162109375,-0.3496990203857422,-1.9013512134552002,1.680849552154541
1790267373295566300,6.73456640625,-0.45975780487060547,-1.689016342163086,1.8218432664871216
1790267373305566200,6.744566162109375,0.022733688354492188,-1.4450385570526123,1.66660737991333
1790267373315566300,6.75456640625,1.007521629333496,-1.2079625129699707,1.500586748123169
1790267373325566200,6.764566162109375,1.4227380752563477,-0.8725712299346924,1.3555330038070679
1790267373335566300,6.77456640625,1.495880126953125,-0.528249979019165,1.1340579986572266
1790267373345566200,6.784566162109375,1.574188232421875,-0.3958566188812256,0.7226875424385071
1790267373355566300,6.79456640625,1.7739200592041016,-0.41454315185546875,0.26409685611724854
1790267373365566200,6.804566162109375,2.2507529258728027,-0.43780243396759033,0.023066461086273193
1790267373375566300,6.81456640625,2.752324104309082,-0.4161573648452759,0.03881034255027771
1790267373385566200,6.824566162109375,3.6285972595214844,-0.39699411392211914,0.09757685661315918
1790267373395566300,6.83456640625,4.519069194793701,-0.6033428907394409,0.16775503754615784
1790267373405566200,6.844566162109375,4.943079948425293,-0.5161018371582031,-0.1602419912815094
1790267373415566300,6.85456640625,4.316533088684082,-0.18912160396575928,-0.7720123529434204
1790267373425566200,6.864566162109375,3.6973233222961426,0.07837867736816406,-1.3475475311279297
1790267373435566300,6.87456640625,4.254016876220703,0.5913223624229431,-1.367397427558899
1790267373445566200,6.884566162109375,4.681405067443848,1.352670431137085,-1.1846505403518677
1790267373455566300,6.89456640625,4.260571479797363,1.9412786960601807,-1.3083915710449219
1790267373465566200,6.904566162109375,3.3798837661743164,2.3465635776519775,-1.9426395893096924
1790267373475566300,6.91456640625,2.5401620864868164,2.5392684936523438,-2.9207966327667236
1790267373485566200,6.924566162109375,2.617335319519043,2.5632975101470947,-2.620330810546875
1790267373495566300,6.93456640625,2.9861230850219727,2.4136552810668945,-1.7551310062408447
1790267373505566200,6.944566162109375,1.9975996017456055,2.0651490688323975,-1.4667272567749023
1790267373515566300,6.95456640625,0.8872051239013672,1.4605343341827393,-0.8428231477737427
1790267373525566200,6.964566162109375,0.7705373764038086,0.5608059763908386,-0.12982678413391113
1790267373535566300,6.97456640625,0.6239347457885742,-0.43934518098831177,-0.11428803205490112
1790267373545566200,6.984566162109375,0.11171245574951172,-1.0375295877456665,0.18338227272033691
1790267373555566300,6.99456640625,-0.04112529754638672,-1.1357113122940063,0.4146255850791931
1790267373565566200,7.004566162109375,0.9712038040161133,-0.5710858106613159,0.9213266372680664
1790267373575566300,7.01456640625,1.9352531433105469,0.37615031003952026,1.1106796264648438
1790267373585566200,7.024566162109375,1.8446497917175293,1.0097712278366089,0.95723557472229
1790267373595566300,7.03456640625,1.580423355102539,0.8449808955192566,0.8600477576255798
1790267373605566200,7.044566162109375,2.4168167114257812,0.5681312084197998,0.6310995817184448
1790267373615566300,7.05456640625,3.1693248748779297,0.4232947826385498,0.3965631127357483
1790267373625566200,7.064566162109375,3.621771812438965,0.35993432998657227,0.42206352949142456
1790267373635566300,7.07456640625,3.842524528503418,0.4034227132797241,0.07680189609527588
1790267373645566200,7.084566162109375,3.8925929069519043,0.6217995882034302,-0.4438002407550812
1790267373655566300,7.09456640625,3.6708688735961914,0.8787037134170532,-0.7527271509170532
1790267373665566200,7.104566162109375,3.495345115661621,1.217211127281189,-0.8422412872314453
1790267373675566300,7.11456640625,2.849898338317871,1.6925017833709717,-0.9400250315666199
1790267373685566200,7.124566162109375,2.4536333084106445,2.1427001953125,-0.8212778568267822
1790267373695566300,7.13456640625,2.451429843902588,2.4088361263275146,-0.6826214790344238
1790267373705566200,7.144566162109375,2.8276538848876953,2.505560874938965,-0.532883882522583
1790267373715566300,7.15456640625,3.254732131958008,2.44600248336792,-0.322715163230896
1790267373725566200,7.164566162109375,2.685938835144043,2.166996479034424,-0.42766356468200684
1790267373735566300,7.17456640625,1.416672706604004,1.7814618349075317,-0.4727393388748169
1790267373745566200,7.184566162109375,0.9558277130126953,1.3558903932571411,-0.20599079132080078
1790267373755566300,7.19456640625,1.361968994140625,1.0072157382965088,-0.06671488285064697
1790267373765566200,7.204566162109375,1.398848533630371,0.8329367637634277,-0.13172650337219238
1790267373775566300,7.21456640625,1.0309419631958008,0.6131880283355713,-0.18856477737426758
1790267373785566200,7.224566162109375,1.246251106262207,0.23262381553649902,0.012183427810668945
1790267373795566300,7.23456640625,1.2055702209472656,-0.1647934913635254,0.11177754402160645
1790267373805566200,7.244566162109375,0.4737124443054199,-0.6959657669067383,0.254227876663208
1790267373815566300,7.25456640625,0.20147991180419922,-1.3382420539855957,0.42264246940612793
1790267373825566200,7.264566162109375,0.40355587005615234,-1.8416953086853027,0.40015459060668945
1790267373835566300,7.27456640625,0.6087050437927246,-2.2434492111206055,0.07436513900756836
1790267373845566200,7.284566162109375,0.5771737098693848,-2.5181727409362793,-0.21889615058898926
1790267373855566300,7.29456640625,0.00226593017578125,-2.487135410308838,-0.3477311134338379
1790267373865566200,7.304566162109375,-0.5630230903625488,-2.4799346923828125,-0.3330256938934326
1790267373875566300,7.31456640625,-1.2911810874938965,-2.5142111778259277,-0.14308452606201172
1790267373885566200,7.324566162109375,-1.6762323379516602,-2.5128345489501953,0.08477234840393066
1790267373895566300,7.33456640625,-1.6072635650634766,-2.424699306488037,0.05861639976501465
1790267373905566200,7.344566162109375,-1.025068759918213,-2.183590888977051,-0.21445465087890625
1790267373915566300,7.35456640625,-0.6672468185424805,-1.885667324066162,-0.4778718948364258
1790267373925566200,7.364566162109375,-0.4372549057006836,-1.5130057334899902,-0.438762903213501
1790267373935566300,7.37456640625,-0.13767671585083008,-1.1450328826904297,-0.36275362968444824
1790267373945566200,7.384566162109375,-0.1795964241027832,-0.8642640113830566,-0.520801305770874
1790267373955566300,7.39456640625,-0.1930074691772461,-0.6568188667297363,-0.7213568687438965
1790267373965566200,7.404566162109375,0.03355073928833008,-0.44828176498413086,-1.004124641418457
1790267373975566300,7.41456640625,0.27409839630126953,-0.25862789154052734,-1.303246021270752
1790267373985566200,7.424566162109375,0.19971656799316406,-0.08234024047851562,-1.4472579956054688
1790267373995566300,7.43456640625,-0.15543460845947266,0.0418400764465332,-1.2828540802001953
1790267374005566200,7.444566162109375,-1.190805435180664,0.2295393943786621,-1.0939311981201172
1790267374015566300,7.45456640625,-2.128976821899414,0.3519763946533203,-1.10899019241333
1790267374025566200,7.464566162109375,-2.5001883506774902,0.21940135955810547,-1.1417028903961182
1790267374035566300,7.47456640625,-1.9137611389160156,-0.20079469680786133,-1.0068604946136475
1790267374045566200,7.484566162109375,-1.380669116973877,-0.7983255386352539,-0.7567734718322754
1790267374055566300,7.49456640625,-1.460601806640625,-1.570871353149414,-0.4654123783111572
1790267374065566200,7.504566162109375,-1.9562630653381348,-2.439554214477539,-0.13930010795593262
1790267374075566300,7.51456640625,-1.9981193542480469,-3.077899932861328,0.15825581550598145
1790267374085566200,7.524566162109375,-1.855288028717041,-3.3569774627685547,0.428239107131958
1790267374095566300,7.53456640625,-1.649043083190918,-3.2984352111816406,0.7894637584686279
1790267374105566200,7.544566162109375,-1.6663298606872559,-3.1318607330322266,1.1699144840240479
1790267374115566300,7.55456640625,-1.683927059173584,-2.7468814849853516,1.451937198638916
1790267374125566200,7.564566162109375,-1.7284770011901855,-2.123546600341797,1.466604471206665
1790267374135566300,7.57456640625,-2.14663028717041,-1.411661148071289,1.210461139678955
1790267374145566200,7.584566162109375,-2.730696678161621,-0.9391622543334961,1.1447060108184814
1790267374155566300,7.59456640625,-3.2145943641662598,-0.6795196533203125,1.604269027709961
1790267374165566200,7.604566162109375,-3.6482973098754883,-0.6715879440307617,2.531316041946411
1790267374175566300,7.61456640625,-3.4031763076782227,-1.0681991577148438,3.2274560928344727
1790267374185566200,7.624566162109375,-2.6576128005981445,-1.7939891815185547,3.2844960689544678
1790267374195566300,7.63456640625,-2.4320387840270996,-2.7213621139526367,2.9250752925872803
1790267374205566200,7.644566162109375,-2.506887912750244,-3.6081104278564453,2.5337374210357666
1790267374215566300,7.65456640625,-2.5250606536865234,-4.14794921875,2.192842483520508
1790267374225566200,7.664566162109375,-2.409942626953125,-3.8125791549682617,1.4509308338165283
1790267374235566300,7.67456640625,-2.1701221466064453,-2.7929019927978516,0.7540111541748047
1790267374245566200,7.684566162109375,-1.2689824104309082,-1.3506059646606445,0.1187748908996582
1790267374255566300,7.69456640625,-0.20689153671264648,0.07519912719726562,-0.29187989234924316
1790267374265566200,7.704566162109375,0.6100897789001465,1.1042671203613281,-0.6062815189361572
1790267374275566300,7.71456640625,0.9824295043945312,1.7398223876953125,-1.073518991470337
1790267374285566200,7.724566162109375,0.9773986339569092,1.8589377403259277,-1.5220093727111816
1790267374295566300,7.73456640625,0.8325767517089844,1.5785446166992188,-1.9287623167037964
1790267374305566200,7.744566162109375,0.6484498977661133,1.0194511413574219,-1.9075303077697754
1790267374315566300,7.75456640625,0.24013996124267578,0.34287261962890625,-1.365510106086731
1790267374325566200,7.764566162109375,-0.15231084823608398,-0.26458740234375,-0.6165831089019775
1790267374335566300,7.77456640625,-0.2753868103027344,-0.9182806015014648,0.11727166175842285
1790267374345566200,7.784566162109375,-0.6535229682922363,-1.6639771461486816,0.34985923767089844
1790267374355566300,7.79456640625,-0.8849306106567383,-2.3486785888671875,0.07845401763916016
1790267374365566200,7.804566162109375,-0.3530745506286621,-2.739863395690918,-0.24708771705627441
1790267374375566300,7.81456640625,0.301666259765625,-2.6503844261169434,-0.39470815658569336
1790267374385566200,7.824566162109375,0.23599815368652344,-2.178849220275879,-0.363572359085083
1790267374395566300,7.83456640625,0.14637136459350586,-1.3168931007385254,-0.11148834228515625
1790267374405566200,7.844566162109375,0.08792734146118164,-0.3408331871032715,0.2538459300994873
1790267374415566300,7.85456640625,0.20642948150634766,0.44892024993896484,0.6127529144287109
1790267374425566200,7.864566162109375,0.3799862861633301,1.0795769691467285,0.8431696891784668
1790267374435566300,7.87456640625,0.3072662353515625,1.5396618843078613,0.6902358531951904
1790267374445566200,7.884566162109375,0.10607194900512695,1.8098726272583008,0.20493054389953613
1790267374455566300,7.89456640625,-0.26078081130981445,1.8547005653381348,-0.2171473503112793
1790267374465566200,7.904566162109375,-0.6639633178710938,1.5012435913085938,-0.26465702056884766
1790267374475566300,7.91456640625,-1.0696916580200195,0.7934384346008301,-0.037482500076293945
1790267374485566200,7.924566162109375,-1.4698987007141113,-0.10631370544433594,0.36213040351867676
1790267374495566300,7.93456640625,-1.6856627464294434,-0.981407642364502,0.7050340175628662
1790267374505566200,7.944566162109375,-1.1939420700073242,-1.6001110076904297,0.9547004699707031
1790267374515566300,7.95456640625,-0.13187646865844727,-1.7875385284423828,1.0492291450500488
1790267374525566200,7.964566162109375,0.5937271118164062,-1.427870750427246,0.9062910079956055
1790267374535566300,7.97456640625,0.5215744972229004,-0.7357501983642578,0.6166036128997803
1790267374545566200,7.984566162109375,0.1378002166748047,-0.1237783432006836,0.458057165145874
1790267374555566300,7.99456640625,-0.3930191993713379,0.16828250885009766,0.47415852546691895
1790267374565566200,8.004566162109375,-1.0552434921264648,0.06996870040893555,0.6082146167755127
1790267374575566300,8.01456640625,-1.2367944717407227,-0.28687334060668945,0.7863287925720215
1790267374585566200,8.024566162109375,-1.0783209800720215,-0.5879611968994141,0.6015212535858154
1790267374595566300,8.03456640625,-0.9831323623657227,-0.7843832969665527,0.14831256866455078
1790267374605566200,8.044566162109374,-1.0784754753112793,-0.9621706008911133,-0.0010864734649658203
1790267374615566300,8.05456640625,-0.959043025970459,-1.2403068542480469,0.2171013355255127
1790267374625566200,8.064566162109376,-0.9334206581115723,-1.4622573852539062,0.6431906223297119
1790267374635566300,8.07456640625,-1.191232681274414,-1.5390324592590332,1.331484079360962
1790267374645566200,8.084566162109375,-1.2483181953430176,-1.4805669784545898,1.815417766571045
1790267374655566300,8.09456640625,-1.2942447662353516,-1.3582420349121094,1.8158459663391113
1790267374665566200,8.104566162109375,-0.7817344665527344,-1.3120555877685547,1.560157299041748
1790267374675566300,8.11456640625,0.03605365753173828,-1.2038545608520508,1.163909673690796
1790267374685566200,8.124566162109375,0.47945737838745117,-1.0529541969299316,0.6903998851776123
1790267374695566300,8.13456640625,0.6030349731445312,-0.9440569877624512,0.2646496295928955
1790267374705566200,8.144566162109374,0.9180011749267578,-0.9073915481567383,-0.01215362548828125
1790267374715566300,8.15456640625,0.9542555809020996,-0.8227787017822266,-0.09243202209472656
1790267374725566200,8.164566162109375,0.13625335693359375,-0.7646083831787109,-0.0882953405380249
1790267374735566300,8.17456640625,-0.8927669525146484,-0.8417716026306152,-0.14384770393371582
1790267374745566200,8.184566162109375,-1.2706737518310547,-1.0798883438110352,-0.2069711685180664
1790267374755566300,8.19456640625,-0.3844642639160156,-1.3318042755126953,-0.10115349292755127
1790267374765566200,8.204566162109375,0.7542181015014648,-1.5511350631713867,0.2607147693634033
1790267374775566300,8.21456640625,1.509054183959961,-1.6427693367004395,0.335455060005188
1790267374785566200,8.224566162109374,2.1364870071411133,-1.3041460514068604,0.3247995376586914
1790267374795566300,8.23456640625,1.422532081604004,-0.7688677310943604,0.20094120502471924
1790267374805566200,8.244566162109376,0.49105262756347656,-0.5785427093505859,-0.33035141229629517
1790267374815566300,8.25456640625,0.797520637512207,-0.8219852447509766,-0.8876626491546631
1790267374825566200,8.264566162109375,2.211207866668701,-1.3170571327209473,-0.8165059685707092
1790267374835566300,8.27456640625,2.843179702758789,-1.4588584899902344,-0.18101131916046143
1790267374845566200,8.284566162109375,2.4475059509277344,-1.1094231605529785,0.4783822298049927
1790267374855566300,8.29456640625,1.689326286315918,-0.7411742210388184,0.5943267345428467
1790267374865566200,8.304566162109374,1.3084344863891602,-0.5366394519805908,0.22557413578033447
1790267374875566300,8.31456640625,0.9795303344726562,-0.4283905029296875,-0.16256099939346313
1790267374885566200,8.324566162109376,0.8734169006347656,-0.316805362701416,-0.39568859338760376
1790267374895566300,8.33456640625,1.8430862426757812,-0.21180081367492676,-0.06972819566726685
1790267374905566200,8.344566162109375,3.022618293762207,0.012129068374633789,0.5632340312004089
1790267374915566300,8.35456640625,2.7938413619995117,0.48199987411499023,0.2647167444229126
1790267374925566200,8.364566162109375,1.8773574829101562,0.8550153374671936,-0.6561623811721802
1790267374935566300,8.37456640625,1.7361183166503906,0.6964763402938843,-1.2187033891677856
1790267374945566200,8.384566162109374,2.287139415740967,0.4790118932723999,-1.5243207216262817
1790267374955566300,8.39456640625,2.2679243087768555,0.4734680652618408,-1.6115915775299072
1790267374965566200,8.404566162109376,1.870844841003418,0.580428421497345,-1.7431092262268066
1790267374975566300,8.41456640625,1.5911598205566406,0.5972266793251038,-2.096597671508789
1790267374985566200,8.424566162109375,1.3352746963500977,0.2046160101890564,-1.7395663261413574
1790267374995566300,8.43456640625,0.5291767120361328,-0.3835184574127197,-1.4931716918945312
1790267375005566200,8.444566162109375,0.7608880996704102,-0.4874114394187927,-1.3785536289215088
1790267375015566300,8.45456640625,1.0786113739013672,0.2550400197505951,-1.129309058189392
1790267375025566200,8.464566162109374,0.5988492965698242,1.0993638038635254,-1.014542579650879
1790267375035566300,8.47456640625,0.5222988128662109,1.4737874269485474,-0.4495522677898407
1790267375045566200,8.484566162109376,1.1449289321899414,1.2164169549942017,0.2963600754737854
1790267375055566300,8.49456640625,1.4018430709838867,0.7110836505889893,0.19737279415130615
1790267375065566200,8.504566162109375,1.6540279388427734,0.27262961864471436,-0.1758705973625183
1790267375075566300,8.51456640625,2.674307346343994,0.12076085805892944,-0.2318832278251648
1790267375085566200,8.524566162109375,4.245365142822266,0.11470222473144531,-0.15238791704177856
1790267375095566300,8.53456640625,3.8458313941955566,0.23851549625396729,-0.45202893018722534
1790267375105566200,8.544566162109374,3.459178924560547,0.3961636424064636,-0.5490013360977173
1790267375115566300,8.55456640625,3.8540267944335938,0.658795177936554,-0.38343971967697144
1790267375125566200,8.564566162109376,3.7115964889526367,0.9041792750358582,-0.23022764921188354
1790267375135566300,8.57456640625,3.697443962097168,1.0898756980895996,0.19512784481048584
1790267375145566200,8.584566162109375,3.834217071533203,1.2790863513946533,0.450191855430603
1790267375155566300,8.59456640625,3.942531108856201,1.4352068901062012,0.382999062538147
1790267375165566200,8.604566162109375,3.683811664581299,1.6470699310302734,-0.06030714511871338
1790267375175566300,8.61456640625,3.0109500885009766,1.8780903816223145,-0.36623096466064453
1790267375185566200,8.624566162109375,2.780806541442871,2.049523115158081,-0.4379786252975464
1790267375195566300,8.63456640625,2.998178482055664,2.1128344535827637,-0.43822574615478516
1790267375205566200,8.644566162109374,2.7694835662841797,2.129162073135376,-0.6390674114227295
1790267375215566300,8.65456640625,2.1953201293945312,2.085387706756592,-0.7454608082771301
1790267375225566200,8.664566162109375,1.9621658325195312,1.9335273504257202,-0.6678407192230225
1790267375235566300,8.67456640625,1.7829699516296387,1.7463241815567017,-0.7061657905578613
1790267375245566200,8.684566162109375,1.0935726165771484,1.5223699808120728,-1.0744881629943848
1790267375255566300,8.69456640625,0.11555290222167969,1.2604374885559082,-1.5201315879821777
1790267375265566200,8.704566162109375,-0.3828258514404297,1.0924668312072754,-1.5220921039581299
1790267375275566300,8.71456640625,0.3316211700439453,0.9215223789215088,-1.1758134365081787
1790267375285566200,8.724566162109374,0.5039854049682617,0.7035562992095947,-0.9783523082733154
1790267375295566300,8.73456640625,0.10277652740478516,0.31736302375793457,-0.7346181869506836
1790267375305566200,8.744566162109376,0.14931392669677734,-0.3423948287963867,-0.42685437202453613
1790267375315566300,8.75456640625,0.1985015869140625,-1.108863115310669,-0.2263011932373047
1790267375325566200,8.764566162109375,0.17475414276123047,-1.9112153053283691,-0.2558557987213135
1790267375335566300,8.77456640625,-0.13254928588867188,-2.550306558609009,-0.44118523597717285
1790267375345566200,8.784566162109375,-0.10673236846923828,-2.884749412536621,-0.6576576232910156
1790267375355566300,8.79456640625,0.3900909423828125,-2.7945470809936523,-0.6987333297729492
1790267375365566200,8.804566162109374,0.29749011993408203,-2.3939056396484375,-0.6175777912139893
1790267375375566300,8.81456640625,0.0602726936340332,-1.8117504119873047,-0.3713870048522949
1790267375385566200,8.824566162109376,0.2937312126159668,-1.202420711517334,-0.02857828140258789
1790267375395566300,8.83456640625,0.8730883598327637,-0.6641736030578613,0.23441386222839355
1790267375405566200,8.844566162109375,0.5580439567565918,-0.2797889709472656,0.2647581100463867
1790267375415566300,8.85456640625,-0.0971975326538086,-0.04730415344238281,0.18793272972106934
1790267375425566200,8.864566162109375,-0.3040156364440918,0.14020252227783203,0.07718539237976074
1790267375435566300,8.87456640625,0.27329015731811523,0.2829775810241699,-0.18246197700500488
1790267375445566200,8.884566162109374,0.49227285385131836,0.44672584533691406,-0.7160220146179199
1790267375455566300,8.89456640625,-0.017244338989257812,0.593019962310791,-1.2769241333007812
1790267375465566200,8.904566162109376,-0.3594503402709961,0.6341533660888672,-1.5360095500946045
1790267375475566300,8.91456640625,-0.08289909362792969,0.5271329879760742,-1.553841233253479
1790267375485566200,8.924566162109375,-0.4270458221435547,0.17580795288085938,-1.62105131149292
1790267375495566300,8.93456640625,-1.3517861366271973,-0.2950572967529297,-1.4404513835906982
1790267375505566200,8.944566162109375,-1.906071662902832,-0.697662353515625,-1.0449965000152588
1790267375515566300,8.95456640625,-1.6144304275512695,-0.9805264472961426,-1.0585315227508545
1790267375525566200,8.964566162109374,-1.194735050201416,-1.141514778137207,-1.5023623704910278
1790267375535566300,8.97456640625,-1.3113012313842773,-1.2779183387756348,-1.6713758707046509
1790267375545566200,8.984566162109376,-1.789353847503662,-1.4834885597229004,-1.4397697448730469
1790267375555566300,8.99456640625,-1.669966697692871,-1.8724241256713867,-1.0032696723937988
1790267375565566200,9.004566162109375,-1.7148847579956055,-2.46720552444458,-0.5576028823852539
1790267375575566300,9.01456640625,-2.050144672393799,-3.1949830055236816,0.05020570755004883
1790267375585566200,9.024566162109375,-2.2942113876342773,-3.881038188934326,0.8362913131713867
1790267375595566300,9.03456640625,-2.1816492080688477,-4.436024188995361,1.595001220703125
1790267375605566200,9.044566162109374,-1.7021889686584473,-4.53761625289917,2.0839827060699463
1790267375615566300,9.05456640625,-1.494227409362793,-4.1442179679870605,2.1549808979034424
1790267375625566200,9.064566162109376,-1.666358470916748,-3.4091548919677734,1.6780052185058594
1790267375635566300,9.07456640625,-1.7132983207702637,-2.5493454933166504,1.0972206592559814
1790267375645566200,9.084566162109375,-1.9061279296875,-1.8167510032653809,0.7979505062103271
1790267375655566300,9.09456640625,-1.7665858268737793,-1.2335491180419922,0.8393301963806152
1790267375665566200,9.104566162109375,-1.4067997932434082,-0.6763811111450195,0.9728820323944092
1790267375675566300,9.11456640625,-1.2080364227294922,-0.08028936386108398,1.1647789478302002
1790267375685566200,9.124566162109375,-1.0685110092163086,0.44148826599121094,1.397662878036499
1790267375695566300,9.13456640625,-1.0778203010559082,0.7823348045349121,1.5999431610107422
1790267375705566200,9.144566162109374,-1.24107027053833,0.9986352920532227,1.7140884399414062
1790267375715566300,9.15456640625,-1.1431827545166016,1.0424833297729492,1.6805834770202637
1790267375725566200,9.164566162109375,-0.9236226081848145,1.0373897552490234,1.6139564514160156
1790267375735566300,9.17456640625,-0.6877479553222656,1.088852882385254,1.2913298606872559
1790267375745566200,9.184566162109375,-0.44391584396362305,1.1058483123779297,0.9042916297912598
1790267375755566300,9.19456640625,-0.4297943115234375,0.9700522422790527,0.4879610538482666
1790267375765566200,9.204566162109375,-0.6560540199279785,0.5999588966369629,0.014461517333984375
1790267375775566300,9.21456640625,-1.0769386291503906,0.10919761657714844,-0.40660548210144043
1790267375785566200,9.224566162109374,-1.496098518371582,-0.40772438049316406,-0.7024288177490234
1790267375795566300,9.23456640625,-1.8481416702270508,-0.8367671966552734,-0.728076696395874
1790267375805566200,9.244566162109376,-2.1936326026916504,-1.175520896911621,-0.582268476486206
1790267375815566300,9.25456640625,-2.2161617279052734,-1.4192938804626465,-0.3554062843322754
1790267375825566200,9.264566162109375,-1.9541430473327637,-1.5786900520324707,-0.011548519134521484
1790267375835566300,9.27456640625,-1.7042694091796875,-1.6601743698120117,0.24192094802856445
1790267375845566200,9.284566162109375,-1.4251251220703125,-1.6517043113708496,0.2643575668334961
1790267375855566300,9.29456640625,-1.0703420639038086,-1.6069045066833496,0.040001630783081055
1790267375865566200,9.304566162109374,-0.7485427856445312,-1.595768928527832,-0.28427696228027344
1790267375875566300,9.31456640625,-0.3226504325866699,-1.5662693977355957,-0.4738595485687256
1790267375885566200,9.324566162109376,0.052648067474365234,-1.4152541160583496,-0.5130422115325928
1790267375895566300,9.33456640625,-0.028783321380615234,-1.151341438293457,-0.4224276542663574
1790267375905566200,9.344566162109375,-0.6735286712646484,-0.8537297248840332,-0.3428468704223633
1790267375915566300,9.35456640625,-1.4161968231201172,-0.7370271682739258,-0.27388858795166016
1790267375925566200,9.364566162109375,-1.686854362487793,-0.8447012901306152,0.09866166114807129
1790267375935566300,9.37456640625,-1.230700969696045,-0.976384162902832,0.6625256538391113
1790267375945566200,9.384566162109374,-0.3179507255554199,-0.861640453338623,0.9801926612854004
1790267375955566300,9.39456640625,0.43128013610839844,-0.5857305526733398,0.7975199222564697
1790267375965566200,9.404566162109376,0.7967147827148438,-0.2814335823059082,0.4345896244049072
1790267375975566300,9.41456640625,0.6873760223388672,0.010761737823486328,-0.08364439010620117
1790267375985566200,9.424566162109375,-0.0742039680480957,0.06746387481689453,-0.44870996475219727
1790267375995566300,9.43456640625,-0.7961173057556152,-0.12180852890014648,-0.5442297458648682
1790267376005566200,9.444566162109375,-1.0057344436645508,-0.41452741622924805,-0.5191147327423096
1790267376015566300,9.45456640625,-0.8536887168884277,-0.597632884979248,-0.4418213367462158
1790267376025566200,9.464566162109374,-0.6929049491882324,-0.6484880447387695,-0.3269789218902588
1790267376035566300,9.47456640625,-0.7871770858764648,-0.6611175537109375,-0.1285383701324463
1790267376045566200,9.484566162109376,-0.9398465156555176,-0.8087902069091797,0.11761593818664551
1790267376055566300,9.49456640625,-0.8369832038879395,-1.1183910369873047,0.4160118103027344
1790267376065566200,9.504566162109375,-0.6505012512207031,-1.4266471862792969,0.5678701400756836
1790267376075566300,9.51456640625,-0.49024343490600586,-1.577214241027832,0.4962160587310791
1790267376085566200,9.524566162109375,-0.4848814010620117,-1.538421630859375,0.1809530258178711
1790267376095566300,9.53456640625,-0.7147121429443359,-1.2900428771972656,-0.18559885025024414
1790267376105566200,9.544566162109374,-1.0019159317016602,-1.0341911315917969,-0.4425358772277832
1790267376115566300,9.55456640625,-1.172144889831543,-0.9013276100158691,-0.43402934074401855
1790267376125566200,9.564566162109376,-1.1101670265197754,-0.8472380638122559,-0.22032380104064941
1790267376135566300,9.57456640625,-1.1158852577209473,-0.8017363548278809,-0.12906813621520996
1790267376145566200,9.584566162109375,-1.289991855621338,-0.7870421409606934,-0.06402087211608887
1790267376155566300,9.59456640625,-1.4146175384521484,-0.8338923454284668,0.18216466903686523
1790267376165566200,9.604566162109375,-1.58026123046875,-0.9953041076660156,0.5144867897033691
1790267376175566300,9.61456640625,-1.4636459350585938,-1.2575106620788574,0.7081820964813232
1790267376185566200,9.624566162109375,-1.5072741508483887,-1.5642890930175781,0.8227570056915283
1790267376195566300,9.63456640625,-1.4745779037475586,-1.9835667610168457,1.0438811779022217
1790267376205566200,9.644566162109374,-1.1722679138183594,-2.4726405143737793,1.1168005466461182
1790267376215566300,9.65456640625,-0.8969383239746094,-2.8283305168151855,1.0877084732055664
1790267376225566200,9.664566162109375,-0.6187448501586914,-2.862302780151367,1.0614237785339355
1790267376235566300,9.67456640625,-0.0419921875,-2.479891300201416,1.068131685256958
1790267376245566200,9.684566162109375,0.28017234802246094,-1.9844813346862793,1.3028724193572998
1790267376255566300,9.69456640625,0.6946926116943359,-1.2394342422485352,1.3158271312713623
1790267376265566200,9.704566162109375,0.3661365509033203,-0.5441131591796875,1.2245328426361084
1790267376275566300,9.71456640625,0.25961971282958984,-0.27793335914611816,1.1829560995101929
1790267376285566200,9.724566162109374,1.100651741027832,-0.1949012279510498,1.1217730045318604
1790267376295566300,9.73456640625,1.9035015106201172,-0.16196608543395996,1.10392427444458
1790267376305566200,9.744566162109376,2.34041166305542,-0.0701746940612793,1.0454001426696777
1790267376315566300,9.75456640625,2.635890483856201,0.10305976867675781,0.9196350574493408
1790267376325566200,9.764566162109375,2.6099095344543457,0.4939398765563965,0.4243011474609375
1790267376335566300,9.77456640625,1.143402099609375,1.0201237201690674,-0.25857019424438477
1790267376345566200,9.784566162109375,0.09605598449707031,1.1069531440734863,-0.5673246383666992
1790267376355566300,9.79456640625,0.8690156936645508,0.6440891027450562,-0.13628911972045898
1790267376365566200,9.804566162109374,1.8985357284545898,0.06169426441192627,0.8579552173614502
1790267376375566300,9.81456640625,2.306431770324707,-0.465564489364624,1.5027021169662476
1790267376385566200,9.824566162109376,2.983154773712158,-0.8944933414459229,1.9977867603302002
1790267376395566300,9.83456640625,2.2713451385498047,-1.0342721939086914,2.064958095550537
1790267376405566200,9.844566162109375,0.8128805160522461,-1.1411678791046143,1.5916523933410645
1790267376415566300,9.85456640625,0.9471626281738281,-1.4961013793945312,0.6239237189292908
1790267376425566200,9.864566162109375,2.2568092346191406,-2.0568623542785645,-0.16496610641479492
1790267376435566300,9.87456640625,2.7585620880126953,-2.3871874809265137,-0.32982343435287476
1790267376445566200,9.884566162109374,3.2177343368530273,-1.9913498163223267,-0.398346871137619
1790267376455566300,9.89456640625,3.812610626220703,-0.6773585081100464,-0.6807156801223755
1790267376465566200,9.904566162109376,4.3284502029418945,0.7586177587509155,-0.7262685298919678
1790267376475566300,9.91456640625,3.919950485229492,1.839460849761963,-1.0104938745498657
1790267376485566200,9.924566162109375,3.059189796447754,2.185757637023926,-1.0959765911102295
1790267376495566300,9.93456640625,2.6639933586120605,2.0337631702423096,-0.9584864974021912
1790267376505566200,9.944566162109375,2.5551280975341797,1.6975312232971191,-1.0099425315856934
1790267376515566300,9.95456640625,2.8815994262695312,1.0792109966278076,-0.7771865129470825
1790267376525566200,9.964566162109374,3.713639259338379,0.582133412361145,-0.4966760277748108
1790267376535566300,9.97456640625,3.4312334060668945,0.5446818470954895,-0.5892502069473267
1790267376545566200,9.984566162109376,3.8012948036193848,0.6354950666427612,-0.628011167049408
1790267376555566300,9.99456640625,3.9349231719970703,0.5843642950057983,-1.0965344905853271
1790267376565566200,10.004566162109375,3.0841379165649414,0.37591466307640076,-1.7107188701629639
1790267376575566300,10.01456640625,1.5206317901611328,0.360849529504776,-1.7218092679977417
1790267376585566200,10.024566162109375,1.0580453872680664,0.5867491364479065,-0.6244211196899414
1790267376595566300,10.03456640625,2.3647665977478027,0.8651406764984131,0.43676263093948364
1790267376605566200,10.044566162109374,2.924306869506836,1.4036915302276611,0.006801009178161621
1790267376615566300,10.05456640625,2.2354211807250977,1.7938657999038696,-0.31709009408950806
1790267376625566200,10.064566162109376,1.2240867614746094,1.5700397491455078,-0.24323159456253052
1790267376635566300,10.07456640625,0.5608272552490234,1.2632920742034912,-0.38991498947143555
1790267376645566200,10.084566162109375,0.23367786407470703,1.0542116165161133,0.2239018678665161
1790267376655566300,10.09456640625,0.22041034698486328,0.7412941455841064,1.0557677745819092
1790267376665566200,10.104566162109375,0.5816774368286133,0.3907971978187561,1.251450777053833
1790267376675566300,10.11456640625,1.0250310897827148,0.1468731164932251,1.2543202638626099
1790267376685566200,10.124566162109375,1.158553123474121,-0.2454226016998291,1.2246898412704468
1790267376695566300,10.13456640625,1.1871747970581055,-0.684962272644043,1.154274582862854
1790267376705566200,10.144566162109374,1.324136734008789,-0.7060199975967407,1.0655885934829712
1790267376715566300,10.15456640625,1.5926971435546875,-0.5541326999664307,0.8586437702178955
1790267376725566200,10.164566162109375,2.3551101684570312,-0.26659369468688965,0.7122256755828857
1790267376735566300,10.17456640625,3.002039909362793,0.10039949417114258,0.5071560144424438
1790267376745566200,10.184566162109375,3.0433759689331055,0.48940157890319824,0.04558980464935303
1790267376755566300,10.19456640625,3.2624731063842773,0.7770227193832397,-0.3267291784286499
1790267376765566200,10.204566162109375,3.4125757217407227,0.9733079671859741,-0.6546332836151123
1790267376775566300,10.21456640625,3.321288585662842,1.1518092155456543,-1.0406901836395264
1790267376785566200,10.224566162109374,2.905334949493408,1.355701208114624,-1.3455482721328735
1790267376795566300,10.23456640625,2.426298141479492,1.5661280155181885,-1.2909822463989258
1790267376805566200,10.244566162109376,2.7699546813964844,1.8487083911895752,-1.0535063743591309
1790267376815566300,10.25456640625,3.062453269958496,2.091218948364258,-0.9721723794937134
1790267376825566200,10.264566162109375,2.856276512145996,2.0482771396636963,-0.8840769529342651
1790267376835566300,10.27456640625,2.2799148559570312,1.7234063148498535,-0.7232850790023804
1790267376845566200,10.284566162109375,1.382422924041748,1.093963861465454,-0.6225848197937012
1790267376855566300,10.29456640625,0.6295852661132812,0.3169074058532715,-0.5758062601089478
1790267376865566200,10.304566162109374,-0.33837413787841797,-0.46091318130493164,-0.6102908849716187
1790267376875566300,10.31456640625,-0.8199348449707031,-1.337235450744629,-0.33701634407043457
1790267376885566200,10.324566162109376,-1.0420026779174805,-2.1656103134155273,0.18691754341125488
1790267376895566300,10.33456640625,-1.4988059997558594,-3.1936254501342773,0.6577885150909424
1790267376905566200,10.344566162109375,-1.2983636856079102,-4.3148064613342285,1.1579513549804688
1790267376915566300,10.35456640625,-1.084681510925293,-5.21169376373291,1.2915544509887695
1790267376925566200,10.364566162109375,-0.8436703681945801,-5.691529750823975,1.0640015602111816
1790267376935566300,10.37456640625,-0.6276102066040039,-5.543980598449707,0.9313459396362305
1790267376945566200,10.384566162109374,-1.1088900566101074,-4.707361698150635,1.1809523105621338
1790267376955566300,10.39456640625,-1.4841938018798828,-3.3972020149230957,1.2993390560150146
1790267376965566200,10.404566162109376,-1.6050081253051758,-2.0645813941955566,1.0501797199249268
1790267376975566300,10.41456640625,-1.4400506019592285,-0.7785768508911133,0.6991548538208008
1790267376985566200,10.424566162109375,-0.9429349899291992,0.35187578201293945,0.29622983932495117
1790267376995566300,10.43456640625,-0.7848949432373047,1.1900839805603027,-0.12503767013549805
1790267377005566200,10.444566162109375,-0.9322662353515625,1.6021909713745117,-0.33393335342407227
1790267377015566300,10.45456640625,-0.7274088859558105,1.6263833045959473,-0.2318105697631836
1790267377025566200,10.464566162109374,-0.30208730697631836,1.241349697113037,0.0031671524047851562
1790267377035566300,10.47456640625,-0.04818916320800781,0.6493988037109375,0.08680129051208496
1790267377045566200,10.484566162109376,-0.07812213897705078,0.04914045333862305,0.1571793556213379
1790267377055566300,10.49456640625,0.08778810501098633,-0.436398983001709,0.393261194229126
1790267377065566200,10.504566162109375,0.6122584342956543,-0.8002357482910156,0.6873083114624023
1790267377075566300,10.51456640625,0.6282362937927246,-1.029965877532959,0.9044053554534912
1790267377085566200,10.524566162109375,-0.37649106979370117,-1.0286483764648438,0.9706597328186035
1790267377095566300,10.53456640625,-1.8379426002502441,-0.9094681739807129,0.9312052726745605
1790267377105566200,10.544566162109374,-3.083761215209961,-0.7533183097839355,0.8247370719909668
1790267377115566300,10.55456640625,-4.133289337158203,-0.7725753784179688,0.8414778709411621
1790267377125566200,10.564566162109376,-3.9555368423461914,-1.2503118515014648,1.2638072967529297
1790267377135566300,10.57456640625,-3.3527774810791016,-1.9810881614685059,1.735356092453003
1790267377145566200,10.584566162109375,-2.735201358795166,-2.9339346885681152,1.9669082164764404
1790267377155566300,10.59456640625,-2.028313159942627,-4.002964496612549,2.167008876800537
1790267377165566200,10.604566162109375,-1.5650124549865723,-4.805368900299072,2.448854684829712
1790267377175566300,10.61456640625,-1.0793323516845703,-5.005810260772705,2.8149032592773438
1790267377185566200,10.624566162109375,-1.0313124656677246,-4.489650726318359,2.974170684814453
1790267377195566300,10.63456640625,-1.2917757034301758,-3.4139747619628906,2.6484339237213135
1790267377205566200,10.644566162109374,-1.3184304237365723,-1.9431123733520508,1.873058795928955
1790267377215566300,10.65456640625,-1.1263856887817383,-0.4128150939941406,0.9772605895996094
1790267377225566200,10.664566162109375,-0.7673859596252441,0.7278976440429688,0.4530327320098877
1790267377235566300,10.67456640625,-0.238983154296875,1.4227724075317383,0.3882026672363281
1790267377245566200,10.684566162109375,0.19752073287963867,1.8848943710327148,0.3865022659301758
1790267377255566300,10.69456640625,0.1516132354736328,2.114907741546631,0.4863758087158203
1790267377265566200,10.704566162109375,0.010961055755615234,2.140571117401123,0.6714766025543213
1790267377275566300,10.71456640625,-0.05279731750488281,1.9195122718811035,0.5630557537078857
1790267377285566200,10.724566162109374,-0.11757469177246094,1.552140712738037,0.3358125686645508
1790267377295566300,10.73456640625,-0.19178152084350586,1.1049141883850098,0.16945528984069824
1790267377305566200,10.744566162109376,-0.41985225677490234,0.5684213638305664,0.052416324615478516
1790267377315566300,10.75456640625,-0.7417135238647461,-0.22527170181274414,-0.07208251953125
1790267377325566200,10.764566162109375,-0.9893889427185059,-1.1534228324890137,-0.08766674995422363
1790267377335566300,10.77456640625,-0.5568890571594238,-1.8983960151672363,-0.14012837409973145
1790267377345566200,10.784566162109375,0.2856006622314453,-2.2819066047668457,-0.3375849723815918
1790267377355566300,10.79456640625,0.8580474853515625,-2.27498197555542,-0.5807409286499023
1790267377365566200,10.804566162109374,0.8385567665100098,-2.0120368003845215,-0.8728418350219727
1790267377375566300,10.81456640625,0.23560619354248047,-1.5753107070922852,-0.9919965267181396
1790267377385566200,10.824566162109376,-0.963651180267334,-1.190375804901123,-0.6336514949798584
1790267377395566300,10.83456640625,-2.0301475524902344,-1.0640854835510254,-0.007600307464599609
1790267377405566200,10.844566162109375,-2.2611851692199707,-1.092566967010498,0.6163008213043213
1790267377415566300,10.85456640625,-1.8373122215270996,-1.1616768836975098,1.0546021461486816
1790267377425566200,10.864566162109375,-1.5197553634643555,-1.1529793739318848,1.3980703353881836
1790267377435566300,10.87456640625,-1.1728901863098145,-1.2094769477844238,1.5595040321350098
1790267377445566200,10.884566162109374,-0.9360151290893555,-1.2713146209716797,1.5598785877227783
1790267377455566300,10.89456640625,-1.163424015045166,-1.3309540748596191,1.4500510692596436
1790267377465566200,10.904566162109376,-1.3802061080932617,-1.4837031364440918,1.2851898670196533
1790267377475566300,10.91456640625,-1.2599778175354004,-1.6679048538208008,0.962374210357666
1790267377485566200,10.924566162109375,-0.6736116409301758,-1.780989170074463,0.647648811340332
1790267377495566300,10.93456640625,-0.09287881851196289,-1.6682195663452148,0.4103231430053711
1790267377505566200,10.944566162109375,0.338132381439209,-1.3407859802246094,0.0730600357055664
1790267377515566300,10.95456640625,0.6082115173339844,-0.9659614562988281,-0.3577103614807129
1790267377525566200,10.964566162109374,0.07709693908691406,-0.8316574096679688,-0.5520026683807373
1790267377535566300,10.97456640625,-0.3692770004272461,-0.7313761711120605,-0.6020324230194092
1790267377545566200,10.984566162109376,-0.4672074317932129,-0.6030063629150391,-0.7231454849243164
1790267377555566300,10.99456640625,-0.35184621810913086,-0.5253257751464844,-0.805436372756958
1790267377565566200,11.004566162109375,-0.15066146850585938,-0.33117055892944336,-0.9407942295074463
1790267377575566300,11.01456640625,-0.03655195236206055,-0.018230438232421875,-1.1330268383026123
1790267377585566200,11.024566162109375,-0.6445236206054688,0.10901689529418945,-0.9724102020263672
1790267377595566300,11.03456640625,-1.605947494506836,-0.2136096954345703,-0.32970404624938965
1790267377605566200,11.044566162109374,-2.0194292068481445,-0.8106846809387207,0.5465259552001953
1790267377615566300,11.05456640625,-1.970384120941162,-1.3966927528381348,1.1984434127807617
1790267377625566200,11.064566162109376,-1.4557805061340332,-1.6241259574890137,1.289167881011963
1790267377635566300,11.07456640625,-0.8903188705444336,-1.394482135772705,1.0166139602661133
1790267377645566200,11.084566162109375,-0.6481771469116211,-1.0425910949707031,0.9110620021820068
1790267377655566300,11.09456640625,-0.5490531921386719,-0.9513454437255859,1.0515379905700684
1790267377665566200,11.104566162109375,0.07042884826660156,-1.043309211730957,1.1675262451171875
1790267377675566300,11.11456640625,0.6264219284057617,-0.9774231910705566,1.29970121383667
1790267377685566200,11.124566162109375,0.37909698486328125,-0.826350212097168,1.4082908630371094
1790267377695566300,11.13456640625,-0.2462635040283203,-0.7677187919616699,1.4260549545288086
1790267377705566200,11.144566162109374,-0.2792387008666992,-0.9817428588867188,1.3681589365005493
1790267377715566300,11.15456640625,0.2734031677246094,-1.2805485725402832,1.3166618347167969
1790267377725566200,11.164566162109375,0.5952320098876953,-1.5297167301177979,1.2379335165023804
1790267377735566300,11.17456640625,1.1303329467773438,-1.539935827255249,1.0477389097213745
1790267377745566200,11.184566162109375,1.4288535118103027,-1.190903663635254,0.9364633560180664
1790267377755566300,11.19456640625,1.2393569946289062,-0.7496511936187744,0.9366228580474854
1790267377765566200,11.204566162109375,1.112142562866211,-0.3253333568572998,0.9966325759887695
1790267377775566300,11.21456640625,1.3901195526123047,-0.0282895565032959,0.9153982400894165
1790267377785566200,11.224566162109374,2.2655954360961914,-0.03961920738220215,0.8576791286468506
1790267377795566300,11.23456640625,2.8250932693481445,-0.07287049293518066,0.6768563985824585
1790267377805566200,11.244566162109376,2.543931007385254,0.04691624641418457,0.5367233753204346
1790267377815566300,11.25456640625,2.549950122833252,0.19945764541625977,0.26564669609069824
1790267377825566200,11.264566162109375,2.4360713958740234,0.290665864944458,0.051894187927246094
1790267377835566300,11.27456640625,1.7655019760131836,0.1984999179840088,-0.10852688550949097
1790267377845566200,11.284566162109375,1.425440788269043,-0.06574749946594238,-0.4176974296569824
1790267377855566300,11.29456640625,1.5123929977416992,-0.45793676376342773,-0.7597061395645142
1790267377865566200,11.304566162109374,2.2003536224365234,-0.8877098560333252,-0.7566196918487549
1790267377875566300,11.31456640625,2.354672431945801,-1.1689265966415405,-0.5259630680084229
1790267377885566200,11.324566162109376,1.826136589050293,-1.192533254623413,-0.48531797528266907
1790267377895566300,11.33456640625,1.6368780136108398,-1.1225751638412476,-0.5311723947525024
1790267377905566200,11.344566162109375,1.2195816040039062,-1.0740505456924438,-0.7874839305877686
1790267377915566300,11.35456640625,0.8187189102172852,-1.1531234979629517,-0.9665753841400146
1790267377925566200,11.364566162109375,1.5259456634521484,-1.3233956098556519,-0.9034148454666138
1790267377935566300,11.37456640625,2.448110580444336,-1.2664871215820312,-0.6387330293655396
1790267377945566200,11.384566162109374,2.4251298904418945,-0.749241828918457,-0.6945609450340271
1790267377955566300,11.39456640625,2.316823959350586,0.10935604572296143,-0.8172595500946045
1790267377965566200,11.404566162109376,2.401365280151367,0.9138418436050415,-0.670802891254425
1790267377975566300,11.41456640625,2.0045881271362305,1.3687269687652588,-0.5127479434013367
1790267377985566200,11.424566162109375,1.6946287155151367,1.429800271987915,-0.13738083839416504
1790267377995566300,11.43456640625,1.9678912162780762,1.2050949335098267,0.11945211887359619
1790267378005566200,11.444566162109375,2.7686281204223633,0.8508394956588745,0.07179874181747437
1790267378015566300,11.45456640625,3.874439239501953,0.5704135894775391,0.21991115808486938
1790267378025566200,11.464566162109374,4.456266403198242,0.5204493999481201,0.07888519763946533
1790267378035566300,11.47456640625,5.286401271820068,0.6943763494491577,-0.38848263025283813
1790267378045566200,11.484566162109376,5.461630821228027,1.0650955438613892,-0.8971578478813171
1790267378055566300,11.49456640625,4.270114898681641,1.4738649129867554,-1.5416346788406372
1790267378065566200,11.504566162109375,2.766221046447754,1.9510958194732666,-1.6506035327911377
1790267378075566300,11.51456640625,1.362196922302246,1.9867122173309326,-1.494092345237732
1790267378085566200,11.524566162109375,1.2869491577148438,1.354479193687439,-1.1650564670562744
1790267378095566300,11.53456640625,0.8246021270751953,1.0327470302581787,-1.0336183309555054
1790267378105566200,11.544566162109374,0.650456428527832,0.9745769500732422,-0.5442344546318054
1790267378115566300,11.55456640625,0.966588020324707,0.9304408431053162,-0.2653934955596924
1790267378125566200,11.564566162109376,1.4619865417480469,0.8834925889968872,-0.603883683681488
1790267378135566300,11.57456640625,1.5935077667236328,0.8613324165344238,-0.980274498462677
1790267378145566200,11.584566162109375,1.8421854972839355,0.8774067163467407,-1.0390706062316895
1790267378155566300,11.59456640625,2.1759729385375977,0.7863129377365112,-0.7322911620140076
1790267378165566200,11.604566162109375,2.456146240234375,0.6038414239883423,-0.24356305599212646
1790267378175566300,11.61456640625,2.1180944442749023,0.3092242479324341,-0.28943026065826416
1790267378185566200,11.624566162109375,1.6054959297180176,0.030246973037719727,-0.09583330154418945
1790267378195566300,11.63456640625,1.4216351509094238,0.092498779296875,0.4381289482116699
1790267378205566200,11.644566162109374,1.0986089706420898,0.39157772064208984,0.721095085144043
1790267378215566300,11.65456640625,1.4145407676696777,0.5979435443878174,0.8806664943695068
1790267378225566200,11.664566162109375,1.9527482986450195,0.6564276218414307,0.9994771480560303
1790267378235566300,11.67456640625,2.490658760070801,0.5992734432220459,0.8919501304626465
1790267378245566200,11.684566162109375,2.4980392456054688,0.45781540870666504,0.626823902130127
1790267378255566300,11.69456640625,1.30181884765625,0.15011000633239746,0.6869843006134033
1790267378265566200,11.704566162109375,0.7004451751708984,-0.3657510280609131,1.0292112827301025
1790267378275566300,11.71456640625,0.9999198913574219,-0.9256241321563721,1.07197904586792
1790267378285566200,11.724566162109374,1.2067375183105469,-1.2839727401733398,0.7434272766113281
1790267378295566300,11.73456640625,1.4899606704711914,-1.38084077835083,0.3034660816192627
1790267378305566200,11.744566162109376,1.9440670013427734,-1.2137374877929688,-0.17407798767089844
1790267378315566300,11.75456640625,2.2735166549682617,-0.9271750450134277,-0.5894994735717773
1790267378325566200,11.764566162109375,1.8307762145996094,-0.4644031524658203,-0.8957147598266602
1790267378335566300,11.77456640625,0.3192453384399414,0.014190673828125,-1.2738265991210938
1790267378345566200,11.784566162109375,-0.47613096237182617,0.484438419342041,-1.4316952228546143
1790267378355566300,11.79456640625,-0.14273691177368164,0.9241137504577637,-1.529894471168518
1790267378365566200,11.804566162109374,0.29201555252075195,1.3187317848205566,-1.7726657390594482
1790267378375566300,11.81456640625,0.27018213272094727,1.5366520881652832,-1.9545918703079224
1790267378385566200,11.824566162109376,-0.5020580291748047,1.619290828704834,-1.9754538536071777
1790267378395566300,11.83456640625,-1.509291172027588,1.4713354110717773,-1.763749599456787
1790267378405566200,11.844566162109375,-1.7553009986877441,0.799407958984375,-1.246872901916504
1790267378415566300,11.85456640625,-1.408487319946289,-0.007097721099853516,-0.71773362159729
1790267378425566200,11.864566162109375,-1.2549152374267578,-0.9389185905456543,-0.3614480495452881
1790267378435566300,11.87456640625,-1.6297307014465332,-2.2415943145751953,0.04033493995666504
1790267378445566200,11.884566162109374,-1.5586919784545898,-3.6454687118530273,0.2160193920135498
1790267378455566300,11.89456640625,-0.9867286682128906,-4.939938068389893,0.036150217056274414
1790267378465566200,11.904566162109376,-0.5138726234436035,-5.609921932220459,-0.11120223999023438
1790267378475566300,11.91456640625,-0.8133811950683594,-5.680433750152588,0.05143141746520996
1790267378485566200,11.924566162109375,-1.069310188293457,-5.1493611335754395,0.40286970138549805
1790267378495566300,11.93456640625,-0.6392002105712891,-3.834364414215088,0.1403646469116211
1790267378505566200,11.944566162109375,-0.35734033584594727,-2.028657913208008,-0.4749457836151123
1790267378515566300,11.95456640625,-0.8365931510925293,-0.33624267578125,-0.7301743030548096
1790267378525566200,11.964566162109374,-1.363574504852295,0.9344210624694824,-0.7684824466705322
1790267378535566300,11.97456640625,-1.2153058052062988,1.7784299850463867,-0.6777369976043701
1790267378545566200,11.984566162109376,-1.0847973823547363,2.191257953643799,-0.5341978073120117
1790267378555566300,11.99456640625,-1.2777714729309082,2.1650853157043457,-0.3449411392211914
1790267378565566200,12.004566162109375,-1.5630574226379395,1.7808074951171875,-0.10075831413269043
1790267378575566300,12.01456640625,-1.6242432594299316,1.090886116027832,0.16884469985961914
1790267378585566200,12.024566162109375,-1.4628572463989258,0.3128690719604492,0.2487316131591797
1790267378595566300,12.03456640625,-1.6862564086914062,-0.4352245330810547,0.23426294326782227
1790267378605566200,12.044566162109374,-2.0356502532958984,-0.964754581451416,0.4016597270965576
1790267378615566300,12.05456640625,-2.727703094482422,-1.2297029495239258,0.8826289176940918
1790267378625566200,12.064566162109376,-3.5952959060668945,-1.2758960723876953,1.4220976829528809
1790267378635566300,12.07456640625,-4.066007614135742,-1.4188470840454102,1.6754040718078613
1790267378645566200,12.084566162109375,-4.012556076049805,-1.8753776550292969,1.4338178634643555
1790267378655566300,12.09456640625,-3.7733888626098633,-2.6975669860839844,1.2676537036895752
1790267378665566200,12.104566162109375,-3.577965259552002,-3.5415611267089844,1.4674692153930664
1790267378675566300,12.11456640625,-2.7734360694885254,-4.070347785949707,1.683258295059204
1790267378685566200,12.124566162109375,-1.587620735168457,-4.137019157409668,1.420912265777588
1790267378695566300,12.13456640625,-1.156447410583496,-3.710306167602539,0.5208821296691895
1790267378705566200,12.144566162109374,-0.9348134994506836,-2.7873573303222656,-0.42760443687438965
1790267378715566300,12.15456640625,-0.4637618064880371,-1.4982566833496094,-0.8417134284973145
1790267378725566200,12.164566162109375,-0.000041484832763671875,-0.18073558807373047,-1.1102344989776611
1790267378735566300,12.17456640625,0.33562755584716797,0.8075900077819824,-1.1122610569000244
1790267378745566200,12.184566162109375,0.3595418930053711,1.2322163581848145,-0.5512604713439941
1790267378755566300,12.19456640625,0.044094085693359375,1.0524845123291016,0.22333383560180664
1790267378765566200,12.204566162109375,-0.5784444808959961,0.36551904678344727,0.7170193195343018
1790267378775566300,12.21456640625,-1.290815830230713,-0.5784521102905273,1.0907628536224365
1790267378785566200,12.224566162109374,-1.502392292022705,-1.2796306610107422,1.2494909763336182
1790267378795566300,12.23456640625,-1.1800556182861328,-1.4424571990966797,0.8491263389587402
1790267378805566200,12.244566162109376,-1.2285008430480957,-1.0662670135498047,-0.2391376495361328
1790267378815566300,12.25456640625,-2.1832046508789062,-0.6238822937011719,-1.3191875219345093
1790267378825566200,12.264566162109375,-3.1984472274780273,-0.4524235725402832,-2.0386617183685303
1790267378835566300,12.27456640625,-3.5989294052124023,-0.6759133338928223,-2.304006576538086
1790267378845566200,12.284566162109375,-3.3347535133361816,-1.0702686309814453,-2.1227340698242188
1790267378855566300,12.29456640625,-2.5866169929504395,-1.318613052368164,-1.7043650150299072
1790267378865566200,12.304566162109374,-1.4528512954711914,-1.29150390625,-1.0576446056365967
1790267378875566300,12.31456640625,-0.27530479431152344,-0.8764400482177734,-0.30478572845458984
1790267378885566200,12.324566162109376,0.5521268844604492,-0.2750358581542969,0.2034907341003418
1790267378895566300,12.33456640625,0.37986183166503906,0.19780874252319336,0.3027360439300537
1790267378905566200,12.344566162109375,-0.7380309104919434,0.10829639434814453,0.0281980037689209
1790267378915566300,12.35456640625,-2.094311237335205,-0.7810554504394531,-0.0008425712585449219
1790267378925566200,12.364566162109375,-2.614931583404541,-2.192509651184082,0.6880843639373779
1790267378935566300,12.37456640625,-1.8833789825439453,-3.5765886306762695,2.0244836807250977
1790267378945566200,12.384566162109374,-1.4203062057495117,-4.611301898956299,3.1691946983337402
1790267378955566300,12.39456640625,-2.2018003463745117,-5.474366664886475,3.9431281089782715
1790267378965566200,12.404566162109376,-3.4266762733459473,-5.866659164428711,4.541025161743164
1790267378975566300,12.41456640625,-3.819141387939453,-5.010674476623535,4.3619914054870605
1790267378985566200,12.424566162109375,-2.5898289680480957,-3.2881531715393066,3.528599739074707
1790267378995566300,12.43456640625,-1.2383556365966797,-1.8176937103271484,2.294727087020874
1790267379005566200,12.444566162109375,-0.31432008743286133,-0.7164554595947266,0.793004035949707
1790267379015566300,12.45456640625,-0.463991641998291,-0.05291414260864258,-0.054633140563964844
1790267379025566200,12.464566162109374,-0.6533780097961426,0.005397319793701172,-0.3092803955078125
1790267379035566300,12.47456640625,-0.8532757759094238,-0.4839015007019043,-0.3276047706604004
1790267379045566200,12.484566162109376,0.013883590698242188,-0.8478817939758301,-0.6725320816040039
1790267379055566300,12.49456640625,0.6315226554870605,-1.1294364929199219,-1.05145263671875
1790267379065566200,12.504566162109375,0.9227385520935059,-1.4938726425170898,-1.1287130117416382
1790267379075566300,12.51456640625,0.5706882476806641,-1.9782533645629883,-1.1342518329620361
1790267379085566200,12.524566162109375,-0.12675189971923828,-2.4251785278320312,-1.0208985805511475
1790267379095566300,12.53456640625,-0.6244010925292969,-2.6441121101379395,-0.7873660326004028
1790267379105566200,12.544566162109374,-0.31258106231689453,-2.6350555419921875,-0.7302708625793457
1790267379115566300,12.55456640625,0.40233421325683594,-2.3421411514282227,-0.8231992721557617
1790267379125566200,12.564566162109376,0.8616142272949219,-1.654597282409668,-1.1115708351135254
1790267379135566300,12.57456640625,0.8220372200012207,-0.8395309448242188,-1.1637133359909058
1790267379145566200,12.584566162109375,0.8005838394165039,-0.1382603645324707,-0.9260444641113281
1790267379155566300,12.59456640625,0.7212419509887695,0.37894201278686523,-0.13376522064208984
1790267379165566200,12.604566162109375,0.7028923034667969,0.8865604400634766,0.9979124069213867
1790267379175566300,12.61456640625,1.0668697357177734,1.5957567691802979,1.72636079788208
1790267379185566200,12.624566162109375,1.5527839660644531,2.2769834995269775,1.77022385597229
1790267379195566300,12.63456640625,1.5477771759033203,2.7703640460968018,1.3695695400238037
1790267379205566200,12.644566162109374,1.2148771286010742,2.7810044288635254,1.0907344818115234
1790267379215566300,12.65456640625,1.9699163436889648,2.3570337295532227,1.1165531873703003
1790267379225566200,12.664566162109375,3.4610595703125,1.8205145597457886,1.3903346061706543
1790267379235566300,12.67456640625,4.349833965301514,1.5217504501342773,1.2947818040847778
