time,seconds_elapsed,z,y,x
1790267366625566000,0.06456591796875,9.056828498840332,3.0629286766052246,-2.182360887527466
1790267366635566000,0.074566162109375,9.086674690246582,2.9627578258514404,-2.1965408325195312
1790267366645566000,0.08456591796875,9.225452423095703,2.6805267333984375,-1.9688076972961426
1790267366655566000,0.094566162109375,9.37741756439209,2.4305543899536133,-1.5253965854644775
1790267366665566000,0.10456591796875,9.405929565429688,2.400641441345215,-1.3913285732269287
1790267366675566000,0.114566162109375,9.420721054077148,2.377415895462036,-1.3297724723815918
1790267366685566000,0.12456591796875,9.416081428527832,2.442115068435669,-1.2425270080566406
1790267366695566000,0.134566162109375,9.40444278717041,2.549617052078247,-1.107383131980896
1790267366705566000,0.14456591796875,9.39979362487793,2.6293747425079346,-0.9490319490432739
1790267366715566000,0.154566162109375,9.38105297088623,2.7184762954711914,-0.880977988243103
1790267366725566000,0.16456591796875,9.357073783874512,2.8030569553375244,-0.8708831667900085
1790267366735566000,0.174566162109375,9.328278541564941,2.8753819465637207,-0.9411703944206238
1790267366745566000,0.18456591796875,9.294526100158691,2.9388513565063477,-1.0702072381973267
1790267366755566000,0.194566162109375,9.256142616271973,3.0003767013549805,-1.221459150314331
1790267366765566000,0.20456591796875,9.214203834533691,3.0574939250946045,-1.38584566116333
1790267366775566000,0.214566162109375,9.161420822143555,3.116147041320801,-1.5900890827178955
1790267366785566000,0.22456591796875,9.110827445983887,3.1413533687591553,-1.8152427673339844
1790267366795566000,0.234566162109375,9.027703285217285,3.2058258056640625,-2.0961029529571533
1790267366805566000,0.24456591796875,8.911842346191406,3.3349483013153076,-2.372251033782959
1790267366815566000,0.254566162109375,8.768940925598145,3.5230469703674316,-2.619961738586426
1790267366825566000,0.26456591796875,8.647357940673828,3.653594970703125,-2.8363397121429443
1790267366835566000,0.274566162109375,8.62926197052002,3.6353566646575928,-2.9138312339782715
1790267366845566000,0.28456591796875,8.68172550201416,3.511451005935669,-2.909937620162964
1790267366855566000,0.294566162109375,8.768234252929688,3.3293111324310303,-2.8642914295196533
1790267366865566000,0.30456591796875,8.862963676452637,3.128174304962158,-2.7987101078033447
1790267366875566000,0.314566162109375,8.948160171508789,2.9431533813476562,-2.727389335632324
1790267366885566000,0.32456591796875,9.030292510986328,2.761164903640747,-2.6457834243774414
1790267366895566000,0.334566162109375,9.115294456481934,2.576934814453125,-2.5379505157470703
1790267366905566000,0.34456591796875,9.195388793945312,2.3951351642608643,-2.424569606781006
1790267366915566000,0.354566162109375,9.258465766906738,2.2376530170440674,-2.3332622051239014
1790267366925566000,0.36456591796875,9.30062198638916,2.1279616355895996,-2.2672858238220215
1790267366935566000,0.374566162109375,9.325998306274414,2.0735692977905273,-2.2127931118011475
1790267366945566000,0.38456591796875,9.350038528442383,2.0601043701171875,-2.1220593452453613
1790267366955566000,0.394566162109375,9.380255699157715,2.0683090686798096,-1.9756731986999512
1790267366965566000,0.40456591796875,9.412830352783203,2.0873966217041016,-1.79214346408844
1790267366975566000,0.414566162109375,9.443812370300293,2.1058433055877686,-1.596940040588379
1790267366985566000,0.42456591796875,9.471038818359375,2.110116958618164,-1.4202847480773926
1790267366995566000,0.434566162109375,9.493932723999023,2.09157395362854,-1.2887800931930542
1790267367005566000,0.44456591796875,9.512887001037598,2.0597925186157227,-1.1969168186187744
1790267367015566000,0.454566162109375,9.526570320129395,2.027557373046875,-1.1418683528900146
1790267367025566000,0.46456591796875,9.537267684936523,1.9927492141723633,-1.1134966611862183
1790267367035566000,0.474566162109375,9.548598289489746,1.9513813257217407,-1.0893865823745728
1790267367045566000,0.48456591796875,9.563416481018066,1.8995498418807983,-1.05031156539917
1790267367055566000,0.494566162109375,9.585660934448242,1.8282544612884521,-0.9710756540298462
1790267367065566000,0.50456591796875,9.609046936035156,1.7575510740280151,-0.8646472692489624
1790267367075566000,0.514566162109375,9.635157585144043,1.6774128675460815,-0.7214009761810303
1790267367085566000,0.52456591796875,9.660380363464355,1.5948551893234253,-0.5512571930885315
1790267367095566000,0.534566162109375,9.678382873535156,1.5324866771697998,-0.38830074667930603
1790267367105566000,0.54456591796875,9.687639236450195,1.498850703239441,-0.2710868716239929
1790267367115566000,0.554566162109375,9.690170288085938,1.4896880388259888,-0.22762209177017212
1790267367125566000,0.56456591796875,9.688453674316406,1.4986306428909302,-0.24154838919639587
1790267367135566000,0.574566162109375,9.684208869934082,1.5186679363250732,-0.28306469321250916
1790267367145566000,0.58456591796875,9.679265022277832,1.5410698652267456,-0.32761305570602417
1790267367155566000,0.594566162109375,9.67657470703125,1.5532398223876953,-0.34887638688087463
1790267367165566000,0.60456591796875,9.676493644714355,1.5560189485549927,-0.3386191725730896
1790267367175566000,0.614566162109375,9.677284240722656,1.557779312133789,-0.30638939142227173
1790267367185566000,0.62456591796875,9.677806854248047,1.5634551048278809,-0.2570193111896515
1790267367195566000,0.634566162109375,9.67806625366211,1.572644829750061,-0.17951233685016632
1790267367205566000,0.64456591796875,9.678044319152832,1.5820883512496948,-0.05322614684700966
1790267367215566000,0.654566162109375,9.673797607421875,1.604224443435669,0.12039639055728912
1790267367225566000,0.66456591796875,9.66374683380127,1.6376712322235107,0.31689488887786865
1790267367235566000,0.674566162109375,9.649845123291016,1.669991135597229,0.5118687748908997
1790267367245566000,0.68456591796875,9.633760452270508,1.6992007493972778,0.6883082985877991
1790267367255566000,0.694566162109375,9.614920616149902,1.7290860414505005,0.856715977191925
1790267367265566000,0.70456591796875,9.592144966125488,1.7637680768966675,1.0248229503631592
1790267367275566000,0.714566162109375,9.56397533416748,1.8018523454666138,1.2058550119400024
1790267367285566000,0.72456591796875,9.528945922851562,1.839298129081726,1.4094535112380981
1790267367295566000,0.734566162109375,9.484718322753906,1.871464729309082,1.645642876625061
1790267367305566000,0.74456591796875,9.42638874053955,1.8955644369125366,1.9288361072540283
1790267367315566000,0.754566162109375,9.345173835754395,1.9124654531478882,2.2760934829711914
1790267367325566000,0.76456591796875,9.229166984558105,1.9301636219024658,2.6957967281341553
1790267367335566000,0.774566162109375,9.063335418701172,1.959356665611267,3.19175124168396
1790267367345566000,0.78456591796875,8.833721160888672,2.000570058822632,3.7594516277313232
1790267367355566000,0.794566162109375,8.534056663513184,2.035656690597534,4.38136625289917
1790267367365566000,0.80456591796875,8.162227630615234,2.04537296295166,5.036356449127197
1790267367375566000,0.814566162109375,7.713454246520996,2.013880491256714,5.711155891418457
1790267367385566000,0.82456591796875,7.179680824279785,1.940337061882019,6.392000198364258
1790267367395566000,0.834566162109375,6.5539093017578125,1.8021893501281738,7.0688581466674805
1790267367405566000,0.84456591796875,5.853225231170654,1.6003657579421997,7.703827857971191
1790267367415566000,0.854566162109375,5.126124382019043,1.3858283758163452,8.24455738067627
1790267367425566000,0.86456591796875,4.374837875366211,1.1379731893539429,8.702653884887695
1790267367435566000,0.874566162109375,3.605583906173706,0.8139635920524597,9.083370208740234
1790267367445566000,0.88456591796875,2.831507444381714,0.37605008482933044,9.381446838378906
1790267367455566000,0.894566162109375,2.0657761096954346,-0.2010703980922699,9.584493637084961
1790267367465566000,0.90456591796875,1.3248425722122192,-0.9162917137145996,9.673447608947754
1790267367475566000,0.914566162109375,0.6360662579536438,-1.7131755352020264,9.634875297546387
1790267367485566000,0.92456591796875,0.02177724801003933,-2.5149526596069336,9.478656768798828
1790267367495566000,0.934566162109375,-0.5188446044921875,-3.2847044467926025,9.225610733032227
1790267367505566000,0.94456591796875,-0.9909389019012451,-4.0144853591918945,8.892261505126953
1790267367515566000,0.954566162109375,-1.3788076639175415,-4.691128253936768,8.500741004943848
1790267367525566000,0.96456591796875,-1.6587320566177368,-5.269953727722168,8.102256774902344
1790267367535566000,0.974566162109375,-1.8176465034484863,-5.722378730773926,7.753768444061279
1790267367545566000,0.98456591796875,-1.8582680225372314,-6.050351619720459,7.49069356918335
1790267367555566000,0.994566162109375,-1.7974772453308105,-6.275232791900635,7.318532466888428
1790267367565566000,1.00456591796875,-1.664272427558899,-6.416805267333984,7.226700782775879
1790267367575566000,1.014566162109375,-1.4960256814956665,-6.477414608001709,7.2093963623046875
1790267367585566000,1.02456591796875,-1.3332500457763672,-6.465700626373291,7.251727104187012
1790267367595566000,1.034566162109375,-1.2193573713302612,-6.392727851867676,7.335979461669922
1790267367605566000,1.04456591796875,-1.159759521484375,-6.276325225830078,7.445340633392334
1790267367615566000,1.054566162109375,-1.1584135293960571,-6.122119426727295,7.572854042053223
1790267367625566000,1.06456591796875,-1.2013766765594482,-5.925230026245117,7.721316337585449
1790267367635566000,1.074566162109375,-1.2725049257278442,-5.677781581878662,7.893917083740234
1790267367645566000,1.08456591796875,-1.3624259233474731,-5.382009029388428,8.083821296691895
1790267367655566000,1.094566162109375,-1.4704904556274414,-5.061073303222656,8.270041465759277
1790267367665566000,1.10456591796875,-1.5815563201904297,-4.716189384460449,8.451428413391113
1790267367675566000,1.114566162109375,-1.6836369037628174,-4.348650932312012,8.626992225646973
1790267367685566000,1.12456591796875,-1.7597800493240356,-3.968155860900879,8.793594360351562
1790267367695566000,1.134566162109375,-1.8098393678665161,-3.5888466835021973,8.945113182067871
1790267367705566000,1.14456591796875,-1.8864761590957642,-3.2387466430664062,9.062125205993652
1790267367715566000,1.154566162109375,-2.008542060852051,-2.9468834400177,9.135207176208496
1790267367725566000,1.16456591796875,-2.169142007827759,-2.747131824493408,9.1607027053833
1790267367735566000,1.174566162109375,-2.3532679080963135,-2.6258254051208496,9.150822639465332
1790267367745566000,1.18456591796875,-2.574033498764038,-2.501279354095459,9.12624454498291
1790267367755566000,1.194566162109375,-2.8152921199798584,-2.3119513988494873,9.104910850524902
1790267367765566000,1.20456591796875,-3.0219528675079346,-2.097486972808838,9.090585708618164
1790267367775566000,1.214566162109375,-3.2082979679107666,-1.8928437232971191,9.071623802185059
1790267367785566000,1.22456591796875,-3.422147750854492,-1.7276923656463623,9.026315689086914
1790267367795566000,1.234566162109375,-3.6436941623687744,-1.5891847610473633,8.964841842651367
1790267367805566000,1.24456591796875,-3.8619656562805176,-1.430729627609253,8.899922370910645
1790267367815566000,1.254566162109375,-4.070208549499512,-1.2535842657089233,8.833590507507324
1790267367825566000,1.26456591796875,-4.246507167816162,-1.0671982765197754,8.774887084960938
1790267367835566000,1.274566162109375,-4.390516757965088,-0.9089438915252686,8.721673011779785
1790267367845566000,1.28456591796875,-4.552795886993408,-0.7629315853118896,8.652188301086426
1790267367855566000,1.294566162109375,-4.626734733581543,-0.6574658155441284,8.62156867980957
1790267367865566000,1.30456591796875,-4.650933265686035,-0.6383953094482422,8.609973907470703
1790267367875566000,1.314566162109375,-4.718737602233887,-0.6511037349700928,8.572046279907227
1790267367885566000,1.32456591796875,-4.848451614379883,-0.6791098713874817,8.497159957885742
1790267367895566000,1.334566162109375,-4.996585845947266,-0.741391122341156,8.405644416809082
1790267367905566000,1.34456591796875,-5.113080978393555,-0.857579231262207,8.324141502380371
1790267367915566000,1.354566162109375,-5.1863861083984375,-1.0283622741699219,8.25919246673584
1790267367925566000,1.36456591796875,-5.235769271850586,-1.247064232826233,8.19767951965332
1790267367935566000,1.374566162109375,-5.275444507598877,-1.5309301614761353,8.123811721801758
1790267367945566000,1.38456591796875,-5.29383659362793,-1.876031517982483,8.039041519165039
1790267367955566000,1.394566162109375,-5.284564971923828,-2.269108295440674,7.943231105804443
1790267367965566000,1.40456591796875,-5.2320427894592285,-2.7201809883117676,7.835606098175049
1790267367975566000,1.414566162109375,-5.114715576171875,-3.215465545654297,7.724690914154053
1790267367985566000,1.42456591796875,-4.890686988830566,-3.661255359649658,7.6711649894714355
1790267367995566000,1.434566162109375,-4.626903533935547,-3.967647075653076,7.682443141937256
1790267368005566000,1.44456591796875,-4.45289945602417,-4.170596122741699,7.677773475646973
1790267368015566000,1.454566162109375,-4.34987735748291,-4.312926769256592,7.658173561096191
1790267368025566000,1.46456591796875,-4.297976970672607,-4.408334732055664,7.633110046386719
1790267368035566000,1.474566162109375,-4.314449787139893,-4.485188961029053,7.578851699829102
1790267368045566000,1.48456591796875,-4.407063007354736,-4.542446136474609,7.490952014923096
1790267368055566000,1.494566162109375,-4.557204246520996,-4.594025611877441,7.368663787841797
1790267368065566000,1.50456591796875,-4.721942901611328,-4.6563944816589355,7.224377632141113
1790267368075566000,1.514566162109375,-4.866507530212402,-4.747426986694336,7.067491054534912
1790267368085566000,1.52456591796875,-4.966259956359863,-4.8849921226501465,6.9024271965026855
1790267368095566000,1.534566162109375,-5.014368057250977,-5.072599411010742,6.730173587799072
1790267368105566000,1.54456591796875,-5.026202201843262,-5.284998416900635,6.555643558502197
1790267368115566000,1.554566162109375,-5.014503479003906,-5.498271465301514,6.387030124664307
1790267368125566000,1.56456591796875,-4.9871063232421875,-5.709290027618408,6.221187114715576
1790267368135566000,1.574566162109375,-4.951159477233887,-5.918338775634766,6.05224609375
1790267368145566000,1.58456591796875,-4.913860321044922,-6.11531925201416,5.884490489959717
1790267368155566000,1.594566162109375,-4.866093158721924,-6.293312072753906,5.734610557556152
1790267368165566000,1.60456591796875,-4.78165340423584,-6.4593071937561035,5.619922161102295
1790267368175566000,1.614566162109375,-4.646564483642578,-6.625633716583252,5.539024829864502
1790267368185566000,1.62456591796875,-4.4823455810546875,-6.791652202606201,5.472881317138672
1790267368195566000,1.634566162109375,-4.3101115226745605,-6.948073863983154,5.414571285247803
1790267368205566000,1.64456591796875,-4.146678447723389,-7.087631702423096,5.361057758331299
1790267368215566000,1.654566162109375,-4.035951137542725,-7.188295841217041,5.311298370361328
1790267368225566000,1.66456591796875,-3.968698263168335,-7.247636318206787,5.28125
1790267368235566000,1.674566162109375,-3.950636148452759,-7.284704208374023,5.243658542633057
1790267368245566000,1.68456591796875,-3.994008779525757,-7.319543361663818,5.1616435050964355
1790267368255566000,1.694566162109375,-4.0888142585754395,-7.365693092346191,5.019815444946289
1790267368265566000,1.70456591796875,-4.194909572601318,-7.409708499908447,4.865115165710449
1790267368275566000,1.714566162109375,-4.261992931365967,-7.442758083343506,4.755119800567627
1790267368285566000,1.72456591796875,-4.264039993286133,-7.46300745010376,4.721425533294678
1790267368295566000,1.734566162109375,-4.212725639343262,-7.486832141876221,4.729765892028809
1790267368305566000,1.74456591796875,-4.14236307144165,-7.526250839233398,4.729352951049805
1790267368315566000,1.754566162109375,-4.100535869598389,-7.563449859619141,4.7064008712768555
1790267368325566000,1.76456591796875,-4.110909938812256,-7.569972991943359,4.68682336807251
1790267368335566000,1.774566162109375,-4.156215190887451,-7.540653705596924,4.694126129150391
1790267368345566000,1.78456591796875,-4.236764907836914,-7.485564231872559,4.710259437561035
1790267368355566000,1.794566162109375,-4.3757243156433105,-7.413419723510742,4.697298526763916
1790267368365566000,1.80456591796875,-4.555179119110107,-7.335986137390137,4.648015022277832
1790267368375566000,1.814566162109375,-4.742568492889404,-7.26810884475708,4.566512107849121
1790267368385566000,1.82456591796875,-4.899794101715088,-7.218049049377441,4.479083061218262
1790267368395566000,1.834566162109375,-5.01632833480835,-7.191359043121338,4.392172336578369
1790267368405566000,1.84456591796875,-5.0740647315979,-7.191235542297363,4.3255510330200195
1790267368415566000,1.854566162109375,-5.082695484161377,-7.205938816070557,4.290806293487549
1790267368425566000,1.86456591796875,-5.059560775756836,-7.244129657745361,4.2536821365356445
1790267368435566000,1.874566162109375,-4.976574897766113,-7.334067344665527,4.197086811065674
1790267368445566000,1.88456591796875,-4.795684814453125,-7.502460479736328,4.109121799468994
1790267368455566000,1.894566162109375,-4.507003307342529,-7.726465702056885,4.019831657409668
1790267368465566000,1.90456591796875,-4.143058776855469,-7.979217052459717,3.9163177013397217
1790267368475566000,1.914566162109375,-3.757580518722534,-8.242937088012695,3.755657911300659
1790267368485566000,1.92456591796875,-3.3666296005249023,-8.507144927978516,3.530534029006958
1790267368495566000,1.934566162109375,-2.988325357437134,-8.757204055786133,3.2483344078063965
1790267368505566000,1.94456591796875,-2.6630361080169678,-8.976800918579102,2.9147355556488037
1790267368515566000,1.954566162109375,-2.4061455726623535,-9.159358978271484,2.5469589233398438
1790267368525566000,1.96456591796875,-2.236684799194336,-9.304061889648438,2.1452410221099854
1790267368535566000,1.974566162109375,-2.1135597229003906,-9.418377876281738,1.7313013076782227
1790267368545566000,1.98456591796875,-1.9860833883285522,-9.50460147857666,1.3741967678070068
1790267368555566000,1.994566162109375,-1.8326623439788818,-9.569948196411133,1.108078122138977
1790267368565566000,2.00456591796875,-1.6610583066940308,-9.622284889221191,0.9071362018585205
1790267368575566000,2.014566162109375,-1.5067596435546875,-9.66202449798584,0.7384732365608215
1790267368585566000,2.02456591796875,-1.3809994459152222,-9.691227912902832,0.5859503746032715
1790267368595566000,2.034566162109375,-1.2652486562728882,-9.71361255645752,0.46396589279174805
1790267368605566000,2.04456591796875,-1.168110728263855,-9.729263305664062,0.3838372230529785
1790267368615566000,2.054566162109375,-1.1152714490890503,-9.737337112426758,0.33293041586875916
1790267368625566000,2.06456591796875,-1.123716115951538,-9.737570762634277,0.2955758571624756
1790267368635566000,2.074566162109375,-1.1760399341583252,-9.73169231414795,0.2854492962360382
1790267368645566000,2.08456591796875,-1.250637173652649,-9.721324920654297,0.3195785880088806
1790267368655566000,2.094566162109375,-1.3361701965332031,-9.706920623779297,0.4009076654911041
1790267368665566000,2.10456591796875,-1.4216808080673218,-9.689242362976074,0.5174782276153564
1790267368675566000,2.114566162109375,-1.5019499063491821,-9.668597221374512,0.6578425168991089
1790267368685566000,2.12456591796875,-1.5056102275848389,-9.659621238708496,0.7715255618095398
1790267368695566000,2.134566162109375,-1.4736863374710083,-9.656829833984375,0.8627114295959473
1790267368705566000,2.14456591796875,-1.4477568864822388,-9.653687477111816,0.938464343547821
1790267368715566000,2.154566162109375,-1.4367055892944336,-9.651216506958008,0.9799411296844482
1790267368725566000,2.16456591796875,-1.4329873323440552,-9.650365829467773,0.9936680793762207
1790267368735566000,2.174566162109375,-1.4277687072753906,-9.650426864624023,1.0005671977996826
1790267368745566000,2.18456591796875,-1.419421672821045,-9.649574279785156,1.020462989807129
1790267368755566000,2.194566162109375,-1.4131906032562256,-9.645780563354492,1.0640389919281006
1790267368765566000,2.20456591796875,-1.4081075191497803,-9.638126373291016,1.137603759765625
1790267368775566000,2.214566162109375,-1.4073982238769531,-9.624979019165039,1.2447421550750732
1790267368785566000,2.22456591796875,-1.4242039918899536,-9.603926658630371,1.3808027505874634
1790267368795566000,2.234566162109375,-1.4658938646316528,-9.574915885925293,1.5305393934249878
1790267368805566000,2.24456591796875,-1.5185543298721313,-9.54281997680664,1.6730130910873413
1790267368815566000,2.254566162109375,-1.560339331626892,-9.515926361083984,1.7840631008148193
1790267368825566000,2.26456591796875,-1.5772504806518555,-9.49919319152832,1.8568732738494873
1790267368835566000,2.274566162109375,-1.5815461874008179,-9.494095802307129,1.8791618347167969
1790267368845566000,2.28456591796875,-1.5978165864944458,-9.4968843460083,1.8510991334915161
1790267368855566000,2.294566162109375,-1.6066337823867798,-9.501160621643066,1.8212779760360718
1790267368865566000,2.30456591796875,-1.609742522239685,-9.50366497039795,1.8054002523422241
1790267368875566000,2.314566162109375,-1.6127052307128906,-9.508792877197266,1.775512933731079
1790267368885566000,2.32456591796875,-1.6078237295150757,-9.519232749938965,1.7232211828231812
1790267368895566000,2.334566162109375,-1.5925880670547485,-9.531182289123535,1.6705163717269897
1790267368905566000,2.34456591796875,-1.5669111013412476,-9.543102264404297,1.6261556148529053
1790267368915566000,2.354566162109375,-1.5231817960739136,-9.555994987487793,1.5916199684143066
1790267368925566000,2.36456591796875,-1.4686572551727295,-9.567947387695312,1.570927619934082
1790267368935566000,2.374566162109375,-1.4186601638793945,-9.573989868164062,1.5800342559814453
1790267368945566000,2.38456591796875,-1.345350980758667,-9.575423240661621,1.6345293521881104
1790267368955566000,2.394566162109375,-1.2573786973953247,-9.570740699768066,1.7292526960372925
1790267368965566000,2.40456591796875,-1.1695201396942139,-9.55978775024414,1.8474477529525757
1790267368975566000,2.414566162109375,-1.0864509344100952,-9.547318458557129,1.9592698812484741
1790267368985566000,2.42456591796875,-0.9964909553527832,-9.532021522521973,2.0779671669006348
1790267368995566000,2.434566162109375,-0.9239344000816345,-9.520548820495605,2.1623804569244385
1790267369005566000,2.44456591796875,-0.873717188835144,-9.521537780761719,2.1788363456726074
1790267369015566000,2.454566162109375,-0.792060136795044,-9.531670570373535,2.165710210800171
1790267369025566000,2.46456591796875,-0.6577468514442444,-9.544665336608887,2.153395891189575
1790267369035566000,2.474566162109375,-0.49151211977005005,-9.55643081665039,2.1455605030059814
1790267369045566000,2.48456591796875,-0.3109208047389984,-9.563700675964355,2.1469359397888184
1790267369055566000,2.494566162109375,-0.14702703058719635,-9.568344116210938,2.143721103668213
1790267369065566000,2.50456591796875,-0.015923824161291122,-9.575084686279297,2.1184604167938232
1790267369075566000,2.514566162109375,0.07992161065340042,-9.573553085327148,2.12392520904541
1790267369085566000,2.52456591796875,0.1328091323375702,-9.564087867736816,2.163553237915039
1790267369095566000,2.534566162109375,0.14092013239860535,-9.555882453918457,2.199007034301758
1790267369105566000,2.54456591796875,0.1299668699502945,-9.551011085510254,2.220740795135498
1790267369115566000,2.554566162109375,0.11521771550178528,-9.549105644226074,2.229727029800415
1790267369125566000,2.56456591796875,0.09574402868747711,-9.54920482635498,2.230226516723633
1790267369135566000,2.574566162109375,0.06362438201904297,-9.54955768585205,2.2298624515533447
1790267369145566000,2.58456591796875,0.016654478386044502,-9.549423217773438,2.2312824726104736
1790267369155566000,2.594566162109375,-0.05350109934806824,-9.547402381896973,2.2393317222595215
1790267369165566000,2.60456591796875,-0.15096062421798706,-9.541155815124512,2.261406898498535
1790267369175566000,2.614566162109375,-0.2883461117744446,-9.529926300048828,2.295158863067627
1790267369185566000,2.62456591796875,-0.4805704653263092,-9.513558387756348,2.3305914402008057
1790267369195566000,2.634566162109375,-0.7377285957336426,-9.488985061645508,2.3633267879486084
1790267369205566000,2.64456591796875,-1.0480271577835083,-9.450501441955566,2.4000136852264404
1790267369215566000,2.654566162109375,-1.3398436307907104,-9.400235176086426,2.451688289642334
1790267369225566000,2.66456591796875,-1.5144113302230835,-9.356471061706543,2.51662540435791
1790267369235566000,2.674566162109375,-1.5744845867156982,-9.326414108276367,2.590250015258789
1790267369245566000,2.68456591796875,-1.5882738828659058,-9.30334186553955,2.6637558937072754
1790267369255566000,2.694566162109375,-1.6086530685424805,-9.28074836730957,2.7295289039611816
1790267369265566000,2.70456591796875,-1.645243763923645,-9.258367538452148,2.7831974029541016
1790267369275566000,2.714566162109375,-1.7033510208129883,-9.234559059143066,2.826997756958008
1790267369285566000,2.72456591796875,-1.7884953022003174,-9.206513404846191,2.865621328353882
1790267369295566000,2.734566162109375,-1.9060120582580566,-9.166175842285156,2.9186878204345703
1790267369305566000,2.74456591796875,-2.0397942066192627,-9.113945007324219,2.990924119949341
1790267369315566000,2.754566162109375,-2.190384864807129,-9.04778003692627,3.083871603012085
1790267369325566000,2.76456591796875,-2.3562211990356445,-8.981547355651855,3.154428720474243
1790267369335566000,2.774566162109375,-2.5410900115966797,-8.919944763183594,3.1855673789978027
1790267369345566000,2.78456591796875,-2.739825963973999,-8.860939025878906,3.1855146884918213
1790267369355566000,2.794566162109375,-2.9407355785369873,-8.79806900024414,3.1806352138519287
1790267369365566000,2.80456591796875,-3.122058391571045,-8.73099136352539,3.192636489868164
1790267369375566000,2.814566162109375,-3.308330774307251,-8.646529197692871,3.2346363067626953
1790267369385566000,2.82456591796875,-3.5015146732330322,-8.541376113891602,3.309784412384033
1790267369395566000,2.834566162109375,-3.68993878364563,-8.42680835723877,3.397590160369873
1790267369405566000,2.84456591796875,-3.865295171737671,-8.324655532836914,3.453983783721924
1790267369415566000,2.854566162109375,-4.01066780090332,-8.271960258483887,3.4146158695220947
1790267369425566000,2.86456591796875,-4.117031574249268,-8.269099235534668,3.2927870750427246
1790267369435566000,2.874566162109375,-4.183492660522461,-8.288884162902832,3.1564488410949707
1790267369445566000,2.88456591796875,-4.204556941986084,-8.330430030822754,3.0159623622894287
1790267369455566000,2.894566162109375,-4.204484462738037,-8.38585090637207,2.8583600521087646
1790267369465566000,2.90456591796875,-4.211571216583252,-8.446124076843262,2.66384220123291
1790267369475566000,2.914566162109375,-4.250030994415283,-8.497111320495605,2.43037486076355
1790267369485566000,2.92456591796875,-4.334696292877197,-8.521112442016602,2.1843602657318115
1790267369495566000,2.934566162109375,-4.462884426116943,-8.50722599029541,1.969812273979187
1790267369505566000,2.94456591796875,-4.609740257263184,-8.460349082946777,1.8284354209899902
1790267369515566000,2.954566162109375,-4.753933906555176,-8.390811920166016,1.7789798974990845
1790267369525566000,2.96456591796875,-4.889894485473633,-8.307076454162598,1.8032790422439575
1790267369535566000,2.974566162109375,-5.013011932373047,-8.222820281982422,1.850762963294983
1790267369545566000,2.98456591796875,-5.124691963195801,-8.146310806274414,1.8829599618911743
1790267369555566000,2.994566162109375,-5.2322678565979,-8.074517250061035,1.8962938785552979
1790267369565566000,3.00456591796875,-5.343365669250488,-7.998996257781982,1.9065362215042114
1790267369575566000,3.014566162109375,-5.459623336791992,-7.914277076721191,1.9305742979049683
1790267369585566000,3.02456591796875,-5.572387218475342,-7.823184967041016,1.9790552854537964
1790267369595566000,3.034566162109375,-5.675861835479736,-7.731781482696533,2.0431666374206543
1790267369605566000,3.04456591796875,-5.771048069000244,-7.642623424530029,2.1108527183532715
1790267369615566000,3.054566162109375,-5.859766960144043,-7.556936264038086,2.173988103866577
1790267369625566000,3.06456591796875,-5.9435343742370605,-7.478551864624023,2.2172205448150635
1790267369635566000,3.074566162109375,-6.030073642730713,-7.405885219573975,2.2274324893951416
1790267369645566000,3.08456591796875,-6.125369071960449,-7.332952976226807,2.2086260318756104
1790267369655566000,3.094566162109375,-6.229119777679443,-7.255824565887451,2.1728930473327637
1790267369665566000,3.10456591796875,-6.336752414703369,-7.172723770141602,2.1372857093811035
1790267369675566000,3.114566162109375,-6.4450178146362305,-7.081753730773926,2.1168112754821777
1790267369685566000,3.12456591796875,-6.554040431976318,-6.980113983154297,2.1196579933166504
1790267369695566000,3.134566162109375,-6.661923885345459,-6.867733955383301,2.150205373764038
1790267369705566000,3.14456591796875,-6.763607025146484,-6.749929428100586,2.205099582672119
1790267369715566000,3.154566162109375,-6.85698127746582,-6.632936477661133,2.270764112472534
1790267369725566000,3.16456591796875,-6.943135738372803,-6.52205228805542,2.329395294189453
1790267369735566000,3.174566162109375,-7.0256733894348145,-6.4190993309021,2.3675851821899414
1790267369745566000,3.18456591796875,-7.108417987823486,-6.323761940002441,2.3771450519561768
1790267369755566000,3.194566162109375,-7.193891525268555,-6.2345781326293945,2.3554913997650146
1790267369765566000,3.20456591796875,-7.2822747230529785,-6.148820400238037,2.3088672161102295
1790267369775566000,3.214566162109375,-7.373032093048096,-6.061787128448486,2.2502236366271973
1790267369785566000,3.22456591796875,-7.462273120880127,-5.9739861488342285,2.190056085586548
1790267369795566000,3.234566162109375,-7.545666217803955,-5.890017032623291,2.1309664249420166
1790267369805566000,3.24456591796875,-7.623342514038086,-5.811328411102295,2.0696628093719482
1790267369815566000,3.254566162109375,-7.69898796081543,-5.735076904296875,2.001213550567627
1790267369825566000,3.26456591796875,-7.775774002075195,-5.657985210418701,1.9222184419631958
1790267369835566000,3.274566162109375,-7.854483127593994,-5.577889442443848,1.8342912197113037
1790267369845566000,3.28456591796875,-7.934234619140625,-5.49352502822876,1.743414282798767
1790267369855566000,3.294566162109375,-8.015769004821777,-5.401992321014404,1.6541780233383179
1790267369865566000,3.30456591796875,-8.100371360778809,-5.300932884216309,1.566678524017334
1790267369875566000,3.314566162109375,-8.187965393066406,-5.190211296081543,1.4796329736709595
1790267369885566000,3.32456591796875,-8.276480674743652,-5.072268009185791,1.3936854600906372
1790267369895566000,3.334566162109375,-8.363874435424805,-4.949464321136475,1.3110265731811523
1790267369905566000,3.34456591796875,-8.45057201385498,-4.820486068725586,1.2333422899246216
1790267369915566000,3.354566162109375,-8.537361145019531,-4.684593200683594,1.1569044589996338
1790267369925566000,3.36456591796875,-8.622546195983887,-4.545094966888428,1.0789861679077148
1790267369935566000,3.374566162109375,-8.703184127807617,-4.39971923828125,1.0331768989562988
1790267369945566000,3.38456591796875,-8.779422760009766,-4.252695083618164,1.0033494234085083
1790267369955566000,3.394566162109375,-8.849944114685059,-4.118053913116455,0.9436655640602112
1790267369965566000,3.40456591796875,-8.916996955871582,-3.988096237182617,0.867556095123291
1790267369975566000,3.414566162109375,-8.980785369873047,-3.859543800354004,0.787269651889801
1790267369985566000,3.42456591796875,-9.041698455810547,-3.730051040649414,0.7104833722114563
1790267369995566000,3.434566162109375,-9.104549407958984,-3.587850570678711,0.636306643486023
1790267370005566000,3.44456591796875,-9.167283058166504,-3.4357357025146484,0.571866512298584
1790267370015566000,3.454566162109375,-9.225468635559082,-3.285097360610962,0.5189077854156494
1790267370025566000,3.46456591796875,-9.276627540588379,-3.145740509033203,0.467851847410202
1790267370035566000,3.474566162109375,-9.32178783416748,-3.018357038497925,0.4051855206489563
1790267370045566000,3.48456591796875,-9.36447811126709,-2.8933122158050537,0.3250621557235718
1790267370055566000,3.494566162109375,-9.40639591217041,-2.7632293701171875,0.23379728198051453
1790267370065566000,3.50456591796875,-9.446938514709473,-2.6275124549865723,0.1480286717414856
1790267370075566000,3.514566162109375,-9.485485076904297,-2.487844467163086,0.08112934976816177
1790267370085566000,3.52456591796875,-9.522045135498047,-2.3452134132385254,0.03200849890708923
1790267370095566000,3.534566162109375,-9.5557222366333,-2.2042014598846436,-0.0073462314903736115
1790267370105566000,3.54456591796875,-9.58531379699707,-2.071284770965576,-0.04383820667862892
1790267370115566000,3.554566162109375,-9.611222267150879,-1.946376085281372,-0.08005979657173157
1790267370125566000,3.56456591796875,-9.634564399719238,-1.825695514678955,-0.11134446412324905
1790267370135566000,3.574566162109375,-9.655906677246094,-1.7075507640838623,-0.13462695479393005
1790267370145566000,3.58456591796875,-9.675331115722656,-1.59257972240448,-0.1484602689743042
1790267370155566000,3.594566162109375,-9.6920166015625,-1.4862964153289795,-0.16161946952342987
1790267370165566000,3.60456591796875,-9.705930709838867,-1.3901398181915283,-0.1811576634645462
1790267370175566000,3.614566162109375,-9.717691421508789,-1.3020156621932983,-0.20399980247020721
1790267370185566000,3.62456591796875,-9.72784423828125,-1.2203428745269775,-0.22405578196048737
1790267370195566000,3.634566162109375,-9.736868858337402,-1.1435106992721558,-0.23700258135795593
1790267370205566000,3.64456591796875,-9.744730949401855,-1.0728143453598022,-0.24425861239433289
1790267370215566000,3.654566162109375,-9.751368522644043,-1.0102750062942505,-0.24606271088123322
1790267370225566000,3.66456591796875,-9.756952285766602,-0.9563466310501099,-0.24012431502342224
1790267370235566000,3.674566162109375,-9.761547088623047,-0.9114168286323547,-0.22780472040176392
1790267370245566000,3.68456591796875,-9.765378952026367,-0.8739679455757141,-0.20959623157978058
1790267370255566000,3.694566162109375,-9.768836975097656,-0.8411867618560791,-0.18064717948436737
1790267370265566000,3.70456591796875,-9.77152156829834,-0.8164692521095276,-0.1453966647386551
1790267370275566000,3.714566162109375,-9.772929191589355,-0.8051674962043762,-0.10925234854221344
1790267370285566000,3.72456591796875,-9.773261070251465,-0.8048989176750183,-0.07678195089101791
1790267370295566000,3.734566162109375,-9.772400856018066,-0.8169381618499756,-0.05644608289003372
1790267370305566000,3.74456591796875,-9.770854949951172,-0.8363139629364014,-0.036806073039770126
1790267370315566000,3.754566162109375,-9.768692970275879,-0.8619451522827148,-0.008714975789189339
1790267370325566000,3.76456591796875,-9.765948295593262,-0.8922005891799927,0.024951251223683357
1790267370335566000,3.774566162109375,-9.762557029724121,-0.9266892671585083,0.06416425108909607
1790267370345566000,3.78456591796875,-9.757864952087402,-0.9705867171287537,0.11149971187114716
1790267370355566000,3.794566162109375,-9.75104808807373,-1.0299574136734009,0.16320258378982544
1790267370365566000,3.80456591796875,-9.741898536682129,-1.1045103073120117,0.21413931250572205
1790267370375566000,3.814566162109375,-9.730515480041504,-1.189380168914795,0.2698814272880554
1790267370385566000,3.82456591796875,-9.71722412109375,-1.2780861854553223,0.335321843624115
1790267370395566000,3.834566162109375,-9.702130317687988,-1.3682572841644287,0.408547043800354
1790267370405566000,3.84456591796875,-9.684874534606934,-1.4610927104949951,0.4886769950389862
1790267370415566000,3.854566162109375,-9.665194511413574,-1.5565640926361084,0.5757688283920288
1790267370425566000,3.86456591796875,-9.642765998840332,-1.655422329902649,0.6686003804206848
1790267370435566000,3.874566162109375,-9.616453170776367,-1.7617324590682983,0.7684480547904968
1790267370445566000,3.88456591796875,-9.585628509521484,-1.879082202911377,0.8689993619918823
1790267370455566000,3.894566162109375,-9.551297187805176,-2.0034019947052,0.9641036987304688
1790267370465566000,3.90456591796875,-9.51455307006836,-2.1273252964019775,1.0574305057525635
1790267370475566000,3.914566162109375,-9.47482681274414,-2.2494490146636963,1.1567329168319702
1790267370485566000,3.92456591796875,-9.430867195129395,-2.374356985092163,1.261573314666748
1790267370495566000,3.934566162109375,-9.381379127502441,-2.5046229362487793,1.3736697435379028
1790267370505566000,3.94456591796875,-9.324505805969238,-2.639467716217041,1.5023974180221558
1790267370515566000,3.954566162109375,-9.25853443145752,-2.7781870365142822,1.6527520418167114
1790267370525566000,3.96456591796875,-9.18263053894043,-2.9216766357421875,1.8203023672103882
1790267370535566000,3.974566162109375,-9.098123550415039,-3.0689492225646973,1.9940111637115479
1790267370545566000,3.98456591796875,-9.008416175842285,-3.216113805770874,2.162278413772583
1790267370555566000,3.994566162109375,-8.91443157196045,-3.364129066467285,2.320761203765869
1790267370565566000,4.00456591796875,-8.815521240234375,-3.516371965408325,2.468219518661499
1790267370575566000,4.014566162109375,-8.711545944213867,-3.6740097999572754,2.604037046432495
1790267370585566000,4.02456591796875,-8.602892875671387,-3.8345870971679688,2.7306721210479736
1790267370595566000,4.034566162109375,-8.492193222045898,-3.992149591445923,2.8488216400146484
1790267370605566000,4.04456591796875,-8.377191543579102,-4.145191192626953,2.96823787689209
1790267370615566000,4.054566162109375,-8.256975173950195,-4.2919535636901855,3.093846321105957
1790267370625566000,4.06456591796875,-8.13253402709961,-4.434187889099121,3.220288038253784
1790267370635566000,4.074566162109375,-8.00496768951416,-4.577112674713135,3.3378021717071533
1790267370645566000,4.08456591796875,-7.876769542694092,-4.722438335418701,3.4388182163238525
1790267370655566000,4.094566162109375,-7.747959136962891,-4.8734588623046875,3.519789934158325
1790267370665566000,4.10456591796875,-7.618968963623047,-5.029515266418457,3.581293821334839
1790267370675566000,4.114566162109375,-7.494535446166992,-5.183079242706299,3.6246423721313477
1790267370685566000,4.12456591796875,-7.3731794357299805,-5.329716682434082,3.6606996059417725
1790267370695566000,4.134566162109375,-7.24614953994751,-5.470675468444824,3.706132650375366
1790267370705566000,4.14456591796875,-7.112052917480469,-5.607173442840576,3.761476516723633
1790267370715566000,4.154566162109375,-6.976317882537842,-5.73807430267334,3.817836284637451
1790267370725566000,4.16456591796875,-6.842345237731934,-5.863951683044434,3.868690013885498
1790267370735566000,4.174566162109375,-6.710040092468262,-5.988159656524658,3.909946918487549
1790267370745566000,4.18456591796875,-6.577726364135742,-6.113613128662109,3.9405128955841064
1790267370755566000,4.194566162109375,-6.443947792053223,-6.240172863006592,3.9631001949310303
1790267370765566000,4.20456591796875,-6.3114800453186035,-6.363034248352051,3.98088002204895
1790267370775566000,4.214566162109375,-6.185004234313965,-6.477296352386475,3.9950897693634033
1790267370785566000,4.22456591796875,-6.0636396408081055,-6.582841396331787,4.008598327636719
1790267370795566000,4.234566162109375,-5.946310997009277,-6.682056903839111,4.020186901092529
1790267370805566000,4.24456591796875,-5.836416244506836,-6.7756123542785645,4.024637699127197
1790267370815566000,4.254566162109375,-5.732685089111328,-6.864564418792725,4.0229926109313965
1790267370825566000,4.26456591796875,-5.628870487213135,-6.9523234367370605,4.018880367279053
1790267370835566000,4.274566162109375,-5.521823406219482,-7.041040897369385,4.012928485870361
1790267370845566000,4.28456591796875,-5.414612293243408,-7.130315780639648,4.001369953155518
1790267370855566000,4.294566162109375,-5.316024303436279,-7.217074394226074,3.9779510498046875
1790267370865566000,4.30456591796875,-5.228165626525879,-7.300624847412109,3.9417710304260254
1790267370875566000,4.314566162109375,-5.1464457511901855,-7.382075786590576,3.897364854812622
1790267370885566000,4.32456591796875,-5.0669026374816895,-7.461464881896973,3.8501195907592773
1790267370895566000,4.334566162109375,-4.993535995483398,-7.535520076751709,3.801438570022583
1790267370905566000,4.34456591796875,-4.931149959564209,-7.601643085479736,3.7508890628814697
1790267370915566000,4.354566162109375,-4.876337051391602,-7.661423206329346,3.7005832195281982
1790267370925566000,4.36456591796875,-4.824825286865234,-7.717871189117432,3.6504671573638916
1790267370935566000,4.374566162109375,-4.777270317077637,-7.771166801452637,3.599588394165039
1790267370945566000,4.38456591796875,-4.737253189086914,-7.819673538208008,3.547044038772583
1790267370955566000,4.394566162109375,-4.699566841125488,-7.86497688293457,3.4966561794281006
1790267370965566000,4.40456591796875,-4.657541751861572,-7.908685684204102,3.45404052734375
1790267370975566000,4.414566162109375,-4.613864421844482,-7.949759483337402,3.418182611465454
1790267370985566000,4.42456591796875,-4.57527494430542,-7.986999034881592,3.3830606937408447
1790267370995566000,4.434566162109375,-4.544785976409912,-8.020463943481445,3.344766616821289
1790267371005566000,4.44456591796875,-4.522049427032471,-8.049941062927246,3.3045284748077393
1790267371015566000,4.454566162109375,-4.5047149658203125,-8.074860572814941,3.267195224761963
1790267371025566000,4.46456591796875,-4.492166042327881,-8.09377670288086,3.2375309467315674
1790267371035566000,4.474566162109375,-4.485239505767822,-8.10573673248291,3.2171504497528076
1790267371045566000,4.48456591796875,-4.48246955871582,-8.111979484558105,3.2052547931671143
1790267371055566000,4.494566162109375,-4.483753204345703,-8.113778114318848,3.198899984359741
1790267371065566000,4.50456591796875,-4.490902900695801,-8.111884117126465,3.1936681270599365
1790267371075566000,4.514566162109375,-4.504855632781982,-8.107033729553223,3.186326026916504
1790267371085566000,4.52456591796875,-4.524820804595947,-8.100171089172363,3.1754696369171143
1790267371095566000,4.534566162109375,-4.54888916015625,-8.091985702514648,3.1619248390197754
1790267371105566000,4.54456591796875,-4.574881076812744,-8.083508491516113,3.146069288253784
1790267371115566000,4.554566162109375,-4.604833126068115,-8.074338912963867,3.1258513927459717
1790267371125566000,4.56456591796875,-4.640510082244873,-8.06452751159668,3.0982985496520996
1790267371135566000,4.574566162109375,-4.681571006774902,-8.05380916595459,3.0642201900482178
1790267371145566000,4.58456591796875,-4.729266166687012,-8.04008674621582,3.0267860889434814
1790267371155566000,4.594566162109375,-4.784134864807129,-8.021119117736816,2.990668535232544
1790267371165566000,4.60456591796875,-4.843466758728027,-7.996346950531006,2.9613614082336426
1790267371175566000,4.614566162109375,-4.903594017028809,-7.96683406829834,2.9418904781341553
1790267371185566000,4.62456591796875,-4.962689399719238,-7.934607982635498,2.929861307144165
1790267371195566000,4.634566162109375,-5.020664215087891,-7.9014892578125,2.9205808639526367
1790267371205566000,4.64456591796875,-5.077986717224121,-7.868619918823242,2.9102001190185547
1790267371215566000,4.654566162109375,-5.135549068450928,-7.835625171661377,2.8981893062591553
1790267371225566000,4.66456591796875,-5.192080974578857,-7.80263090133667,2.8864586353302
1790267371235566000,4.674566162109375,-5.243499279022217,-7.7718119621276855,2.876636266708374
1790267371245566000,4.68456591796875,-5.288557529449463,-7.744418144226074,2.868020534515381
1790267371255566000,4.694566162109375,-5.330456256866455,-7.719057559967041,2.8588075637817383
1790267371265566000,4.70456591796875,-5.373745918273926,-7.69259786605835,2.8490684032440186
1790267371275566000,4.714566162109375,-5.422211170196533,-7.661491394042969,2.8410494327545166
1790267371285566000,4.72456591796875,-5.478033065795898,-7.623135566711426,2.8371381759643555
1790267371295566000,4.734566162109375,-5.543010711669922,-7.5752787590026855,2.839113235473633
1790267371305566200,4.744566162109375,-5.616406440734863,-7.516920566558838,2.8499598503112793
1790267371315566000,4.754566162109375,-5.694422245025635,-7.449768543243408,2.871391534805298
1790267371325566200,4.764566162109375,-5.77410888671875,-7.376933574676514,2.9001569747924805
1790267371335566000,4.774566162109375,-5.853602409362793,-7.301841735839844,2.9306702613830566
1790267371345566200,4.784566162109375,-5.93230676651001,-7.227921009063721,2.955549716949463
1790267371355566000,4.794566162109375,-6.0111541748046875,-7.160098075866699,2.9613189697265625
1790267371365566200,4.804566162109375,-6.088656425476074,-7.100350856781006,2.946808338165283
1790267371375566300,4.81456640625,-6.16586971282959,-7.044003009796143,2.921379327774048
1790267371385566200,4.824566162109375,-6.246401786804199,-6.983853340148926,2.8945884704589844
1790267371395566300,4.83456640625,-6.33295202255249,-6.916446685791016,2.8682522773742676
1790267371405566200,4.844566162109375,-6.4238762855529785,-6.8444647789001465,2.8385727405548096
1790267371415566300,4.85456640625,-6.517625331878662,-6.770622730255127,2.801715612411499
1790267371425566200,4.864566162109375,-6.614379405975342,-6.694713592529297,2.7570242881774902
1790267371435566300,4.87456640625,-6.715627193450928,-6.613531589508057,2.707756519317627
1790267371445566200,4.884566162109375,-6.821664333343506,-6.5235724449157715,2.6605074405670166
1790267371455566300,4.89456640625,-6.9303483963012695,-6.426185131072998,2.616260528564453
1790267371465566200,4.904566162109375,-7.039814472198486,-6.325446128845215,2.569071054458618
1790267371475566300,4.91456640625,-7.148965835571289,-6.2235941886901855,2.5158603191375732
1790267371485566200,4.924566162109375,-7.254996299743652,-6.122525215148926,2.459695816040039
1790267371495566300,4.93456640625,-7.354616641998291,-6.0238871574401855,2.4068188667297363
1790267371505566200,4.944566162109375,-7.4461493492126465,-5.9293012619018555,2.3597965240478516
1790267371515566300,4.95456640625,-7.530596733093262,-5.839199066162109,2.316087007522583
1790267371525566200,4.964566162109375,-7.612732887268066,-5.751070022583008,2.2675728797912598
1790267371535566300,4.97456640625,-7.701982498168945,-5.655598163604736,2.2054624557495117
1790267371545566200,4.984566162109375,-7.805936336517334,-5.54229736328125,2.126190423965454
1790267371555566300,4.99456640625,-7.922149181365967,-5.408712387084961,2.038569211959839
1790267371565566200,5.004566162109375,-8.036808013916016,-5.265630722045898,1.9629639387130737
1790267371575566300,5.01456640625,-8.135669708251953,-5.131779670715332,1.90947425365448
1790267371585566200,5.024566162109375,-8.220207214355469,-5.011916637420654,1.8652836084365845
1790267371595566300,5.03456640625,-8.303858757019043,-4.89285135269165,1.8100628852844238
1790267371605566200,5.044566162109375,-8.3977689743042,-4.759200572967529,1.7314351797103882
1790267371615566300,5.05456640625,-8.500004768371582,-4.611598014831543,1.6289438009262085
1790267371625566200,5.064566162109375,-8.601202964782715,-4.458637237548828,1.5199521780014038
1790267371635566300,5.07456640625,-8.692874908447266,-4.309780597686768,1.4248188734054565
1790267371645566200,5.084566162109375,-8.773639678955078,-4.170474529266357,1.341930866241455
1790267371655566300,5.09456640625,-8.849907875061035,-4.0360918045043945,1.2487841844558716
1790267371665566200,5.104566162109375,-8.92786979675293,-3.8979198932647705,1.126835823059082
1790267371675566300,5.11456640625,-9.008890151977539,-3.7486023902893066,0.9789062738418579
1790267371685566200,5.124566162109375,-9.090060234069824,-3.5869507789611816,0.8215624690055847
1790267371695566300,5.13456640625,-9.168179512023926,-3.414747476577759,0.6740747690200806
1790267371705566200,5.144566162109375,-9.243059158325195,-3.2322843074798584,0.5371978878974915
1790267371715566300,5.15456640625,-9.314659118652344,-3.0407259464263916,0.40188348293304443
1790267371725566200,5.164566162109375,-9.381811141967773,-2.842722177505493,0.26634594798088074
1790267371735566300,5.17456640625,-9.443318367004395,-2.641266107559204,0.13354846835136414
1790267371745566200,5.184566162109375,-9.499822616577148,-2.4338672161102295,0.00625730911269784
1790267371755566300,5.19456640625,-9.55345344543457,-2.2114107608795166,-0.10756189376115799
1790267371765566200,5.204566162109375,-9.603476524353027,-1.9766535758972168,-0.19096417725086212
1790267371775566300,5.21456640625,-9.647063255310059,-1.7462314367294312,-0.2350490540266037
1790267371785566200,5.224566162109375,-9.682904243469238,-1.5314111709594727,-0.2579456865787506
1790267371795566300,5.23456640625,-9.712843894958496,-1.3255236148834229,-0.2721058428287506
1790267371805566200,5.244566162109375,-9.737602233886719,-1.1312172412872314,-0.2642691135406494
1790267371815566300,5.25456640625,-9.75735092163086,-0.9575815796852112,-0.21798847615718842
1790267371825566200,5.264566162109375,-9.772327423095703,-0.808600664138794,-0.13484640419483185
1790267371835566300,5.27456640625,-9.782346725463867,-0.6892390847206116,-0.0320441909134388
1790267371845566200,5.284566162109375,-9.78790283203125,-0.6012219786643982,0.07672334462404251
1790267371855566300,5.29456640625,-9.79034423828125,-0.5384727716445923,0.17204894125461578
1790267371865566200,5.304566162109375,-9.79091739654541,-0.5061277747154236,0.2284083366394043
1790267371875566300,5.31456640625,-9.790451049804688,-0.4952459931373596,0.2686898708343506
1790267371885566200,5.324566162109375,-9.789231300354004,-0.49595504999160767,0.3087882101535797
1790267371895566300,5.33456640625,-9.788280487060547,-0.5046219229698181,0.32452356815338135
1790267371905566200,5.344566162109375,-9.78801441192627,-0.5177404880523682,0.3116040527820587
1790267371915566300,5.35456640625,-9.78803539276123,-0.5344123244285583,0.2813335061073303
1790267371925566200,5.364566162109375,-9.787775993347168,-0.560680091381073,0.2354997992515564
1790267371935566300,5.37456640625,-9.78670597076416,-0.6004113554954529,0.17400391399860382
1790267371945566200,5.384566162109375,-9.784491539001465,-0.651334285736084,0.09945320338010788
1790267371955566300,5.39456640625,-9.780523300170898,-0.7151604890823364,0.017275413498282433
1790267371965566200,5.404566162109375,-9.77492618560791,-0.7859891057014465,-0.058516111224889755
1790267371975566300,5.41456640625,-9.768447875976562,-0.8573153614997864,-0.11318526417016983
1790267371985566200,5.424566162109375,-9.761754989624023,-0.926685631275177,-0.14072270691394806
1790267371995566300,5.43456640625,-9.755139350891113,-0.9944078326225281,-0.13704389333724976
1790267372005566200,5.444566162109375,-9.748333930969238,-1.0626890659332275,-0.10513200610876083
1790267372015566300,5.45456640625,-9.740405082702637,-1.1365786790847778,-0.055537495762109756
1790267372025566200,5.464566162109375,-9.730193138122559,-1.2221786975860596,0.0013651151675730944
1790267372035566300,5.47456640625,-9.717233657836914,-1.3198012113571167,0.062372542917728424
1790267372045566200,5.484566162109375,-9.702093124389648,-1.4227794408798218,0.12435685843229294
1790267372055566300,5.49456640625,-9.685559272766113,-1.5243139266967773,0.1918206661939621
1790267372065566200,5.504566162109375,-9.6679048538208,-1.6193193197250366,0.28253600001335144
1790267372075566300,5.51456640625,-9.647650718688965,-1.7110588550567627,0.4068277180194855
1790267372085566200,5.524566162109375,-9.621817588806152,-1.813657522201538,0.5492364764213562
1790267372095566300,5.53456640625,-9.590086936950684,-1.9306352138519287,0.6879421472549438
1790267372105566200,5.544566162109375,-9.553123474121094,-2.0595955848693848,0.8162648677825928
1790267372115566300,5.55456640625,-9.510359764099121,-2.1978020668029785,0.9450467824935913
1790267372125566200,5.564566162109375,-9.460760116577148,-2.341046094894409,1.0880767107009888
1790267372135566300,5.57456640625,-9.404176712036133,-2.4863641262054443,1.2449294328689575
1790267372145566200,5.584566162109375,-9.340536117553711,-2.6356000900268555,1.406551718711853
1790267372155566300,5.59456640625,-9.268653869628906,-2.791403293609619,1.5717835426330566
1790267372165566200,5.604566162109375,-9.187561988830566,-2.9547619819641113,1.7402523756027222
1790267372175566300,5.61456640625,-9.098640441894531,-3.124945878982544,1.9025858640670776
1790267372185566200,5.624566162109375,-9.004948616027832,-3.2994232177734375,2.048189401626587
1790267372195566300,5.63456640625,-8.907835006713867,-3.476759195327759,2.1755483150482178
1790267372205566200,5.644566162109375,-8.805908203125,-3.6548213958740234,2.2953550815582275
1790267372215566300,5.65456640625,-8.69818115234375,-3.8323066234588623,2.4135994911193848
1790267372225566200,5.664566162109375,-8.584112167358398,-4.010574817657471,2.5295629501342773
1790267372235566300,5.67456640625,-8.466123580932617,-4.186902046203613,2.639127254486084
1790267372245566200,5.684566162109375,-8.345647811889648,-4.3627166748046875,2.736283302307129
1790267372255566300,5.69456640625,-8.223014831542969,-4.539549827575684,2.8186683654785156
1790267372265566200,5.704566162109375,-8.10241985321045,-4.712697982788086,2.882993221282959
1790267372275566300,5.71456640625,-7.982038497924805,-4.883248329162598,2.934509038925171
1790267372285566200,5.724566162109375,-7.850211143493652,-5.061341762542725,2.9878721237182617
1790267372295566300,5.73456640625,-7.704391956329346,-5.249781608581543,3.041794776916504
1790267372305566200,5.744566162109375,-7.5504279136657715,-5.444371223449707,3.0854897499084473
1790267372315566300,5.75456640625,-7.3900933265686035,-5.640706539154053,3.120790719985962
1790267372325566200,5.764566162109375,-7.219937801361084,-5.836424350738525,3.1589596271514893
1790267372335566300,5.77456640625,-7.038263320922852,-6.028383731842041,3.208085060119629
1790267372345566200,5.784566162109375,-6.851286888122559,-6.211013317108154,3.2639811038970947
1790267372355566300,5.79456640625,-6.665075302124023,-6.384057521820068,3.3152616024017334
1790267372365566200,5.804566162109375,-6.4759297370910645,-6.5537848472595215,3.3586647510528564
1790267372375566300,5.81456640625,-6.280698299407959,-6.723402500152588,3.3939764499664307
1790267372385566200,5.824566162109375,-6.083122730255127,-6.891261100769043,3.4170918464660645
1790267372395566300,5.83456640625,-5.882711887359619,-7.0547919273376465,3.4342381954193115
1790267372405566200,5.844566162109375,-5.673506259918213,-7.214846611022949,3.45365047454834
1790267372415566300,5.85456640625,-5.456221580505371,-7.370161533355713,3.4757368564605713
1790267372425566200,5.864566162109375,-5.238621234893799,-7.521193981170654,3.486955165863037
1790267372435566300,5.87456640625,-5.0314836502075195,-7.671504974365234,3.464470624923706
1790267372445566200,5.884566162109375,-4.8365478515625,-7.820833206176758,3.4077494144439697
1790267372455566300,5.89456640625,-4.648026943206787,-7.9685773849487305,3.3268606662750244
1790267372465566200,5.904566162109375,-4.464231491088867,-8.109025955200195,3.23801326751709
1790267372475566300,5.91456640625,-4.287246227264404,-8.235182762145996,3.15779709815979
1790267372485566200,5.924566162109375,-4.113956928253174,-8.346686363220215,3.0949275493621826
1790267372495566300,5.93456640625,-3.9405033588409424,-8.446707725524902,3.0489249229431152
1790267372505566200,5.944566162109375,-3.7672035694122314,-8.538296699523926,3.01265287399292
1790267372515566300,5.95456640625,-3.5982048511505127,-8.623250961303711,2.977052927017212
1790267372525566200,5.964566162109375,-3.4392828941345215,-8.700946807861328,2.938577890396118
1790267372535566300,5.97456640625,-3.291166305541992,-8.77056884765625,2.9009897708892822
1790267372545566200,5.984566162109375,-3.1531989574432373,-8.83083724975586,2.871243476867676
1790267372555566300,5.99456640625,-3.0262157917022705,-8.881664276123047,2.8510444164276123
1790267372565566200,6.004566162109375,-2.917205572128296,-8.924092292785645,2.8321151733398438
1790267372575566300,6.01456640625,-2.8338732719421387,-8.957448959350586,2.811347246170044
1790267372585566200,6.024566162109375,-2.7767903804779053,-8.982373237609863,2.788689374923706
1790267372595566300,6.03456640625,-2.742910861968994,-8.999698638916016,2.766268730163574
1790267372605566200,6.044566162109375,-2.7297725677490234,-9.008831977844238,2.7494843006134033
1790267372615566300,6.05456640625,-2.7344303131103516,-9.009434700012207,2.7428746223449707
1790267372625566200,6.064566162109375,-2.753551483154297,-9.002592086791992,2.7462117671966553
1790267372635566300,6.07456640625,-2.784681558609009,-8.989975929260254,2.756133794784546
1790267372645566200,6.084566162109375,-2.8252205848693848,-8.973708152770996,2.76786470413208
1790267372655566300,6.09456640625,-2.8741214275360107,-8.955098152160645,2.77777361869812
1790267372665566200,6.104566162109375,-2.936906576156616,-8.933513641357422,2.7815990447998047
1790267372675566300,6.11456640625,-3.021474599838257,-8.907209396362305,2.7753734588623047
1790267372685566200,6.124566162109375,-3.128812551498413,-8.874905586242676,2.7598838806152344
1790267372695566300,6.13456640625,-3.255925178527832,-8.835578918457031,2.738954782485962
1790267372705566200,6.144566162109375,-3.3974382877349854,-8.788990020751953,2.7168824672698975
1790267372715566300,6.15456640625,-3.5455825328826904,-8.735955238342285,2.698577880859375
1790267372725566200,6.164566162109375,-3.6924941539764404,-8.6782808303833,2.6876220703125
1790267372735566300,6.17456640625,-3.8288674354553223,-8.618781089782715,2.688267469406128
1790267372745566200,6.184566162109375,-3.9486124515533447,-8.560214042663574,2.7021443843841553
1790267372755566300,6.19456640625,-4.052351474761963,-8.50415325164795,2.7254762649536133
1790267372765566200,6.204566162109375,-4.14805269241333,-8.449430465698242,2.751579761505127
1790267372775566300,6.21456640625,-4.245945930480957,-8.393392562866211,2.773676872253418
1790267372785566200,6.224566162109375,-4.351297855377197,-8.335219383239746,2.785804271697998
1790267372795566300,6.23456640625,-4.466446876525879,-8.274040222167969,2.7859444618225098
1790267372805566200,6.244566162109375,-4.590215682983398,-8.209772109985352,2.774879217147827
1790267372815566300,6.25456640625,-4.717889308929443,-8.143460273742676,2.756077527999878
1790267372825566200,6.264566162109375,-4.843562126159668,-8.076777458190918,2.7342169284820557
1790267372835566300,6.27456640625,-4.962123394012451,-8.011049270629883,2.7149205207824707
1790267372845566200,6.284566162109375,-5.073421478271484,-7.9452643394470215,2.702507734298706
1790267372855566300,6.29456640625,-5.179161071777344,-7.877654075622559,2.6998584270477295
1790267372865566200,6.304566162109375,-5.278692245483398,-7.808172225952148,2.708918333053589
1790267372875566300,6.31456640625,-5.369992256164551,-7.738217353820801,2.7301220893859863
1790267372885566200,6.324566162109375,-5.452671051025391,-7.668829917907715,2.761847734451294
1790267372895566300,6.33456640625,-5.527069568634033,-7.6007232666015625,2.801943063735962
1790267372905566200,6.344566162109375,-5.592238426208496,-7.5349836349487305,2.8497872352600098
1790267372915566300,6.35456640625,-5.649494171142578,-7.4712443351745605,2.9041552543640137
1790267372925566200,6.364566162109375,-5.70557165145874,-7.406574249267578,2.9596428871154785
1790267372935566300,6.37456640625,-5.769400119781494,-7.337516784667969,3.007532835006714
1790267372945566200,6.384566162109375,-5.846116542816162,-7.2629570960998535,3.0401928424835205
1790267372955566300,6.39456640625,-5.935255527496338,-7.183741092681885,3.0556492805480957
1790267372965566200,6.404566162109375,-6.034066200256348,-7.100561618804932,3.0565452575683594
1790267372975566300,6.41456640625,-6.140296459197998,-7.012317657470703,3.0486960411071777
1790267372985566200,6.424566162109375,-6.250919342041016,-6.91879415512085,3.0375425815582275
1790267372995566300,6.43456640625,-6.360090255737305,-6.8239240646362305,3.0255074501037598
1790267373005566200,6.444566162109375,-6.463864803314209,-6.731889724731445,3.0117263793945312
1790267373015566300,6.45456640625,-6.563106536865234,-6.642659664154053,2.995178461074829
1790267373025566200,6.464566162109375,-6.65980339050293,-6.555294513702393,2.974140167236328
1790267373035566300,6.47456640625,-6.757430076599121,-6.468278884887695,2.9442992210388184
1790267373045566200,6.484566162109375,-6.8592095375061035,-6.379025936126709,2.903388738632202
1790267373055566300,6.49456640625,-6.966986656188965,-6.284646987915039,2.8521392345428467
1790267373065566200,6.504566162109375,-7.0797271728515625,-6.1848225593566895,2.7921030521392822
1790267373075566300,6.51456640625,-7.1955180168151855,-6.079811096191406,2.7259511947631836
1790267373085566200,6.524566162109375,-7.312639236450195,-5.969534397125244,2.657132148742676
1790267373095566300,6.53456640625,-7.430505752563477,-5.853161334991455,2.588142156600952
1790267373105566200,6.544566162109375,-7.549281597137451,-5.729485034942627,2.520264148712158
1790267373115566300,6.55456640625,-7.668193817138672,-5.599244594573975,2.4530909061431885
1790267373125566200,6.564566162109375,-7.786474704742432,-5.463691234588623,2.385220527648926
1790267373135566300,6.57456640625,-7.9046244621276855,-5.32171630859375,2.3165996074676514
1790267373145566200,6.584566162109375,-8.021647453308105,-5.173763275146484,2.2484943866729736
1790267373155566300,6.59456640625,-8.133581161499023,-5.024791717529297,2.183281898498535
1790267373165566200,6.604566162109375,-8.237430572509766,-4.8798322677612305,2.121877670288086
1790267373175566300,6.61456640625,-8.33277416229248,-4.7409844398498535,2.0635733604431152
1790267373185566200,6.624566162109375,-8.422013282775879,-4.606325626373291,2.00545334815979
1790267373195566300,6.63456640625,-8.508073806762695,-4.473080158233643,1.942836880683899
1790267373205566200,6.644566162109375,-8.592676162719727,-4.339435577392578,1.8723235130310059
1790267373215566300,6.65456640625,-8.676531791687012,-4.202555179595947,1.796308159828186
1790267373225566200,6.664566162109375,-8.757719039916992,-4.063689231872559,1.720223307609558
1790267373235566300,6.67456640625,-8.833944320678711,-3.9261326789855957,1.648417592048645
1790267373245566200,6.684566162109375,-8.905200958251953,-3.789959669113159,1.5823955535888672
1790267373255566300,6.69456640625,-8.973669052124023,-3.6522347927093506,1.5181652307510376
1790267373265566200,6.704566162109375,-9.041364669799805,-3.5106663703918457,1.4489103555679321
1790267373275566300,6.71456640625,-9.108440399169922,-3.36575984954834,1.3705332279205322
1790267373285566200,6.724566162109375,-9.173554420471191,-3.219839334487915,1.2841054201126099
1790267373295566300,6.73456640625,-9.23717212677002,-3.0694994926452637,1.1929858922958374
1790267373305566200,6.744566162109375,-9.299088478088379,-2.913712978363037,1.0989148616790771
1790267373315566300,6.75456640625,-9.357102394104004,-2.758578300476074,1.002636432647705
1790267373325566200,6.764566162109375,-9.410908699035645,-2.6049630641937256,0.9051833748817444
1790267373335566300,6.77456640625,-9.46180248260498,-2.4494941234588623,0.8029145002365112
1790267373345566200,6.784566162109375,-9.510130882263184,-2.2897756099700928,0.6962228417396545
1790267373355566300,6.79456640625,-9.554993629455566,-2.126439332962036,0.5922266840934753
1790267373365566200,6.804566162109375,-9.595256805419922,-1.9632524251937866,0.4970722794532776
1790267373375566300,6.81456640625,-9.630695343017578,-1.8027583360671997,0.41250404715538025
1790267373385566200,6.824566162109375,-9.661541938781738,-1.6469084024429321,0.3357086181640625
1790267373395566300,6.83456640625,-9.688281059265137,-1.4954074621200562,0.2671057879924774
1790267373405566200,6.844566162109375,-9.71152400970459,-1.346705436706543,0.2075221985578537
1790267373415566300,6.85456640625,-9.731552124023438,-1.1997359991073608,0.16710487008094788
1790267373425566200,6.864566162109375,-9.748080253601074,-1.0587912797927856,0.15580646693706512
1790267373435566300,6.87456640625,-9.760873794555664,-0.9322906136512756,0.16299092769622803
1790267373445566200,6.884566162109375,-9.770326614379883,-0.8245424628257751,0.17669568955898285
1790267373455566300,6.89456640625,-9.77700424194336,-0.736269474029541,0.19615529477596283
1790267373465566200,6.904566162109375,-9.781435012817383,-0.6648391485214233,0.2278377115726471
1790267373475566300,6.91456640625,-9.783799171447754,-0.6092631220817566,0.2765376567840576
1790267373485566200,6.924566162109375,-9.784070014953613,-0.573178231716156,0.3373919725418091
1790267373495566300,6.93456640625,-9.782394409179688,-0.5610013604164124,0.40052470564842224
1790267373505566200,6.944566162109375,-9.779349327087402,-0.5702670812606812,0.4577178359031677
1790267373515566300,6.95456640625,-9.775200843811035,-0.5945254564285278,0.512218713760376
1790267373525566200,6.964566162109375,-9.770061492919922,-0.6307150721549988,0.5643379092216492
1790267373535566300,6.97456640625,-9.76427173614502,-0.6759144067764282,0.6103506684303284
1790267373545566200,6.984566162109375,-9.758156776428223,-0.7263432741165161,0.6489912867546082
1790267373555566300,6.99456640625,-9.751615524291992,-0.7817644476890564,0.6820701360702515
1790267373565566200,7.004566162109375,-9.74445915222168,-0.8481510877609253,0.7046621441841125
1790267373575566300,7.01456640625,-9.736956596374512,-0.9255864024162292,0.7108787894248962
1790267373585566200,7.024566162109375,-9.728680610656738,-1.007085919380188,0.7133958339691162
1790267373595566300,7.03456640625,-9.718605995178223,-1.0919902324676514,0.7257047891616821
1790267373605566200,7.044566162109375,-9.706584930419922,-1.186519742012024,0.7380868792533875
1790267373615566300,7.05456640625,-9.692837715148926,-1.2927815914154053,0.7402641773223877
1790267373625566200,7.064566162109375,-9.677176475524902,-1.4053786993026733,0.7399722933769226
1790267373635566300,7.07456640625,-9.659126281738281,-1.5190763473510742,0.7510475516319275
1790267373645566200,7.084566162109375,-9.637853622436523,-1.6324822902679443,0.7855890989303589
1790267373655566300,7.09456640625,-9.613330841064453,-1.7453783750534058,0.8413636684417725
1790267373665566200,7.104566162109375,-9.584488868713379,-1.8626855611801147,0.9156220555305481
1790267373675566300,7.11456640625,-9.550209999084473,-1.9869568347930908,1.0079108476638794
1790267373685566200,7.124566162109375,-9.51009464263916,-2.118703603744507,1.1133675575256348
1790267373695566300,7.13456640625,-9.46371078491211,-2.259716510772705,1.2256611585617065
1790267373705566200,7.144566162109375,-9.41008472442627,-2.4126532077789307,1.3415635824203491
1790267373715566300,7.15456640625,-9.349261283874512,-2.577631711959839,1.4551680088043213
1790267373725566200,7.164566162109375,-9.282648086547852,-2.7484664916992188,1.5648536682128906
1790267373735566300,7.17456640625,-9.21120834350586,-2.9159533977508545,1.67965829372406
1790267373745566200,7.184566162109375,-9.132301330566406,-3.08044695854187,1.8117163181304932
1790267373755566300,7.19456640625,-9.042105674743652,-3.2501704692840576,1.9614067077636719
1790267373765566200,7.204566162109375,-8.940226554870605,-3.4272167682647705,2.120593547821045
1790267373775566300,7.21456640625,-8.828858375549316,-3.6082582473754883,2.280818462371826
1790267373785566200,7.224566162109375,-8.709603309631348,-3.791921615600586,2.436086893081665
1790267373795566300,7.23456640625,-8.584406852722168,-3.9757561683654785,2.582965135574341
1790267373805566200,7.244566162109375,-8.454195022583008,-4.155848503112793,2.7250516414642334
1790267373815566300,7.25456640625,-8.316685676574707,-4.334108829498291,2.8668160438537598
1790267373825566200,7.264566162109375,-8.171162605285645,-4.514003276824951,3.0043764114379883
1790267373835566300,7.27456640625,-8.020450592041016,-4.696103572845459,3.1287972927093506
1790267373845566200,7.284566162109375,-7.868924617767334,-4.87842321395874,3.2328622341156006
1790267373855566300,7.29456640625,-7.723871231079102,-5.05584716796875,3.309170961380005
1790267373865566200,7.304566162109375,-7.587541580200195,-5.226741790771484,3.358687400817871
1790267373875566300,7.31456640625,-7.455758571624756,-5.390556812286377,3.394693613052368
1790267373885566200,7.324566162109375,-7.321316242218018,-5.548459529876709,3.4326822757720947
1790267373895566300,7.33456640625,-7.179962158203125,-5.702124118804932,3.4791243076324463
1790267373905566200,7.344566162109375,-7.033110618591309,-5.852437496185303,3.5291247367858887
1790267373915566300,7.35456640625,-6.886469841003418,-5.998002052307129,3.5736382007598877
1790267373925566200,7.364566162109375,-6.743836879730225,-6.138457775115967,3.6069905757904053
1790267373935566300,7.37456640625,-6.603764057159424,-6.276139259338379,3.6291542053222656
1790267373945566200,7.384566162109375,-6.4651923179626465,-6.4119720458984375,3.641193389892578
1790267373955566300,7.39456640625,-6.328657627105713,-6.54505729675293,3.644270181655884
1790267373965566200,7.404566162109375,-6.197641849517822,-6.673460483551025,3.63655686378479
1790267373975566300,7.41456640625,-6.074422359466553,-6.79727840423584,3.6150758266448975
1790267373985566200,7.424566162109375,-5.958180904388428,-6.916879653930664,3.581514835357666
1790267373995566300,7.43456640625,-5.84420108795166,-7.032671928405762,3.5436153411865234
1790267374005566200,7.444566162109375,-5.730157375335693,-7.1425395011901855,3.509958267211914
1790267374015566300,7.45456640625,-5.61305570602417,-7.245952129364014,3.487143039703369
1790267374025566200,7.464566162109375,-5.4902873039245605,-7.344309329986572,3.476816177368164
1790267374035566300,7.47456640625,-5.362157821655273,-7.440262317657471,3.4727728366851807
1790267374045566200,7.484566162109375,-5.232650279998779,-7.535186290740967,3.4656498432159424
1790267374055566300,7.49456640625,-5.107812404632568,-7.628278732299805,3.4481892585754395
1790267374065566200,7.504566162109375,-4.996586799621582,-7.7174153327941895,3.412626028060913
1790267374075566300,7.51456640625,-4.896152496337891,-7.805066108703613,3.358424663543701
1790267374085566200,7.524566162109375,-4.804734706878662,-7.891824722290039,3.286945343017578
1790267374095566300,7.53456640625,-4.7257890701293945,-7.974684238433838,3.200268268585205
1790267374105566200,7.544566162109375,-4.658957004547119,-8.05077838897705,3.106360673904419
1790267374115566300,7.55456640625,-4.60202169418335,-8.118731498718262,3.012970209121704
1790267374125566200,7.564566162109375,-4.5524001121521,-8.178634643554688,2.925060749053955
1790267374135566300,7.57456640625,-4.509703636169434,-8.230232238769531,2.8453891277313232
1790267374145566200,7.584566162109375,-4.473626613616943,-8.273284912109375,2.776655673980713
1790267374155566300,7.59456640625,-4.441514492034912,-8.3074312210083,2.72578763961792
1790267374165566200,7.604566162109375,-4.4127678871154785,-8.33174991607666,2.6981136798858643
1790267374175566300,7.61456640625,-4.385691165924072,-8.348379135131836,2.690850019454956
1790267374185566200,7.624566162109375,-4.35867166519165,-8.361505508422852,2.693990707397461
1790267374195566300,7.63456640625,-4.336970806121826,-8.371271133422852,2.698683738708496
1790267374205566200,7.644566162109375,-4.326648712158203,-8.375214576721191,2.703014373779297
1790267374215566300,7.65456640625,-4.329273223876953,-8.370915412902832,2.712114095687866
1790267374225566200,7.664566162109375,-4.346153736114502,-8.357322692871094,2.726994276046753
1790267374235566300,7.67456640625,-4.377657890319824,-8.334858894348145,2.7452921867370605
1790267374245566200,7.684566162109375,-4.420388221740723,-8.306449890136719,2.7628684043884277
1790267374255566300,7.69456640625,-4.469302654266357,-8.275318145751953,2.7775585651397705
1790267374265566200,7.704566162109375,-4.521618843078613,-8.243163108825684,2.788478136062622
1790267374275566300,7.71456640625,-4.577250957489014,-8.210675239562988,2.7935585975646973
1790267374285566200,7.724566162109375,-4.636082649230957,-8.177961349487305,2.7925033569335938
1790267374295566300,7.73456640625,-4.695382595062256,-8.14621639251709,2.7861998081207275
1790267374305566200,7.744566162109375,-4.752915382385254,-8.116368293762207,2.775743246078491
1790267374315566300,7.75456640625,-4.809798717498779,-8.087173461914062,2.762944221496582
1790267374325566200,7.764566162109375,-4.867693901062012,-8.056608200073242,2.7508182525634766
1790267374335566300,7.77456640625,-4.925531387329102,-8.023162841796875,2.745609760284424
1790267374345566200,7.784566162109375,-4.983656406402588,-7.98457670211792,2.7531967163085938
1790267374355566300,7.79456640625,-5.041311740875244,-7.940157890319824,2.776592254638672
1790267374365566200,7.804566162109375,-5.094872951507568,-7.893033504486084,2.8129470348358154
1790267374375566300,7.81456640625,-5.145132541656494,-7.845911502838135,2.8530097007751465
1790267374385566200,7.824566162109375,-5.1973490715026855,-7.797633647918701,2.8904788494110107
1790267374395566300,7.83456640625,-5.257017135620117,-7.74516487121582,2.9234538078308105
1790267374405566200,7.844566162109375,-5.328760623931885,-7.6847825050354,2.9527640342712402
1790267374415566300,7.85456640625,-5.413730144500732,-7.614474296569824,2.9802162647247314
1790267374425566200,7.864566162109375,-5.509223937988281,-7.534714221954346,3.0078094005584717
1790267374435566300,7.87456640625,-5.611920356750488,-7.447713375091553,3.034520149230957
1790267374445566200,7.884566162109375,-5.719173431396484,-7.3573126792907715,3.0547327995300293
1790267374455566300,7.89456640625,-5.828812122344971,-7.267117023468018,3.0633885860443115
1790267374465566200,7.904566162109375,-5.93729829788208,-7.1797990798950195,3.0609395503997803
1790267374475566300,7.91456640625,-6.0414323806762695,-7.095929145812988,3.0527474880218506
1790267374485566200,7.924566162109375,-6.140457630157471,-7.014455318450928,3.0434491634368896
1790267374495566300,7.93456640625,-6.235525608062744,-6.934036731719971,3.0344250202178955
1790267374505566200,7.944566162109375,-6.324868202209473,-6.856597423553467,3.0254766941070557
1790267374515566300,7.95456640625,-6.405991077423096,-6.785630226135254,3.014779567718506
1790267374525566200,7.964566162109375,-6.479428291320801,-6.721167087554932,3.002218008041382
1790267374535566300,7.97456640625,-6.551496982574463,-6.65753698348999,2.987555980682373
1790267374545566200,7.984566162109375,-6.629617691040039,-6.587814807891846,2.9697258472442627
1790267374555566300,7.99456640625,-6.719942092895508,-6.5060200691223145,2.9469425678253174
1790267374565566200,8.004566162109375,-6.826444149017334,-6.407748222351074,2.9173271656036377
1790267374575566300,8.01456640625,-6.9444804191589355,-6.295286178588867,2.8833913803100586
1790267374585566200,8.024566162109375,-7.063506603240967,-6.177336692810059,2.8491692543029785
1790267374595566300,8.03456640625,-7.172891139984131,-6.064078330993652,2.8190362453460693
1790267374605566200,8.044566162109374,-7.2688069343566895,-5.960771083831787,2.793569564819336
1790267374615566300,8.05456640625,-7.352200984954834,-5.869772434234619,2.767906665802002
1790267374625566200,8.064566162109376,-7.4273858070373535,-5.789128303527832,2.7368454933166504
1790267374635566300,8.07456640625,-7.499910354614258,-5.712825298309326,2.6991403102874756
1790267374645566200,8.084566162109375,-7.5735063552856445,-5.636183738708496,2.6543970108032227
1790267374655566300,8.09456640625,-7.650148391723633,-5.555589199066162,2.6040432453155518
1790267374665566200,8.104566162109375,-7.7292561531066895,-5.471189498901367,2.5485455989837646
1790267374675566300,8.11456640625,-7.8099589347839355,-5.384642124176025,2.4860732555389404
1790267374685566200,8.124566162109375,-7.8930840492248535,-5.295077800750732,2.414902687072754
1790267374695566300,8.13456640625,-7.980025768280029,-5.199965953826904,2.3345096111297607
1790267374705566200,8.144566162109374,-8.071375846862793,-5.098544597625732,2.2423458099365234
1790267374715566300,8.15456640625,-8.168270111083984,-4.988333702087402,2.1368820667266846
1790267374725566200,8.164566162109375,-8.272808074951172,-4.862936973571777,2.0206124782562256
1790267374735566300,8.17456640625,-8.385442733764648,-4.717441558837891,1.8974939584732056
1790267374745566200,8.184566162109375,-8.501395225524902,-4.555227756500244,1.773852825164795
1790267374755566300,8.19456640625,-8.611422538757324,-4.388355255126953,1.6601603031158447
1790267374765566200,8.204566162109375,-8.707901000976562,-4.227240562438965,1.5726685523986816
1790267374775566300,8.21456640625,-8.791202545166016,-4.074835300445557,1.5102558135986328
1790267374785566200,8.224566162109374,-8.867025375366211,-3.9313080310821533,1.4460546970367432
1790267374795566300,8.23456640625,-8.94205379486084,-3.784935235977173,1.372709035873413
1790267374805566200,8.244566162109376,-9.023429870605469,-3.6197941303253174,1.2826566696166992
1790267374815566300,8.25456640625,-9.109579086303711,-3.4327549934387207,1.1841161251068115
1790267374825566200,8.264566162109375,-9.191967010498047,-3.2363204956054688,1.097434639930725
1790267374835566300,8.27456640625,-9.265039443969727,-3.043102979660034,1.0339001417160034
1790267374845566200,8.284566162109375,-9.328536987304688,-2.8562886714935303,0.9951882362365723
1790267374855566300,8.29456640625,-9.38619613647461,-2.6712498664855957,0.9665055871009827
1790267374865566200,8.304566162109374,-9.441609382629395,-2.482722282409668,0.9287101626396179
1790267374875566300,8.31456640625,-9.494545936584473,-2.2891695499420166,0.8852643370628357
1790267374885566200,8.324566162109376,-9.541925430297852,-2.0961599349975586,0.8533220291137695
1790267374895566300,8.33456640625,-9.580950736999512,-1.9160940647125244,0.8392567038536072
1790267374905566200,8.344566162109375,-9.61270809173584,-1.7566543817520142,0.824851393699646
1790267374915566300,8.35456640625,-9.641112327575684,-1.6075446605682373,0.7969513535499573
1790267374925566200,8.364566162109375,-9.666844367980957,-1.4593353271484375,0.7699722051620483
1790267374935566300,8.37456640625,-9.688414573669434,-1.315993309020996,0.7570809125900269
1790267374945566200,8.384566162109374,-9.70570182800293,-1.1853457689285278,0.7514601945877075
1790267374955566300,8.39456640625,-9.719502449035645,-1.0664963722229004,0.7511523962020874
1790267374965566200,8.404566162109376,-9.730731010437012,-0.956563413143158,0.7538205981254578
1790267374975566300,8.41456640625,-9.739909172058105,-0.8562811613082886,0.7558639049530029
1790267374985566200,8.424566162109375,-9.746546745300293,-0.7673681974411011,0.765752375125885
1790267374995566300,8.43456640625,-9.749984741210938,-0.6934884786605835,0.7920025587081909
1790267375005566200,8.444566162109375,-9.7510404586792,-0.6412076950073242,0.8224607110023499
1790267375015566300,8.45456640625,-9.751129150390625,-0.6089408993721008,0.8456079959869385
1790267375025566200,8.464566162109374,-9.750468254089355,-0.589527428150177,0.8667248487472534
1790267375035566300,8.47456640625,-9.749073028564453,-0.5810436010360718,0.8878887891769409
1790267375045566200,8.484566162109376,-9.747276306152344,-0.5855705738067627,0.9044825434684753
1790267375055566300,8.49456640625,-9.745155334472656,-0.6042481660842896,0.9149907231330872
1790267375065566200,8.504566162109375,-9.7420015335083,-0.6361178755760193,0.9269070625305176
1790267375075566300,8.51456640625,-9.737581253051758,-0.6784163117408752,0.9432195425033569
1790267375085566200,8.524566162109375,-9.73261833190918,-0.728715181350708,0.9568182826042175
1790267375095566300,8.53456640625,-9.727142333984375,-0.7821817398071289,0.9701985716819763
1790267375105566200,8.544566162109374,-9.720179557800293,-0.8387860655784607,0.9924414157867432
1790267375115566300,8.55456640625,-9.711250305175781,-0.9044021964073181,1.0217896699905396
1790267375125566200,8.564566162109376,-9.70055103302002,-0.9798456430435181,1.0533688068389893
1790267375135566300,8.57456640625,-9.687153816223145,-1.065972089767456,1.0923066139221191
1790267375145566200,8.584566162109375,-9.67005443572998,-1.1619832515716553,1.144649624824524
1790267375155566300,8.59456640625,-9.649164199829102,-1.267189383506775,1.2075812816619873
1790267375165566200,8.604566162109375,-9.623822212219238,-1.381489634513855,1.2821550369262695
1790267375175566300,8.61456640625,-9.593515396118164,-1.5041720867156982,1.3683220148086548
1790267375185566200,8.624566162109375,-9.55858039855957,-1.6359281539916992,1.4586483240127563
1790267375195566300,8.63456640625,-9.51935863494873,-1.7789777517318726,1.5451273918151855
1790267375205566200,8.644566162109374,-9.477059364318848,-1.9293897151947021,1.6227092742919922
1790267375215566300,8.65456640625,-9.432437896728516,-2.0806233882904053,1.694260597229004
1790267375225566200,8.664566162109375,-9.38476848602295,-2.230821132659912,1.766335129737854
1790267375235566300,8.67456640625,-9.333061218261719,-2.381230354309082,1.8423056602478027
1790267375245566200,8.684566162109375,-9.275973320007324,-2.533085346221924,1.9261853694915771
1790267375255566300,8.69456640625,-9.211973190307617,-2.686965227127075,2.0224130153656006
1790267375265566200,8.704566162109375,-9.1399507522583,-2.845698356628418,2.1292436122894287
1790267375275566300,8.71456640625,-9.059093475341797,-3.0160348415374756,2.237575054168701
1790267375285566200,8.724566162109374,-8.972308158874512,-3.1949636936187744,2.3367257118225098
1790267375295566300,8.73456640625,-8.882094383239746,-3.374507188796997,2.4272384643554688
1790267375305566200,8.744566162109376,-8.788375854492188,-3.5521395206451416,2.513392210006714
1790267375315566300,8.75456640625,-8.689713478088379,-3.7280163764953613,2.600226402282715
1790267375325566200,8.764566162109375,-8.585488319396973,-3.901589870452881,2.6902382373809814
1790267375335566300,8.77456640625,-8.476876258850098,-4.07068395614624,2.78253173828125
1790267375345566200,8.784566162109375,-8.364065170288086,-4.236132621765137,2.8754115104675293
1790267375355566300,8.79456640625,-8.247906684875488,-4.399946689605713,2.9635937213897705
1790267375365566200,8.804566162109374,-8.131044387817383,-4.560744285583496,3.0423848628997803
1790267375375566300,8.81456640625,-8.013794898986816,-4.718051910400391,3.112792491912842
1790267375385566200,8.824566162109376,-7.894742965698242,-4.873552322387695,3.1767776012420654
1790267375395566300,8.83456640625,-7.772089958190918,-5.029635429382324,3.2353928089141846
1790267375405566200,8.844566162109375,-7.648491859436035,-5.183367729187012,3.2868900299072266
1790267375415566300,8.85456640625,-7.527393817901611,-5.330124855041504,3.33143949508667
1790267375425566200,8.864566162109375,-7.407275676727295,-5.470579147338867,3.3727471828460693
1790267375435566300,8.87456640625,-7.282342433929443,-5.6111650466918945,3.413605213165283
1790267375445566200,8.884566162109374,-7.153754234313965,-5.7534284591674805,3.4485113620758057
1790267375455566300,8.89456640625,-7.028469085693359,-5.893466472625732,3.4695916175842285
1790267375465566200,8.904566162109376,-6.909357070922852,-6.028546333312988,3.4767532348632812
1790267375475566300,8.91456640625,-6.791719913482666,-6.161266803741455,3.4758758544921875
1790267375485566200,8.924566162109375,-6.6739397048950195,-6.291908264160156,3.4699866771698
1790267375495566300,8.93456640625,-6.557085990905762,-6.417258262634277,3.4632067680358887
1790267375505566200,8.944566162109375,-6.439222812652588,-6.536684513092041,3.461003065109253
1790267375515566300,8.95456640625,-6.316986560821533,-6.654592514038086,3.46156907081604
1790267375525566200,8.964566162109374,-6.191872596740723,-6.773958683013916,3.4560940265655518
1790267375535566300,8.97456640625,-6.070988655090332,-6.891804218292236,3.4375178813934326
1790267375545566200,8.984566162109376,-5.9588727951049805,-7.003843784332275,3.407108783721924
1790267375555566300,8.99456640625,-5.850895881652832,-7.111288547515869,3.371495246887207
1790267375565566200,9.004566162109375,-5.745572090148926,-7.2146806716918945,3.332742214202881
1790267375575566300,9.01456640625,-5.645602703094482,-7.312243938446045,3.2906908988952637
1790267375585566200,9.024566162109375,-5.551080226898193,-7.403292179107666,3.247640371322632
1790267375595566300,9.03456640625,-5.461094856262207,-7.487978458404541,3.205779552459717
1790267375605566200,9.044566162109374,-5.372958183288574,-7.567849159240723,3.1669178009033203
1790267375615566300,9.05456640625,-5.285019874572754,-7.6432976722717285,3.1335225105285645
1790267375625566200,9.064566162109376,-5.201758861541748,-7.7128376960754395,3.102295160293579
1790267375635566300,9.07456640625,-5.124979019165039,-7.7760090827941895,3.0722382068634033
1790267375645566200,9.084566162109375,-5.056360721588135,-7.831456661224365,3.0449774265289307
1790267375655566300,9.09456640625,-4.994787216186523,-7.879284381866455,3.023139476776123
1790267375665566200,9.104566162109375,-4.938480854034424,-7.92073917388916,3.007272243499756
1790267375675566300,9.11456640625,-4.889408588409424,-7.955957412719727,2.9944629669189453
1790267375685566200,9.124566162109375,-4.849667549133301,-7.984798431396484,2.982300281524658
1790267375695566300,9.13456640625,-4.819404602050781,-8.00717830657959,2.971332550048828
1790267375705566200,9.144566162109374,-4.798123836517334,-8.02295970916748,2.963193655014038
1790267375715566300,9.15456640625,-4.782516002655029,-8.033469200134277,2.959948778152466
1790267375725566200,9.164566162109375,-4.771335601806641,-8.039499282836914,2.9616193771362305
1790267375735566300,9.17456640625,-4.765317440032959,-8.041255950927734,2.966538190841675
1790267375745566200,9.184566162109375,-4.765063762664795,-8.039048194885254,2.9729180335998535
1790267375755566300,9.19456640625,-4.772763729095459,-8.032864570617676,2.977283477783203
1790267375765566200,9.204566162109375,-4.790348529815674,-8.022774696350098,2.976245164871216
1790267375775566300,9.21456640625,-4.81833553314209,-8.008854866027832,2.968548059463501
1790267375785566200,9.224566162109374,-4.8543877601623535,-7.991476535797119,2.9566211700439453
1790267375795566300,9.23456640625,-4.894661903381348,-7.970894813537598,2.9457602500915527
1790267375805566200,9.244566162109376,-4.93790864944458,-7.94657039642334,2.9392967224121094
1790267375815566300,9.25456640625,-4.982272624969482,-7.918620586395264,2.9398632049560547
1790267375825566200,9.264566162109375,-5.026869773864746,-7.886961936950684,2.9490318298339844
1790267375835566300,9.27456640625,-5.073606491088867,-7.850943088531494,2.9650633335113525
1790267375845566200,9.284566162109375,-5.123864650726318,-7.810850620269775,2.984461545944214
1790267375855566300,9.29456640625,-5.176168441772461,-7.7687087059021,3.0041377544403076
1790267375865566200,9.304566162109374,-5.227457523345947,-7.7272467613220215,3.022207021713257
1790267375875566300,9.31456640625,-5.272876262664795,-7.690042018890381,3.0381596088409424
1790267375885566200,9.324566162109376,-5.309736728668213,-7.659304618835449,3.05157732963562
1790267375895566300,9.33456640625,-5.3398118019104,-7.634004592895508,3.062478542327881
1790267375905566200,9.344566162109375,-5.370864391326904,-7.609619140625,3.068859577178955
1790267375915566300,9.35456640625,-5.411129951477051,-7.58065938949585,3.0697977542877197
1790267375925566200,9.364566162109375,-5.462639808654785,-7.543606281280518,3.069847583770752
1790267375935566300,9.37456640625,-5.522069931030273,-7.497798442840576,3.0757358074188232
1790267375945566200,9.384566162109374,-5.584034442901611,-7.445768356323242,3.090224266052246
1790267375955566300,9.39456640625,-5.645288467407227,-7.3910980224609375,3.110105276107788
1790267375965566200,9.404566162109376,-5.705236434936523,-7.336522102355957,3.1298739910125732
1790267375975566300,9.41456640625,-5.765503406524658,-7.282788276672363,3.144893169403076
1790267375985566200,9.424566162109375,-5.830307483673096,-7.227366924285889,3.1532628536224365
1790267375995566300,9.43456640625,-5.90236234664917,-7.167346954345703,3.156205892562866
1790267376005566200,9.444566162109375,-5.979458808898926,-7.103164196014404,3.156186819076538
1790267376015566300,9.45456640625,-6.059467792510986,-7.0363264083862305,3.153308153152466
1790267376025566200,9.464566162109374,-6.142714023590088,-6.967229843139648,3.145657777786255
1790267376035566300,9.47456640625,-6.231578350067139,-6.89430570602417,3.1315104961395264
1790267376045566200,9.484566162109376,-6.327030658721924,-6.815319538116455,3.112955093383789
1790267376055566300,9.49456640625,-6.426318645477295,-6.729676723480225,3.0958454608917236
1790267376065566200,9.504566162109375,-6.52696418762207,-6.63789701461792,3.0834124088287354
1790267376075566300,9.51456640625,-6.628654479980469,-6.54132080078125,3.072856903076172
1790267376085566200,9.524566162109375,-6.732574939727783,-6.441298484802246,3.058184862136841
1790267376095566300,9.53456640625,-6.840526103973389,-6.337757587432861,3.034867525100708
1790267376105566200,9.544566162109374,-6.952271461486816,-6.229995250701904,3.0039072036743164
1790267376115566300,9.55456640625,-7.066720962524414,-6.117283344268799,2.968280792236328
1790267376125566200,9.564566162109376,-7.182674407958984,-6.00020170211792,2.928678035736084
1790267376135566300,9.57456640625,-7.300656795501709,-5.879240989685059,2.8818957805633545
1790267376145566200,9.584566162109375,-7.421402454376221,-5.753367900848389,2.8269991874694824
1790267376155566300,9.59456640625,-7.545083045959473,-5.621954917907715,2.763282299041748
1790267376165566200,9.604566162109375,-7.669954299926758,-5.484769344329834,2.6943445205688477
1790267376175566300,9.61456640625,-7.791267395019531,-5.344655990600586,2.627012252807617
1790267376185566200,9.624566162109375,-7.907669544219971,-5.202920913696289,2.5629615783691406
1790267376195566300,9.63456640625,-8.021504402160645,-5.0586323738098145,2.497218132019043
1790267376205566200,9.644566162109374,-8.134151458740234,-4.912139892578125,2.424221992492676
1790267376215566300,9.65456640625,-8.245424270629883,-4.762771129608154,2.345076322555542
1790267376225566200,9.664566162109375,-8.35544490814209,-4.608343124389648,2.2627651691436768
1790267376235566300,9.67456640625,-8.465692520141602,-4.447824954986572,2.1723949909210205
1790267376245566200,9.684566162109375,-8.574907302856445,-4.280214786529541,2.0787296295166016
1790267376255566300,9.69456640625,-8.68250560760498,-4.104522705078125,1.9842828512191772
1790267376265566200,9.704566162109375,-8.790364265441895,-3.9155075550079346,1.889095664024353
1790267376275566300,9.71456640625,-8.897765159606934,-3.711925506591797,1.7949299812316895
1790267376285566200,9.724566162109374,-9.002614974975586,-3.499967336654663,1.6951556205749512
1790267376295566300,9.73456640625,-9.10104751586914,-3.2867088317871094,1.5933847427368164
1790267376305566200,9.744566162109376,-9.189001083374023,-3.0807077884674072,1.4972891807556152
1790267376315566300,9.75456640625,-9.266530990600586,-2.886028289794922,1.4045089483261108
1790267376325566200,9.764566162109375,-9.338120460510254,-2.6975934505462646,1.3011078834533691
1790267376335566300,9.77456640625,-9.407369613647461,-2.5016210079193115,1.1889833211898804
1790267376345566200,9.784566162109375,-9.470690727233887,-2.297161817550659,1.0951883792877197
1790267376355566300,9.79456640625,-9.522356033325195,-2.0997838973999023,1.042128562927246
1790267376365566200,9.804566162109374,-9.561877250671387,-1.922827959060669,1.0215715169906616
1790267376375566300,9.81456640625,-9.593124389648438,-1.7710639238357544,1.0028390884399414
1790267376385566200,9.824566162109376,-9.619863510131836,-1.644112467765808,0.9620365500450134
1790267376395566300,9.83456640625,-9.644020080566406,-1.5309683084487915,0.9052060842514038
1790267376405566200,9.844566162109375,-9.665249824523926,-1.4204672574996948,0.8576744198799133
1790267376415566300,9.85456640625,-9.684081077575684,-1.311452031135559,0.8179537057876587
1790267376425566200,9.864566162109375,-9.701330184936523,-1.2072956562042236,0.7726678848266602
1790267376435566300,9.87456640625,-9.716840744018555,-1.107210636138916,0.726274847984314
1790267376445566200,9.884566162109374,-9.730475425720215,-1.010033369064331,0.6841455698013306
1790267376455566300,9.89456640625,-9.742142677307129,-0.9152125120162964,0.6507123708724976
1790267376465566200,9.904566162109376,-9.751649856567383,-0.825981855392456,0.6272629499435425
1790267376475566300,9.91456640625,-9.758854866027832,-0.7438002824783325,0.6179749965667725
1790267376485566200,9.924566162109375,-9.76431941986084,-0.668638288974762,0.6175670623779297
1790267376495566300,9.93456640625,-9.768758773803711,-0.6036285758018494,0.6142942905426025
1790267376505566200,9.944566162109375,-9.77221965789795,-0.5521589517593384,0.60764479637146
1790267376515566300,9.95456640625,-9.7748441696167,-0.5172870755195618,0.5959948301315308
1790267376525566200,9.964566162109374,-9.776815414428711,-0.5010948777198792,0.5772098302841187
1790267376535566300,9.97456640625,-9.777873039245605,-0.499868780374527,0.560116171836853
1790267376545566200,9.984566162109376,-9.777694702148438,-0.5130465626716614,0.5512331128120422
1790267376555566300,9.99456640625,-9.776400566101074,-0.5365265011787415,0.5518220663070679
1790267376565566200,10.004566162109375,-9.774062156677246,-0.5626137256622314,0.5670675039291382
1790267376575566300,10.01456640625,-9.770430564880371,-0.5875769257545471,0.6031711101531982
1790267376585566200,10.024566162109375,-9.765178680419922,-0.6200042963027954,0.653651237487793
1790267376595566300,10.03456640625,-9.758371353149414,-0.6729841828346252,0.7011972069740295
1790267376605566200,10.044566162109374,-9.74960994720459,-0.7474449872970581,0.7462116479873657
1790267376615566300,10.05456640625,-9.737692832946777,-0.8378793597221375,0.8035435676574707
1790267376625566200,10.064566162109376,-9.722981452941895,-0.9358559250831604,0.8707407712936401
1790267376635566300,10.07456640625,-9.706265449523926,-1.0382412672042847,0.9385427236557007
1790267376645566200,10.084566162109375,-9.687253952026367,-1.1479511260986328,1.0048434734344482
1790267376655566300,10.09456640625,-9.665628433227539,-1.2673479318618774,1.0676333904266357
1790267376665566200,10.104566162109375,-9.641609191894531,-1.3979897499084473,1.120438814163208
1790267376675566300,10.11456640625,-9.615015029907227,-1.5389251708984375,1.1634387969970703
1790267376685566200,10.124566162109375,-9.58530330657959,-1.6853363513946533,1.2049809694290161
1790267376695566300,10.13456640625,-9.553051948547363,-1.831586241722107,1.2469450235366821
1790267376705566200,10.144566162109374,-9.519491195678711,-1.974318265914917,1.285201072692871
1790267376715566300,10.15456640625,-9.484926223754883,-2.1143600940704346,1.3175904750823975
1790267376725566200,10.164566162109375,-9.44839096069336,-2.25601863861084,1.3448764085769653
1790267376735566300,10.17456640625,-9.409350395202637,-2.4014055728912354,1.366658091545105
1790267376745566200,10.184566162109375,-9.368029594421387,-2.547421455383301,1.386021375656128
1790267376755566300,10.19456640625,-9.323628425598145,-2.6923961639404297,1.4111472368240356
1790267376765566200,10.204566162109375,-9.275293350219727,-2.8371081352233887,1.4457323551177979
1790267376775566300,10.21456640625,-9.221885681152344,-2.9833779335021973,1.492202877998352
1790267376785566200,10.224566162109374,-9.162166595458984,-3.1320972442626953,1.55404794216156
1790267376795566300,10.23456640625,-9.095418930053711,-3.2833619117736816,1.6319526433944702
1790267376805566200,10.244566162109376,-9.020101547241211,-3.441957950592041,1.7207783460617065
1790267376815566300,10.25456640625,-8.936413764953613,-3.6094789505004883,1.8117846250534058
1790267376825566200,10.264566162109375,-8.847321510314941,-3.782151699066162,1.8948943614959717
1790267376835566300,10.27456640625,-8.753901481628418,-3.9561874866485596,1.9718438386917114
1790267376845566200,10.284566162109375,-8.653345108032227,-4.129950046539307,2.057553291320801
1790267376855566300,10.29456640625,-8.541548728942871,-4.303896427154541,2.1653659343719482
1790267376865566200,10.304566162109374,-8.417016983032227,-4.478287696838379,2.295466661453247
1790267376875566300,10.31456640625,-8.278247833251953,-4.656142234802246,2.4415857791900635
1790267376885566200,10.324566162109376,-8.126848220825195,-4.837792873382568,2.5923891067504883
1790267376895566300,10.33456640625,-7.970491409301758,-5.017473220825195,2.732510566711426
1790267376905566200,10.344566162109375,-7.814519882202148,-5.193173885345459,2.852125644683838
1790267376915566300,10.35456640625,-7.662624835968018,-5.363529205322266,2.947392702102661
1790267376925566200,10.364566162109375,-7.519018173217773,-5.527034759521484,3.0144054889678955
1790267376935566300,10.37456640625,-7.385819435119629,-5.6835618019104,3.0524075031280518
1790267376945566200,10.384566162109374,-7.262937068939209,-5.830028057098389,3.0709803104400635
1790267376955566300,10.39456640625,-7.147012710571289,-5.966533660888672,3.0807578563690186
1790267376965566200,10.404566162109376,-7.034144401550293,-6.096853733062744,3.0853805541992188
1790267376975566300,10.41456640625,-6.92097806930542,-6.224907398223877,3.085606813430786
1790267376985566200,10.424566162109375,-6.805778503417969,-6.352906227111816,3.0809662342071533
1790267376995566300,10.43456640625,-6.6920599937438965,-6.478726387023926,3.0680315494537354
1790267377005566200,10.444566162109375,-6.5830817222595215,-6.599863052368164,3.045527219772339
1790267377015566300,10.45456640625,-6.475330352783203,-6.718135833740234,3.0178041458129883
1790267377025566200,10.464566162109374,-6.362569808959961,-6.837059497833252,2.99043607711792
1790267377035566300,10.47456640625,-6.2428107261657715,-6.957940578460693,2.9639110565185547
1790267377045566200,10.484566162109376,-6.121755599975586,-7.076979160308838,2.9344286918640137
1790267377055566300,10.49456640625,-6.005029201507568,-7.190701007843018,2.8989346027374268
1790267377065566200,10.504566162109375,-5.893929958343506,-7.2986273765563965,2.856924295425415
1790267377075566300,10.51456640625,-5.789818286895752,-7.399001121520996,2.8112599849700928
1790267377085566200,10.524566162109375,-5.696948051452637,-7.487264156341553,2.7669568061828613
1790267377095566300,10.53456640625,-5.617121696472168,-7.560663223266602,2.730329751968384
1790267377105566200,10.544566162109374,-5.545768737792969,-7.620805263519287,2.7089056968688965
1790267377115566300,10.55456640625,-5.479137420654297,-7.670315742492676,2.704756498336792
1790267377125566200,10.564566162109376,-5.410543441772461,-7.716034412384033,2.7127904891967773
1790267377135566300,10.57456640625,-5.333915710449219,-7.7649688720703125,2.7248857021331787
1790267377145566200,10.584566162109375,-5.252930164337158,-7.818391799926758,2.7294435501098633
1790267377155566300,10.59456640625,-5.175876617431641,-7.87373161315918,2.717543125152588
1790267377165566200,10.604566162109375,-5.110866546630859,-7.925299167633057,2.6905484199523926
1790267377175566300,10.61456640625,-5.059731483459473,-7.968982219696045,2.6579716205596924
1790267377185566200,10.624566162109375,-5.022014617919922,-8.001681327819824,2.6311285495758057
1790267377195566300,10.63456640625,-4.997612953186035,-8.022114753723145,2.6153242588043213
1790267377205566200,10.644566162109374,-4.985379219055176,-8.032423973083496,2.6070199012756348
1790267377215566300,10.65456640625,-4.985140800476074,-8.035309791564941,2.598567485809326
1790267377225566200,10.664566162109375,-4.996731281280518,-8.033056259155273,2.5832290649414062
1790267377235566300,10.67456640625,-5.016853332519531,-8.02763843536377,2.5609750747680664
1790267377245566200,10.684566162109375,-5.041143894195557,-8.020430564880371,2.535735607147217
1790267377255566300,10.69456640625,-5.066789150238037,-8.01088809967041,2.5146968364715576
1790267377265566200,10.704566162109375,-5.092238903045654,-7.9982452392578125,2.503509998321533
1790267377275566300,10.71456640625,-5.115767002105713,-7.983287811279297,2.503283739089966
1790267377285566200,10.724566162109374,-5.137839317321777,-7.965843677520752,2.513627290725708
1790267377295566300,10.73456640625,-5.162345886230469,-7.945136070251465,2.528907537460327
1790267377305566200,10.744566162109376,-5.193943977355957,-7.919990539550781,2.5430455207824707
1790267377315566300,10.75456640625,-5.233758449554443,-7.8893609046936035,2.556591272354126
1790267377325566200,10.764566162109375,-5.279319763183594,-7.852462291717529,2.576432943344116
1790267377335566300,10.77456640625,-5.323876857757568,-7.811611652374268,2.6087260246276855
1790267377345566200,10.784566162109375,-5.361162185668945,-7.771095275878906,2.6530003547668457
1790267377355566300,10.79456640625,-5.391205310821533,-7.733239650726318,2.7022759914398193
1790267377365566200,10.804566162109374,-5.418635845184326,-7.6971540451049805,2.7500176429748535
1790267377375566300,10.81456640625,-5.4510817527771,-7.658738136291504,2.7928168773651123
1790267377385566200,10.824566162109376,-5.49845552444458,-7.610274314880371,2.8321533203125
1790267377395566300,10.83456640625,-5.564869403839111,-7.546368598937988,2.8731422424316406
1790267377405566200,10.844566162109375,-5.6461405754089355,-7.467727184295654,2.919682264328003
1790267377415566300,10.85456640625,-5.732250213623047,-7.380369663238525,2.973524332046509
1790267377425566200,10.864566162109375,-5.817575454711914,-7.289957046508789,3.030302047729492
1790267377435566300,10.87456640625,-5.900045871734619,-7.201056480407715,3.0829601287841797
1790267377445566200,10.884566162109374,-5.981724739074707,-7.115495204925537,3.1239519119262695
1790267377455566300,10.89456640625,-6.069151878356934,-7.030026435852051,3.148730993270874
1790267377465566200,10.904566162109376,-6.164059162139893,-6.942116737365723,3.159393787384033
1790267377475566300,10.91456640625,-6.262225151062012,-6.853150367736816,3.160576820373535
1790267377485566200,10.924566162109375,-6.357832908630371,-6.766896724700928,3.155545711517334
1790267377495566300,10.93456640625,-6.448919773101807,-6.685494422912598,3.144198417663574
1790267377505566200,10.944566162109375,-6.537544250488281,-6.609016418457031,3.122788429260254
1790267377515566300,10.95456640625,-6.628857612609863,-6.535261631011963,3.0852842330932617
1790267377525566200,10.964566162109374,-6.726742744445801,-6.4574384689331055,3.03690767288208
1790267377535566300,10.97456640625,-6.834225654602051,-6.369934558868408,2.9812207221984863
1790267377545566200,10.984566162109376,-6.948630332946777,-6.272501468658447,2.9227821826934814
1790267377555566300,10.99456640625,-7.0613603591918945,-6.1692376136779785,2.8719494342803955
1790267377565566200,11.004566162109375,-7.166906833648682,-6.064474105834961,2.8333704471588135
1790267377575566300,11.01456640625,-7.268196105957031,-5.960100173950195,2.796590566635132
1790267377585566200,11.024566162109375,-7.371498107910156,-5.852504253387451,2.7531073093414307
1790267377595566300,11.03456640625,-7.479224681854248,-5.736362934112549,2.7066097259521484
1790267377605566200,11.044566162109374,-7.589529991149902,-5.6109089851379395,2.662165403366089
1790267377615566300,11.05456640625,-7.698813438415527,-5.4792094230651855,2.62239146232605
1790267377625566200,11.064566162109376,-7.804736614227295,-5.34595251083374,2.584040641784668
1790267377635566300,11.07456640625,-7.9068603515625,-5.214526176452637,2.541783332824707
1790267377645566200,11.084566162109375,-8.006440162658691,-5.084329605102539,2.4933688640594482
1790267377655566300,11.09456640625,-8.105764389038086,-4.953131675720215,2.4358675479888916
1790267377665566200,11.104566162109375,-8.205739974975586,-4.821529388427734,2.3641247749328613
1790267377675566300,11.11456640625,-8.30638599395752,-4.689462184906006,2.2766823768615723
1790267377685566200,11.124566162109375,-8.409178733825684,-4.551859378814697,2.176387071609497
1790267377695566300,11.13456640625,-8.514803886413574,-4.4019365310668945,2.071582794189453
1790267377705566200,11.144566162109374,-8.61933422088623,-4.239864349365234,1.9751001596450806
1790267377715566300,11.15456640625,-8.716935157775879,-4.0716938972473145,1.899141550064087
1790267377725566200,11.164566162109375,-8.80506420135498,-3.9047725200653076,1.842278003692627
1790267377735566300,11.17456640625,-8.882905006408691,-3.7486040592193604,1.7922999858856201
1790267377745566200,11.184566162109375,-8.952180862426758,-3.6071698665618896,1.737000823020935
1790267377755566300,11.19456640625,-9.017674446105957,-3.4750185012817383,1.6661927700042725
1790267377765566200,11.204566162109375,-9.083207130432129,-3.3438873291015625,1.5761133432388306
1790267377775566300,11.21456640625,-9.149589538574219,-3.207731008529663,1.4716838598251343
1790267377785566200,11.224566162109374,-9.213959693908691,-3.067673921585083,1.3648135662078857
1790267377795566300,11.23456640625,-9.273725509643555,-2.9261062145233154,1.2674064636230469
1790267377805566200,11.244566162109376,-9.330085754394531,-2.7797627449035645,1.1801691055297852
1790267377815566300,11.25456640625,-9.383851051330566,-2.629335641860962,1.0955950021743774
1790267377825566200,11.264566162109375,-9.433544158935547,-2.479933023452759,1.0141843557357788
1790267377835566300,11.27456640625,-9.478126525878906,-2.3336548805236816,0.9431625604629517
1790267377845566200,11.284566162109375,-9.517776489257812,-2.1912381649017334,0.8836268186569214
1790267377855566300,11.29456640625,-9.552760124206543,-2.053844451904297,0.8347998857498169
1790267377865566200,11.304566162109374,-9.582866668701172,-1.9249870777130127,0.7959166765213013
1790267377875566300,11.31456640625,-9.609490394592285,-1.801852822303772,0.7625061869621277
1790267377885566200,11.324566162109376,-9.632955551147461,-1.6827658414840698,0.7381378412246704
1790267377895566300,11.33456640625,-9.653182983398438,-1.5691258907318115,0.7240636348724365
1790267377905566200,11.344566162109375,-9.670689582824707,-1.4605344533920288,0.7176352739334106
1790267377915566300,11.35456640625,-9.68558120727539,-1.3563510179519653,0.7212498188018799
1790267377925566200,11.364566162109375,-9.69784927368164,-1.2588841915130615,0.7330245971679688
1790267377935566300,11.37456640625,-9.7086181640625,-1.1677803993225098,0.7412216067314148
1790267377945566200,11.384566162109374,-9.718437194824219,-1.0779675245285034,0.7485659718513489
1790267377955566300,11.39456640625,-9.726454734802246,-0.9901366233825684,0.7655652165412903
1790267377965566200,11.404566162109376,-9.732141494750977,-0.9103008508682251,0.7919281125068665
1790267377975566300,11.41456640625,-9.735709190368652,-0.8400956988334656,0.8249772787094116
1790267377985566200,11.424566162109375,-9.737507820129395,-0.7795366644859314,0.8623557686805725
1790267377995566300,11.43456640625,-9.73824405670166,-0.7330666184425354,0.8942034244537354
1790267378005566200,11.444566162109375,-9.738771438598633,-0.7025177478790283,0.9127942323684692
1790267378015566300,11.45456640625,-9.738957405090332,-0.6876384615898132,0.9220856428146362
1790267378025566200,11.464566162109374,-9.738225936889648,-0.6867326498031616,0.9304499626159668
1790267378035566300,11.47456640625,-9.736340522766113,-0.7008013129234314,0.9396457672119141
1790267378045566200,11.484566162109376,-9.733237266540527,-0.7268283367156982,0.9519422054290771
1790267378055566300,11.49456640625,-9.7288179397583,-0.7539693713188171,0.9757245182991028
1790267378065566200,11.504566162109375,-9.722284317016602,-0.7772526741027832,1.0214909315109253
1790267378075566300,11.51456640625,-9.71258544921875,-0.8017552495002747,1.0923641920089722
1790267378085566200,11.524566162109375,-9.699625015258789,-0.8434438109397888,1.1731393337249756
1790267378095566300,11.53456640625,-9.682268142700195,-0.9133571982383728,1.2608948945999146
1790267378105566200,11.544566162109374,-9.659234046936035,-1.0150398015975952,1.3562045097351074
1790267378115566300,11.55456640625,-9.631802558898926,-1.1412794589996338,1.4478453397750854
1790267378125566200,11.564566162109376,-9.60287857055664,-1.2790076732635498,1.5229052305221558
1790267378135566300,11.57456640625,-9.572159767150879,-1.4181629419326782,1.5915310382843018
1790267378145566200,11.584566162109375,-9.537389755249023,-1.558397650718689,1.6673293113708496
1790267378155566300,11.59456640625,-9.49863338470459,-1.7061402797698975,1.7422491312026978
1790267378165566200,11.604566162109375,-9.45461654663086,-1.8674448728561401,1.8147341012954712
1790267378175566300,11.61456640625,-9.40364933013916,-2.0389962196350098,1.8932151794433594
1790267378185566200,11.624566162109375,-9.345438003540039,-2.2122697830200195,1.9847006797790527
1790267378195566300,11.63456640625,-9.280266761779785,-2.383908271789551,2.0890278816223145
1790267378205566200,11.644566162109374,-9.20830249786377,-2.553882122039795,2.203460454940796
1790267378215566300,11.65456640625,-9.129233360290527,-2.7266199588775635,2.3222904205322266
1790267378225566200,11.664566162109375,-9.044278144836426,-2.906334638595581,2.4340591430664062
1790267378235566300,11.67456640625,-8.954964637756348,-3.0937228202819824,2.5313777923583984
1790267378245566200,11.684566162109375,-8.864115715026855,-3.2832906246185303,2.6111018657684326
1790267378255566300,11.69456640625,-8.773748397827148,-3.4649100303649902,2.680697202682495
1790267378265566200,11.704566162109375,-8.680617332458496,-3.6369266510009766,2.7550013065338135
1790267378275566300,11.71456640625,-8.581491470336914,-3.8039820194244385,2.8386828899383545
1790267378285566200,11.724566162109374,-8.47691535949707,-3.9688949584960938,2.925778865814209
1790267378295566300,11.73456640625,-8.370227813720703,-4.131460666656494,3.0067758560180664
1790267378305566200,11.744566162109376,-8.26364803314209,-4.292042255401611,3.0758554935455322
1790267378315566300,11.75456640625,-8.157240867614746,-4.451736927032471,3.1323835849761963
1790267378325566200,11.764566162109375,-8.051370620727539,-4.607680320739746,3.180426597595215
1790267378335566300,11.77456640625,-7.946136474609375,-4.754638195037842,3.228423595428467
1790267378345566200,11.784566162109375,-7.835244655609131,-4.895079612731934,3.28899884223938
1790267378355566300,11.79456640625,-7.711132049560547,-5.037773609161377,3.3659582138061523
1790267378365566200,11.804566162109374,-7.573529243469238,-5.187114715576172,3.4504902362823486
1790267378375566300,11.81456640625,-7.428159713745117,-5.340444087982178,3.53164005279541
1790267378385566200,11.824566162109376,-7.281458854675293,-5.4916863441467285,3.604459285736084
1790267378395566300,11.83456640625,-7.132787227630615,-5.638990879058838,3.673623561859131
1790267378405566200,11.844566162109375,-6.975339889526367,-5.786701679229736,3.74554443359375
1790267378415566300,11.85456640625,-6.8082451820373535,-5.938729286193848,3.814403772354126
1790267378425566200,11.864566162109375,-6.637824058532715,-6.094089508056641,3.8693344593048096
1790267378435566300,11.87456640625,-6.472152233123779,-6.245989799499512,3.9075887203216553
1790267378445566200,11.884566162109374,-6.314345359802246,-6.391650676727295,3.930168867111206
1790267378455566300,11.89456640625,-6.162548065185547,-6.534482002258301,3.93623423576355
1790267378465566200,11.904566162109376,-6.016264915466309,-6.6765642166137695,3.9240829944610596
1790267378475566300,11.91456640625,-5.878440856933594,-6.815465927124023,3.894064426422119
1790267378485566200,11.924566162109375,-5.747926712036133,-6.947830677032471,3.854785919189453
1790267378495566300,11.93456640625,-5.620675563812256,-7.074925899505615,3.8110134601593018
1790267378505566200,11.944566162109375,-5.496067523956299,-7.197959899902344,3.76204776763916
1790267378515566300,11.95456640625,-5.38148307800293,-7.31249475479126,3.7064054012298584
1790267378525566200,11.964566162109374,-5.279594421386719,-7.416243076324463,3.6463124752044678
1790267378535566300,11.97456640625,-5.182429313659668,-7.513218879699707,3.58669114112854
1790267378545566200,11.984566162109376,-5.082720756530762,-7.607548713684082,3.530090808868408
1790267378555566300,11.99456640625,-4.980560779571533,-7.699742794036865,3.475393772125244
1790267378565566200,12.004566162109375,-4.8777852058410645,-7.789260387420654,3.4212605953216553
1790267378575566300,12.01456640625,-4.773794651031494,-7.8759307861328125,3.369124412536621
1790267378585566200,12.024566162109375,-4.669885635375977,-7.959157943725586,3.318791151046753
1790267378595566300,12.03456640625,-4.5717878341674805,-8.036603927612305,3.26835298538208
1790267378605566200,12.044566162109374,-4.483171463012695,-8.105499267578125,3.220625877380371
1790267378615566300,12.05456640625,-4.40886116027832,-8.161796569824219,3.180786371231079
1790267378625566200,12.064566162109376,-4.354211807250977,-8.202394485473633,3.1514997482299805
1790267378635566300,12.07456640625,-4.321107387542725,-8.228289604187012,3.129481315612793
1790267378645566200,12.084566162109375,-4.308452606201172,-8.244077682495117,3.105285406112671
1790267378655566300,12.09456640625,-4.314014434814453,-8.25268268585205,3.0745584964752197
1790267378665566200,12.104566162109375,-4.336996555328369,-8.253487586975098,3.0398645401000977
1790267378675566300,12.11456640625,-4.371438980102539,-8.246638298034668,3.0089638233184814
1790267378685566200,12.124566162109375,-4.406744480133057,-8.234963417053223,2.989374876022339
1790267378695566300,12.13456640625,-4.439555644989014,-8.21986198425293,2.9823801517486572
1790267378705566200,12.144566162109374,-4.468553066253662,-8.202654838562012,2.9864487648010254
1790267378715566300,12.15456640625,-4.492239475250244,-8.184410095214844,3.0009336471557617
1790267378725566200,12.164566162109375,-4.511543273925781,-8.166462898254395,3.020801544189453
1790267378735566300,12.17456640625,-4.530160903930664,-8.150470733642578,3.0360910892486572
1790267378745566200,12.184566162109375,-4.550269603729248,-8.136810302734375,3.0426528453826904
1790267378755566300,12.19456640625,-4.572064399719238,-8.124345779418945,3.043290615081787
1790267378765566200,12.204566162109375,-4.596543312072754,-8.110782623291016,3.042593240737915
1790267378775566300,12.21456640625,-4.628448963165283,-8.092142105102539,3.0438616275787354
1790267378785566200,12.224566162109374,-4.673172950744629,-8.065086364746094,3.047330856323242
1790267378795566300,12.23456640625,-4.732193946838379,-8.029852867126465,3.0492935180664062
1790267378805566200,12.244566162109376,-4.804272651672363,-7.988797664642334,3.0444140434265137
1790267378815566300,12.25456640625,-4.888815402984619,-7.942385673522949,3.031236171722412
1790267378825566200,12.264566162109375,-4.982752323150635,-7.890650272369385,3.0133376121520996
1790267378835566300,12.27456640625,-5.080621242523193,-7.833972454071045,2.99775767326355
1790267378845566200,12.284566162109375,-5.179463863372803,-7.772183418273926,2.9894332885742188
1790267378855566300,12.29456640625,-5.278242588043213,-7.70540714263916,2.9895238876342773
1790267378865566200,12.304566162109374,-5.3760175704956055,-7.634756088256836,2.996549367904663
1790267378875566300,12.31456640625,-5.471863269805908,-7.561135768890381,3.009704351425171
1790267378885566200,12.324566162109376,-5.565810680389404,-7.484304428100586,3.0294110774993896
1790267378895566300,12.33456640625,-5.663370132446289,-7.400204658508301,3.055095672607422
1790267378905566200,12.344566162109375,-5.773053169250488,-7.302725791931152,3.084224224090576
1790267378915566300,12.35456640625,-5.899970054626465,-7.186722755432129,3.1163692474365234
1790267378925566200,12.364566162109375,-6.039153099060059,-7.053802967071533,3.153233528137207
1790267378935566300,12.37456640625,-6.17526388168335,-6.916565895080566,3.193371057510376
1790267378945566200,12.384566162109374,-6.299365997314453,-6.789863109588623,3.222752571105957
1790267378955566300,12.39456640625,-6.412539958953857,-6.679123878479004,3.230947732925415
1790267378965566200,12.404566162109376,-6.51928186416626,-6.578579902648926,3.223604679107666
1790267378975566300,12.41456640625,-6.619709491729736,-6.480990409851074,3.2166125774383545
1790267378985566200,12.424566162109375,-6.713593006134033,-6.384803295135498,3.21439528465271
1790267378995566300,12.43456640625,-6.806853294372559,-6.288622856140137,3.207858085632324
1790267379005566200,12.444566162109375,-6.910674095153809,-6.188096046447754,3.1812617778778076
1790267379015566300,12.45456640625,-7.035521030426025,-6.07494592666626,3.125199794769287
1790267379025566200,12.464566162109374,-7.185617923736572,-5.944332122802734,3.0335140228271484
1790267379035566300,12.47456640625,-7.3506903648376465,-5.797968864440918,2.919128179550171
1790267379045566200,12.484566162109376,-7.513631343841553,-5.645387172698975,2.800952434539795
1790267379055566300,12.49456640625,-7.664420127868652,-5.493326663970947,2.692657232284546
1790267379065566200,12.504566162109375,-7.802558898925781,-5.343003749847412,2.5966854095458984
1790267379075566300,12.51456640625,-7.931695461273193,-5.191453456878662,2.5114543437957764
1790267379085566200,12.524566162109375,-8.056782722473145,-5.031989574432373,2.4367427825927734
1790267379095566300,12.53456640625,-8.180912971496582,-4.859774589538574,2.371845245361328
1790267379105566200,12.544566162109374,-8.30193042755127,-4.6773810386657715,2.3174214363098145
1790267379115566300,12.55456640625,-8.414644241333008,-4.492076396942139,2.2771458625793457
1790267379125566200,12.564566162109376,-8.516500473022461,-4.308263301849365,2.253546953201294
1790267379135566300,12.57456640625,-8.609376907348633,-4.1242475509643555,2.244903802871704
1790267379145566200,12.584566162109375,-8.697297096252441,-3.936516523361206,2.243044853210449
1790267379155566300,12.59456640625,-8.78470230102539,-3.7427830696105957,2.23404598236084
1790267379165566200,12.604566162109375,-8.873786926269531,-3.542757511138916,2.2079780101776123
1790267379175566300,12.61456640625,-8.961824417114258,-3.3424229621887207,2.16432523727417
1790267379185566200,12.624566162109375,-9.044628143310547,-3.149366617202759,2.1086924076080322
1790267379195566300,12.63456640625,-9.119341850280762,-2.9662115573883057,2.051722526550293
1790267379205566200,12.644566162109374,-9.185661315917969,-2.789398431777954,2.00331449508667
1790267379215566300,12.65456640625,-9.245879173278809,-2.621241807937622,1.9527431726455688
1790267379225566200,12.664566162109375,-9.300583839416504,-2.4702208042144775,1.8887934684753418
1790267379235566300,12.67456640625,-9.351577758789062,-2.3435702323913574,1.796122431755066
1790267379245566200,12.684566162109375,-9.397416114807129,-2.2385427951812744,1.687566876411438
1790267379255566300,12.69456640625,-9.43835163116455,-2.1447014808654785,1.5773955583572388
1790267379265566200,12.704566162109375,-9.474248886108398,-2.0527405738830566,1.481635570526123
1790267379275566300,12.71456640625,-9.504741668701172,-1.9599922895431519,1.4102163314819336
1790267379285566200,12.724566162109374,-9.5306978225708,-1.8669371604919434,1.360419511795044
1790267379295566300,12.73456640625,-9.55409049987793,-1.7713537216186523,1.3236514329910278
1790267379305566200,12.744566162109376,-9.576959609985352,-1.6695919036865234,1.2902337312698364
1790267379315566300,12.75456640625,-9.601201057434082,-1.5592975616455078,1.2473604679107666
1790267379325566200,12.764566162109375,-9.626364707946777,-1.4381904602050781,1.1979560852050781
1790267379335566300,12.77456640625,-9.648052215576172,-1.3107353448867798,1.1693838834762573
1790267379345566200,12.784566162109375,-9.66352367401123,-1.1852675676345825,1.1755189895629883
1790267379355566300,12.79456640625,-9.675541877746582,-1.0709575414657593,1.1863044500350952
1790267379365566200,12.804566162109374,-9.687315940856934,-0.9733731746673584,1.174240231513977
1790267379375566300,12.81456640625,-9.698503494262695,-0.8897020220756531,1.147980809211731
1790267379385566200,12.824566162109376,-9.707322120666504,-0.8146799206733704,1.1289753913879395
1790267379395566300,12.83456640625,-9.712457656860352,-0.7455490827560425,1.132563829421997
1790267379405566200,12.844566162109375,-9.713698387145996,-0.6834636926651001,1.1607459783554077
1790267379415566300,12.85456640625,-9.712113380432129,-0.6316272020339966,1.2026206254959106
1790267379425566200,12.864566162109375,-9.708525657653809,-0.5948618054389954,1.2494186162948608
