time,seconds_elapsed,z,y,x
1789039827699538000,0.053537841796875,-0.8759613037109375,-0.3742218017578125,-0.0230865478515625
1789039827709482000,0.06348193359375,-0.87060546875,-0.3631591796875,-0.01611328125
1789039827719425800,0.07342578125,-0.855010986328125,-0.3603668212890625,0.0013580322265625
1789039827729370000,0.0833701171875,-0.8383026123046875,-0.3677978515625,0.0135955810546875
1789039827739314200,0.093314208984375,-0.832916259765625,-0.379852294921875,0.0094757080078125
1789039827749258000,0.103258056640625,-0.8519287109375,-0.385223388671875,-0.0040740966796875
1789039827759202000,0.1132021484375,-0.892364501953125,-0.3880767822265625,-0.0226593017578125
1789039827769145900,0.123145751953125,-0.9435272216796875,-0.3871002197265625,-0.0303802490234375
1789039827779090000,0.13308984375,-0.987213134765625,-0.3804473876953125,-0.024566650390625
1789039827789034200,0.1430341796875,-1.0045166015625,-0.3725738525390625,-0.019012451171875
1789039827798978000,0.15297802734375,-1.00714111328125,-0.370452880859375,-0.019256591796875
1789039827808922000,0.162922119140625,-1.0088348388671875,-0.377838134765625,-0.026031494140625
1789039827818866000,0.172865966796875,-1.0006103515625,-0.3834991455078125,-0.033477783203125
1789039827828810000,0.18281005859375,-0.9763031005859375,-0.3885498046875,-0.036468505859375
1789039827838754800,0.1927548828125,-0.942138671875,-0.3964385986328125,-0.04296875
1789039827848699100,0.20269921875,-0.900909423828125,-0.4061279296875,-0.0532073974609375
1789039827858643000,0.212642822265625,-0.8625640869140625,-0.4138641357421875,-0.0649871826171875
1789039827868587000,0.2225869140625,-0.85064697265625,-0.41400146484375,-0.062744140625
1789039827878531000,0.232531005859375,-0.8870697021484375,-0.394683837890625,-0.0500640869140625
1789039827888475000,0.242474853515625,-0.9388580322265625,-0.3888702392578125,-0.0470428466796875
1789039827898419000,0.2524189453125,-0.978424072265625,-0.3863677978515625,-0.0443267822265625
1789039827908363000,0.262363037109375,-1.015625,-0.3814239501953125,-0.0582427978515625
1789039827918307000,0.27230712890625,-1.027496337890625,-0.3907318115234375,-0.0820465087890625
1789039827928251100,0.282251220703125,-0.9799041748046875,-0.3993072509765625,-0.0876007080078125
1789039827938195000,0.29219482421875,-0.9051513671875,-0.42236328125,-0.08349609375
1789039827948139000,0.302138916015625,-0.8028411865234375,-0.458587646484375,-0.0826416015625
1789039827958082800,0.312082763671875,-0.70306396484375,-0.3579864501953125,-0.034881591796875
1789039827968027100,0.322027099609375,-0.63250732421875,-0.3745269775390625,-0.044158935546875
1789039827977971200,0.33197119140625,-0.6981353759765625,-0.6126708984375,-0.077545166015625
1789039827987915000,0.3419150390625,-0.802520751953125,-0.492828369140625,-0.0916900634765625
1789039827997859000,0.351859130859375,-0.8619537353515625,-0.4023895263671875,-0.1345977783203125
1789039828007803000,0.361802978515625,-0.92205810546875,-0.32073974609375,-0.20770263671875
1789039828017747000,0.371746826171875,-0.981719970703125,-0.1192779541015625,-0.4375
1789039828027691000,0.38169091796875,-0.96710205078125,-0.198760986328125,-0.162384033203125
1789039828037635000,0.391635009765625,-0.678375244140625,-0.1641998291015625,0.0166778564453125
1789039828047580000,0.401579833984375,-0.6669921875,-0.471038818359375,0.015869140625
1789039828057524000,0.41152392578125,-0.724822998046875,-0.669403076171875,0.024139404296875
1789039828067468000,0.421468017578125,-0.7122802734375,-0.6465606689453125,0.025604248046875
1789039828077411800,0.431411865234375,-0.7362518310546875,-0.5803680419921875,0.010009765625
1789039828087356200,0.441356201171875,-0.7761383056640625,-0.5501708984375,-0.0193939208984375
1789039828097300000,0.451300048828125,-0.882568359375,-0.4511566162109375,-0.07659912109375
1789039828107244000,0.461244140625,-1.1372833251953125,-0.3430938720703125,-0.078399658203125
1789039828117188000,0.47118798828125,-1.286376953125,-0.359710693359375,-0.097198486328125
1789039828127132000,0.4811318359375,-1.1576385498046875,-0.3065032958984375,-0.1591949462890625
1789039828137076000,0.491075927734375,-1.0351409912109375,-0.280975341796875,-0.2521209716796875
1789039828147020000,0.50102001953125,-0.9236907958984375,-0.304931640625,-0.339324951171875
1789039828156964000,0.510964111328125,-0.870086669921875,-0.3466033935546875,-0.37554931640625
1789039828166908000,0.520907958984375,-0.8561553955078125,-0.392791748046875,-0.3581695556640625
1789039828176852000,0.53085205078125,-0.8443450927734375,-0.4369964599609375,-0.3098907470703125
1789039828186796000,0.540796142578125,-0.893218994140625,-0.443603515625,-0.2791900634765625
1789039828196739800,0.55073974609375,-0.9146270751953125,-0.473968505859375,-0.14263916015625
1789039828206684200,0.56068408203125,-0.9339141845703125,-0.58868408203125,0.269989013671875
1789039828216628000,0.5706279296875,-0.8702392578125,-0.6087799072265625,0.6032562255859375
1789039828226572000,0.580572021484375,-0.8032379150390625,-0.368988037109375,0.423492431640625
1789039828236516900,0.590516845703125,-0.849945068359375,-0.2003936767578125,0.229034423828125
1789039828246461000,0.6004609375,-0.9529571533203125,-0.2437744140625,0.1857757568359375
1789039828256405000,0.610405029296875,-1.028350830078125,-0.31982421875,0.1597137451171875
1789039828266349000,0.62034912109375,-0.9927520751953125,-0.3403472900390625,0.112640380859375
1789039828276293000,0.630293212890625,-0.872802734375,-0.355560302734375,0.0626678466796875
1789039828286237000,0.64023681640625,-0.7736358642578125,-0.370330810546875,0.006591796875
1789039828296181000,0.650180908203125,-0.752166748046875,-0.3795928955078125,-0.0296478271484375
1789039828306124800,0.660124755859375,-0.73406982421875,-0.36126708984375,-0.02288818359375
1789039828316069000,0.670069091796875,-0.7447357177734375,-0.3225555419921875,0.03173828125
1789039828326013200,0.68001318359375,-0.8699493408203125,-0.28466796875,0.096405029296875
1789039828335957000,0.68995703125,-1.01043701171875,-0.2602081298828125,0.1401519775390625
1789039828345901000,0.699901123046875,-1.048095703125,-0.2779693603515625,0.08013916015625
1789039828355844900,0.709844970703125,-1.0693206787109375,-0.2678375244140625,-0.044464111328125
1789039828365789000,0.719788818359375,-1.0734405517578125,-0.2805023193359375,-0.1033477783203125
1789039828375733000,0.72973291015625,-0.9923858642578125,-0.34039306640625,-0.1106414794921875
1789039828385677000,0.739677001953125,-0.89190673828125,-0.3772125244140625,-0.084197998046875
1789039828395621000,0.74962109375,-0.820556640625,-0.377899169921875,-0.04107666015625
1789039828405565000,0.75956494140625,-0.8208465576171875,-0.3636016845703125,-0.00579833984375
1789039828415509000,0.769509033203125,-0.8648223876953125,-0.366119384765625,0.0434722900390625
1789039828425453800,0.779453857421875,-0.8472747802734375,-0.397918701171875,0.0939483642578125
1789039828435398100,0.789398193359375,-0.8260650634765625,-0.416290283203125,0.087310791015625
1789039828445342000,0.799342041015625,-0.830596923828125,-0.4036102294921875,0.0316925048828125
1789039828455286000,0.8092861328125,-0.8734283447265625,-0.3976287841796875,-0.0408477783203125
1789039828465230000,0.81922998046875,-0.9801177978515625,-0.38970947265625,-0.0840606689453125
1789039828475174000,0.829173828125,-1.077423095703125,-0.3884429931640625,-0.0417938232421875
1789039828485118000,0.839117919921875,-1.0608673095703125,-0.3880615234375,-0.0942840576171875
1789039828495062000,0.84906201171875,-1.00341796875,-0.3863525390625,-0.21868896484375
1789039828505006000,0.859006103515625,-0.9706268310546875,-0.4041900634765625,-0.308929443359375
1789039828514950100,0.8689501953125,-0.8867340087890625,-0.3670501708984375,-0.5633544921875
1789039828524894000,0.87889404296875,-0.8277740478515625,-0.4026336669921875,-0.6218414306640625
1789039828534838000,0.888838134765625,-0.8047637939453125,-0.542633056640625,-0.3381805419921875
1789039828544781800,0.89878173828125,-0.7764434814453125,-0.50787353515625,0.17156982421875
1789039828554726400,0.908726318359375,-0.7638702392578125,-0.5048370361328125,0.8120574951171875
1789039828564670200,0.918670166015625,-0.9142608642578125,-0.284576416015625,0.605072021484375
1789039828574614300,0.9286142578125,-0.96063232421875,-0.0731658935546875,-0.039642333984375
1789039828584558600,0.93855859375,-1.2544403076171875,-0.29522705078125,-0.22088623046875
1789039828594502400,0.94850244140625,-1.3071746826171875,-0.3908233642578125,-0.2715911865234375
1789039828604446500,0.958446533203125,-1.1485443115234375,-0.30621337890625,-0.237579345703125
1789039828614391300,0.968391357421875,-1.016204833984375,-0.296112060546875,-0.13641357421875
1789039828624335400,0.97833544921875,-0.946563720703125,-0.3071746826171875,-0.0377197265625
1789039828634279400,0.988279541015625,-0.89495849609375,-0.302215576171875,-0.046173095703125
1789039828644223500,0.998223388671875,-0.953094482421875,-0.279876708984375,-0.138336181640625
1789039828654167300,1.008167236328125,-1.07476806640625,-0.2843780517578125,-0.17083740234375
1789039828664111400,1.018111328125,-1.0656585693359375,-0.2550811767578125,-0.16192626953125
1789039828674055400,1.028055419921875,-0.983001708984375,-0.261260986328125,-0.1011199951171875
1789039828683999200,1.037999267578125,-0.910430908203125,-0.29571533203125,-0.052093505859375
1789039828693943600,1.047943603515625,-0.8584442138671875,-0.3291473388671875,-0.0852508544921875
1789039828703887400,1.057887451171875,-0.83734130859375,-0.3692474365234375,-0.1190185546875
1789039828713831400,1.06783154296875,-0.8444671630859375,-0.3746185302734375,-0.1315155029296875
1789039828723775500,1.077775390625,-0.8942413330078125,-0.312347412109375,-0.0947723388671875
1789039828733719300,1.08771923828125,-0.97344970703125,-0.25006103515625,-0.076171875
1789039828743663400,1.097663330078125,-1.0296478271484375,-0.2534942626953125,-0.097564697265625
1789039828753607200,1.107607177734375,-0.9891204833984375,-0.2889556884765625,-0.12335205078125
1789039828763551500,1.117551513671875,-0.9044036865234375,-0.3126983642578125,-0.14752197265625
1789039828773495600,1.12749560546875,-0.8741302490234375,-0.30718994140625,-0.10888671875
1789039828783440400,1.1374404296875,-0.894805908203125,-0.331207275390625,-0.10546875
1789039828793384200,1.14738427734375,-0.9191131591796875,-0.328155517578125,-0.1155853271484375
1789039828803328300,1.157328369140625,-0.968780517578125,-0.3142852783203125,-0.1383819580078125
1789039828813272600,1.1672724609375,-1.0027618408203125,-0.28424072265625,-0.1054229736328125
1789039828823216400,1.17721630859375,-0.987701416015625,-0.2795867919921875,-0.020721435546875
1789039828833160400,1.187160400390625,-1.023223876953125,-0.297943115234375,-0.006439208984375
1789039828843104300,1.197104248046875,-1.027923583984375,-0.3211822509765625,-0.0418853759765625
1789039828853048300,1.20704833984375,-0.98699951171875,-0.340545654296875,-0.056640625
1789039828862992400,1.216992431640625,-0.94329833984375,-0.353240966796875,-0.0646209716796875
1789039828872936400,1.2269365234375,-0.9062042236328125,-0.3633575439453125,-0.080047607421875
1789039828882880500,1.236880615234375,-0.8839263916015625,-0.3725433349609375,-0.101318359375
1789039828892824300,1.24682421875,-0.8724517822265625,-0.3726959228515625,-0.1159210205078125
1789039828902768400,1.256768310546875,-0.8909149169921875,-0.3459320068359375,-0.1262664794921875
1789039828912712400,1.26671240234375,-0.91363525390625,-0.3214111328125,-0.06878662109375
1789039828922656300,1.27665625,-0.9124755859375,-0.289825439453125,0.011322021484375
1789039828932600600,1.2866005859375,-0.9329833984375,-0.2681884765625,-0.000762939453125
1789039828942544400,1.29654443359375,-0.9184112548828125,-0.294525146484375,-0.0428009033203125
1789039828952489500,1.306489501953125,-0.842803955078125,-0.3232574462890625,-0.0754547119140625
1789039828962433300,1.316433349609375,-0.78387451171875,-0.3589630126953125,-0.113525390625
1789039828972377300,1.32637744140625,-0.7976226806640625,-0.395294189453125,-0.1842803955078125
1789039828982321400,1.3363212890625,-0.849334716796875,-0.3824615478515625,-0.2267913818359375
1789039828992265500,1.346265380859375,-0.878662109375,-0.3587493896484375,-0.205596923828125
1789039829002209500,1.35620947265625,-0.881866455078125,-0.349700927734375,-0.1548309326171875
1789039829012153300,1.3661533203125,-0.902008056640625,-0.3343505859375,-0.09539794921875
1789039829022097400,1.376097412109375,-0.917327880859375,-0.3060302734375,-0.0110015869140625
1789039829032041200,1.386041259765625,-0.9078826904296875,-0.2757720947265625,0.0214385986328125
1789039829041985300,1.3959853515625,-0.9480743408203125,-0.2747039794921875,0.0207977294921875
1789039829051929600,1.4059296875,-0.9964599609375,-0.2904205322265625,-0.05523681640625
1789039829061873400,1.415873291015625,-1.0224761962890625,-0.2791595458984375,-0.11968994140625
1789039829071817500,1.4258173828125,-0.99566650390625,-0.305419921875,-0.15118408203125
1789039829081761300,1.43576123046875,-0.9231719970703125,-0.3352203369140625,-0.1961669921875
1789039829091705300,1.445705322265625,-0.858795166015625,-0.3299407958984375,-0.114715576171875
1789039829101649400,1.4556494140625,-0.84771728515625,-0.2654266357421875,-0.03570556640625
1789039829111594500,1.465594482421875,-0.8396148681640625,-0.2318572998046875,-0.046234130859375
1789039829121538300,1.475538330078125,-0.836639404296875,-0.20587158203125,-0.0216064453125
1789039829131482400,1.485482421875,-0.790374755859375,-0.2000579833984375,0.0424041748046875
1789039829141426400,1.495426513671875,-0.691802978515625,-0.1551666259765625,0.078033447265625
1789039829151370200,1.505370361328125,-0.6253204345703125,-0.1183929443359375,0.138336181640625
1789039829161314600,1.515314453125,-0.5136566162109375,-0.1345977783203125,0.1891632080078125
1789039829171258400,1.52525830078125,-0.371337890625,-0.083892822265625,0.0676422119140625
1789039829181202400,1.535202392578125,-0.34600830078125,-0.2460479736328125,-0.1124114990234375
1789039829191146500,1.545146484375,-0.273834228515625,-0.3511962890625,-0.2573699951171875
1789039829201090300,1.55509033203125,-0.1791229248046875,-0.3950042724609375,-0.45257568359375
1789039829211034400,1.565034423828125,-0.129058837890625,-0.322357177734375,-0.2921295166015625
1789039829220978400,1.574978515625,-0.15087890625,-0.19256591796875,-0.0858001708984375
1789039829230922500,1.584922607421875,-0.17596435546875,-0.090850830078125,0.1576385498046875
1789039829240866300,1.5948662109375,-0.2116851806640625,0.039794921875,0.280792236328125
1789039829250810400,1.604810302734375,-0.2144775390625,0.12152099609375,0.2457427978515625
1789039829260754400,1.61475439453125,0.0011138916015625,0.0232391357421875,0.106231689453125
1789039829270699500,1.624699462890625,0.3316192626953125,-0.0735931396484375,-0.3029327392578125
1789039829280643600,1.6346435546875,0.5814056396484375,-0.151214599609375,-0.9430084228515625
1789039829290587400,1.64458740234375,0.58489990234375,-0.198028564453125,-1.0764312744140625
1789039829300531500,1.654531494140625,0.3541107177734375,-0.0215911865234375,-1.09222412109375
1789039829310475300,1.664475341796875,0.0921783447265625,0.2984161376953125,-0.9176483154296875
1789039829320419300,1.67441943359375,-0.160980224609375,0.3883514404296875,-0.807708740234375
1789039829330363400,1.68436328125,-0.377960205078125,0.4845123291015625,-0.4293212890625
1789039829340307500,1.694307373046875,-0.6394805908203125,0.833343505859375,-0.2583465576171875
1789039829350251500,1.70425146484375,-0.8855743408203125,0.799346923828125,-0.369293212890625
1789039829360195300,1.7141953125,-0.95306396484375,0.724395751953125,-0.3065185546875
1789039829370139400,1.724139404296875,-0.828643798828125,0.9084014892578125,-0.479736328125
1789039829380083200,1.734083251953125,-0.7820892333984375,1.0386199951171875,-0.818603515625
1789039829390027300,1.74402734375,-0.711273193359375,0.872802734375,-1.12530517578125
1789039829399971600,1.7539716796875,-0.501068115234375,0.74609375,-1.2815704345703125
1789039829409915400,1.763915283203125,-0.2311553955078125,0.7531890869140625,-1.3879241943359375
1789039829419859500,1.773859375,0.01287841796875,0.82879638671875,-1.4231719970703125
1789039829429804300,1.78380419921875,0.072479248046875,0.864166259765625,-1.481170654296875
1789039829439748400,1.793748291015625,-0.0320892333984375,0.806610107421875,-1.714263916015625
1789039829449692400,1.8036923828125,-0.22918701171875,0.7523651123046875,-2.0522003173828125
1789039829459636500,1.813636474609375,-0.285980224609375,0.6446533203125,-2.14892578125
1789039829469580300,1.823580322265625,-0.150177001953125,0.5871429443359375,-1.9915924072265625
1789039829479524400,1.8335244140625,0.0282440185546875,0.6052093505859375,-1.862396240234375
1789039829489468400,1.843468505859375,0.1380157470703125,0.50909423828125,-1.874114990234375
1789039829499412200,1.853412109375,0.269073486328125,0.3274688720703125,-1.9199981689453125
1789039829509356500,1.8633564453125,0.3981781005859375,0.3355712890625,-1.996978759765625
1789039829519300400,1.87330029296875,0.44720458984375,0.2788543701171875,-2.1048583984375
1789039829529244400,1.883244384765625,0.5470733642578125,0.21075439453125,-2.0479278564453125
1789039829539188500,1.8931884765625,0.383087158203125,-0.4661407470703125,-2.1381378173828125
1789039829549132300,1.90313232421875,-0.179351806640625,-1.800872802734375,-4.1503753662109375
1789039829559076600,1.91307666015625,0.4074554443359375,-2.5817413330078125,-5.703582763671875
1789039829569020400,1.9230205078125,1.463287353515625,-3.0664520263671875,-4.4317779541015625
1789039829578965800,1.9329658203125,0.9746246337890625,-0.9122161865234375,-2.7804107666015625
1789039829588909600,1.94290966796875,0.9961090087890625,1.263031005859375,-1.6497802734375
1789039829598853600,1.952853515625,1.702667236328125,1.4744720458984375,-0.4287567138671875
1789039829608797400,1.96279736328125,1.7829742431640625,1.2300567626953125,0.820831298828125
1789039829618741500,1.972741455078125,-0.0247344970703125,1.351409912109375,0.6344451904296875
1789039829628685600,1.982685546875,-0.8228912353515625,1.7903289794921875,-0.0655059814453125
1789039829638629400,1.99262939453125,-0.2064361572265625,1.5589599609375,-0.424468994140625
1789039829648573700,2.00257373046875,0.364227294921875,0.8143768310546875,-0.608612060546875
1789039829658517500,2.012517578125,0.9886016845703125,0.5902252197265625,-1.0063323974609375
1789039829668461600,2.022461669921875,0.692413330078125,0.9658050537109375,-1.1210479736328125
1789039829678405600,2.032405517578125,0.484130859375,0.790008544921875,-0.84930419921875
1789039829688349400,2.042349365234375,0.488616943359375,0.8043212890625,-0.9195098876953125
1789039829698293500,2.05229345703125,0.2198638916015625,1.0597686767578125,-1.214385986328125
1789039829708237600,2.062237548828125,-0.3356170654296875,1.06402587890625,-1.6755523681640625
1789039829718181600,2.072181640625,-0.5573272705078125,0.8374176025390625,-1.8568572998046875
1789039829728126500,2.08212646484375,-0.624755859375,0.686248779296875,-1.4256591796875
1789039829738070500,2.092070556640625,-0.84393310546875,0.6101531982421875,-1.23077392578125
1789039829748014300,2.102014404296875,-0.1795654296875,0.3368072509765625,-0.8057098388671875
1789039829757958700,2.111958740234375,0.1246795654296875,0.13946533203125,-0.938385009765625
1789039829767902700,2.12190283203125,0.0479583740234375,0.197174072265625,-1.2341156005859375
1789039829777846500,2.131846435546875,0.2171173095703125,0.470672607421875,-0.9210968017578125
1789039829787790600,2.14179052734375,0.33074951171875,0.25738525390625,-0.7689361572265625
1789039829797734400,2.151734375,0.46612548828125,-0.0859222412109375,-0.6922454833984375
1789039829807678500,2.161678466796875,0.119293212890625,-0.2110595703125,-0.37860107421875
1789039829817622800,2.171622802734375,-0.010406494140625,-0.4717559814453125,0.0205535888671875
1789039829827566600,2.181566650390625,0.2062835693359375,-0.154388427734375,0.003082275390625
1789039829837510700,2.1915107421875,0.2946014404296875,-0.1944427490234375,-0.60992431640625
1789039829847454500,2.201454345703125,-0.1531982421875,-0.010223388671875,-1.0870819091796875
1789039829857398500,2.2113984375,-0.807220458984375,-0.167816162109375,-1.18194580078125
1789039829867343600,2.221343505859375,0.454864501953125,-0.4235382080078125,-0.2303009033203125
1789039829877287700,2.23128759765625,0.8200836181640625,-0.3880767822265625,-0.164825439453125
1789039829887231500,2.2412314453125,0.286376953125,0.014923095703125,-0.5074005126953125
1789039829897175600,2.251175537109375,-0.0543975830078125,0.2999725341796875,-0.4181671142578125
1789039829907119600,2.26111962890625,-0.3520355224609375,0.263336181640625,-0.3771514892578125
1789039829917063400,2.2710634765625,-0.2704315185546875,0.3832244873046875,-0.41546630859375
1789039829927007500,2.281007568359375,-0.224090576171875,0.636077880859375,-0.2454681396484375
1789039829936951600,2.29095166015625,-0.160308837890625,0.702423095703125,-0.098724365234375
1789039829946895600,2.3008955078125,0.0588226318359375,0.6661529541015625,-0.2486724853515625
1789039829956839700,2.310839599609375,0.2545928955078125,0.5140838623046875,-0.41876220703125
1789039829966783500,2.320783447265625,0.466766357421875,0.3305511474609375,-0.4375
1789039829976727600,2.3307275390625,0.527008056640625,0.2847137451171875,-0.501983642578125
1789039829986671400,2.34067138671875,0.34234619140625,0.4132843017578125,-0.5928192138671875
1789039829996615700,2.35061572265625,0.1012115478515625,0.468719482421875,-0.779541015625
1789039830006559500,2.3605595703125,-0.1992340087890625,0.3834686279296875,-0.7476959228515625
1789039830016504600,2.370504638671875,-0.3800811767578125,0.5061798095703125,-0.7281646728515625
1789039830026448400,2.380448486328125,-0.4498748779296875,0.4503173828125,-0.9296722412109375
1789039830036392400,2.390392333984375,-0.3303070068359375,0.2691497802734375,-0.7678070068359375
1789039830046336800,2.400336669921875,-0.14276123046875,0.30023193359375,-0.3686981201171875
1789039830056280600,2.410280517578125,0.0530548095703125,0.4248809814453125,-0.60052490234375
1789039830066224600,2.420224609375,-0.1203155517578125,0.4739837646484375,-0.4228973388671875
1789039830076168400,2.43016845703125,-0.1484832763671875,0.676788330078125,-0.470123291015625
1789039830086112500,2.440112548828125,-0.257537841796875,0.744903564453125,-0.689849853515625
1789039830096056600,2.450056640625,-0.4310150146484375,0.8673248291015625,-0.9054718017578125
1789039830106000600,2.460000732421875,-0.483856201171875,1.0020904541015625,-1.244476318359375
1789039830115944700,2.46994482421875,-0.17059326171875,0.9249267578125,-1.32061767578125
1789039830125888500,2.479888427734375,0.039215087890625,0.803558349609375,-1.034454345703125
1789039830135832600,2.48983251953125,0.0598907470703125,0.8232574462890625,-0.6665802001953125
1789039830145776400,2.4997763671875,0.0145416259765625,0.85638427734375,-0.3887481689453125
1789039830155721700,2.5097216796875,-0.084808349609375,0.9301910400390625,-0.3627777099609375
1789039830165665500,2.51966552734375,-0.423248291015625,1.0870513916015625,-0.2932586669921875
1789039830175609600,2.529609619140625,-0.5502471923828125,1.1835784912109375,-0.5560455322265625
1789039830185553700,2.5395537109375,-0.22271728515625,1.0288238525390625,-1.064361572265625
1789039830195497500,2.54949755859375,0.15386962890625,0.7389068603515625,-1.18011474609375
1789039830205441500,2.559441650390625,0.40264892578125,0.6419219970703125,-0.8486785888671875
1789039830215385300,2.56938525390625,0.4154205322265625,0.6945037841796875,-0.67205810546875
1789039830225329700,2.57932958984375,0.2470703125,1.17657470703125,-0.77685546875
1789039830235273500,2.5892734375,0.1042022705078125,1.399078369140625,-1.1066131591796875
1789039830245217500,2.599217529296875,0.1960906982421875,0.851806640625,-0.8895721435546875
1789039830255161600,2.60916162109375,0.370635986328125,0.3614959716796875,-0.8322601318359375
1789039830265105400,2.61910546875,0.2049407958984375,0.2772064208984375,-0.978759765625
1789039830275049500,2.629049560546875,0.1275482177734375,0.3988494873046875,-0.8705291748046875
1789039830284993500,2.63899365234375,-0.0565338134765625,0.511383056640625,-0.95526123046875
1789039830294938600,2.648938720703125,0.1165924072265625,0.5008544921875,-0.88714599609375
1789039830304882400,2.65888232421875,0.1195068359375,0.591644287109375,-0.79779052734375
1789039830314826500,2.668826416015625,0.11053466796875,0.5419158935546875,-0.7957916259765625
1789039830324770600,2.6787705078125,0.1131744384765625,0.46868896484375,-0.6880645751953125
1789039830334714600,2.688714599609375,0.09576416015625,0.4768524169921875,-0.5689544677734375
1789039830344658700,2.69865869140625,-0.029144287109375,0.5046234130859375,-0.350555419921875
1789039830354602500,2.7086025390625,0.0276641845703125,0.4449462890625,-0.239471435546875
1789039830364546600,2.718546630859375,0.07855224609375,0.349639892578125,-0.2005767822265625
1789039830374490600,2.72849072265625,0.07550048828125,0.3965606689453125,-0.4512786865234375
1789039830384434400,2.738434326171875,0.0064544677734375,0.4022674560546875,-0.5372161865234375
1789039830394378800,2.748378662109375,0.067108154296875,0.51171875,-0.73187255859375
1789039830404322600,2.758322509765625,0.09942626953125,0.537841796875,-0.8672637939453125
1789039830414266600,2.7682666015625,0.1063232421875,0.6306915283203125,-0.820587158203125
1789039830424210400,2.77821044921875,0.0727386474609375,0.759185791015625,-0.9150390625
1789039830434154500,2.788154541015625,0.2095947265625,0.7771148681640625,-0.9578704833984375
1789039830444099600,2.798099609375,0.2352294921875,0.693328857421875,-0.8279266357421875
1789039830454043600,2.808043701171875,0.004241943359375,1.02435302734375,-0.8867340087890625
1789039830463987700,2.81798779296875,0.236053466796875,1.0235443115234375,-0.667205810546875
1789039830473931500,2.827931640625,0.18939208984375,0.9922637939453125,-0.879852294921875
1789039830483875600,2.83787548828125,0.0019683837890625,1.3109588623046875,-0.876953125
1789039830493819400,2.8478193359375,0.1315765380859375,1.4296112060546875,-0.5765380859375
1789039830503763500,2.857763427734375,0.2153778076171875,0.744476318359375,-1.02056884765625
1789039830513707500,2.86770751953125,0.1559906005859375,-0.820892333984375,-1.6641693115234375
1789039830523651600,2.877651611328125,0.12158203125,0.343963623046875,-0.8033447265625
1789039830533595600,2.887595703125,0.1911163330078125,2.8721923828125,0.5193634033203125
1789039830543539500,2.89753955078125,0.2611236572265625,3.1669769287109375,0.4997711181640625
1789039830553483500,2.9074833984375,0.137176513671875,1.1622161865234375,-0.024139404296875
1789039830563427600,2.917427490234375,0.118316650390625,-0.0256805419921875,0.3909759521484375
1789039830573372700,2.92737255859375,-0.3076629638671875,-0.2993316650390625,0.274810791015625
1789039830583316500,2.93731640625,-0.782989501953125,0.1699371337890625,0.3096771240234375
1789039830593260500,2.947260498046875,-0.1984710693359375,1.2421722412109375,1.2630462646484375
1789039830603204600,2.95720458984375,0.1141510009765625,1.9121551513671875,0.851470947265625
1789039830613148700,2.967148681640625,0.6311492919921875,1.712799072265625,-0.675506591796875
1789039830623092700,2.9770927734375,0.527130126953125,1.380828857421875,-1.261749267578125
1789039830633036500,2.98703662109375,0.091339111328125,1.468414306640625,-1.203094482421875
1789039830642980600,2.996980712890625,-0.0416412353515625,1.569427490234375,-0.904296875
1789039830652924400,3.00692431640625,-0.2446746826171875,1.840576171875,-0.7391815185546875
1789039830662868700,3.01686865234375,0.081085205078125,1.5152740478515625,-0.714019775390625
1789039830672812800,3.026812744140625,0.2813873291015625,0.9344482421875,-0.149688720703125
1789039830682756600,3.036756591796875,0.2978515625,0.6525726318359375,0.3755035400390625
1789039830692701700,3.04670166015625,0.1940765380859375,0.70611572265625,0.123443603515625
1789039830702645500,3.0566455078125,0.1196746826171875,0.8658447265625,-0.0001068115234375
1789039830712589800,3.06658984375,0.1108245849609375,0.375762939453125,-0.011871337890625
1789039830722533600,3.07653369140625,0.0630950927734375,-1.313873291015625,0.1654510498046875
1789039830732477700,3.086477783203125,-0.3987274169921875,-0.5913848876953125,0.2469024658203125
1789039830742421500,3.09642138671875,-0.08929443359375,0.0861968994140625,0.02783203125
1789039830752365600,3.106365478515625,-0.039154052734375,1.2873687744140625,-0.3797607421875
1789039830762309600,3.1163095703125,0.0577850341796875,2.4449462890625,-0.5950927734375
1789039830772253700,3.126253662109375,0.281402587890625,2.74859619140625,-1.083038330078125
1789039830782197800,3.13619775390625,0.436981201171875,1.5153656005859375,-0.9573974609375
1789039830792141600,3.1461416015625,0.1755218505859375,0.4672698974609375,-0.4610137939453125
1789039830802085600,3.156085693359375,-0.056396484375,0.3681793212890625,0.0335235595703125
1789039830812029700,3.16602978515625,-0.164703369140625,0.7980194091796875,0.0212554931640625
1789039830821974500,3.175974609375,-0.0644378662109375,0.8008575439453125,-0.1457061767578125
1789039830831918600,3.185918701171875,0.007720947265625,0.87042236328125,-0.3448028564453125
1789039830841862700,3.195862548828125,0.149658203125,0.955657958984375,-0.6336669921875
1789039830851806700,3.205806640625,0.205780029296875,0.91802978515625,-0.5774688720703125
1789039830861750500,3.21575048828125,0.2791900634765625,1.04595947265625,-0.54345703125
1789039830871694600,3.225694580078125,0.3744354248046875,1.60430908203125,-0.493133544921875
1789039830881638400,3.235638427734375,0.3947906494140625,1.885955810546875,-0.5449371337890625
1789039830891582700,3.245582763671875,0.30364990234375,1.653656005859375,-0.5139007568359375
1789039830901526800,3.25552685546875,0.2910308837890625,1.610076904296875,-0.31939697265625
1789039830911470600,3.265470703125,0.1418304443359375,1.4475250244140625,-0.0359344482421875
1789039830921414700,3.27541455078125,0.0476837158203125,1.280670166015625,-0.316558837890625
1789039830931358500,3.2853583984375,-0.1440582275390625,1.599334716796875,-0.1432647705078125
1789039830941302500,3.295302490234375,-0.1525115966796875,1.507354736328125,-0.4413604736328125
1789039830951247600,3.30524755859375,-0.09124755859375,1.6000213623046875,-0.5360260009765625
1789039830961191700,3.315191650390625,0.1793365478515625,0.95550537109375,-1.712127685546875
1789039830971135700,3.3251357421875,-0.5951995849609375,0.0225372314453125,-0.96612548828125
1789039830981079600,3.33507958984375,-0.601715087890625,0.0264892578125,-0.0183258056640625
1789039830991023600,3.345023681640625,0.2352142333984375,0.5241851806640625,1.007598876953125
1789039831000967700,3.3549677734375,0.6182861328125,0.7528228759765625,0.742401123046875
1789039831010911700,3.364911865234375,0.25689697265625,0.5049285888671875,0.5252532958984375
1789039831020855600,3.37485546875,-0.0348358154296875,0.1415863037109375,0.705963134765625
1789039831030799600,3.384799560546875,-0.231414794921875,-0.025482177734375,0.452362060546875
1789039831040743700,3.39474365234375,-0.1836700439453125,0.192413330078125,0.0611724853515625
1789039831050687500,3.4046875,0.0399627685546875,0.4161224365234375,-0.30859375
1789039831060631800,3.4146318359375,0.179443359375,1.5164947509765625,-0.6031646728515625
1789039831070575600,3.42457568359375,0.1422271728515625,2.5190887451171875,-0.991851806640625
1789039831080520700,3.434520751953125,0.1121978759765625,1.9014129638671875,-1.2379608154296875
1789039831090464500,3.444464599609375,0.226898193359375,1.44903564453125,-0.9336090087890625
1789039831100408600,3.45440869140625,0.2088623046875,1.3455963134765625,-0.627655029296875
1789039831110352600,3.4643525390625,0.0252532958984375,1.20635986328125,-0.380828857421875
1789039831120296700,3.474296630859375,-0.0707550048828125,1.19610595703125,0.16900634765625
1789039831130240800,3.48424072265625,-0.142730712890625,1.21337890625,0.345550537109375
1789039831140184600,3.4941845703125,-0.033294677734375,1.3529205322265625,0.286834716796875
1789039831150128600,3.504128662109375,0.2305755615234375,1.375701904296875,0.0046234130859375
1789039831160072400,3.514072509765625,0.3804931640625,1.2436981201171875,-0.20416259765625
1789039831170016500,3.5240166015625,0.4187774658203125,1.0216217041015625,-0.232818603515625
1789039831179960800,3.5339609375,0.3381805419921875,0.8394775390625,-0.2350006103515625
1789039831189904600,3.543904541015625,0.1707916259765625,0.704345703125,-0.15509033203125
1789039831199849700,3.553849609375,0.0641326904296875,0.299102783203125,0.1437530517578125
1789039831209793500,3.56379345703125,-0.084869384765625,0.176910400390625,0.3402099609375
1789039831219737600,3.573737548828125,-0.1241302490234375,0.669342041015625,0.030487060546875
1789039831229681700,3.583681640625,-0.21234130859375,0.6634674072265625,-0.130584716796875
1789039831239625700,3.593625732421875,-0.26385498046875,-0.0110931396484375,0.0747528076171875
1789039831249569500,3.603569580078125,-0.2242431640625,-0.12371826171875,0.250640869140625
1789039831259513600,3.613513671875,-0.081329345703125,-0.1609039306640625,0.34747314453125
1789039831269457700,3.623457763671875,0.137786865234375,-0.33795166015625,0.26580810546875
1789039831279401500,3.6334013671875,0.38043212890625,-0.2993011474609375,0.1720733642578125
1789039831289345800,3.643345703125,0.371917724609375,0.210540771484375,-0.2313995361328125
1789039831299289600,3.65328955078125,-0.0220794677734375,0.7183990478515625,-0.1128082275390625
1789039831309233700,3.663233642578125,-0.3311767578125,1.5454864501953125,-0.162200927734375
1789039831319178500,3.673178466796875,-0.1390228271484375,1.4743499755859375,-0.1804351806640625
1789039831329122600,3.68312255859375,-0.2576751708984375,0.7356109619140625,-0.069488525390625
1789039831339066600,3.693066650390625,-0.254974365234375,1.5546875,-0.13336181640625
1789039831349010700,3.7030107421875,0.1595306396484375,2.0998382568359375,-0.0844268798828125
1789039831358954800,3.712954833984375,0.1066741943359375,1.5529022216796875,0.0012359619140625
1789039831368898600,3.722898681640625,0.0950469970703125,1.8447723388671875,-0.278961181640625
1789039831378842600,3.732842529296875,0.15289306640625,1.9034881591796875,-0.346221923828125
1789039831388786400,3.742786376953125,0.0352020263671875,1.5270538330078125,-0.4896240234375
1789039831398730500,3.75273046875,-0.0394134521484375,1.2489776611328125,-0.5070953369140625
1789039831408674800,3.7626748046875,-0.1089324951171875,1.1715087890625,-0.0988311767578125
1789039831418618600,3.77261865234375,-0.1680908203125,1.209930419921875,0.0595855712890625
1789039831428562700,3.782562744140625,-0.0709381103515625,1.296875,0.1776885986328125
1789039831438507500,3.792507568359375,0.0357818603515625,1.4447479248046875,0.2472381591796875
1789039831448451600,3.80245166015625,0.129364013671875,1.562591552734375,0.2696380615234375
1789039831458395600,3.812395751953125,0.191436767578125,1.5674896240234375,0.3440399169921875
1789039831468339700,3.822339599609375,0.2134552001953125,1.362030029296875,0.1831207275390625
1789039831478283500,3.832283447265625,0.2384796142578125,1.1721954345703125,-0.11572265625
1789039831488227600,3.8422275390625,0.1347808837890625,1.1177520751953125,-0.2724456787109375
1789039831498171600,3.852171630859375,0.0258941650390625,1.20611572265625,-0.2498016357421875
1789039831508115500,3.862115478515625,-0.5422515869140625,1.1300506591796875,-0.4190826416015625
1789039831518059800,3.872059814453125,-0.29583740234375,0.9884796142578125,-0.6622772216796875
1789039831528003600,3.882003662109375,-0.1144561767578125,0.8522186279296875,-0.0477142333984375
1789039831537947600,3.89194775390625,0.0236663818359375,0.9864959716796875,0.396392822265625
1789039831547892500,3.901892578125,0.0401611328125,1.25811767578125,0.3571014404296875
1789039831557836300,3.911836181640625,0.11663818359375,1.1850128173828125,-0.0052947998046875
1789039831567780400,3.9217802734375,0.03662109375,0.997894287109375,-0.2988128662109375
1789039831577724200,3.93172412109375,0.1388092041015625,0.975738525390625,-0.7152099609375
1789039831587668200,3.941668212890625,0.456298828125,1.1012725830078125,-0.5252532958984375
1789039831597612000,3.951612060546875,0.501922607421875,1.17852783203125,-0.172637939453125
1789039831607556400,3.961556396484375,0.196319580078125,1.437957763671875,0.05328369140625
1789039831617500400,3.97150048828125,-0.05987548828125,1.5179901123046875,0.09027099609375
1789039831627444200,3.9814443359375,-0.106781005859375,1.3842315673828125,-0.0575714111328125
1789039831637388300,3.99138818359375,-0.1040191650390625,1.0006103515625,-0.2975921630859375
1789039831647332000,4.00133203125,-0.05096435546875,0.8374786376953125,-0.4047393798828125
1789039831657276200,4.011276123046875,0.16009521484375,0.689239501953125,-0.39715576171875
1789039831667221200,4.02122119140625,0.28204345703125,0.5674591064453125,-0.19732666015625
1789039831677165300,4.031165283203125,0.1123809814453125,0.5165557861328125,-0.0220489501953125
1789039831687109000,4.041109130859375,0.0095977783203125,0.522430419921875,0.1464080810546875
1789039831697053200,4.05105322265625,0.032867431640625,0.739715576171875,0.3048248291015625
1789039831706997200,4.060997314453125,0.0948333740234375,0.7749176025390625,0.379241943359375
1789039831716941300,4.07094140625,0.030303955078125,0.637969970703125,0.3747711181640625
1789039831726885400,4.080885498046875,0.045989990234375,0.6077880859375,0.3677215576171875
1789039831736829200,4.0908291015625,0.0803070068359375,0.400054931640625,0.4389801025390625
1789039831746773200,4.100773193359375,0.0356292724609375,0.1520538330078125,0.5200653076171875
1789039831756717300,4.11071728515625,-0.052337646484375,0.026336669921875,0.5805816650390625
1789039831766661000,4.1206611328125,0.057098388671875,-0.18939208984375,0.574981689453125
1789039831776605400,4.13060546875,0.102203369140625,-0.1815185546875,0.72991943359375
1789039831786550300,4.14055029296875,0.22259521484375,0.8225860595703125,1.0191802978515625
1789039831796494300,4.150494384765625,0.20867919921875,1.1378936767578125,0.81488037109375
1789039831806438100,4.160438232421875,0.1053314208984375,0.4829254150390625,0.306121826171875
1789039831816382200,4.17038232421875,0.1313018798828125,0.3549652099609375,-0.206573486328125
1789039831826326300,4.180326171875,0.0489959716796875,-0.1566009521484375,-0.4506683349609375
1789039831836270300,4.190270263671875,0.054901123046875,-0.5321807861328125,-0.4562225341796875
1789039831846214400,4.20021435546875,0.1034393310546875,-0.451385498046875,-0.331298828125
1789039831856158200,4.210158203125,-0.195404052734375,-1.012725830078125,-0.476898193359375
1789039831866102300,4.220102294921875,-0.3643951416015625,-1.275390625,-0.7645263671875
1789039831876046000,4.230046142578125,-0.727020263671875,0.553314208984375,-0.39923095703125
1789039831885990100,4.239990234375,-1.223907470703125,2.9795989990234375,0.1028289794921875
1789039831895935200,4.249935302734375,-1.4835357666015625,3.5070343017578125,1.21234130859375
1789039831905879300,4.25987939453125,-0.933502197265625,3.2217254638671875,1.3553314208984375
1789039831915823000,4.269822998046875,-0.226287841796875,2.4900970458984375,0.86083984375
1789039831925767200,4.27976708984375,0.681396484375,0.3968048095703125,0.2010345458984375
1789039831935711200,4.289711181640625,1.981964111328125,0.964935302734375,-0.1561737060546875
1789039831945655300,4.2996552734375,1.08197021484375,2.6321563720703125,0.555145263671875
1789039831955599400,4.309599365234375,0.4455718994140625,3.4024200439453125,1.1879730224609375
1789039831965543200,4.319543212890625,0.2786865234375,3.3329010009765625,0.920013427734375
1789039831975487200,4.3294873046875,0.24395751953125,2.031890869140625,-0.1585693359375
1789039831985431300,4.339431396484375,0.137847900390625,1.453369140625,-0.5879669189453125
1789039831995375000,4.349375,-0.0330047607421875,1.6296234130859375,-0.523406982421875
1789039832005320200,4.3593203125,-0.06573486328125,1.71075439453125,-0.2481842041015625
1789039832015264300,4.36926416015625,-0.0283355712890625,1.4430389404296875,-0.0186614990234375
1789039832025208300,4.379208251953125,-0.0506744384765625,1.30322265625,0.052764892578125
1789039832035152100,4.389152099609375,-0.021240234375,1.222503662109375,0.0864105224609375
1789039832045096200,4.39909619140625,0.00518798828125,1.18975830078125,0.1490020751953125
1789039832055040300,4.409040283203125,0.080810546875,1.094482421875,0.17559814453125
1789039832064984300,4.418984375,0.12713623046875,0.919158935546875,0.1857452392578125
1789039832074928400,4.428928466796875,0.103515625,0.73358154296875,0.170501708984375
1789039832084872200,4.4388720703125,0.05230712890625,0.666351318359375,0.1886138916015625
1789039832094816300,4.448816162109375,0.0308685302734375,0.5538330078125,0.1885223388671875
1789039832104760000,4.458760009765625,-0.024169921875,0.33203125,0.1343994140625
1789039832114705400,4.468705322265625,-0.144317626953125,0.1574859619140625,0.102294921875
1789039832124649200,4.478649169921875,-0.2554931640625,0.340301513671875,0.21014404296875
1789039832134593300,4.48859326171875,-0.3006744384765625,0.45068359375,0.27203369140625
1789039832144537000,4.498537109375,-0.2513580322265625,0.6569061279296875,0.344085693359375
1789039832154481200,4.508481201171875,-0.26318359375,0.839141845703125,0.446929931640625
1789039832164425500,4.518425537109375,-0.2889251708984375,0.9171600341796875,0.474456787109375
1789039832174369300,4.528369384765625,-0.2666168212890625,1.0283660888671875,0.430145263671875
1789039832184313300,4.538313232421875,-0.0989837646484375,1.1660003662109375,0.4149932861328125
1789039832194257200,4.548257080078125,0.0829010009765625,1.24493408203125,0.424560546875
1789039832204201200,4.558201171875,0.0528411865234375,1.187255859375,0.4434661865234375
1789039832214145300,4.568145263671875,-0.071197509765625,1.0118408203125,0.5041961669921875
1789039832224090400,4.57809033203125,-0.044036865234375,0.9504241943359375,0.4957733154296875
1789039832234034200,4.5880341796875,0.196075439453125,1.055450439453125,0.4671478271484375
1789039832243978200,4.597978271484375,0.510833740234375,1.1915283203125,0.529876708984375
1789039832253922300,4.60792236328125,0.4291534423828125,1.1215362548828125,0.6879119873046875
1789039832263866000,4.6178662109375,0.311920166015625,0.9167022705078125,0.7845001220703125
1789039832273810200,4.62781005859375,0.2542877197265625,0.740264892578125,0.7561798095703125
1789039832283754200,4.637754150390625,0.107574462890625,0.666534423828125,0.6740570068359375
1789039832293698300,4.6476982421875,-0.001068115234375,0.6911773681640625,0.570526123046875
1789039832303642400,4.657642333984375,-0.08233642578125,0.795654296875,0.4114227294921875
1789039832313586200,4.667586181640625,-0.1645050048828125,0.922698974609375,0.2747650146484375
1789039832323531300,4.67753125,-0.155487060546875,1.056732177734375,0.1157684326171875
1789039832333475300,4.687475341796875,-0.0975799560546875,1.1729583740234375,-0.0140228271484375
1789039832343419400,4.69741943359375,-0.053131103515625,1.2184906005859375,-0.060577392578125
1789039832353363200,4.70736328125,-0.0462646484375,1.1441497802734375,0.0053253173828125
1789039832363307300,4.717307373046875,-0.10357666015625,1.03997802734375,0.174591064453125
1789039832373251000,4.7272509765625,-0.208282470703125,0.9897918701171875,0.3421478271484375
1789039832383195100,4.737195068359375,-0.2569427490234375,0.9407958984375,0.4217376708984375
1789039832393139500,4.747139404296875,-0.214996337890625,0.89276123046875,0.3784637451171875
1789039832403083300,4.757083251953125,-0.0885772705078125,0.9017791748046875,0.3519439697265625
1789039832413027300,4.76702734375,-0.0164794921875,0.9242706298828125,0.2541656494140625
1789039832422972200,4.77697216796875,-0.0386962890625,0.930755615234375,0.083770751953125
1789039832432916200,4.786916259765625,-0.13909912109375,0.9372406005859375,-0.0114898681640625
1789039832442860300,4.7968603515625,-0.183624267578125,0.970977783203125,-0.014739990234375
1789039832452804400,4.806804443359375,-0.1033477783203125,1.002471923828125,0.0499267578125
1789039832462748400,4.81674853515625,0.036895751953125,1.001708984375,0.1827239990234375
1789039832472692200,4.826692138671875,0.169189453125,0.991912841796875,0.24237060546875
1789039832482636300,4.83663623046875,0.2391204833984375,0.9661102294921875,0.2776031494140625
1789039832492580000,4.846580078125,0.2400054931640625,0.9708251953125,0.3057403564453125
1789039832502524400,4.8565244140625,0.1538238525390625,0.978363037109375,0.23638916015625
1789039832512468200,4.86646826171875,0.0018768310546875,0.95318603515625,0.1327362060546875
1789039832522412300,4.876412353515625,-0.073150634765625,0.9035491943359375,0.070281982421875
1789039832532357000,4.886357177734375,-0.0623321533203125,0.8798065185546875,0.077850341796875
1789039832542301200,4.89630126953125,-0.0388946533203125,0.8860321044921875,0.099609375
1789039832552245200,4.906245361328125,-0.0224456787109375,0.924835205078125,0.13214111328125
1789039832562189000,4.91618896484375,-0.0137939453125,0.9729156494140625,0.178802490234375
1789039832572133000,4.926133056640625,-0.02972412109375,1.0103607177734375,0.233123779296875
1789039832582077000,4.936076904296875,-0.05865478515625,1.0356292724609375,0.2978515625
1789039832592021200,4.946021240234375,-0.080780029296875,1.045654296875,0.3592529296875
1789039832601965300,4.95596533203125,-0.1089324951171875,1.0419921875,0.357208251953125
1789039832611909000,4.9659091796875,-0.165252685546875,1.0247344970703125,0.355133056640625
1789039832621854000,4.97585400390625,-0.1896820068359375,0.9945526123046875,0.3882598876953125
1789039832631798000,4.985798095703125,-0.089447021484375,0.9991455078125,0.3890228271484375
1789039832641742300,4.995742431640625,0.0313873291015625,1.0503997802734375,0.381561279296875
1789039832651686100,5.00568603515625,0.11895751953125,1.0964202880859375,0.3582763671875
1789039832661630200,5.015630126953125,0.1481170654296875,1.09930419921875,0.3209991455078125
1789039832671574000,5.025573974609375,0.131866455078125,1.1276397705078125,0.2342681884765625
1789039832681518000,5.03551806640625,0.0997161865234375,1.1534423828125,0.15643310546875
1789039832691462100,5.045462158203125,0.072723388671875,1.1724700927734375,0.120849609375
1789039832701406200,5.05540625,0.1037750244140625,1.2105865478515625,0.109100341796875
1789039832711350300,5.065350341796875,0.1541290283203125,1.2113037109375,0.14874267578125
1789039832721295000,5.075295166015625,0.1881103515625,1.2547760009765625,0.1903533935546875
1789039832731239200,5.0852392578125,0.2019500732421875,1.353729248046875,0.209808349609375
1789039832741183000,5.095182861328125,0.2059783935546875,1.4415130615234375,0.2840423583984375
1789039832751127300,5.105127197265625,0.261260986328125,1.5085906982421875,0.349884033203125
1789039832761071000,5.115071044921875,0.2920074462890625,1.5827484130859375,0.321746826171875
1789039832771015200,5.12501513671875,0.2524261474609375,1.5870208740234375,0.272125244140625
1789039832780959200,5.134959228515625,0.1553802490234375,1.4659271240234375,0.2619476318359375
1789039832790903000,5.144903076171875,0.079254150390625,1.2782135009765625,0.2407684326171875
1789039832800847000,5.15484716796875,0.0302886962890625,1.153717041015625,0.26055908203125
1789039832810791000,5.164791015625,0.05810546875,1.07440185546875,0.363739013671875
1789039832820736300,5.174736328125,0.10302734375,1.076629638671875,0.5041046142578125
1789039832830680000,5.18468017578125,0.0722503662109375,1.066375732421875,0.553314208984375
1789039832840624000,5.1946240234375,0.1085662841796875,1.1110076904296875,0.395843505859375
1789039832850568000,5.20456787109375,0.2046051025390625,1.177642822265625,0.189727783203125
1789039832860512000,5.214511962890625,0.402740478515625,1.269989013671875,0.08319091796875
1789039832870456300,5.224456298828125,0.561981201171875,1.3914031982421875,0.063568115234375
1789039832880400100,5.234400146484375,0.448272705078125,1.5230712890625,0.1753387451171875
1789039832890344200,5.24434423828125,0.2255859375,1.4564208984375,0.335235595703125
1789039832900288000,5.2542880859375,0.0730743408203125,1.353973388671875,0.381072998046875
1789039832910232000,5.264232177734375,0.1585540771484375,1.41546630859375,0.440216064453125
1789039832920177200,5.27417724609375,0.587432861328125,1.6281280517578125,0.31103515625
1789039832930121200,5.284121337890625,0.56500244140625,1.7847900390625,0.1399688720703125
1789039832940065000,5.29406494140625,0.3308258056640625,1.9151611328125,0.0558624267578125
1789039832950009000,5.304009033203125,0.2874603271484375,1.964691162109375,-0.0938262939453125
1789039832959953200,5.313953125,0.5758209228515625,1.961944580078125,-0.088287353515625
1789039832969897000,5.32389697265625,0.5257568359375,1.9474945068359375,-0.035308837890625
1789039832979841300,5.33384130859375,0.444305419921875,1.9026336669921875,0.0289154052734375
1789039832989785000,5.34378515625,0.452423095703125,1.6673126220703125,0.219329833984375
1789039832999729200,5.353729248046875,0.4820709228515625,1.32568359375,0.3946685791015625
1789039833009673200,5.363673095703125,0.4031982421875,0.970123291015625,0.4154510498046875
1789039833019618000,5.3736181640625,0.191375732421875,0.72198486328125,0.5482025146484375
1789039833029562000,5.38356201171875,-0.177459716796875,0.4343719482421875,0.7032928466796875
1789039833039506200,5.393506103515625,-0.5762786865234375,-0.1657257080078125,0.4138336181640625
1789039833049450200,5.4034501953125,0.177490234375,0.106964111328125,0.50262451171875
1789039833059394000,5.41339404296875,1.03826904296875,1.3584136962890625,0.2326812744140625
1789039833069338000,5.423338134765625,1.119598388671875,1.845306396484375,-0.259185791015625
1789039833079282000,5.433281982421875,0.5118255615234375,1.255126953125,-0.1366729736328125
1789039833089226200,5.443226318359375,0.6227874755859375,0.852294921875,-0.2765045166015625
1789039833099170300,5.45317041015625,1.1210479736328125,0.5588226318359375,-0.927642822265625
1789039833109115100,5.463115234375,2.5355987548828125,1.3807373046875,-1.813629150390625
1789039833119059200,5.47305908203125,0.6650238037109375,1.7553253173828125,0.0795745849609375
1789039833129003000,5.4830029296875,-1.1114959716796875,-0.0659027099609375,0.7816619873046875
1789039833138947300,5.492947265625,-0.95098876953125,-0.6497039794921875,0.60516357421875
1789039833148891100,5.50289111328125,0.4012908935546875,-0.3191070556640625,0.886993408203125
1789039833158835200,5.512835205078125,0.943145751953125,0.1311187744140625,0.622894287109375
1789039833168779000,5.522779052734375,0.5302276611328125,0.1681365966796875,0.502197265625
1789039833178723000,5.53272314453125,0.7655029296875,0.1410675048828125,0.6839141845703125
1789039833188667100,5.542667236328125,0.865447998046875,0.3897247314453125,0.39727783203125
1789039833198611000,5.55261083984375,0.45330810546875,0.213043212890625,-0.072662353515625
1789039833208556300,5.562556396484375,0.371490478515625,-0.04400634765625,-0.0329132080078125
1789039833218500000,5.5725,0.8072662353515625,0.1060791015625,0.1002960205078125
1789039833228444200,5.582444091796875,0.9532318115234375,0.242156982421875,0.160552978515625
1789039833238388000,5.592387939453125,0.779022216796875,0.021942138671875,0.21630859375
1789039833248332000,5.60233203125,0.621734619140625,-0.0472869873046875,0.2789459228515625
1789039833258276400,5.6122763671875,0.5529022216796875,-0.1304779052734375,0.2755126953125
1789039833268220200,5.62222021484375,0.577362060546875,-0.1301727294921875,0.2100677490234375
1789039833278164200,5.632164306640625,0.5622100830078125,-0.1295318603515625,0.115325927734375
1789039833288108000,5.64210791015625,0.53790283203125,-0.1688690185546875,0.028106689453125
1789039833298052000,5.652052001953125,0.6332855224609375,-0.1208953857421875,-0.090423583984375
1789039833307997200,5.6619970703125,0.6810455322265625,-0.1859893798828125,-0.149658203125
1789039833317941200,5.671941162109375,0.61834716796875,-0.1395263671875,-0.255462646484375
1789039833327885000,5.681885009765625,0.512176513671875,-0.2201080322265625,-0.374359130859375
1789039833337829000,5.6918291015625,0.513824462890625,-0.242767333984375,-0.3154449462890625
1789039833347773200,5.701773193359375,0.582427978515625,-0.2211456298828125,-0.2056427001953125
1789039833357717000,5.711717041015625,0.6063079833984375,-0.2300567626953125,-0.1268157958984375
1789039833367661300,5.721661376953125,0.641937255859375,-0.1917877197265625,-0.1269378662109375
1789039833377605000,5.731605224609375,0.7003021240234375,-0.1358489990234375,-0.0643310546875
1789039833387549200,5.741549072265625,0.6719512939453125,-0.1508331298828125,0.0870513916015625
1789039833397494000,5.751493896484375,0.6724090576171875,-0.1114044189453125,0.112060546875
1789039833407438000,5.76143798828125,0.66278076171875,-0.06011962890625,0.103485107421875
1789039833417382100,5.771382080078125,0.7283477783203125,-0.024688720703125,0.150482177734375
1789039833427326200,5.781326171875,0.803619384765625,-0.019256591796875,0.2968292236328125
1789039833437270300,5.791270263671875,0.79962158203125,-0.02001953125,0.423553466796875
1789039833447214000,5.801214111328125,0.763519287109375,0.0133209228515625,0.4081268310546875
1789039833457158100,5.811158203125,0.71923828125,0.015106201171875,0.35003662109375
1789039833467102000,5.82110205078125,0.811065673828125,0.019744873046875,0.3400115966796875
1789039833477046300,5.83104638671875,1.0057220458984375,0.0680999755859375,0.357391357421875
1789039833486991000,5.8409912109375,1.085540771484375,0.15179443359375,0.3270111083984375
1789039833496935200,5.85093505859375,1.037200927734375,0.1768646240234375,0.215606689453125
1789039833506879000,5.86087890625,0.9588623046875,0.16314697265625,0.1816253662109375
1789039833516823000,5.870822998046875,0.931915283203125,0.180755615234375,0.0719757080078125
1789039833526767000,5.88076708984375,0.97515869140625,0.230499267578125,0.014434814453125
1789039833536711200,5.890711181640625,1.0264892578125,0.24639892578125,-0.0391998291015625
1789039833546655200,5.9006552734375,1.01068115234375,0.2394866943359375,-0.0453948974609375
1789039833556599000,5.91059912109375,1.05645751953125,0.2140045166015625,-0.01422119140625
1789039833566543600,5.920543701171875,1.0465850830078125,0.248504638671875,-0.029144287109375
1789039833576488400,5.930488525390625,1.0476531982421875,0.3045196533203125,-0.09136962890625
1789039833586432500,5.9404326171875,1.0118865966796875,0.28594970703125,-0.082916259765625
1789039833596376300,5.950376220703125,1.0237579345703125,0.2831878662109375,-0.07232666015625
1789039833606320600,5.960320556640625,0.9931182861328125,0.280517578125,-0.0090789794921875
1789039833616264700,5.9702646484375,0.958770751953125,0.3401947021484375,0.0688018798828125
1789039833626208500,5.98020849609375,0.9897308349609375,0.3997802734375,0.091949462890625
1789039833636152600,5.990152587890625,1.022369384765625,0.39971923828125,0.0289764404296875
1789039833646096400,6.000096435546875,1.0826416015625,0.4231109619140625,-0.0171966552734375
1789039833656040400,6.01004052734375,1.1713104248046875,0.439422607421875,-0.035430908203125
1789039833665984500,6.019984619140625,1.23077392578125,0.4113006591796875,-0.070220947265625
1789039833675929600,6.0299296875,1.2397613525390625,0.3708648681640625,-0.089324951171875
1789039833685873400,6.039873291015625,1.191802978515625,0.3298187255859375,-0.056182861328125
1789039833695817500,6.0498173828125,1.1373291015625,0.302459716796875,0.0262603759765625
1789039833705761500,6.059761474609375,1.074432373046875,0.26611328125,0.1242828369140625
1789039833715705300,6.069705322265625,1.006103515625,0.210052490234375,0.2706451416015625
1789039833725649700,6.079649658203125,0.9454803466796875,0.231842041015625,0.419525146484375
1789039833735593500,6.089593505859375,0.903961181640625,0.296539306640625,0.41937255859375
1789039833745537500,6.09953759765625,0.879180908203125,0.299774169921875,0.368255615234375
1789039833755481600,6.109481689453125,0.8549041748046875,0.3197784423828125,0.3842926025390625
1789039833765426400,6.119426513671875,0.8384246826171875,0.3406982421875,0.3831634521484375
1789039833775370500,6.12937060546875,0.814056396484375,0.3596038818359375,0.373260498046875
1789039833785314600,6.139314453125,0.7855224609375,0.38671875,0.36822509765625
1789039833795258600,6.149258544921875,0.79296875,0.4037933349609375,0.335845947265625
1789039833805202400,6.159202392578125,0.8229217529296875,0.421783447265625,0.328277587890625
1789039833815146500,6.169146484375,0.7962646484375,0.434417724609375,0.324798583984375
1789039833825090300,6.17909033203125,0.76031494140625,0.45111083984375,0.2924957275390625
1789039833835034600,6.18903466796875,0.77099609375,0.4650115966796875,0.216156005859375
1789039833844979500,6.1989794921875,0.7817535400390625,0.44610595703125,0.1240997314453125
1789039833854923500,6.208923583984375,0.79571533203125,0.4410400390625,0.0602264404296875
1789039833864867300,6.218867431640625,0.8777008056640625,0.45709228515625,0.0838470458984375
1789039833874811400,6.228811279296875,0.96826171875,0.4399871826171875,0.0753631591796875
1789039833884755700,6.238755615234375,0.9936981201171875,0.450958251953125,-0.0634613037109375
1789039833894699500,6.248699462890625,0.9280242919921875,0.4660797119140625,-0.1010589599609375
1789039833904643600,6.2586435546875,0.8481597900390625,0.423187255859375,-0.181488037109375
1789039833914587400,6.26858740234375,0.846649169921875,0.4120330810546875,-0.211334228515625
1789039833924531500,6.278531494140625,0.7910003662109375,0.4072418212890625,-0.0782012939453125
1789039833934476500,6.2884765625,0.6770782470703125,0.37042236328125,-0.04254150390625
1789039833944420600,6.298420654296875,0.6869964599609375,0.5675201416015625,0.0276031494140625
1789039833954364400,6.308364501953125,0.7099609375,0.5967864990234375,0.012725830078125
1789039833964308500,6.31830859375,0.745849609375,0.5051422119140625,-0.0581207275390625
1789039833974252500,6.32825244140625,0.7671051025390625,0.3402557373046875,-0.08599853515625
1789039833984196400,6.3381962890625,0.7153778076171875,0.377655029296875,-0.190948486328125
1789039833994140700,6.348140625,0.650909423828125,0.849365234375,-0.3517913818359375
1789039834004084500,6.35808447265625,0.5124359130859375,0.935516357421875,-0.4974212646484375
1789039834014028500,6.368028564453125,0.4325714111328125,0.7540740966796875,-0.3239898681640625
1789039834023973400,6.377973388671875,0.4918212890625,0.7821197509765625,-0.4911346435546875
1789039834033917400,6.38791748046875,0.5009613037109375,0.7490234375,-0.579986572265625
1789039834043861500,6.397861572265625,0.51885986328125,0.6933746337890625,-0.4794921875
1789039834053805600,6.4078056640625,0.5686492919921875,0.7673797607421875,-0.4759063720703125
1789039834063749600,6.41774951171875,0.614990234375,0.8104095458984375,-0.373870849609375
1789039834073693400,6.427693359375,0.6462554931640625,0.8413238525390625,-0.126953125
1789039834083637500,6.437637451171875,0.59674072265625,0.8386993408203125,0.0363006591796875
1789039834093581300,6.447581298828125,0.4930877685546875,0.8387451171875,0.0147247314453125
1789039834103525400,6.457525390625,0.4683990478515625,0.9109344482421875,-0.103485107421875
1789039834113470500,6.467470458984375,0.5529327392578125,0.997528076171875,-0.2028045654296875
1789039834123414500,6.47741455078125,0.6316375732421875,1.0326690673828125,-0.2657470703125
1789039834133358600,6.487358642578125,0.70599365234375,1.0202484130859375,-0.3263702392578125
1789039834143302400,6.497302490234375,0.757781982421875,1.0911712646484375,-0.4005889892578125
1789039834153246500,6.50724658203125,0.7941131591796875,1.0789794921875,-0.3956146240234375
1789039834163190500,6.5171904296875,0.7119140625,0.96173095703125,-0.4297637939453125
1789039834173134600,6.527134521484375,0.626861572265625,0.818572998046875,-0.45556640625
1789039834183078400,6.537078369140625,0.552581787109375,0.675262451171875,-0.4823150634765625
1789039834193022500,6.5470224609375,0.4365692138671875,0.7848358154296875,-0.4433746337890625
1789039834202967300,6.55696728515625,0.385009765625,0.5778656005859375,-0.30023193359375
1789039834212911600,6.56691162109375,0.3396148681640625,0.645782470703125,-0.236907958984375
1789039834222855700,6.576855712890625,0.2032470703125,0.824005126953125,-0.2728424072265625
1789039834232799500,6.586799560546875,0.263885498046875,0.7959747314453125,-0.1663970947265625
1789039834242743600,6.59674365234375,0.361083984375,0.80352783203125,-0.1741790771484375
1789039834252687400,6.606687255859375,0.387054443359375,0.828521728515625,-0.23297119140625
1789039834262631400,6.61663134765625,0.43255615234375,0.8929443359375,-0.2320709228515625
1789039834272575700,6.62657568359375,0.4032745361328125,0.961883544921875,-0.3641510009765625
1789039834282519600,6.63651953125,0.37890625,1.0892181396484375,-0.48468017578125
1789039834292464400,6.64646435546875,0.4332733154296875,1.1290130615234375,-0.395599365234375
1789039834302408400,6.656408447265625,0.50653076171875,1.0771484375,-0.301055908203125
1789039834312352500,6.6663525390625,0.5049285888671875,0.9572296142578125,-0.408538818359375
1789039834322296600,6.676296630859375,0.4677581787109375,0.8896484375,-0.4689178466796875
1789039834332240600,6.68624072265625,0.4680328369140625,0.8825225830078125,-0.3723297119140625
1789039834342184400,6.696184326171875,0.4594268798828125,0.907623291015625,-0.2160491943359375
1789039834352128500,6.70612841796875,0.4501953125,0.901885986328125,-0.0747528076171875
1789039834362072600,6.716072509765625,0.37530517578125,0.8009796142578125,-0.0021820068359375
1789039834372017700,6.726017578125,0.38092041015625,0.7585906982421875,0.01239013671875
1789039834381961500,6.73596142578125,0.4886322021484375,0.7839202880859375,-0.1249237060546875
1789039834391905500,6.745905517578125,0.5946197509765625,0.790252685546875,-0.3454437255859375
1789039834401849600,6.755849609375,0.5894317626953125,0.7942047119140625,-0.7093048095703125
1789039834411793400,6.76579345703125,0.5117034912109375,1.0183563232421875,-0.680419921875
1789039834421737500,6.775737548828125,0.570709228515625,1.2456512451171875,-0.52191162109375
1789039834431681300,6.785681396484375,0.5445556640625,1.3267059326171875,-0.56146240234375
1789039834441625600,6.79562548828125,0.33135986328125,1.3076629638671875,-0.586517333984375
1789039834451569700,6.805569580078125,0.2949981689453125,1.2679290771484375,-0.473663330078125
1789039834461514500,6.815514404296875,0.3491668701171875,1.16387939453125,-0.5061187744140625
1789039834471458600,6.82545849609375,0.411590576171875,1.06719970703125,-0.5524749755859375
1789039834481402400,6.83540234375,0.50634765625,1.0311126708984375,-0.6703948974609375
1789039834491346700,6.8453466796875,0.6649627685546875,1.1243896484375,-0.6351470947265625
1789039834501290500,6.85529052734375,0.7126007080078125,1.26934814453125,-0.632080078125
1789039834511234600,6.865234619140625,0.5327911376953125,1.4414825439453125,-0.62945556640625
1789039834521178400,6.875178466796875,0.420989990234375,1.472900390625,-0.4701385498046875
1789039834531122400,6.885122314453125,0.3803558349609375,1.319854736328125,-0.3939971923828125
1789039834541067500,6.895067626953125,0.305084228515625,0.98529052734375,-0.31640625
1789039834551011600,6.905011474609375,0.270050048828125,0.6346893310546875,-0.2188262939453125
1789039834560955400,6.914955322265625,0.2186431884765625,0.502105712890625,-0.172607421875
1789039834570899200,6.924899169921875,0.1921234130859375,0.4254608154296875,-0.0838470458984375
1789039834580843300,6.93484326171875,0.11676025390625,0.4068756103515625,-0.0863494873046875
1789039834590787000,6.944787109375,0.0067596435546875,0.450775146484375,-0.1150970458984375
1789039834600731100,6.954731201171875,-0.01312255859375,0.4896240234375,-0.21209716796875
1789039834610675200,6.96467529296875,-0.0101776123046875,0.5633392333984375,-0.342254638671875
1789039834620620300,6.974620361328125,0.0659637451171875,0.6295013427734375,-0.4843597412109375
1789039834630564000,6.984564208984375,0.1918182373046875,0.7088775634765625,-0.5679931640625
1789039834640508200,6.994508056640625,0.30316162109375,0.7919769287109375,-0.7048797607421875
1789039834650452200,7.0044521484375,0.362884521484375,0.9085235595703125,-0.7483062744140625
1789039834660396000,7.01439599609375,0.3977813720703125,0.919647216796875,-0.77545166015625
1789039834670340000,7.024340087890625,0.384552001953125,0.864990234375,-0.7506866455078125
1789039834680284200,7.0342841796875,0.3470458984375,0.7887115478515625,-0.7967071533203125
1789039834690228200,7.044228271484375,0.2902374267578125,0.696014404296875,-0.8282318115234375
1789039834700173000,7.054173095703125,0.2509918212890625,0.5793304443359375,-0.8535614013671875
1789039834710117000,7.0641171875,0.2894439697265625,0.541412353515625,-0.772491455078125
1789039834720061200,7.074061279296875,0.36431884765625,0.5931549072265625,-0.7203826904296875
1789039834730005200,7.084005126953125,0.367340087890625,0.6561737060546875,-0.780426025390625
1789039834739949300,7.09394921875,0.2550811767578125,0.6947021484375,-0.8708953857421875
1789039834749893000,7.10389306640625,0.139404296875,0.7596282958984375,-0.8975982666015625
1789039834759837200,7.113837158203125,0.0666351318359375,0.808380126953125,-0.8875274658203125
1789039834769781000,7.123781005859375,0.023651123046875,0.8418426513671875,-0.8217315673828125
1789039834779726300,7.133726318359375,0.00469970703125,0.8641815185546875,-0.746307373046875
1789039834789670100,7.143670166015625,-0.0110321044921875,0.86846923828125,-0.6243896484375
1789039834799614200,7.1536142578125,-0.0186004638671875,0.85150146484375,-0.5022125244140625
1789039834809558300,7.163558349609375,-0.0215606689453125,0.804290771484375,-0.4334716796875
1789039834819502000,7.173502197265625,-0.018798828125,0.7765960693359375,-0.397674560546875
1789039834829446100,7.183446044921875,0.023651123046875,0.774200439453125,-0.3715667724609375
1789039834839390200,7.19339013671875,0.0961151123046875,0.777374267578125,-0.3818817138671875
1789039834849334300,7.203334228515625,0.173004150390625,0.802978515625,-0.4560394287109375
1789039834859278000,7.213278076171875,0.2484588623046875,0.839935302734375,-0.551910400390625
1789039834869223200,7.22322314453125,0.2964324951171875,0.8692474365234375,-0.6505279541015625
1789039834879167000,7.2331669921875,0.316925048828125,0.8984375,-0.727447509765625
1789039834889111300,7.243111328125,0.3067169189453125,0.9222412109375,-0.77423095703125
1789039834899055400,7.253055419921875,0.26324462890625,0.9497528076171875,-0.7892913818359375
1789039834908999200,7.262999267578125,0.2090606689453125,0.9347381591796875,-0.7671661376953125
1789039834918943200,7.272943115234375,0.1441650390625,0.841705322265625,-0.6981353759765625
1789039834928887000,7.282886962890625,0.120819091796875,0.748291015625,-0.5263214111328125
1789039834938831000,7.2928310546875,0.2287139892578125,0.6993255615234375,-0.40191650390625
1789039834948776200,7.302776123046875,0.2979888916015625,0.68853759765625,-0.3950042724609375
1789039834958720300,7.31272021484375,0.278961181640625,0.7869110107421875,-0.3790740966796875
1789039834968664000,7.3226640625,0.2609100341796875,0.9029388427734375,-0.359130859375
1789039834978608000,7.332608154296875,0.29010009765625,1.0453643798828125,-0.33123779296875
1789039834988552200,7.34255224609375,0.33477783203125,1.1172332763671875,-0.338134765625
1789039834998496300,7.352496337890625,0.3919525146484375,1.110992431640625,-0.4337005615234375
1789039835008440300,7.3624404296875,0.4067230224609375,1.00115966796875,-0.529296875
1789039835018384100,7.372384033203125,0.3851470947265625,0.8826751708984375,-0.5608978271484375
1789039835028329200,7.3823291015625,0.336883544921875,0.803985595703125,-0.5649871826171875
1789039835038273000,7.39227294921875,0.2965850830078125,0.7520904541015625,-0.5492095947265625
1789039835048217000,7.402217041015625,0.278778076171875,0.7294769287109375,-0.5230560302734375
1789039835058161200,7.4121611328125,0.3174896240234375,0.7196044921875,-0.4936676025390625
1789039835068105200,7.422105224609375,0.3824462890625,0.745269775390625,-0.496978759765625
1789039835078049300,7.43204931640625,0.4623260498046875,0.7568206787109375,-0.47210693359375
1789039835087993000,7.4419931640625,0.511016845703125,0.740264892578125,-0.4239654541015625
1789039835097937200,7.451937255859375,0.51470947265625,0.6951446533203125,-0.41070556640625
1789039835107882200,7.46188232421875,0.4901123046875,0.669891357421875,-0.4231414794921875
1789039835117826300,7.471826416015625,0.4761962890625,0.6332550048828125,-0.4015960693359375
1789039835127770000,7.48177001953125,0.44049072265625,0.531494140625,-0.3496551513671875
1789039835137714200,7.491714111328125,0.40936279296875,0.433502197265625,-0.3343963623046875
1789039835147658000,7.501657958984375,0.43701171875,0.440185546875,-0.3719482421875
1789039835157602000,7.51160205078125,0.450103759765625,0.501251220703125,-0.4235992431640625
1789039835167546400,7.52154638671875,0.427886962890625,0.5826416015625,-0.4987030029296875
1789039835177490200,7.531490234375,0.341064453125,0.5724334716796875,-0.5735931396484375
1789039835187435300,7.541435302734375,0.31768798828125,0.576690673828125,-0.6132354736328125
1789039835197379000,7.551379150390625,0.3619537353515625,0.64447021484375,-0.6419219970703125
1789039835207323100,7.5613232421875,0.4247589111328125,0.700164794921875,-0.66363525390625
1789039835217267200,7.57126708984375,0.5032196044921875,0.7453765869140625,-0.6984100341796875
1789039835227211300,7.581211181640625,0.5276947021484375,0.77838134765625,-0.751220703125
1789039835237155000,7.591155029296875,0.525482177734375,0.7904510498046875,-0.7887420654296875
1789039835247099100,7.60109912109375,0.5258636474609375,0.8062591552734375,-0.8160858154296875
1789039835257043200,7.611043212890625,0.4969024658203125,0.8480682373046875,-0.8634796142578125
1789039835266988300,7.62098828125,0.4267730712890625,0.8192291259765625,-0.856353759765625
1789039835276932400,7.630932373046875,0.37298583984375,0.6748809814453125,-0.7754058837890625
1789039835286876200,7.640876220703125,0.3625946044921875,0.5627288818359375,-0.7028656005859375
1789039835296820200,7.6508203125,0.3735504150390625,0.5249786376953125,-0.6755828857421875
1789039835306764000,7.660763916015625,0.3554229736328125,0.5175933837890625,-0.6304473876953125
1789039835316708000,7.6707080078125,0.3245086669921875,0.551727294921875,-0.6039581298828125
1789039835326652400,7.68065234375,0.401123046875,0.64227294921875,-0.5540924072265625
1789039835336596200,7.69059619140625,0.424560546875,0.692108154296875,-0.4856109619140625
1789039835346541000,7.700541015625,0.3879547119140625,0.653656005859375,-0.4148101806640625
1789039835356485000,7.710485107421875,0.3432159423828125,0.647674560546875,-0.4201202392578125
1789039835366429200,7.72042919921875,0.3494873046875,0.720306396484375,-0.480499267578125
1789039835376373200,7.730373291015625,0.36907958984375,0.769195556640625,-0.5134124755859375
1789039835386317300,7.7403173828125,0.3920745849609375,0.775115966796875,-0.507476806640625
1789039835396261000,7.75026123046875,0.432861328125,0.7758331298828125,-0.502227783203125
1789039835406205200,7.760205078125,0.472015380859375,0.783172607421875,-0.5119781494140625
1789039835416149200,7.770149169921875,0.520111083984375,0.7278900146484375,-0.487030029296875
1789039835426094300,7.78009423828125,0.550933837890625,0.706756591796875,-0.4620819091796875
1789039835436038100,7.7900380859375,0.59588623046875,0.6568603515625,-0.4350738525390625
1789039835445982200,7.799982177734375,0.5897369384765625,0.6145172119140625,-0.461334228515625
1789039835455926300,7.80992626953125,0.518524169921875,0.5990753173828125,-0.5347747802734375
1789039835465870000,7.8198701171875,0.5616455078125,0.6407318115234375,-0.5500335693359375
1789039835475814100,7.829814208984375,0.6773223876953125,0.65301513671875,-0.51373291015625
1789039835485758000,7.839758056640625,0.6686859130859375,0.622772216796875,-0.504974365234375
1789039835495702300,7.849702392578125,0.5829925537109375,0.6397857666015625,-0.5362701416015625
1789039835505647000,7.859647216796875,0.5625152587890625,0.6759490966796875,-0.5856170654296875
1789039835515591200,7.869591064453125,0.55560302734375,0.722076416015625,-0.6339111328125
1789039835525535200,7.87953515625,0.5999603271484375,0.6950531005859375,-0.65155029296875
1789039835535479000,7.88947900390625,0.6528778076171875,0.570709228515625,-0.6363067626953125
1789039835545423400,7.89942333984375,0.58685302734375,0.492279052734375,-0.6334991455078125
1789039835555367200,7.9093671875,0.53192138671875,0.5043487548828125,-0.652374267578125
1789039835565310700,7.919310791015625,0.522705078125,0.5351715087890625,-0.6788330078125
1789039835575254800,7.9292548828125,0.4919281005859375,0.5761566162109375,-0.6967315673828125
1789039835585199900,7.939199951171875,0.49176025390625,0.6030731201171875,-0.69036865234375
1789039835595143700,7.949143798828125,0.415069580078125,0.5599365234375,-0.6860198974609375
1789039835605087700,7.959087646484375,0.4526519775390625,0.482147216796875,-0.636749267578125
1789039835615031800,7.96903173828125,0.4759063720703125,0.5793304443359375,-0.634552001953125
1789039835624975600,7.9789755859375,0.460540771484375,0.64630126953125,-0.706298828125
1789039835634919700,7.988919677734375,0.43634033203125,0.582733154296875,-0.7033233642578125
1789039835644863700,7.99886376953125,0.4405975341796875,0.587921142578125,-0.686859130859375
1789039835654807800,8.008807861328124,0.4633941650390625,0.5437164306640625,-0.6699371337890625
1789039835664752600,8.018752685546875,0.476043701171875,0.4998779296875,-0.6439361572265625
1789039835674696700,8.02869677734375,0.534515380859375,0.459503173828125,-0.64404296875
1789039835684640800,8.038640869140625,0.51214599609375,0.4478759765625,-0.6210174560546875
1789039835694584800,8.048584716796874,0.468292236328125,0.442474365234375,-0.645172119140625
1789039835704529000,8.05852880859375,0.492156982421875,0.4429931640625,-0.6754608154296875
1789039835714472700,8.06847265625,0.542938232421875,0.4539031982421875,-0.664703369140625
1789039835724416800,8.078416748046875,0.52294921875,0.4585723876953125,-0.63494873046875
1789039835734360600,8.088360595703126,0.533721923828125,0.475341796875,-0.58404541015625
1789039835744306000,8.098305908203125,0.54583740234375,0.5283050537109375,-0.5255279541015625
1789039835754249700,8.108249755859376,0.559234619140625,0.56658935546875,-0.50506591796875
1789039835764193800,8.11819384765625,0.5562286376953125,0.5907440185546875,-0.4707794189453125
1789039835774137900,8.128137939453126,0.57391357421875,0.5789794921875,-0.423675537109375
1789039835784081700,8.13808154296875,0.5714263916015625,0.54931640625,-0.398223876953125
1789039835794025700,8.148025634765625,0.5633697509765625,0.5377349853515625,-0.380035400390625
1789039835803969800,8.1579697265625,0.5656585693359375,0.54656982421875,-0.3611297607421875
1789039835813915000,8.167914794921876,0.53656005859375,0.56787109375,-0.3469085693359375
1789039835823858700,8.177858642578125,0.495513916015625,0.5939178466796875,-0.353851318359375
1789039835833802800,8.187802734375,0.49578857421875,0.6113739013671875,-0.3733367919921875
1789039835843746600,8.19774658203125,0.5174560546875,0.6337127685546875,-0.42095947265625
1789039835853691000,8.20769091796875,0.492156982421875,0.650726318359375,-0.45025634765625
1789039835863635000,8.217635009765624,0.449005126953125,0.656951904296875,-0.4814910888671875
1789039835873578800,8.227578857421875,0.460174560546875,0.6536102294921875,-0.526214599609375
1789039835883522800,8.237522705078124,0.47357177734375,0.63946533203125,-0.577789306640625
1789039835893467600,8.247467529296875,0.4682159423828125,0.6120452880859375,-0.6080780029296875
1789039835903412000,8.257411865234374,0.423370361328125,0.590576171875,-0.6032867431640625
1789039835913355800,8.267355712890625,0.4012298583984375,0.588165283203125,-0.60894775390625
1789039835923299800,8.2772998046875,0.42108154296875,0.5921173095703125,-0.6373443603515625
1789039835933243600,8.28724365234375,0.4414520263671875,0.6113128662109375,-0.66973876953125
1789039835943187700,8.297187744140626,0.471343994140625,0.6458892822265625,-0.6736907958984375
1789039835953131800,8.3071318359375,0.4890594482421875,0.6839599609375,-0.68536376953125
1789039835963076900,8.317076904296876,0.4869842529296875,0.70733642578125,-0.67889404296875
1789039835973020700,8.327020751953125,0.478607177734375,0.72222900390625,-0.66064453125
1789039835982964700,8.33696484375,0.491424560546875,0.7340087890625,-0.639617919921875
1789039835992908800,8.34690869140625,0.486785888671875,0.7489013671875,-0.58880615234375
1789039836002852600,8.3568525390625,0.4749755859375,0.7756805419921875,-0.5155487060546875
1789039836012796700,8.366796630859374,0.4954681396484375,0.7920074462890625,-0.4260711669921875
1789039836022740700,8.37674072265625,0.49383544921875,0.8046875,-0.369415283203125
1789039836032684800,8.386684814453124,0.4613494873046875,0.788787841796875,-0.3391571044921875
1789039836042629600,8.396629638671875,0.44427490234375,0.785003662109375,-0.3280792236328125
1789039836052573700,8.40657373046875,0.4022369384765625,0.7745361328125,-0.3387908935546875
1789039836062517800,8.416517822265625,0.4165802001953125,0.767181396484375,-0.3874359130859375
1789039836072461800,8.4264619140625,0.4614715576171875,0.78961181640625,-0.438385009765625
1789039836082406000,8.436406005859375,0.42303466796875,0.8122100830078125,-0.4205322265625
1789039836092349700,8.446349609375,0.4208984375,0.859527587890625,-0.3833770751953125
1789039836102293800,8.456293701171875,0.422119140625,0.8905792236328125,-0.342376708984375
1789039836112237600,8.466237548828126,0.42333984375,0.9071044921875,-0.316009521484375
1789039836122183000,8.476182861328125,0.4634246826171875,0.918701171875,-0.327667236328125
1789039836132126700,8.486126708984376,0.45751953125,0.9227142333984375,-0.349273681640625
1789039836142070800,8.49607080078125,0.4228363037109375,0.930511474609375,-0.3853302001953125
1789039836152014800,8.506014892578126,0.396331787109375,0.934478759765625,-0.41571044921875
1789039836161958700,8.515958740234375,0.446533203125,0.9282073974609375,-0.470672607421875
1789039836171902700,8.52590283203125,0.514862060546875,0.93365478515625,-0.507537841796875
1789039836181846800,8.5358466796875,0.5405120849609375,0.9763946533203125,-0.56719970703125
1789039836191791900,8.5457919921875,0.504486083984375,0.9891357421875,-0.634857177734375
1789039836201735700,8.555735595703124,0.4808349609375,0.97747802734375,-0.7082366943359375
1789039836211679700,8.5656796875,0.48028564453125,0.9589996337890625,-0.7579193115234375
1789039836221623600,8.57562353515625,0.428802490234375,0.9132843017578125,-0.7673797607421875
1789039836231568000,8.58556787109375,0.4393157958984375,0.8224029541015625,-0.6976470947265625
1789039836241512000,8.595511962890624,0.469024658203125,0.7360076904296875,-0.617828369140625
1789039836251455700,8.605455810546875,0.4057769775390625,0.672698974609375,-0.590179443359375
1789039836261399800,8.61539990234375,0.51129150390625,0.71893310546875,-0.5191497802734375
1789039836271344600,8.6253447265625,0.4396209716796875,0.814544677734375,-0.558868408203125
1789039836281289000,8.6352890625,0.145172119140625,0.93292236328125,-0.630889892578125
1789039836291232800,8.645232666015625,-0.1917877197265625,0.99932861328125,-0.6087646484375
1789039836301176800,8.6551767578125,-0.1887969970703125,0.9535064697265625,-0.6239471435546875
1789039836311120600,8.66512060546875,0.213226318359375,0.9580535888671875,-0.4725341796875
1789039836321064700,8.675064697265626,0.7290191650390625,0.9591064453125,-0.0978546142578125
1789039836331008800,8.6850087890625,0.9876861572265625,0.944061279296875,0.2133636474609375
1789039836340953900,8.694953857421876,0.635223388671875,0.8397369384765625,0.324127197265625
1789039836350897700,8.704897705078125,0.20220947265625,0.638916015625,0.209625244140625
1789039836360841700,8.714841796875,0.0162353515625,0.625701904296875,0.0609283447265625
1789039836370785800,8.724785888671875,0.0341796875,0.6959991455078125,-0.070648193359375
1789039836380729600,8.7347294921875,0.0656585693359375,0.7777099609375,-0.0915374755859375
1789039836390674000,8.744673828125,0.1443634033203125,0.8335723876953125,-0.0841217041015625
1789039836400617700,8.75461767578125,0.20941162109375,0.91058349609375,-0.0157012939453125
1789039836410561800,8.764561767578124,0.216094970703125,0.97021484375,0.0721282958984375
1789039836420506600,8.774506591796875,0.2931671142578125,0.98931884765625,0.09967041015625
1789039836430450700,8.78445068359375,0.3070068359375,1.0250396728515625,0.049713134765625
1789039836440394800,8.794394775390625,0.27679443359375,1.0537872314453125,-0.0316162109375
1789039836450338800,8.8043388671875,0.270751953125,1.0754852294921875,-0.15582275390625
1789039836460283000,8.814282958984375,0.2096099853515625,1.1307220458984375,-0.204071044921875
1789039836470226700,8.824226806640626,0.301910400390625,1.1714019775390625,-0.1990509033203125
1789039836480170800,8.834170654296875,0.3753509521484375,1.199249267578125,-0.1807708740234375
1789039836490115600,8.844115478515626,0.41741943359375,1.218109130859375,-0.19769287109375
1789039836500060000,8.854059814453125,0.4312591552734375,1.227386474609375,-0.1925201416015625
1789039836510003700,8.864003662109376,0.408111572265625,1.181671142578125,-0.1328887939453125
1789039836519947800,8.87394775390625,0.4557342529296875,1.1504364013671875,-0.1702728271484375
1789039836529891800,8.883891845703126,0.4215087890625,1.1346588134765625,-0.1958160400390625
1789039836539835600,8.893835693359375,0.370941162109375,1.123626708984375,-0.208526611328125
1789039836549779700,8.90377978515625,0.430450439453125,1.091278076171875,-0.2103271484375
1789039836559724800,8.913724853515625,0.47808837890625,1.1064300537109375,-0.20196533203125
1789039836569669000,8.923669189453125,0.461883544921875,1.09527587890625,-0.0982818603515625
1789039836579613000,8.933613037109374,0.473480224609375,1.046539306640625,-0.05108642578125
1789039836589557000,8.943556884765625,0.435211181640625,1.027374267578125,-0.0692596435546875
1789039836599501000,8.9535009765625,0.3850555419921875,0.9954681396484375,-0.1358184814453125
1789039836609445000,8.963445068359375,0.3481292724609375,0.9886627197265625,-0.191497802734375
1789039836619389200,8.97338916015625,0.3528900146484375,0.948516845703125,-0.2480010986328125
1789039836629333000,8.9833330078125,0.3068389892578125,0.8849945068359375,-0.2197418212890625
1789039836639277800,8.99327783203125,0.208038330078125,0.89178466796875,-0.1179962158203125
1789039836649222100,9.00322216796875,0.1728057861328125,0.9508209228515625,-0.0593414306640625
1789039836659166200,9.013166259765624,0.1599273681640625,1.0321197509765625,-0.054290771484375
1789039836669110000,9.023110107421875,0.14752197265625,1.080657958984375,-0.0549163818359375
1789039836679054000,9.03305419921875,0.11920166015625,1.0798797607421875,-0.0468902587890625
1789039836688998000,9.042997802734375,0.09808349609375,1.018463134765625,-0.070404052734375
1789039836698942000,9.05294189453125,0.0755767822265625,0.9488983154296875,-0.09100341796875
1789039836708887000,9.062886962890625,0.1062469482421875,0.888580322265625,-0.1382904052734375
1789039836718831000,9.0728310546875,0.1321563720703125,0.8644256591796875,-0.1667327880859375
1789039836728775000,9.08277490234375,0.1522979736328125,0.8646392822265625,-0.17645263671875
1789039836738719000,9.092718994140625,0.1922760009765625,0.8714752197265625,-0.1892242431640625
1789039836748663000,9.1026630859375,0.2455291748046875,0.8662872314453125,-0.23309326171875
1789039836758607000,9.112607177734375,0.25634765625,0.8712310791015625,-0.27105712890625
1789039836768551200,9.12255126953125,0.200958251953125,0.9048919677734375,-0.2579193115234375
1789039836778495000,9.132494873046875,0.207794189453125,0.938232421875,-0.2855682373046875
1789039836788440000,9.142440185546874,0.2615966796875,0.955718994140625,-0.342498779296875
1789039836798383900,9.1523837890625,0.2946014404296875,0.980682373046875,-0.360107421875
1789039836808328200,9.162328125,0.3321533203125,0.9985809326171875,-0.3536376953125
1789039836818272000,9.17227197265625,0.409088134765625,1.0051116943359375,-0.34332275390625
1789039836828216000,9.182216064453126,0.4494781494140625,0.99993896484375,-0.334381103515625
1789039836838160100,9.19216015625,0.4744415283203125,1.003997802734375,-0.37677001953125
1789039836848104000,9.20210400390625,0.4758758544921875,1.01593017578125,-0.424560546875
1789039836858049300,9.21204931640625,0.4376983642578125,1.0287628173828125,-0.423736572265625
1789039836867993000,9.2219931640625,0.385772705078125,1.01593017578125,-0.4048309326171875
1789039836877937200,9.231937255859375,0.36517333984375,0.998077392578125,-0.415863037109375
1789039836887881000,9.241880859375,0.3463134765625,0.9866180419921875,-0.41607666015625
1789039836897825000,9.251824951171875,0.3299560546875,0.9717559814453125,-0.382354736328125
1789039836907769000,9.26176904296875,0.320709228515625,0.928009033203125,-0.3728179931640625
1789039836917713200,9.271713134765625,0.3043975830078125,0.874420166015625,-0.3564910888671875
1789039836927658000,9.281657958984376,0.2972412109375,0.83343505859375,-0.3498992919921875
1789039836937602000,9.29160205078125,0.28778076171875,0.815093994140625,-0.358612060546875
1789039836947546000,9.301546142578125,0.249298095703125,0.8244781494140625,-0.3782196044921875
1789039836957490000,9.311489990234374,0.2202606201171875,0.848602294921875,-0.4166259765625
1789039836967434200,9.321434326171875,0.230926513671875,0.8754119873046875,-0.4611968994140625
1789039836977378000,9.3313779296875,0.254730224609375,0.9046783447265625,-0.49554443359375
1789039836987322000,9.341322021484375,0.320709228515625,0.93768310546875,-0.51715087890625
1789039836997267000,9.351266845703124,0.3760223388671875,0.946044921875,-0.5080108642578125
1789039837007211000,9.3612109375,0.3949127197265625,0.932769775390625,-0.5117340087890625
1789039837017154800,9.37115478515625,0.3900909423828125,0.9039459228515625,-0.507354736328125
1789039837027099100,9.38109912109375,0.3619842529296875,0.858367919921875,-0.5138092041015625
1789039837037043200,9.391043212890626,0.3964385986328125,0.6847991943359375,-0.4334869384765625
1789039837046987000,9.400987060546875,0.4271087646484375,0.5801544189453125,-0.2735443115234375
1789039837056931000,9.41093115234375,0.3932647705078125,0.715484619140625,-0.2150421142578125
1789039837066876000,9.4208759765625,0.328704833984375,0.863067626953125,-0.4008331298828125
1789039837076820200,9.4308203125,0.3175506591796875,0.8894500732421875,-0.6367950439453125
1789039837086764000,9.440763916015625,0.3320159912109375,0.9003448486328125,-0.708892822265625
1789039837096708000,9.4507080078125,0.3263702392578125,0.9073486328125,-0.5970611572265625
1789039837106652000,9.46065185546875,0.31866455078125,0.905975341796875,-0.511932373046875
1789039837116596000,9.470595947265625,0.3977203369140625,0.8757171630859375,-0.4599151611328125
1789039837126540000,9.4805400390625,0.48297119140625,0.864227294921875,-0.452850341796875
1789039837136484000,9.490484130859375,0.4077301025390625,0.862213134765625,-0.4226531982421875
1789039837146429200,9.50042919921875,0.3225860595703125,0.8433380126953125,-0.4112396240234375
1789039837156373000,9.510373046875,0.2896728515625,0.8423004150390625,-0.4085693359375
1789039837166317000,9.520317138671874,0.280181884765625,0.86053466796875,-0.4507293701171875
1789039837176260900,9.5302607421875,0.3050384521484375,0.8709716796875,-0.492828369140625
1789039837186205200,9.540205078125,0.36981201171875,0.8296051025390625,-0.4806060791015625
1789039837196149000,9.55014892578125,0.382904052734375,0.840972900390625,-0.4616851806640625
1789039837206094000,9.560093994140624,0.4172210693359375,0.8593902587890625,-0.4487457275390625
1789039837216038000,9.570037841796875,0.3412933349609375,0.846099853515625,-0.4619598388671875
1789039837225982000,9.57998193359375,0.2800750732421875,0.83966064453125,-0.4880523681640625
1789039837235926300,9.58992626953125,0.28985595703125,0.82537841796875,-0.467041015625
1789039837245870000,9.5998701171875,0.313140869140625,0.80706787109375,-0.402679443359375
1789039837255814100,9.609814208984375,0.363555908203125,0.8137969970703125,-0.35455322265625
1789039837265758000,9.619758056640626,0.396026611328125,0.80841064453125,-0.3234710693359375
1789039837275702000,9.629701904296875,0.4134368896484375,0.750457763671875,-0.3271942138671875
1789039837285647000,9.639647216796876,0.38177490234375,0.7510833740234375,-0.3453216552734375
1789039837295591200,9.649591064453125,0.3430938720703125,0.79766845703125,-0.37640380859375
1789039837305535000,9.659534912109375,0.337615966796875,0.80615234375,-0.4656524658203125
1789039837315479000,9.66947900390625,0.3632354736328125,0.7772064208984375,-0.5332489013671875
1789039837325423000,9.679423095703125,0.356414794921875,0.7850494384765625,-0.552398681640625
1789039837335367000,9.689366943359374,0.329132080078125,0.8837127685546875,-0.5554656982421875
1789039837345311200,9.699311279296875,0.4038238525390625,0.9640350341796875,-0.555511474609375
1789039837355256000,9.709256103515624,0.469146728515625,0.9356536865234375,-0.57757568359375
1789039837365200100,9.7192001953125,0.4281463623046875,0.8697662353515625,-0.5729522705078125
1789039837375144000,9.72914404296875,0.342620849609375,0.8082122802734375,-0.51556396484375
1789039837385088000,9.739087890625,0.2394866943359375,0.7485809326171875,-0.4692535400390625
1789039837395032000,9.749031982421876,0.160125732421875,0.6963348388671875,-0.43865966796875
1789039837404976000,9.75897607421875,0.1625518798828125,0.6332244873046875,-0.4088287353515625
1789039837414920200,9.768920166015626,0.3538055419921875,0.62432861328125,-0.4040069580078125
1789039837424865000,9.778864990234375,0.4046783447265625,0.6266937255859375,-0.4470367431640625
1789039837434809000,9.78880908203125,0.3255462646484375,0.5982818603515625,-0.505523681640625
1789039837444753000,9.7987529296875,0.269317626953125,0.559661865234375,-0.488861083984375
1789039837454697200,9.808697265625,0.29364013671875,0.537109375,-0.4995574951171875
1789039837464641000,9.81864111328125,0.2836456298828125,0.578826904296875,-0.601409912109375
1789039837474585000,9.828585205078125,0.2853851318359375,0.5806732177734375,-0.6378021240234375
1789039837484529000,9.83852880859375,0.3370208740234375,0.528411865234375,-0.576934814453125
1789039837494474000,9.848473876953125,0.356597900390625,0.4849853515625,-0.5548248291015625
1789039837504418000,9.85841796875,0.3571929931640625,0.489105224609375,-0.58026123046875
1789039837514362000,9.868362060546875,0.3899993896484375,0.49700927734375,-0.5816192626953125
1789039837524306200,9.87830615234375,0.4026031494140625,0.5006561279296875,-0.5726470947265625
1789039837534250000,9.88825,0.4147796630859375,0.468017578125,-0.5839691162109375
1789039837544194000,9.898194091796874,0.4246673583984375,0.4560699462890625,-0.535888671875
1789039837554137900,9.908137939453125,0.42254638671875,0.461669921875,-0.5194549560546875
1789039837564083000,9.9180830078125,0.348876953125,0.4790496826171875,-0.5271453857421875
1789039837574026800,9.92802685546875,0.3592987060546875,0.528717041015625,-0.4992828369140625
1789039837583970800,9.937970703125,0.44073486328125,0.541412353515625,-0.5064697265625
1789039837593915000,9.947914794921875,0.49127197265625,0.54852294921875,-0.544097900390625
1789039837603859000,9.95785888671875,0.4893951416015625,0.5889434814453125,-0.5629119873046875
1789039837613803000,9.967802978515625,0.4286346435546875,0.628326416015625,-0.5258331298828125
1789039837623746800,9.977746826171876,0.367584228515625,0.6346588134765625,-0.4563751220703125
1789039837633692000,9.98769189453125,0.3730010986328125,0.628143310546875,-0.41534423828125
1789039837643636000,9.997635986328126,0.4199676513671875,0.634613037109375,-0.39776611328125
1789039837653580000,10.007580078125,0.4476165771484375,0.6454010009765625,-0.3820037841796875
1789039837663523800,10.01752392578125,0.4600067138671875,0.6479949951171875,-0.3500518798828125
1789039837673468000,10.027468017578125,0.436309814453125,0.649688720703125,-0.3351287841796875
1789039837683411700,10.03741162109375,0.4315338134765625,0.671783447265625,-0.3253173828125
1789039837693355800,10.047355712890624,0.453948974609375,0.7003631591796875,-0.3200531005859375
1789039837703300900,10.05730078125,0.4604034423828125,0.723541259765625,-0.32989501953125
1789039837713245000,10.067244873046874,0.4563140869140625,0.7443389892578125,-0.342987060546875
1789039837723189000,10.07718896484375,0.4424285888671875,0.7633056640625,-0.3696136474609375
1789039837733132800,10.0871328125,0.4078369140625,0.785736083984375,-0.3798828125
1789039837743076900,10.097076904296875,0.37841796875,0.793609619140625,-0.3632659912109375
1789039837753021000,10.10702099609375,0.3509521484375,0.764923095703125,-0.3698883056640625
1789039837762965000,10.116965087890625,0.33306884765625,0.7602996826171875,-0.395721435546875
1789039837772909800,10.126909912109374,0.344818115234375,0.75506591796875,-0.4009857177734375
1789039837782854000,10.13685400390625,0.3506927490234375,0.753204345703125,-0.423187255859375
1789039837792797700,10.146797607421876,0.3194732666015625,0.7754058837890625,-0.4505157470703125
1789039837802741800,10.15674169921875,0.305877685546875,0.8244781494140625,-0.4641265869140625
1789039837812686000,10.16668603515625,0.3172607421875,0.890716552734375,-0.46929931640625
1789039837822630000,10.1766298828125,0.38519287109375,0.9485321044921875,-0.4939117431640625
1789039837832574000,10.186573974609376,0.426788330078125,0.9807891845703125,-0.526031494140625
1789039837842518800,10.196518798828125,0.397796630859375,0.9948272705078125,-0.5289764404296875
1789039837852462800,10.206462890625,0.3900604248046875,0.99200439453125,-0.533416748046875
1789039837862407000,10.216406982421875,0.4308319091796875,0.9961395263671875,-0.5600738525390625
1789039837872351000,10.22635107421875,0.453216552734375,1.0293121337890625,-0.5787811279296875
1789039837882294800,10.236294677734374,0.4291534423828125,1.0589447021484375,-0.56939697265625
1789039837892238800,10.24623876953125,0.3785552978515625,1.0476226806640625,-0.5579376220703125
1789039837902183000,10.256182861328124,0.34857177734375,0.985748291015625,-0.5493316650390625
1789039837912128000,10.2661279296875,0.325775146484375,0.9195709228515625,-0.534820556640625
1789039837922071800,10.27607177734375,0.2830963134765625,0.8815460205078125,-0.4644927978515625
1789039837932015900,10.286015869140625,0.278564453125,0.935943603515625,-0.36016845703125
1789039837941960000,10.2959599609375,0.271575927734375,0.9967041015625,-0.29351806640625
1789039837951903700,10.30590380859375,0.2279815673828125,1.0049896240234375,-0.2481231689453125
1789039837961847800,10.315847900390626,0.2578582763671875,0.9931488037109375,-0.2672119140625
1789039837971792000,10.3257919921875,0.276641845703125,0.9868316650390625,-0.2935333251953125
1789039837981737000,10.335737060546874,0.1863555908203125,0.9800262451171875,-0.2693939208984375
1789039837991680800,10.3456806640625,0.1759490966796875,0.9752960205078125,-0.199310302734375
1789039838001624800,10.355624755859376,0.2479095458984375,0.9846649169921875,-0.1295166015625
1789039838011569000,10.36556884765625,0.257568359375,1.002960205078125,-0.1390228271484375
1789039838021513000,10.375512939453126,0.2498016357421875,1.02410888671875,-0.1373291015625
1789039838031457000,10.38545703125,0.2178802490234375,1.0452880859375,-0.105621337890625
1789039838041400800,10.39540087890625,0.2001953125,1.079986572265625,-0.0948944091796875
1789039838051346000,10.405345947265625,0.24249267578125,1.126922607421875,-0.11407470703125
1789039838061289700,10.415289794921875,0.22332763671875,1.1626434326171875,-0.1217803955078125
1789039838071234000,10.425234130859375,0.18798828125,1.1559906005859375,-0.1157684326171875
1789039838081177900,10.435177734375,0.2234954833984375,1.1091156005859375,-0.11322021484375
1789039838091122000,10.445121826171874,0.2453765869140625,1.0912322998046875,-0.0944671630859375
1789039838101066000,10.45506591796875,0.2410736083984375,1.0736541748046875,-0.074920654296875
1789039838111009800,10.465009765625,0.2516632080078125,1.0722808837890625,-0.1070404052734375
1789039838120955000,10.474954833984375,0.29791259765625,1.06591796875,-0.0750732421875
1789039838130899000,10.48489892578125,0.3044891357421875,1.0544281005859375,-0.0559234619140625
1789039838140843000,10.494843017578125,0.3331756591796875,1.0652618408203125,-0.0895233154296875
1789039838150786800,10.504786865234376,0.3365478515625,1.0586700439453125,-0.128753662109375
1789039838160731000,10.51473095703125,0.324127197265625,1.0411529541015625,-0.1696014404296875
1789039838170674700,10.5246748046875,0.313323974609375,1.0227813720703125,-0.139495849609375
1789039838180619000,10.534618896484375,0.308929443359375,1.027923583984375,-0.1257476806640625
1789039838190563800,10.544563720703126,0.2556915283203125,1.0385589599609375,-0.145111083984375
1789039838200508000,10.5545078125,0.2347412109375,1.019073486328125,-0.150726318359375
1789039838210452000,10.564451904296876,0.2311553955078125,1.008758544921875,-0.140869140625
1789039838220395800,10.574395751953125,0.19110107421875,1.0243988037109375,-0.1266632080078125
1789039838230339800,10.58433984375,0.15570068359375,1.030364990234375,-0.087310791015625
1789039838240284000,10.594283935546875,0.1553192138671875,1.0298919677734375,-0.038177490234375
1789039838250228000,10.60422802734375,0.221282958984375,1.0379638671875,-0.0470428466796875
1789039838260172800,10.6141728515625,0.255340576171875,1.01715087890625,-0.104095458984375
1789039838270116900,10.624116943359375,0.2317657470703125,1.0109405517578125,-0.12115478515625
1789039838280060700,10.634060791015624,0.170135498046875,1.0335845947265625,-0.1389007568359375
1789039838290005000,10.6440048828125,0.1569061279296875,1.050323486328125,-0.2025604248046875
1789039838299949000,10.653948974609374,0.206268310546875,1.0652618408203125,-0.2694091796875
1789039838309892900,10.663892822265625,0.2560577392578125,1.05047607421875,-0.2978057861328125
1789039838319837700,10.673837646484374,0.2725677490234375,1.03704833984375,-0.288482666015625
1789039838329781800,10.68378173828125,0.29132080078125,1.0029144287109375,-0.2987060546875
1789039838339726000,10.69372607421875,0.31280517578125,0.995819091796875,-0.3605194091796875
1789039838349670000,10.703669921875,0.32275390625,1.0048675537109375,-0.45794677734375
1789039838359614000,10.713614013671876,0.3126068115234375,0.99957275390625,-0.52691650390625
1789039838369557800,10.723557861328125,0.2923583984375,0.9725189208984375,-0.5432891845703125
1789039838379501800,10.733501708984376,0.260223388671875,0.930938720703125,-0.5128173828125
1789039838389447000,10.743447021484375,0.2299957275390625,0.8910980224609375,-0.5114288330078125
1789039838399391000,10.753390869140626,0.214263916015625,0.8676605224609375,-0.509246826171875
1789039838409334800,10.763334716796875,0.2040557861328125,0.8586883544921875,-0.50299072265625
1789039838419278800,10.77327880859375,0.19183349609375,0.8654937744140625,-0.4566802978515625
1789039838429223000,10.783222900390625,0.233184814453125,0.8762359619140625,-0.424530029296875
1789039838439166700,10.793166748046875,0.2601165771484375,0.8587493896484375,-0.40283203125
1789039838449111000,10.803111083984374,0.2511138916015625,0.8326416015625,-0.4075164794921875
1789039838459055900,10.813055908203125,0.257659912109375,0.8236083984375,-0.4367828369140625
1789039838469000000,10.823,0.246826171875,0.84075927734375,-0.4565277099609375
1789039838478943700,10.83294384765625,0.216796875,0.8736114501953125,-0.4171295166015625
1789039838488887800,10.8428876953125,0.23785400390625,0.8856353759765625,-0.4009552001953125
1789039838498832000,10.852831787109375,0.299713134765625,0.8902740478515625,-0.3775634765625
1789039838508776000,10.86277587890625,0.353485107421875,0.880218505859375,-0.352752685546875
1789039838518720000,10.872719970703125,0.3763427734375,0.871429443359375,-0.3697052001953125
1789039838528664800,10.882664794921874,0.3651275634765625,0.88623046875,-0.41986083984375
1789039838538609000,10.89260888671875,0.3286895751953125,0.899261474609375,-0.4918365478515625
1789039838548553000,10.902552978515626,0.2871856689453125,0.9183807373046875,-0.52655029296875
1789039838558497000,10.9124970703125,0.2564697265625,0.91925048828125,-0.5357208251953125
1789039838568441600,10.922441650390626,0.2901458740234375,0.896148681640625,-0.5293426513671875
1789039838578385700,10.9323857421875,0.334320068359375,0.9020843505859375,-0.469512939453125
1789039838588330800,10.942330810546874,0.3441619873046875,0.87548828125,-0.4468231201171875
1789039838598274800,10.95227490234375,0.3377532958984375,0.8851470947265625,-0.403900146484375
1789039838608218600,10.962218505859376,0.2805938720703125,0.83575439453125,-0.38238525390625
1789039838618162700,10.97216259765625,0.236419677734375,0.801422119140625,-0.420623779296875
1789039838628106500,10.9821064453125,0.24847412109375,0.85137939453125,-0.43170166015625
1789039838638050800,10.99205078125,0.3083953857421875,0.904449462890625,-0.4335479736328125
1789039838647995000,11.001994873046876,0.346221923828125,0.9381103515625,-0.3999786376953125
1789039838657939700,11.011939697265625,0.3235321044921875,0.886932373046875,-0.336029052734375
1789039838667883500,11.021883544921875,0.3150177001953125,0.8026275634765625,-0.3149871826171875
1789039838677827600,11.03182763671875,0.30108642578125,0.806732177734375,-0.2966156005859375
1789039838687771600,11.041771728515625,0.2943115234375,0.880767822265625,-0.26580810546875
1789039838697715700,11.0517158203125,0.273162841796875,0.8940582275390625,-0.3067474365234375
1789039838707659800,11.06165966796875,0.238067626953125,0.897247314453125,-0.382476806640625
1789039838717603600,11.071603515625,0.222503662109375,0.93927001953125,-0.457794189453125
1789039838727548700,11.081548583984375,0.29461669921875,0.95355224609375,-0.502777099609375
1789039838737492500,11.091492431640624,0.3975677490234375,0.8943328857421875,-0.458038330078125
1789039838747436800,11.101436767578125,0.479217529296875,0.7827606201171875,-0.4462127685546875
1789039838757380600,11.111380615234374,0.4597930908203125,0.75543212890625,-0.4630126953125
1789039838767324700,11.12132470703125,0.33978271484375,0.804779052734375,-0.54833984375
1789039838777268700,11.131268798828126,0.202545166015625,0.86444091796875,-0.5933074951171875
1789039838787212500,11.141212646484375,0.2515869140625,0.832366943359375,-0.562408447265625
1789039838797158000,11.151157958984374,0.429595947265625,0.689849853515625,-0.474517822265625
1789039838807101700,11.161101806640625,0.4544525146484375,0.525115966796875,-0.3455352783203125
1789039838817045800,11.171045654296876,0.3562469482421875,0.4720001220703125,-0.277496337890625
1789039838826989600,11.180989501953125,0.31292724609375,0.571746826171875,-0.309051513671875
1789039838836933600,11.19093359375,0.3529052734375,0.6213531494140625,-0.4048004150390625
1789039838846877700,11.200877685546875,0.23876953125,0.5282135009765625,-0.476318359375
1789039838856821800,11.21082177734375,0.1878814697265625,0.5764007568359375,-0.5246734619140625
1789039838866766600,11.2207666015625,0.23944091796875,0.6173248291015625,-0.50787353515625
1789039838876710700,11.230710693359375,0.29168701171875,0.53887939453125,-0.452606201171875
1789039838886654700,11.24065478515625,0.3916778564453125,0.47705078125,-0.4630889892578125
1789039838896598500,11.2505986328125,0.4774169921875,0.4842681884765625,-0.54742431640625
1789039838906542800,11.26054296875,0.442413330078125,0.5422821044921875,-0.660552978515625
1789039838916486700,11.270486572265625,0.3274993896484375,0.58056640625,-0.645538330078125
1789039838926431700,11.280431640625,0.3184051513671875,0.522430419921875,-0.5714263916015625
1789039838936375600,11.29037548828125,0.3687286376953125,0.5175933837890625,-0.5270233154296875
1789039838946319600,11.300319580078124,0.3824920654296875,0.5243682861328125,-0.5186614990234375
1789039838956263700,11.310263671875,0.3038482666015625,0.532196044921875,-0.4979705810546875
1789039838966207700,11.320207763671876,0.264862060546875,0.5108184814453125,-0.446075439453125
1789039838976151800,11.33015185546875,0.2269744873046875,0.4463348388671875,-0.4001617431640625
1789039838986095600,11.340095703125,0.2013092041015625,0.3714599609375,-0.386199951171875
1789039838996040700,11.350040771484375,0.2296905517578125,0.3444671630859375,-0.3747100830078125
1789039839005984800,11.35998486328125,0.26568603515625,0.3760986328125,-0.3596954345703125
1789039839015928800,11.3699287109375,0.271087646484375,0.420440673828125,-0.3306732177734375
1789039839025872600,11.37987255859375,0.2568206787109375,0.4842681884765625,-0.2874908447265625
1789039839035816700,11.389816650390625,0.2337799072265625,0.616912841796875,-0.257476806640625
1789039839045760500,11.399760498046875,0.1979217529296875,0.753692626953125,-0.2747802734375
1789039839055705900,11.409705810546875,0.2323760986328125,0.828338623046875,-0.3412017822265625
1789039839065649700,11.419649658203125,0.3264617919921875,0.866546630859375,-0.414764404296875
1789039839075593700,11.42959375,0.420623779296875,0.8827972412109375,-0.4358673095703125
1789039839085537800,11.439537841796875,0.4792327880859375,0.8932342529296875,-0.4231414794921875
1789039839095481600,11.449481689453124,0.5445098876953125,0.9013519287109375,-0.3903045654296875
1789039839105425700,11.45942578125,0.593963623046875,0.9224853515625,-0.37969970703125
1789039839115369500,11.469369384765624,0.569183349609375,0.94708251953125,-0.36724853515625
1789039839125314800,11.479314697265625,0.4258270263671875,0.9892730712890625,-0.3522796630859375
1789039839135258600,11.489258544921874,0.250762939453125,1.032623291015625,-0.3856048583984375
1789039839145202700,11.49920263671875,0.287261962890625,1.0277557373046875,-0.4300079345703125
1789039839155146500,11.509146484375,0.2672882080078125,1.032501220703125,-0.4970855712890625
1789039839165090600,11.519090576171875,0.2237701416015625,1.0614471435546875,-0.5517578125
1789039839175035000,11.529034912109376,0.2593536376953125,1.104278564453125,-0.551910400390625
1789039839184978700,11.538978759765625,0.2351531982421875,1.135467529296875,-0.522857666015625
1789039839194923500,11.548923583984376,0.182830810546875,1.1202392578125,-0.536376953125
1789039839204867600,11.55886767578125,0.2396697998046875,1.1016693115234375,-0.5598602294921875
1789039839214811600,11.568811767578126,0.2974090576171875,1.1168365478515625,-0.557403564453125
1789039839224755700,11.578755615234375,0.2310638427734375,1.1045989990234375,-0.5206756591796875
1789039839234699800,11.58869970703125,0.17645263671875,1.055145263671875,-0.4223785400390625
1789039839244643600,11.5986435546875,0.21038818359375,1.044708251953125,-0.34454345703125
1789039839254588700,11.608588623046876,0.265960693359375,1.05682373046875,-0.298797607421875
1789039839264532500,11.618532470703125,0.2130889892578125,1.0226287841796875,-0.275177001953125
1789039839274476800,11.628476806640625,0.1640472412109375,0.9983673095703125,-0.264312744140625
1789039839284420600,11.638420654296874,0.2247467041015625,1.0271759033203125,-0.326904296875
1789039839294364700,11.64836474609375,0.3011016845703125,1.0765380859375,-0.35516357421875
1789039839304308700,11.658308837890624,0.2903594970703125,1.1074981689453125,-0.3267059326171875
1789039839314252500,11.66825244140625,0.2027587890625,1.1211700439453125,-0.27398681640625
1789039839324198000,11.678197998046874,0.2120819091796875,1.0874176025390625,-0.20513916015625
1789039839334141700,11.6881416015625,0.2717132568359375,1.0636749267578125,-0.2048187255859375
1789039839344085800,11.698085693359374,0.2493438720703125,1.0694732666015625,-0.2657470703125
1789039839354029600,11.708029541015625,0.122528076171875,1.054656982421875,-0.2027587890625
1789039839363973600,11.7179736328125,0.1025848388671875,1.01397705078125,-0.1186676025390625
1789039839373917700,11.727917724609375,0.2389984130859375,1.011627197265625,-0.1428985595703125
1789039839383861800,11.73786181640625,0.361358642578125,1.0781097412109375,-0.252777099609375
1789039839393806600,11.747806640625,0.249298095703125,1.117919921875,-0.236968994140625
1789039839403750700,11.757750732421876,0.109771728515625,1.0532684326171875,-0.0936737060546875
1789039839413694700,11.76769482421875,0.1891937255859375,0.98529052734375,-0.0366058349609375
1789039839423638500,11.777638427734376,0.3269805908203125,0.9676513671875,-0.14727783203125
1789039839433582800,11.787582763671875,0.355224609375,0.990478515625,-0.29632568359375
1789039839443526700,11.797526611328125,0.2553863525390625,0.9873809814453125,-0.2569580078125
1789039839453471700,11.8074716796875,0.2725372314453125,0.9650421142578125,-0.180328369140625
1789039839463415600,11.81741552734375,0.3284912109375,0.995208740234375,-0.3040771484375
1789039839473359600,11.827359619140625,0.3229827880859375,1.024444580078125,-0.4149017333984375
1789039839483303700,11.8373037109375,0.2330322265625,1.02734375,-0.370269775390625
1789039839493247700,11.847247802734374,0.068939208984375,1.040374755859375,-0.2234039306640625
1789039839503191800,11.85719189453125,0.01165771484375,1.07281494140625,-0.1441192626953125
1789039839513135600,11.867135498046874,0.0759429931640625,1.0745086669921875,-0.167327880859375
1789039839523080700,11.877080810546875,0.0875701904296875,1.1091766357421875,-0.1403045654296875
1789039839533024800,11.887024658203124,0.0943145751953125,1.143646240234375,-0.07391357421875
1789039839542968800,11.89696875,0.1189422607421875,1.0955810546875,-0.043212890625
1789039839552912600,11.90691259765625,0.157501220703125,1.0499420166015625,-0.083648681640625
1789039839562856700,11.916856689453125,0.2317352294921875,1.01123046875,-0.1763763427734375
1789039839572800500,11.926800537109376,0.27484130859375,0.9879302978515625,-0.2332611083984375
1789039839582745600,11.93674560546875,0.2801513671875,0.9575958251953125,-0.2711181640625
1789039839592689700,11.946689697265626,0.309051513671875,0.932708740234375,-0.349822998046875
1789039839602633700,11.9566337890625,0.3027496337890625,0.9383697509765625,-0.4154052734375
1789039839612577800,11.966577880859376,0.287322998046875,0.956298828125,-0.4473114013671875
1789039839622521600,11.976521484375,0.33251953125,0.9786224365234375,-0.49139404296875
1789039839632465700,11.986465576171875,0.3236846923828125,1.0087127685546875,-0.4987640380859375
1789039839642409500,11.996409423828124,0.26123046875,1.017181396484375,-0.496063232421875
1789039839652354800,12.006354736328126,0.2123260498046875,0.9897613525390625,-0.553741455078125
1789039839662298600,12.016298583984375,0.166229248046875,0.96038818359375,-0.630126953125
1789039839672242700,12.02624267578125,0.1389617919921875,0.9615020751953125,-0.630828857421875
1789039839682186500,12.0361865234375,0.15020751953125,0.967803955078125,-0.580841064453125
1789039839692130600,12.046130615234375,0.1923370361328125,0.9521026611328125,-0.5352935791015625
1789039839702074600,12.05607470703125,0.239501953125,0.9222869873046875,-0.4235382080078125
1789039839712019700,12.066019775390625,0.3142242431640625,0.87420654296875,-0.32098388671875
1789039839721963500,12.075963623046874,0.3897552490234375,0.856689453125,-0.291259765625
1789039839731907600,12.085907470703125,0.411102294921875,0.895751953125,-0.3283233642578125
1789039839741851600,12.0958515625,0.382598876953125,0.95166015625,-0.38055419921875
1789039839751795500,12.10579541015625,0.349578857421875,0.9951629638671875,-0.4806060791015625
1789039839761739800,12.11573974609375,0.323272705078125,1.01312255859375,-0.5915069580078125
1789039839771683600,12.12568359375,0.2844390869140625,1.0222930908203125,-0.6210479736328125
1789039839781628700,12.135628662109376,0.2458648681640625,1.007598876953125,-0.5691680908203125
1789039839791572500,12.145572509765625,0.23248291015625,0.9541015625,-0.4957122802734375
1789039839801516500,12.1555166015625,0.2342987060546875,0.8561859130859375,-0.423675537109375
1789039839811460600,12.165460693359375,0.2684173583984375,0.668609619140625,-0.359130859375
1789039839821404700,12.17540478515625,0.3059539794921875,0.5048828125,-0.29779052734375
1789039839831348700,12.1853486328125,0.3342742919921875,0.45489501953125,-0.2873077392578125
1789039839841293600,12.19529345703125,0.3093109130859375,0.4468536376953125,-0.2978515625
1789039839851237600,12.205237548828125,0.2584075927734375,0.62884521484375,-0.34246826171875
1789039839861181700,12.215181640625,0.2937469482421875,0.8984375,-0.44757080078125
1789039839871125800,12.225125732421875,0.297943115234375,0.96868896484375,-0.49462890625
1789039839881069600,12.235069580078125,0.2817230224609375,0.977874755859375,-0.54534912109375
1789039839891013600,12.245013671875,0.30914306640625,0.891815185546875,-0.449615478515625
1789039839900957700,12.254957763671875,0.33990478515625,0.7669677734375,-0.392822265625
1789039839910902800,12.26490283203125,0.349365234375,0.72637939453125,-0.3707275390625
1789039839920846600,12.2748466796875,0.327178955078125,0.7723846435546875,-0.397552490234375
1789039839930790700,12.284790771484374,0.2812347412109375,0.8338775634765625,-0.4710540771484375
1789039839940734700,12.294734619140625,0.237640380859375,0.89453125,-0.523345947265625
1789039839950678500,12.304678466796876,0.206573486328125,0.907562255859375,-0.515625
1789039839960622600,12.31462255859375,0.17169189453125,0.8743133544921875,-0.52984619140625
1789039839970567700,12.324567626953124,0.129486083984375,0.8666839599609375,-0.570159912109375
1789039839980511700,12.33451171875,0.1848602294921875,0.8848724365234375,-0.5897979736328125
1789039839990455600,12.34445556640625,0.22918701171875,0.852325439453125,-0.563934326171875
1789039840000399600,12.354399658203125,0.3358306884765625,0.76593017578125,-0.432342529296875
1789039840010343400,12.364343505859376,0.436279296875,0.6416168212890625,-0.333709716796875
1789039840020287700,12.374287841796875,0.308074951171875,0.6092376708984375,-0.389617919921875
1789039840030231800,12.384231689453125,0.2411956787109375,0.593658447265625,-0.4436187744140625
1789039840040176600,12.3941767578125,0.2553253173828125,0.5441436767578125,-0.426239013671875
1789039840050120700,12.40412060546875,0.29376220703125,0.524017333984375,-0.4031524658203125
1789039840060064500,12.414064453125,0.283935546875,0.522613525390625,-0.41925048828125
1789039840070008600,12.424008544921875,0.24066162109375,0.6154937744140625,-0.4390716552734375
1789039840079952600,12.43395263671875,0.2612152099609375,0.62298583984375,-0.3986053466796875
1789039840089896700,12.443896728515625,0.339569091796875,0.539306640625,-0.3457489013671875
1789039840099841500,12.453841552734374,0.4129791259765625,0.4925384521484375,-0.318145751953125
1789039840109785600,12.46378564453125,0.3978424072265625,0.484161376953125,-0.3384857177734375
1789039840119729400,12.4737294921875,0.37615966796875,0.5216064453125,-0.34637451171875
1789039840129673700,12.483673828125,0.3397674560546875,0.4982147216796875,-0.298858642578125
1789039840139617800,12.49361767578125,0.3501739501953125,0.45135498046875,-0.286407470703125
1789039840149561600,12.5035615234375,0.3512725830078125,0.51336669921875,-0.335845947265625
1789039840159506400,12.51350634765625,0.29705810546875,0.5654449462890625,-0.381256103515625
1789039840169450500,12.523450439453125,0.2695159912109375,0.6213531494140625,-0.4091949462890625
1789039840179394800,12.533394775390626,0.264984130859375,0.5804443359375,-0.37969970703125
1789039840189338600,12.543338623046875,0.29327392578125,0.5445709228515625,-0.3687744140625
1789039840199282700,12.55328271484375,0.310089111328125,0.5675201416015625,-0.4332733154296875
1789039840209226500,12.5632265625,0.2933197021484375,0.631622314453125,-0.487457275390625
1789039840219170600,12.573170654296876,0.26812744140625,0.668426513671875,-0.4773712158203125
1789039840229115600,12.58311572265625,0.24188232421875,0.681396484375,-0.4288177490234375
1789039840239059700,12.593059814453126,0.2444610595703125,0.7017059326171875,-0.4371490478515625
1789039840249003800,12.603003662109375,0.3218231201171875,0.7285614013671875,-0.493377685546875
1789039840258947600,12.612947509765625,0.343414306640625,0.74737548828125,-0.533203125
1789039840268891600,12.6228916015625,0.333465576171875,0.824981689453125,-0.570770263671875
1789039840278835500,12.63283544921875,0.361083984375,0.9070587158203125,-0.553466796875
1789039840288780800,12.64278076171875,0.3271636962890625,0.9511566162109375,-0.559783935546875
1789039840298724600,12.652724609375,0.2405548095703125,1.0024566650390625,-0.5956268310546875
1789039840308668700,12.662668701171874,0.1548004150390625,1.019073486328125,-0.6331024169921875
1789039840318612500,12.672612548828125,0.2904815673828125,1.01666259765625,-0.6335906982421875
1789039840328556500,12.682556640625,0.369964599609375,1.00701904296875,-0.5702972412109375
1789039840338500900,12.6925009765625,0.405426025390625,1.0020294189453125,-0.505767822265625
1789039840348444700,12.702444580078126,0.38861083984375,0.9935150146484375,-0.4730072021484375
1789039840358389500,12.712389404296875,0.3424072265625,0.97052001953125,-0.4528350830078125
1789039840368333600,12.72233349609375,0.2703399658203125,0.92083740234375,-0.463470458984375
1789039840378277600,12.732277587890625,0.1879425048828125,0.8826141357421875,-0.4276123046875
1789039840388221700,12.7422216796875,0.281158447265625,0.892974853515625,-0.40631103515625
1789039840398165800,12.752165771484375,0.3653564453125,0.920013427734375,-0.465484619140625
1789039840408109600,12.762109619140626,0.287322998046875,0.985443115234375,-0.5081634521484375
1789039840418054700,12.7720546875,0.195526123046875,1.052581787109375,-0.5245513916015625
1789039840427998500,12.78199853515625,0.1544189453125,1.0911102294921875,-0.5405426025390625
1789039840437942800,12.79194287109375,0.255401611328125,1.1165008544921875,-0.53985595703125
1789039840447886600,12.801886474609375,0.2984466552734375,1.07623291015625,-0.492919921875
1789039840457830700,12.81183056640625,0.18939208984375,1.019256591796875,-0.4002227783203125
1789039840467774700,12.821774658203125,0.1831817626953125,0.9949188232421875,-0.30169677734375
1789039840477719600,12.831719482421875,0.27069091796875,1.013031005859375,-0.20989990234375
1789039840487663900,12.841663818359375,0.260528564453125,1.022216796875,-0.17938232421875
1789039840497607700,12.851607666015624,0.14892578125,1.027435302734375,-0.1915130615234375
1789039840507551700,12.8615517578125,0.20294189453125,1.030609130859375,-0.2199249267578125
1789039840517495600,12.87149560546875,0.3145294189453125,1.02313232421875,-0.250885009765625
1789039840527439600,12.881439697265625,0.2956390380859375,0.993194580078125,-0.333526611328125
1789039840537384700,12.891384765625,0.184478759765625,0.971832275390625,-0.3448638916015625
1789039840547328800,12.901328857421875,0.101226806640625,0.9933929443359375,-0.2630615234375
1789039840557272600,12.9112724609375,0.121856689453125,1.01934814453125,-0.1810302734375
1789039840567215900,12.9212158203125,0.1966705322265625,1.045745849609375,-0.13037109375
1789039840577160000,12.931159912109376,0.1783905029296875,1.0714874267578125,-0.0965576171875
1789039840587103700,12.941103759765625,0.1744842529296875,1.0619964599609375,-0.0170745849609375
1789039840597047800,12.9510478515625,0.250946044921875,1.0472259521484375,-0.01849365234375
