time,seconds_elapsed,z,y,x
1789039827716940000,0.07093994140625,0.5423322687327862,0.42177112185359,0.307238295353204
1789039827726884000,0.080884033203125,0.7167799041002988,0.35784546990990634,0.45558958562947804
1789039827736828200,0.090828125,0.8297305759757757,0.20687135684937238,0.4496255991911515
1789039827746772000,0.10077197265625,0.7122557046741247,0.10948445706963539,0.34487164124213154
1789039827756716000,0.110716064453125,0.3756242877066135,0.04600976376384496,0.17210611374266443
1789039827766660000,0.12066015625,-0.10131225652992724,0.016785715106129646,0.07456387727074325
1789039827776604000,0.13060400390625,-0.5616407803148031,0.0512257448464632,0.1167315786536783
1789039827786548000,0.1405478515625,-0.7938035225480794,0.12316343833208084,0.19405600667893885
1789039827796492000,0.150491943359375,-0.8417512686371803,0.1692494822025299,0.21514383942577986
1789039827806436000,0.16043603515625,-0.8613964648276567,0.12608137160539626,0.17821845914311707
1789039827816380000,0.1703798828125,-0.8368477145045995,0.08352174829542637,0.10245324325859546
1789039827826324000,0.180323974609375,-0.6388397553294897,0.06455810462832451,0.07337152568101883
1789039827836268800,0.190268798828125,-0.34135552287995813,0.030749066267907618,0.023484883951209484
1789039827846213000,0.200213134765625,0.040438393372297286,-0.037243688984215255,-0.07186360533609985
1789039827856157200,0.2101572265625,0.4254530252367258,-0.08858487690389155,-0.19133830868545917
1789039827866101000,0.22010107421875,0.6288584595412016,-0.10457885711044072,-0.22003329196777194
1789039827876045000,0.230045166015625,0.3722229548305273,0.06480798773616551,-0.0862480679867789
1789039827885988900,0.23998876953125,-0.1522048238992691,0.20770839219540357,-0.03570639641433954
1789039827895933000,0.249932861328125,-0.5818769281357526,0.2224909507855773,-0.012638970690220594
1789039827905877000,0.259876953125,-0.9552630815267562,0.34329788911938663,-0.10901314976345747
1789039827915821000,0.269821044921875,-1.2123077515602112,0.3116305389627814,-0.3897848419409245
1789039827925765000,0.27976513671875,-0.8965794218897819,0.2914996050819754,-0.5455992711720988
1789039827935709000,0.289708984375,-0.24564357057511804,0.18430384347140788,-0.5713054479019716
1789039827945653000,0.299653076171875,0.6692886696070433,-0.11122633230090141,-0.6139723675113171
1789039827955596800,0.3095966796875,1.6330390089720486,0.3723176473766565,-0.3541949845783412
1789039827965541000,0.319541015625,2.46861480384469,1.2746987412825226,-0.028226927379146217
1789039827975485200,0.329485107421875,2.1844109087288377,-1.3030802016362548,-0.5456207888841629
1789039827985429000,0.339428955078125,1.0895125620186328,-0.8891507331937551,-0.5407210706764832
1789039827995373000,0.349373046875,0.4375643187910318,0.44014147580265994,-1.0619316774580627
1789039828005316900,0.35931689453125,-0.14314941078424454,0.6570069879218936,-1.36948787965402
1789039828015261000,0.369260986328125,-0.6792670427858829,3.2336656946390865,-3.931865693692863
1789039828025205000,0.379205078125,-1.0658885253250598,2.3249428304910658,-2.363461215586215
1789039828035149000,0.389149169921875,1.4840893874764443,3.0335324138730764,0.3431342960555106
1789039828045094000,0.399093994140625,2.5005039800584314,0.5030418763518333,0.5885628356404602
1789039828055038000,0.409037841796875,1.7355384294599294,-2.095867240618169,0.9086884504217654
1789039828064982000,0.41898193359375,1.8589958823025226,-2.38188315359205,1.2412401237949728
1789039828074925800,0.42892578125,1.68410050316751,-1.7438596830815076,1.4217651793800294
1789039828084870100,0.4388701171875,1.3373130183666944,-1.4811512881979345,1.4786619556002318
1789039828094814000,0.44881396484375,0.44698739617466926,-0.7712766334414481,1.2838026697143912
1789039828104758000,0.458758056640625,-1.6417320185154676,0.454337758937478,1.2692654641874135
1789039828114702000,0.4687021484375,-3.9206197847962376,0.45625031456053255,1.3192675124578177
1789039828124646000,0.47864599609375,-2.9957027416944504,0.8099801658451556,0.7269830259457231
1789039828134590000,0.48858984375,-1.690579343792796,1.2298486689478159,-0.27686551505178214
1789039828144534000,0.498533935546875,-0.5330886395692825,1.0976078979298471,-1.388446701015532
1789039828154478000,0.50847802734375,0.2393453472137451,0.6971694869622588,-2.1339447500780224
1789039828164422100,0.518422119140625,0.42324528605937956,0.252993641076982,-2.3316541646979747
1789039828174366000,0.528365966796875,0.6729957074314356,-0.24206541982740162,-2.2078654340744017
1789039828184310000,0.53831005859375,0.33086627756953235,-0.4482061243146658,-2.1911687124259767
1789039828194253800,0.54825390625,0.08504208973050117,-0.6058166066497565,-1.6469541370779275
1789039828204198100,0.5581982421875,-0.13313538177013395,-1.6335764768496155,1.5033175272986292
1789039828214142200,0.56814208984375,0.283646845754981,-2.406993044929206,5.497567488712072
1789039828224086000,0.5780859375,1.1283441047161817,-0.5699716785475611,4.686705571596324
1789039828234030000,0.588030029296875,0.9356056103765964,1.5525082591861485,2.34306359359324
1789039828243975000,0.597974853515625,0.016191256344318387,1.5030197133958338,1.6904804134629665
1789039828253919200,0.607919189453125,-0.8925281006723642,0.6588909019723534,1.485604175953567
1789039828263863000,0.617863037109375,-0.8334931433796882,0.3593254793345928,1.088752975822985
1789039828273807000,0.62780712890625,0.20323650747835634,0.23765374086499214,0.6120056705482304
1789039828283751000,0.6377509765625,1.3325479959219693,0.10347235717326402,0.08119590829689986
1789039828293695000,0.647695068359375,1.6909440854519604,-0.027549393443763254,-0.3506553392101079
1789039828303639000,0.65763916015625,1.8400170410662888,0.0461214074447751,-0.42519415510483083
1789039828313582800,0.667582763671875,1.931267922309041,0.34958149943351746,-0.0038837278318591415
1789039828323527200,0.677527099609375,0.9993120666116475,0.6637608460962772,0.6039707230547443
1789039828333471000,0.687470947265625,-0.47857495909333225,0.9230158856555819,1.1062821297075598
1789039828343415000,0.6974150390625,-1.0943617556154728,0.7832780368804931,0.8550365744069218
1789039828353359000,0.707359130859375,-1.240980888336897,0.8040528216227889,-0.405819154157862
1789039828363303000,0.717302978515625,-1.4271774136871098,0.825947842566669,-1.1283797605514525
1789039828373247000,0.7272470703125,-0.8330658578783273,0.3466451537206769,-1.3122718083515763
1789039828383191000,0.73719091796875,0.1495639540016651,-0.08430968380272388,-1.1262335423029959
1789039828393135000,0.747135009765625,0.9460492629796265,-0.11928396655023098,-0.697103362923488
1789039828403079000,0.757078857421875,1.1522662475734948,0.012621873424947262,-0.3329597427174449
1789039828413023000,0.76702294921875,0.6929442704826593,0.0828407802939415,0.16490193625120445
1789039828422967000,0.776967041015625,0.7106868479222059,-0.16971213127821683,0.721050055700168
1789039828432912100,0.786912109375,0.9850707752913236,-0.42920419446378943,0.8817876570798456
1789039828442856200,0.796856201171875,0.9904027839690446,-0.3527940317392349,0.4274804394111037
1789039828452800000,0.806800048828125,0.7077578087329864,-0.29151246456354857,-0.20253526387382298
1789039828462744000,0.816744140625,-0.16864216395914552,-0.25004239005595447,-0.7810028584901243
1789039828472687900,0.82668798828125,-1.3010241458892822,-0.22418051130771635,-0.4171137245018035
1789039828482632000,0.8366318359375,-1.3958067083895205,-0.24484160654246806,-0.5359624779725447
1789039828492576000,0.846575927734375,-0.808392604392767,-0.19222119246721267,-1.7067887203156946
1789039828502520000,0.85652001953125,-0.5319342088371515,-0.3846563199460506,-2.4941493503347036
1789039828512464100,0.866464111328125,0.2592804662615061,-0.175415019094944,-4.3163647772505875
1789039828522408000,0.876407958984375,0.9622463645428418,-0.12685294049978255,-5.774623265638947
1789039828532352000,0.88635205078125,1.0991612648516893,-1.666143990716338,-3.0928686921998856
1789039828542295800,0.8962958984375,1.277749068763852,-1.5917282166793942,1.31817664848119
1789039828552239900,0.906239990234375,1.9282740011900663,-1.5338149568930268,8.166381624296307
1789039828562184400,0.916184326171875,0.17531097419857977,-0.15199118114858864,8.823308240458369
1789039828572128300,0.926128173828125,0.11894435933232307,2.529694126446545,2.125343802732229
1789039828582072600,0.936072509765625,-2.503334235048294,1.0493632147207856,-0.4978974992007017
1789039828592016400,0.946016357421875,-3.840821440938115,-0.6973351989179849,-1.2083024614416062
1789039828601960400,0.95596044921875,-2.506765378540754,0.017993921852111815,-1.1098998087480663
1789039828611905300,0.9659052734375,-1.038209660282731,0.27532413082867857,-0.29204014169946313
1789039828621849300,0.975849365234375,-0.234735223069787,0.15316460884213445,0.7662738567180931
1789039828631793400,0.98579345703125,0.35429566847383975,0.11021510943174362,0.9668177641116082
1789039828641737500,0.995737548828125,0.14779869789481162,0.333517084339261,0.15193258282914757
1789039828651681500,1.005681640625,-1.1042939515650272,0.2963309707611799,-0.3844138894923031
1789039828661625300,1.015625244140625,-1.3693781356692314,0.5242664506882428,-0.37778950291648505
1789039828671569400,1.0255693359375,-0.6350356868714094,0.6147121530279517,0.05635229407995939
1789039828681513200,1.03551318359375,0.13062369121015072,0.30571283935159443,0.6638224400904029
1789039828691457300,1.045457275390625,0.6918254955857992,-0.0036480011135339736,0.48007286950089034
1789039828701401600,1.055401611328125,0.9789537537157535,-0.3977259371384978,0.09441555581875145
1789039828711345400,1.065345458984375,0.9783674782603978,-0.5766124317362904,-0.11221154394596815
1789039828721289500,1.07528955078125,0.6122983698844909,-0.12551029371917247,0.1598258202970028
1789039828731233300,1.0852333984375,-0.1435042155712843,0.6036565060064196,0.4777786210838705
1789039828741177300,1.09517724609375,-0.8176181133776903,0.720375298243761,0.3081024379018694
1789039828751121400,1.105121337890625,-0.6920616424292325,0.4404886818051338,0.08418079672604799
1789039828761065500,1.1150654296875,0.15141396578252314,0.13665274224132298,-0.2704893310833722
1789039828771009500,1.125009521484375,0.6143909582495689,0.1967667269423604,0.00539389493279159
1789039828780954400,1.134954345703125,0.48358606525361536,0.012943068203330039,0.10822532385401427
1789039828790898400,1.1448984375,0.26920564794838425,-0.04586538685709238,0.01843647798784077
1789039828800842200,1.15484228515625,-0.16971008545160293,0.08710165260881185,-0.2736776787959039
1789039828810786600,1.16478662109375,-0.5795797571092843,0.34734219607412814,-0.17404899143874644
1789039828820730400,1.17473046875,-0.5322492661356926,0.5032379834458232,0.5516348615419119
1789039828830674400,1.18467431640625,-0.6572276449352502,0.36079672093093396,0.8947484070703386
1789039828840618500,1.194618408203125,-0.9559767827540635,0.1499567527115345,0.5449194356817751
1789039828850562300,1.204562255859375,-0.5699474208891392,-0.03420154480934143,0.32486060741394757
1789039828860506400,1.21450634765625,-0.16754384732842445,-0.12289777313321829,0.277285859355703
1789039828870450400,1.224450439453125,0.20761925260722636,-0.20753975763022897,0.15265022957921026
1789039828880394500,1.23439453125,0.4526227717131376,-0.2537278005704284,-0.035954599021747705
1789039828890338300,1.24433837890625,0.604405570808053,-0.31714754881858825,-0.18721074389405548
1789039828900282400,1.254282470703125,0.49892158155143257,-0.0936766470849514,-0.35898273031152783
1789039828910226400,1.264226318359375,0.24734628283977508,0.14332798222154378,-0.01838555151820183
1789039828920170200,1.274170166015625,0.2294377011835575,0.4149006515622139,0.826075414469093
1789039828930114300,1.2841142578125,0.09371931718289851,0.7029790500238537,0.9490224335715174
1789039828940058400,1.294058349609375,0.05168108739852905,0.5639361977756023,0.5379794803507626
1789039828950003500,1.30400341796875,0.6962479882031679,0.2712304317742586,0.23289310233443974
1789039828959947300,1.313947265625,1.372166889604926,-0.010981705002486705,-0.04834251756034791
1789039828969891300,1.323891357421875,1.4282406590044499,-0.4270125296384096,-0.6742717917818576
1789039828979835400,1.33383544921875,0.9459364502549171,-0.43468467170149083,-1.197824833503738
1789039828989779500,1.343779541015625,0.5782979006052017,-0.19410802912712097,-1.1643130245242268
1789039828999723500,1.3537236328125,0.5417191052705049,-0.11833061134815215,-0.6958883611105382
1789039829009667300,1.363667236328125,0.4095663047969341,-0.03001958294957876,-0.21098631788752972
1789039829019611400,1.373611328125,0.2084317380338907,0.1813517156675458,0.6155563487671315
1789039829029555200,1.38355517578125,0.3134796739608049,0.46827626791894433,1.0661704110063612
1789039829039499300,1.393499267578125,0.05579144532680511,0.5528104081273079,1.2102113638028502
1789039829049443600,1.403443603515625,-0.44941433106064793,0.37695173691809175,0.6687566085569561
1789039829059387400,1.413387451171875,-0.8013619751036166,0.47735418512672184,-0.030403540765866634
1789039829069331500,1.42333154296875,-0.7041711824178696,0.3682981826022267,-0.2722087022218853
1789039829079275300,1.433275146484375,-0.09040215545892714,0.06621902357786894,-0.7443485867664218
1789039829089219300,1.44321923828125,0.6152583887338638,0.06369681162387132,-0.2799845238551497
1789039829099163400,1.453163330078125,0.8087912483215332,0.5940346911802887,0.7942270817223935
1789039829109107500,1.463107421875,0.8410060032278299,1.1271616169333458,0.8037908096857368
1789039829119052300,1.47305224609375,0.8685451675385236,1.380358087106049,0.9394646238923072
1789039829128996400,1.482996337890625,1.0994856745004653,1.6079136278048156,1.5983584484741091
1789039829138940400,1.4929404296875,1.9806950933009384,1.9119842529073356,2.095036050491035
1789039829148884200,1.50288427734375,2.661518133357167,2.610279529029131,2.7386124789535997
1789039829158828500,1.51282861328125,3.449171901103854,2.4310139719858763,3.5023271527081725
1789039829168772400,1.5227724609375,4.876628716254234,3.1136338323310015,3.169628106753528
1789039829178716400,1.53271630859375,5.256294388306141,2.0921981967166063,1.471719881377369
1789039829188660500,1.542660400390625,5.584153885275125,0.7296393856734037,0.5144511591166258
1789039829198604300,1.552604248046875,6.501566836357116,0.3187491387963295,-1.5238900674670934
1789039829208548400,1.56254833984375,7.043315752243995,0.6313090675637125,-0.15212065274715422
1789039829218492200,1.5724921875,6.843474732422829,1.913361678740382,1.9294521050587294
1789039829228436500,1.5824365234375,6.438548362386226,2.90619227437824,4.760008415955305
1789039829238380500,1.592380615234375,5.931975389298796,4.092800644275546,6.779738465571403
1789039829248324400,1.602324462890625,5.289740146312117,5.215499436581134,7.403874572765827
1789039829258268400,1.612268310546875,6.34863077557385,4.697223458479344,6.853516818487644
1789039829268212200,1.622212158203125,8.986580401816964,3.52835795828253,4.652203874796629
1789039829278157600,1.632157470703125,11.228459749174117,2.672616742737591,-1.4105863443702458
1789039829288101400,1.642101318359375,11.63331013136506,1.9483707405403254,-3.46063086822927
1789039829298045400,1.65204541015625,9.526683888584374,2.6549042681753634,-3.345432125166058
1789039829307989200,1.6619892578125,6.845749691617488,5.410114830708503,-2.0731267087608574
1789039829317933300,1.671933349609375,4.242256461727619,6.819344499772787,-0.1515939985245466
1789039829327877400,1.68187744140625,1.9246236619889736,6.722099931073188,2.382281505259871
1789039829337821400,1.691821533203125,-0.6874597015917301,9.91569606565237,5.893315111514926
1789039829347765500,1.701765625,-3.6444279312223196,10.39908397798538,4.771728079843521
1789039829357709300,1.711709228515625,-5.318578702783585,8.9694112403512,5.656252906802297
1789039829367653400,1.7216533203125,-4.951159933364391,10.025491488367319,4.9833460466980934
1789039829377597400,1.731597412109375,-4.809563889501988,11.621782190656662,2.074547096952796
1789039829387541200,1.741541259765625,-5.049845933043956,10.240026219451426,-0.9132920717597007
1789039829397485600,1.751485595703125,-3.8064223277300595,8.331286939814687,-2.6567788298755883
1789039829407429400,1.761429443359375,-1.79228907520771,7.877752313953637,-3.6918829253584144
1789039829417373400,1.77137353515625,0.4816459640365094,8.100399624344705,-4.128464662852883
1789039829427318300,1.781318359375,1.2649474548578261,8.346450606676935,-4.4823780540108675
1789039829437262300,1.791262451171875,0.4842197235146537,7.507156668063998,-6.276186886131763
1789039829447206400,1.801206298828125,-1.500289411649108,6.569506400117278,-9.604377369117737
1789039829457150500,1.811150390625,-2.6223335394382477,5.3471787743240595,-11.478991676312685
1789039829467094500,1.821094482421875,-1.7430442750453947,4.142072916966677,-10.292771136689186
1789039829477038300,1.831038330078125,-0.10667641391158103,3.9440117662996053,-8.84581759390831
1789039829486982400,1.840982421875,1.0141595071315765,3.0847838776826855,-8.715667949950694
1789039829496926200,1.85092626953125,1.9571289242744445,0.9533870585218072,-9.352353742116689
1789039829506870300,1.860870361328125,3.197699478244781,0.14787527026236055,-9.915952086240052
1789039829516814600,1.870814697265625,3.548829960685968,-0.22626579314917325,-11.296533168447016
1789039829526758400,1.88075830078125,4.17977691693902,-1.442790870143473,-11.321038664150237
1789039829536702500,1.890702392578125,3.6701065623581406,-5.171821622896194,-10.601436103844643
1789039829546646300,1.900646240234375,-2.9366730450987815,-19.623007739543915,-25.737833850896358
1789039829556590600,1.910590576171875,-1.546317587852478,-27.089332631003856,-46.54268639919758
1789039829566534400,1.920534423828125,10.439121389341354,-35.459445268297195,-39.50842839815616
1789039829576478500,1.930478515625,8.815176956450939,-20.16304517533779,-22.310962044405937
1789039829586423600,1.940423583984375,6.776493200039863,4.9511920820683235,-9.993105468547343
1789039829596367600,1.95036767578125,13.718491435056924,10.89368652729392,1.2271809110432863
1789039829606311700,1.960311767578125,17.652696677613257,8.644221254852413,14.82604935685396
1789039829616255500,1.97025537109375,3.80218746663928,8.455178107899426,16.834371877270936
1789039829626199600,1.980199462890625,-9.459362164461613,13.018312537145613,9.776858672848343
1789039829636143400,1.990143310546875,-4.7372120622575284,12.608182753247021,5.2438060781329865
1789039829646087700,2.000087646484375,0.8678830503679812,5.624028799545765,3.4242326901584863
1789039829656031500,2.010031494140625,7.6819947640538215,1.1695663419425486,0.0051209962755441665
1789039829665975600,2.0199755859375,7.046793657487631,4.5888560227409005,-2.6708962025552987
1789039829675919600,2.029919677734375,3.5648388462007046,3.9717937994554635,-0.06200023683905601
1789039829685863400,2.039863525390625,3.887171104180813,2.92566211400181,0.04319324503839016
1789039829695807500,2.049807373046875,2.0329484276294707,5.366770779022574,-2.4028671971708535
1789039829705751600,2.05975146484375,-3.1240017893493173,5.95130845080018,-6.680266868472099
1789039829715695600,2.069695556640625,-6.337766267210244,4.227534401153028,-9.873646729952096
1789039829725640400,2.079640380859375,-6.807899561172723,2.0390198564976454,-6.565503009694814
1789039829735584500,2.08958447265625,-9.196443049436807,1.622956006374955,-4.117425966966152
1789039829745528600,2.099528564453125,-4.437444687306881,-0.8796469917893409,-0.29467794285714627
1789039829755472600,2.10947265625,0.6161212161082774,-3.0832030382320283,0.3215104202032089
1789039829765416700,2.119416748046875,-0.14169862745404244,-3.432662372590601,-3.6318069345802066
1789039829775360500,2.129360595703125,0.7403671159148216,-0.40304800894409415,-1.152167463374138
1789039829785304600,2.1393046875,2.3163491896688937,-1.10159375269562,0.8020248229265212
1789039829795248400,2.149248291015625,2.3603601808309556,-4.715585921382904,1.546177887120843
1789039829805192400,2.1591923828125,2.2137081687532363,-5.842741693097353,4.261149962767958
1789039829815136500,2.169136474609375,-2.178971201892942,-8.905064732646942,7.723378913843631
1789039829825080600,2.17908056640625,0.399419004791975,-6.367083547109365,10.05906058049202
1789039829835024600,2.189024658203125,1.3300059102237223,-6.135438106748461,3.8435184249371286
1789039829844968400,2.198968505859375,-0.3159071933686733,-4.958838212907314,-0.7084352696031332
1789039829854912500,2.20891259765625,-8.979641542464494,-5.143049117398261,-3.7520921871274706
1789039829864856600,2.218856689453125,0.6477227344870566,-8.240802951291203,4.341692402991653
1789039829874801700,2.2288017578125,9.064848467367886,-8.77371623429358,7.888311701890826
1789039829884745500,2.238745361328125,4.13100791759491,-5.738835912942886,4.08031467218995
1789039829894689500,2.248689453125,1.0487515856284648,-2.2453528686866164,3.926352190968394
1789039829904633600,2.258633544921875,-2.353663313540816,-2.293756249588728,4.8864855088800185
1789039829914577400,2.268577392578125,-2.123618294113874,-1.9021563941150903,4.136816896134615
1789039829924521500,2.278521484375,-1.3403057704418897,0.5893430262327194,5.399393530207872
1789039829934465500,2.288465576171875,-1.0331839410752057,1.7043477569043635,7.136848022422194
1789039829944409600,2.29840966796875,0.9515548746585846,1.4516431619018315,6.42983197196722
1789039829954353700,2.308353759765625,3.012989976581931,0.19580021999776362,4.241875353455543
1789039829964297500,2.31829736328125,5.164934785991907,-1.7165245169103145,3.9557939740300174
1789039829974241500,2.328241455078125,6.604782880681753,-2.7485440903812646,3.2911399784862994
1789039829984185300,2.338185302734375,5.33195782431662,-1.7428075436800716,2.5547476114213463
1789039829994129700,2.348129638671875,3.3313504083216188,-0.8540724055498838,0.6685808135986328
1789039830004073700,2.35807373046875,0.5483050595320761,-1.6000678827404975,0.27117431767284866
1789039830014018600,2.3680185546875,-1.629357105588913,-0.9900783743202686,1.0434493145018815
1789039830023962600,2.377962646484375,-2.374304388900846,-0.6581067658573388,-0.9033499389380216
1789039830033906400,2.387906494140625,-1.7805458843134343,-2.54549053825438,-0.676540248170495
1789039830043850800,2.397850830078125,-0.3231225315749645,-3.298800137850642,4.066904570996761
1789039830053794600,2.407794677734375,2.764457698827982,-1.4531956520408391,2.0744225937902927
1789039830063738600,2.417738525390625,1.2066834819376469,-1.4660358443915844,2.9210762475162744
1789039830073682400,2.427682373046875,0.515720740661025,0.37683950871527194,3.6505595658451315
1789039830083626500,2.43762646484375,-0.24367957702577112,1.2919354150265454,1.1680758111238478
1789039830093570600,2.447570556640625,-1.9303728731654584,2.1270213805556297,-0.6250087983757258
1789039830103514400,2.457514404296875,-3.518414364156127,3.5622850700646636,-3.5565696150273083
1789039830113458700,2.467458740234375,-0.8282821307331323,3.525543777644634,-5.89597351706922
1789039830123402500,2.477402587890625,1.281381433916837,1.9125883562803268,-3.2086323756694792
1789039830133346600,2.4873466796875,1.973209705981612,1.951555508056283,0.0880734202504158
1789039830143290600,2.49729052734375,1.2071388975549489,2.183220237639546,3.3981185902148483
1789039830153234400,2.507234375,0.512607504011318,2.6059201647758483,3.812499017295241
1789039830163179500,2.517179443359375,-2.670102421829104,3.9806992827057837,4.623141446441411
1789039830173123600,2.52712353515625,-5.32046904657483,5.099573548287153,2.9147148957908153
1789039830183067600,2.537067626953125,-3.040073213818669,4.187172872409224,-1.8438252011775969
1789039830193011500,2.547011474609375,0.3647942661345005,1.2886620924443006,-4.831355157810449
1789039830202955500,2.55695556640625,3.098841629129648,-0.16028934615552423,-1.728905275055766
1789039830212899300,2.5668994140625,3.8249312133669853,-0.3012894699513912,0.20599311271011828
1789039830222843600,2.57684375,2.1188766525447367,3.498627713668346,0.391906729465723
1789039830232787700,2.58678759765625,0.6340963601946831,7.32302116689682,-3.4232121149390933
1789039830242731500,2.5967314453125,0.5620329945027828,3.292789499258995,-2.236163307797909
1789039830252675600,2.606675537109375,2.765887439370155,-2.366235210344195,-0.8236790208518504
1789039830262619400,2.616619384765625,1.6092062979638575,-4.114920121625065,-2.323129643589258
1789039830272563500,2.6265634765625,1.117726337655261,-3.2460733407914635,-1.7467431295633316
1789039830282507800,2.6365078125,-1.7049626739323138,-1.770601559534669,-2.139782662451267
1789039830292451600,2.64645166015625,0.042903833637759084,-2.0183459017813203,-2.011657217797637
1789039830302396400,2.656396484375,0.17436989395618438,-1.254921150884032,-1.006930140399933
1789039830312340500,2.666340576171875,0.14047010857239364,-1.4552005621224642,-1.1407394759088754
1789039830322284500,2.676284423828125,-0.13191811493486166,-2.4288287369012833,-0.3783750477194786
1789039830332228600,2.686228515625,0.05120660175457596,-2.6899621375530955,0.5153793798774481
1789039830342172700,2.696172607421875,-1.3018294709227978,-2.490792148861289,2.3068933790594337
1789039830352116500,2.706116455078125,-1.0797932781673967,-2.9955156946897503,3.4401574045211074
1789039830362060500,2.716060546875,-0.5088214826665819,-4.407977769804001,4.288430768403411
1789039830372004600,2.726004638671875,-0.09294584859237075,-4.095169126972556,1.4999223319023847
1789039830381948400,2.735948486328125,-0.7602080538731067,-4.4359360363096,0.4375654878348112
1789039830391892500,2.745892578125,-0.306621405563876,-3.5380578067809343,-1.7092150706797837
1789039830401836500,2.75583642578125,0.30143092424869533,-3.281562587323785,-3.5227062161311506
1789039830411780600,2.765780517578125,0.4823731823325157,-2.806222956889868,-3.4762232818976044
1789039830421724700,2.775724609375,0.04861936174035072,-1.514442440164089,-4.318298083400726
1789039830431669500,2.78566943359375,1.3140005318403243,-1.3063053011626005,-5.29040650126636
1789039830441613300,2.79561328125,2.0994307783186437,-1.6218705492258072,-4.210765637181699
1789039830451557600,2.8055576171875,-0.13571195425987242,-0.2810205889046192,-5.282721791982651
1789039830461501700,2.815501708984375,1.2744190475583075,1.7026596576869486,-2.678244227230549
1789039830471445500,2.825445556640625,1.5449381161928175,0.1427969440847635,-4.426923877814412
1789039830481389600,2.8353896484375,0.017097265273332597,3.0687749921679495,-5.285519313746691
1789039830491333400,2.84533349609375,0.1003027141612023,5.201372711551189,-2.1419971236303446
1789039830501277400,2.85527734375,1.5040706837534903,1.4396563715100288,-3.7016198909968137
1789039830511221800,2.8652216796875,1.0117874442379922,-14.241791671061515,-12.638990563964843
1789039830521165600,2.87516552734375,0.36201997911557554,-11.079432386267184,-6.0105631883233785
1789039830531109600,2.885109619140625,0.855170795245841,14.116486544525623,6.661129037281871
1789039830541053400,2.895053466796875,1.8733131614685057,24.92305943651199,10.921874510902166
1789039830550997500,2.90499755859375,0.6477752683918923,7.5968334318578234,4.748671029382944
1789039830560941800,2.91494189453125,0.15342296751737594,-6.54258916709721,7.915009739202261
1789039830570885600,2.9248857421875,-2.4385224479198455,-11.634196266549825,8.306164188995957
1789039830580830500,2.93483056640625,-8.912543105703591,-8.244465565451979,6.911624139541387
1789039830590774500,2.9447744140625,-4.20197004404664,0.7734270894736051,15.099528444337844
1789039830600718800,2.95471875,-0.85273677303195,9.176804282987117,15.662868429785966
1789039830610662700,2.96466259765625,4.701634552919864,8.94904532867074,0.5752540028646588
1789039830620606700,2.974606689453125,5.550926153934002,4.7768970069140195,-8.205629346579313
1789039830630550500,2.984550537109375,1.439795487719774,4.795070376986265,-8.984416501781343
1789039830640494600,2.99449462890625,-0.3402420086801052,5.76632013219595,-6.619701632872223
1789039830650438700,3.004438720703125,-2.6788193967700002,8.384294307380914,-4.484562412312626
1789039830660382700,3.0143828125,0.003985270243883132,6.629184916010499,-4.57605294753015
1789039830670326800,3.024326904296875,1.8903543126404285,1.1308166323095559,-0.7859741440966724
1789039830680270600,3.0342705078125,2.9279683451175686,-2.7448697857826945,6.1195584005713455
1789039830690214700,3.044214599609375,1.5529741231322287,-2.776960622048378,4.71547164735347
1789039830700159500,3.054159423828125,1.0251625471830368,-1.2414216178417206,2.8634041030094024
1789039830710103800,3.064103759765625,0.20087562356591224,-2.554910693028569,2.566301563353836
1789039830720047600,3.074047607421875,1.1425766282081604,-19.9325892370224,4.19653311368972
1789039830729991700,3.08399169921875,-4.563121569764614,-17.71466535027027,5.0377556822776794
1789039830739935700,3.093935791015625,-2.286522206681967,-10.178069237232208,4.384745362776518
1789039830749879600,3.103879638671875,-1.1943220860797912,-0.11650982566177845,-0.20673487098813056
1789039830759823600,3.11382373046875,-0.39963418191261585,12.256578808075188,-2.0014979350939393
1789039830769767400,3.123767333984375,1.2704594962775706,18.439037609195708,-6.707497989746928
1789039830779711700,3.133711669921875,3.6819466377556322,9.223122382047771,-7.546718863123655
1789039830789655800,3.14365576171875,1.7772692007303237,-3.3101533065140245,-2.8138378158077595
1789039830799599600,3.153599609375,-0.6583131751496344,-6.161188634076714,1.8252236688211558
1789039830809543700,3.163543701171875,-2.2020342437028884,-2.4867080944180486,3.3167256706416604
1789039830819487500,3.173487548828125,-1.3318050686001777,-1.4009838187664747,1.2624234893381594
1789039830829432800,3.183432861328125,-0.39574703828096386,-1.3885259037315845,-0.19138064998984336
1789039830839376600,3.193376708984375,0.7169862403273582,-0.041453123372793194,-3.4501699722304937
1789039830849320700,3.20332080078125,1.7395757221519945,-0.49918403187990185,-3.46115284627676
1789039830859264500,3.213264404296875,2.212211938846111,0.0861561884522438,-2.8698890811145303
1789039830869208600,3.22320849609375,3.136579531371593,4.766567336079478,-2.3416259620055553
1789039830879152600,3.233152587890625,3.637942660856247,9.054189710709451,-2.4643586077049373
1789039830889096700,3.2430966796875,2.707166370332241,7.364637956398725,-2.6627874226406214
1789039830899040800,3.253040771484375,2.3697885189116,6.190461490312218,-0.9321931715846061
1789039830908984600,3.262984619140625,1.6216975307464598,6.121723469650745,1.7117074720174072
1789039830918928600,3.2729287109375,-0.40085809768438335,2.2096230913966894,-0.09815876093506812
1789039830928872700,3.282872802734375,-1.3427227684557437,6.09549188080728,0.9707008891552686
1789039830938816500,3.29281640625,-2.209892555987835,5.440274406650662,-1.7333621083341537
1789039830948761600,3.30276171875,-2.143447614699602,5.5749348060309885,-1.7378604426667092
1789039830958705700,3.31270556640625,1.1556254218082875,3.250955852136016,-12.62292088817358
1789039830968649700,3.322649658203125,-5.166901117628813,-7.960058841240405,-8.854777145433426
1789039830978593500,3.332593505859375,-8.058398803961277,-9.37952465763688,0.1879737641558051
1789039830988537600,3.34253759765625,-1.026851815444231,-5.620852507597208,11.615244897842407
1789039830998481700,3.352481689453125,5.122049583989382,-1.5530518645435571,11.811401091670989
1789039831008425700,3.36242578125,2.5626830805957317,-3.7061703939080237,8.229239354747532
1789039831018369800,3.372369873046875,-0.759662256558612,-6.7817673410505055,9.847671746218204
1789039831028313600,3.382313720703125,-2.8302725255191326,-9.612450200936198,8.492470604461431
1789039831038257700,3.392257568359375,-2.9727029743790623,-8.066583863982558,4.5398508765533565
1789039831048201500,3.402201416015625,-0.8240262268543243,-5.964701016336679,0.6424810344412922
1789039831058145500,3.4121455078125,1.0135773233294487,1.5636252810060978,-2.475512454403937
1789039831068089600,3.422089599609375,1.1722890449047088,14.704411520653963,-5.915302486917376
1789039831078034700,3.43203466796875,0.4666004071285948,11.015032102549075,-9.770158882948756
1789039831087978500,3.441978515625,1.6674164948701857,5.370816839542985,-7.508319282102584
1789039831097922600,3.451922607421875,1.9299311207473278,3.8170378297686574,-4.62844072189331
1789039831107866600,3.46186669921875,0.6082885862538591,2.8123692045599222,-1.8131097449183462
1789039831117810700,3.471810791015625,-0.8697370076715946,2.002466195604205,2.3761282433271407
1789039831127754800,3.481754638671875,-1.2487491842508316,2.425016485136747,5.902915883553027
1789039831137698600,3.491698486328125,-1.196408756160736,3.2087615550071,5.079628492367267
1789039831147642600,3.501642578125,1.7368915976345538,4.056041816198825,3.0267227338582274
1789039831157586700,3.511586669921875,3.3478023614287373,3.051459700229764,0.3627273967325687
1789039831167530500,3.521530517578125,3.9671617557406424,0.9971505046635866,-0.2889806079983711
1789039831177474800,3.531474853515625,3.3290894776523112,-1.1152104823768139,-0.33475524783208965
1789039831187418600,3.541418701171875,1.7542390382766722,-2.1328777053683994,0.08803338050097227
1789039831197362700,3.55136279296875,0.4033515950005501,-5.572027394151688,2.4381547836512327
1789039831207307500,3.5613076171875,-0.9536218171257526,-8.31613379434645,5.235829107904434
1789039831217251600,3.57125146484375,-1.7784183707654475,-4.290474256929755,3.1444846054077145
1789039831227195600,3.581195556640625,-2.43920400044322,-2.1795850960075853,0.43006344164162874
1789039831237139700,3.5911396484375,-2.9623651202380654,-8.248489998662471,1.9130679564908146
1789039831247083800,3.601083740234375,-3.0169407600343225,-11.069849734407663,3.757895320448279
1789039831257027600,3.611027587890625,-1.6149696837961673,-10.913981127303838,4.9662528730779885
1789039831266971600,3.6209716796875,0.2466833984842524,-12.632242843270301,4.342965199406445
1789039831276915500,3.63091552734375,2.927511248999834,-13.103456333684921,3.4625676815107465
1789039831286859800,3.64085986328125,3.547086916410923,-8.99654533099234,0.11337269667983055
1789039831296803800,3.650803955078125,0.7922270670115947,-4.169637800240516,-0.687344989170879
1789039831306747600,3.66074755859375,-3.425398811328411,3.5320220337480306,0.06643982672169804
1789039831316691700,3.670691650390625,-1.7825193763434886,6.189720901077985,-1.3918933343380688
1789039831326636500,3.680636474609375,-2.1581331426560877,-1.6123779137372969,-0.08227076185364275
1789039831336580600,3.69058056640625,-2.966638559773564,2.2168530426502224,-0.8147617740985006
1789039831346524700,3.700524658203125,1.1266980910748243,11.250732371258735,-1.0301377052471041
1789039831356468700,3.71046875,1.6525684698283671,6.392335477265715,-0.07501893669501877
1789039831366412500,3.72041259765625,0.8405687808543443,6.933922480589151,-2.2333466429419815
1789039831376356600,3.730356689453125,2.0730255864739418,9.538154546147585,-3.851751708014309
1789039831386300700,3.74030078125,0.8228595211625098,6.124495856973528,-4.894267833319306
1789039831396244500,3.750244384765625,0.10344689393844454,2.831699927973747,-5.907515486302971
1789039831406188800,3.760188720703125,-0.5309966357260942,1.8605214844346045,-2.604256907738745
1789039831416132600,3.770132568359375,-1.3829419661194085,1.8510826249599455,0.08958338642194867
1789039831426076700,3.78007666015625,-0.6330518195778131,2.746200742125511,1.1523639357943087
1789039831436020700,3.790020751953125,0.39589667588472366,3.929523222219944,2.121430282550305
1789039831445965600,3.799965576171875,1.3627385515242814,5.360111905655264,2.5197733286738395
1789039831455909600,3.80990966796875,2.048662129589915,5.6230859657377,3.2245141276732086
1789039831465853700,3.819853759765625,2.230240932011604,4.282465722519159,2.4549770313754675
1789039831475797800,3.8297978515625,2.4542495938837527,1.959850458192825,-0.4029702310001477
1789039831485741600,3.839741455078125,1.7031833893001078,1.1636357828497885,-2.3873228604279455
1789039831495685600,3.849685546875,0.30793548383712765,1.8488117574185132,-2.615547824820876
1789039831505629400,3.85962939453125,-3.792214354157448,1.403821672540903,-2.295771973325312
1789039831515573800,3.86957373046875,-4.266818071532249,0.7380664377570152,-6.818995540204644
1789039831525517800,3.879517822265625,-1.6747183423161505,-1.6263509095102548,-0.9742556590273975
1789039831535461600,3.889461669921875,-0.17640286108851433,-0.40155484777688977,3.6703666745990513
1789039831545405700,3.89940576171875,0.1019417866051197,1.9228531451851127,5.528855191901326
1789039831555350500,3.9093505859375,0.8599626326322555,2.4527561404556035,1.3927631029099226
1789039831565294300,3.91929443359375,0.4307634066045284,0.36280981431901455,-0.706338808780536
1789039831575238100,3.929238037109375,0.5673042129039764,-0.36765024008750913,-5.573956900909542
1789039831585182200,3.93918212890625,3.6549031480073926,0.8566443018645048,-5.172698405730724
1789039831595126300,3.949126220703125,5.053514392423629,1.3979068955391645,-1.644381071719527
1789039831605070300,3.9590703125,2.5285376498878,3.745981595292687,0.8425407385144382
1789039831615014400,3.969014404296875,-0.4352654307315126,5.0952533470004795,1.602038598291576
1789039831624958200,3.978958251953125,-1.5007061757564544,4.44658427157402,0.4072310667824
1789039831634902300,3.98890234375,-1.43254858533144,0.8775994116097688,-2.138628231719136
1789039831644846000,3.99884619140625,-1.1252665969669817,-1.3889508511453865,-3.6970132739841937
1789039831654790100,4.0087900390625,0.35078334950394924,-2.51287129420042,-4.134017036283016
1789039831664734500,4.018734375,2.4098165779173373,-4.163673923400045,-2.555834237614274
1789039831674679300,4.02867919921875,0.9555425560552626,-4.455020091485977,-0.6850953105479478
1789039831684623400,4.038623291015625,-0.3444225092351436,-4.986592481273412,0.8900277352239936
1789039831694567200,4.048567138671875,-0.5121428821742534,-3.025549013903737,2.463096332684159
1789039831704511200,4.05851123046875,0.26310382394194604,-1.983879568555951,3.463030330586433
1789039831714455300,4.068455322265625,-0.3319230200808495,-3.295747180020809,3.416151675033569
1789039831724399400,4.0783994140625,-0.3708229518394917,-3.643953299447894,3.19057766354084
1789039831734343200,4.08834326171875,-0.047948403676226735,-5.149345587193966,3.626421734410524
1789039831744287200,4.098287353515625,-0.24546660657301544,-7.889270902311801,4.160788723352551
1789039831754231300,4.108231201171875,-1.126090845896676,-9.138836663642525,4.748670444861054
1789039831764175000,4.118175048828125,-0.6256687966544181,-11.061916603320837,4.554423591785133
1789039831774119400,4.128119384765625,0.22093992195129394,-12.195261292803286,5.257404979896545
1789039831784063200,4.138063232421875,1.2283552155196666,-4.572953812471032,8.006420779442786
1789039831794008300,4.14800830078125,1.4890987400710582,2.3939836334913966,7.258898531076311
1789039831803952000,4.1579521484375,0.5695101254504173,-3.5533886469036338,2.308954257111996
1789039831813896200,4.167896240234375,0.4683854273818433,-5.890988129872083,-3.2188036410719154
1789039831823840300,4.17784033203125,0.09969488446116447,-9.229097949326038,-6.514234010228514
1789039831833784300,4.187784423828125,-0.5228571684122085,-14.586575414824486,-7.062986667397618
1789039831843728400,4.197728271484375,0.4398492879230529,-13.73603176792264,-6.008778642994165
1789039831853672200,4.207672119140625,-2.038791308438778,-17.694128758198023,-6.061188044667244
1789039831863616300,4.2176162109375,-3.9958699638307094,-22.423403013193607,-9.406018112286924
1789039831873560000,4.22756005859375,-6.803298204857111,-11.321037495106458,-6.522528960365056
1789039831883504000,4.237504150390625,-11.364894172489642,16.012656849968433,-1.8241778130300341
1789039831893448400,4.247448486328125,-14.944714314723013,23.767139342606065,7.994835555589199
1789039831903393300,4.257393310546875,-11.103522871428728,23.432444446659087,12.992722168815135
1789039831913337300,4.26733740234375,-3.6660453042685983,17.35546729670763,8.12734082276225
1789039831923281200,4.27728125,4.567261153787374,-0.9469780682623385,1.8230529006533325
1789039831933225200,4.28722509765625,18.22159079005718,-4.587732863929867,-3.4311972684741017
1789039831943169300,4.297169189453125,14.566379014492034,13.321350896590948,1.0051039478860795
1789039831953113300,4.30711328125,5.712191651645303,22.30034712688923,8.385044248965382
1789039831963057200,4.31705712890625,3.534807865074277,25.05834819692373,7.941836371329426
1789039831973001200,4.327001220703125,2.9027538243621587,13.822723378425836,-2.386661620040238
1789039831982945300,4.3369453125,2.2000930465072392,5.506480278486013,-8.851882593035697
1789039831992889000,4.34688916015625,0.5289483979593962,6.161503691375255,-9.068786391338705
1789039832002833400,4.35683349609375,-0.20359080080874262,7.922235598802566,-6.733298201435804
1789039832012778200,4.3667783203125,0.2956470801502466,5.64071046975553,-4.067531762984395
1789039832022722300,4.376722412109375,0.09878938698880374,3.8484517896860835,-3.0942028634130954
1789039832032666000,4.386666015625,0.20032675751149653,3.0565298431009054,-2.7141864782273766
1789039832042610200,4.396610107421875,0.41327801879644394,2.472306059578061,-2.163930723018944
1789039832052554500,4.406554443359375,0.9501455923825501,1.974299254783988,-1.660800583861768
1789039832062498300,4.416498291015625,1.513077581551671,0.20335399637818335,-1.5571990473508834
1789039832072442400,4.4264423828125,1.3508452846348284,-1.6323673933207987,-1.5737579679638147
1789039832082386200,4.43638623046875,0.7820160541206598,-2.610741885843873,-1.5226143484428525
1789039832092330200,4.446330322265625,0.4455599937200546,-3.467476788601279,-1.3147615793406962
1789039832102274300,4.4562744140625,-0.004753916528820991,-5.257688473013043,-1.7214312859132885
1789039832112218000,4.466218017578125,-1.152372046035528,-7.848212915736436,-2.269001455299556
1789039832122163200,4.4761630859375,-2.3001626094996928,-6.295443375265598,-1.302081545987725
1789039832132107300,4.486107177734375,-3.009222733002901,-5.230823846963047,-0.4997033795788884
1789039832142051300,4.49605126953125,-2.582428230029344,-3.462025537458062,0.06318418592661619
1789039832151995100,4.5059951171875,-2.5026503444373605,-1.3949439540803432,1.1418337008863686
1789039832161939200,4.515939208984375,-2.7512358136832713,-0.4898147305101156,1.5995163863375783
1789039832171883300,4.52588330078125,-2.613543499261141,0.44156186399459835,1.2345923563435672
1789039832181827300,4.535827392578125,-1.2798165226876734,1.8581933337479828,0.9308549087181687
1789039832191771400,4.545771484375,0.8588508719980716,2.768597282850742,1.056443528370559
1789039832201715200,4.555715087890625,1.1393092239100486,2.6795383586943147,1.1606532599076629
1789039832211659300,4.5656591796875,-0.10724803978707641,0.9815759189128875,1.8000725686907768
1789039832221604400,4.575604248046875,-0.254293288966082,-0.0009065934509038925,1.91328130698055
1789039832231548400,4.58554833984375,1.532154622465372,0.662815674200654,1.579143460394442
1789039832241492200,4.5954921875,4.960837277770042,2.158424819079041,1.871024466009438
1789039832251436300,4.605436279296875,5.032829916313291,2.0493951200395824,3.3378193120747803
1789039832261380000,4.615380126953125,3.654843526774645,0.22380583277642727,4.498059315006435
1789039832271324200,4.62532421875,3.135824329090118,-1.6984616214752197,4.478498874489963
1789039832281268500,4.6352685546875,1.9076158285647629,-2.6473230192661283,3.6346737221881744
1789039832291212300,4.64521240234375,0.6198603295713663,-2.6193659218043086,2.7043840461373327
1789039832301156400,4.65515625,-0.16615502331852913,-1.71755853613317,1.110120465761423
1789039832311100200,4.66510009765625,-1.0937485921531915,-0.4802811784893274,-0.31124153964519496
1789039832321044200,4.675044189453125,-1.2331611544966696,0.8511971423745155,-1.892712566204369
1789039832330989300,4.6849892578125,-0.6920610579073428,2.1121067200183865,-3.365544646607339
1789039832340933400,4.694933349609375,-0.1416039714405313,2.781692326745391,-4.0731405427768825
1789039832350877200,4.704877197265625,0.028394246770069003,2.369447158128023,-3.7813714731037615
1789039832360821200,4.7148212890625,-0.30795711114704605,1.2679963210344314,-2.289778285868466
1789039832370765300,4.724765380859375,-1.324428402352333,0.6947253086805343,-0.5827069492191076
1789039832380709000,4.734709228515625,-1.942005443292111,0.245309808576107,0.4677905302286148
1789039832390653400,4.7446533203125,-1.7681144188940523,-0.24500761075913904,0.23503742088675497
1789039832400597200,4.75459716796875,-0.5352431872546672,-0.31294425190985203,-0.16420155116319654
1789039832410541300,4.764541259765625,0.4269149144828319,-0.020781506744027137,-0.8361378126695752
1789039832420485400,4.7744853515625,0.5355739535789936,0.0767237587183714,-2.5172686523765324
1789039832430430200,4.78443017578125,-0.3222545165687799,0.13381693429350852,-3.7328906430512663
1789039832440374300,4.794374267578125,-0.9462392325937747,0.4095090216517448,-3.961829747062921
1789039832450318300,4.804318359375,-0.37774149905629456,0.7938736651748418,-3.5700846378996967
1789039832460262400,4.814262451171875,0.9625351914215833,0.8409294308602809,-2.3037650179058313
1789039832470206200,4.824206298828125,2.3897709842324257,0.7913017688602209,-1.4965207067653536
1789039832480150300,4.834150390625,3.256448019811511,0.5456798255950213,-1.1972142273247242
1789039832490094000,4.844093994140625,3.440755370414257,0.5069324540495872,-0.827986070396006
1789039832500038100,4.8540380859375,2.8113106354176995,0.6368406904667615,-1.2613640434131026
1789039832509982500,4.863982421875,1.3584557596385478,0.47423371501863,-2.322110821935534
1789039832519926300,4.87392626953125,0.332913346292451,0.021481763967871666,-3.079466774313152
1789039832529871000,4.88387109375,0.3074072221793234,-0.3127648036897182,-3.1686902413815257
1789039832539815200,4.893815185546875,0.5517237819343805,-0.30226152985394,-2.9437916449323294
1789039832549759200,4.90375927734375,0.7290706458747387,-0.0036368951976299283,-2.6879969749599693
1789039832559703000,4.913703125,0.8518344173647463,0.47938276834487914,-2.252888524888456
1789039832569647000,4.923647216796875,0.7627800963182002,0.8855927484512328,-1.7537407333657145
1789039832579591000,4.9335908203125,0.5038439134497196,1.1639601924985647,-1.144803948868811
1789039832589535200,4.94353515625,0.28790625676512716,1.3127473169088364,-0.5190589451730251
1789039832599479300,4.953479248046875,0.08352291733920574,1.3112211302548646,-0.30647914754897354
1789039832609423000,4.963423095703125,-0.3593873655896634,1.1883002685070037,-0.5361021421715617
1789039832619367200,4.9733671875,-0.786374249330163,0.907310659262538,-0.1671945954993367
1789039832629312000,4.98331201171875,-0.023720482805371285,0.8289227667242288,-0.11232640249729156
1789039832639256300,4.99325634765625,1.244914136132598,1.262280865997076,-0.1811810352757573
1789039832649200000,5.0032001953125,2.185042776891589,1.7863246138453484,-0.36847003203779455
1789039832659144200,5.013144287109375,2.669642987623811,1.9022586854457855,-0.7235249944463372
1789039832669088000,5.023087890625,2.5160949324220416,2.08328569920361,-1.443134276753664
1789039832679032000,5.033031982421875,2.210418041166663,2.3990040920019147,-2.3334645751208067
1789039832688976100,5.04297607421875,1.8345844946235417,2.5422178001940248,-2.777066128249466
1789039832698920200,5.052920166015625,1.937751585239917,2.9233336710542437,-2.9553625479996204
1789039832708864300,5.0628642578125,2.403572568961233,2.9932272914916274,-2.705920169663429
1789039832718808000,5.07280810546875,2.716410584017634,3.228351806139946,-2.2094737460538743
1789039832728753200,5.082753173828125,2.8450866482913493,4.118651709368825,-2.0399849021375176
1789039832738697000,5.092697021484375,2.7509651800483463,5.027973123931885,-1.4365207038328052
1789039832748641300,5.102641357421875,3.0942040324568745,5.687216200342774,-0.6197481013685464
1789039832758585000,5.112585205078125,3.428708958789706,6.38469928329885,-0.6405246396765113
1789039832768529200,5.122529052734375,3.072233608189225,6.678388215118646,-1.1463833270147443
1789039832778473200,5.13247314453125,2.0542191791951656,5.749166168299317,-1.2471171991348267
1789039832788417000,5.1424169921875,1.0188146394610404,3.9240298855006692,-1.3708356410011648
1789039832798361000,5.152361083984375,0.23462124130129813,2.4966578260242938,-1.2760437261506914
1789039832808305200,5.16230517578125,0.07586626510620116,1.52544431117177,-0.3668006375208497
1789039832818249200,5.172249267578125,0.2651952432632446,1.4503689041823147,1.097242571748793
1789039832828194000,5.182194091796875,-0.15221191122718156,1.2933411901712417,2.0751421402364967
1789039832838138000,5.19213818359375,-0.47042657782062886,1.5995634403496979,1.1088567294359206
1789039832848082200,5.202082275390625,0.205546976377815,2.1871640068292617,-0.7631868504881858
1789039832858026000,5.21202587890625,1.5131377873063088,3.0230040055960417,-1.8965318322315812
1789039832867970300,5.22197021484375,3.2263845977202057,4.084897908326983,-2.0243939497739074
1789039832877914000,5.2319140625,2.5616683505952356,5.508846423095465,-1.0562392379701138
1789039832887858200,5.241858154296875,0.05491816962361335,5.377380435842276,0.9376841702163219
1789039832897802200,5.25180224609375,-1.7541323630318044,4.211118396142125,1.830444764470309
1789039832907746000,5.26174609375,-2.2605708960846065,4.298009328609704,2.864976174631715
1789039832917690000,5.271690185546875,1.6540417572513222,6.269079684475064,2.4157139653928574
1789039832927635200,5.28163525390625,2.4142492996677754,8.079064575371145,0.9737357998717576
1789039832937579300,5.291579345703125,0.06404577119201421,9.444429968267679,0.3609104469710961
1789039832947523000,5.301523193359375,-1.6669722582340238,10.336651194947958,-0.585849813822098
1789039832957467100,5.311467041015625,0.8291612516552209,10.458518163728714,-0.7642451273694634
1789039832967411000,5.321410888671875,0.7650792401060461,10.573916813278197,0.26588001065701244
1789039832977355300,5.331355224609375,-0.5237006334990263,10.433761323612927,0.8714961262986064
1789039832987299300,5.34129931640625,-1.137586564835906,9.081216833844781,2.841148432059586
1789039832997243100,5.3512431640625,-1.022765422913432,6.061129592478275,4.960201902475953
1789039833007187200,5.361187255859375,-1.6935826172620057,2.7703981947928664,5.394952332890034
1789039833017132000,5.371132080078125,-5.00907027054131,0.40898879716992376,6.686719405612349
1789039833027076400,5.381076416015625,-5.379768207761645,-1.573942092359066,8.938611612939834
1789039833037020200,5.391020263671875,-14.151144016408919,-7.126883093246817,7.4303323715806
1789039833046964200,5.400964111328125,-6.057647011059522,-7.149151623678207,7.66444624788165
1789039833056908000,5.410907958984375,1.0700625961393118,3.931215997612476,6.993204106119275
1789039833066852000,5.42085205078125,5.392224369230866,12.522724483931064,2.2262232208028436
1789039833076796200,5.430796142578125,-0.761019443321228,8.526027421626448,2.07218007556051
1789039833086740000,5.440739990234375,-1.697060522505641,3.5845723051965233,2.7882635218292475
1789039833096684300,5.450684326171875,1.7212807715266942,0.7731552867949009,-2.693771758969128
1789039833106628000,5.460628173828125,13.846128803932666,5.737181715995073,-12.352165672695635
1789039833116573200,5.4705732421875,6.004844226154685,15.580215865540504,-1.632963605648279
1789039833126517000,5.48051708984375,-17.21441748855114,-0.48458004472702737,11.911180147284268
1789039833136461000,5.4904609375,-19.75806035311222,-9.260023833465576,8.346017475956678
1789039833146405000,5.500405029296875,-8.634048820406198,-7.215008535945415,11.562408795189857
1789039833156349200,5.51034912109375,0.583060584962368,-2.21585058760941,9.785254160749911
1789039833166293200,5.520293212890625,-3.3240941535830495,-0.344875952091068,7.453295314016938
1789039833176237000,5.530237060546875,-2.567807584002614,-1.14069812098518,9.187207019057869
1789039833186181000,5.54018115234375,-0.5223468808025121,1.5930439754530787,7.716932806444167
1789039833196125000,5.550125,-3.6140766321003435,1.1198363886117935,2.702068462671339
1789039833206070300,5.5600703125,-6.307273513790965,-1.506244666791707,1.7683944048792122
1789039833216014000,5.57001416015625,-2.4720851103037593,-1.00658600313738,3.3222049788355825
1789039833225958100,5.579958251953125,-0.03366495371460915,1.2986411962755025,3.868122704839706
1789039833235902000,5.58990185546875,-1.3407272107243537,-0.168608700080961,4.340163001467287
1789039833245846000,5.599845947265625,-3.0988673480927944,-1.2745479346349835,4.873717212721705
1789039833255790300,5.609790283203125,-4.0472424236714835,-1.7439833094611763,4.8815802011817695
1789039833265734100,5.619734130859375,-4.045903284022212,-1.9895853789821265,4.258262132371962
1789039833275678200,5.62967822265625,-3.9370249761521814,-1.6613412666097283,3.170444391572475
1789039833285622000,5.6396220703125,-4.479101224297285,-2.061304315150529,2.189369992440939
1789039833295566000,5.649566162109375,-3.6974388059198855,-1.6669010926939547,0.8880335657320916
1789039833305511200,5.65951123046875,-3.0835330008387563,-1.9296205934934316,-0.0308468275539577
1789039833315455200,5.669455322265625,-3.394893782949447,-1.7759553416527807,-1.0060594950452446
1789039833325399000,5.67939892578125,-4.534312823909521,-2.2561390511170027,-2.5136162673488256
1789039833335343000,5.689343017578125,-4.868253686618805,-2.695289470055699,-2.659406840291619
1789039833345287200,5.699287109375,-4.203916501939297,-2.5815461864978073,-1.6806813423737883
1789039833355231000,5.70923095703125,-3.8672389077425002,-2.6227099715352056,-1.0241033935189245
1789039833365175300,5.71917529296875,-3.6628093910872934,-2.552048289334774,-1.0357744690250605
1789039833375119000,5.729119140625,-2.9656220762073993,-1.963437084507942,-0.9696621937572956
1789039833385063200,5.739063232421875,-3.132845021018386,-2.0950214374437928,0.3349682329956442
1789039833395007200,5.74900732421875,-3.1763024699509144,-2.03224115614295,0.7361679106593132
1789039833404952000,5.7589521484375,-3.2489865978896617,-1.5410466617122291,0.3802842423416674
1789039833414896000,5.768896240234375,-2.82455180978477,-1.319562549881637,0.5031578308816999
1789039833424840200,5.778840087890625,-1.9289853643298147,-1.2401409303814173,1.5164797912105916
1789039833434784300,5.7887841796875,-1.768023818001151,-1.447623404866457,2.8569772848322987
1789039833444728000,5.79872802734375,-2.0379823301434516,-1.2121071144215763,2.8528853393435476
1789039833454672100,5.808672119140625,-2.495126378673315,-1.2478686020240186,2.1464678393036127
1789039833464616000,5.818615966796875,-2.017251676803827,-1.376362441598624,1.8362758087113498
1789039833474560000,5.82856005859375,-0.14135375953912735,-1.0837794251941144,1.9517125983141361
1789039833484504300,5.83850439453125,1.093188035660982,-0.4036903985008597,1.6683583057649434
1789039833494449200,5.84844921875,0.9018062166273594,-0.09766936998292804,0.8647795313946902
1789039833504393200,5.858393310546875,0.061783963739871973,-0.22141703794375062,-0.09696253688782452
1789039833514337000,5.8683369140625,-0.2537280928313732,-0.3103608112879097,-0.7178323357626796
1789039833524281000,5.878281005859375,-0.03052665568888187,0.08040054753497243,-1.6641561778999865
1789039833534225200,5.88822509765625,0.6493710862159728,0.27504092997312546,-2.1703068339221177
1789039833544169200,5.898169189453125,0.5830056399047374,0.10608692358583212,-2.434288609742373
1789039833554113000,5.908113037109375,0.9279004428267479,-0.0814610163733363,-2.327821162406355
1789039833564057600,5.9180576171875,1.0340671536505222,-0.1812134762406349,-2.1691978497669098
1789039833574001700,5.928001708984375,1.0303028326809405,0.4606874202251434,-2.921750201255083
1789039833583946500,5.937946533203125,0.8001894241929054,0.2818132005870342,-3.0049913790434597
1789039833593890300,5.947890380859375,0.7864455610007047,0.12348492537140845,-2.922939703300595
1789039833603834400,5.95783447265625,0.7464245162576436,-0.04838321489691734,-2.4696274880185722
1789039833613778700,5.96777880859375,0.28237667968869207,0.27258389220982787,-1.6883714584849774
1789039833623722500,5.977722412109375,0.5383481675326824,0.8663967573329806,-1.2491552808336912
1789039833633666600,5.98766650390625,0.8725906435370445,0.859312644290924,-1.7067701617456972
1789039833643610400,5.9976103515625,1.416615687662363,0.889715965861082,-2.2730798106543717
1789039833653554400,6.007554443359375,2.2759306700408457,1.0598331708088518,-2.4744524239569903
1789039833663498500,6.01749853515625,3.0188837107956408,0.8016706026613711,-2.788254754000902
1789039833673443600,6.027443603515625,3.2464035956591366,0.3626826808080077,-3.098544984270632
1789039833683387400,6.037387451171875,2.934821279752254,-0.06737345430999994,-2.982737753920257
1789039833693331500,6.04733154296875,2.3946517420113085,-0.4128860968694091,-2.320110295768082
1789039833703275500,6.057275634765625,1.849276452320814,-0.6904547917544841,-1.4485523562796414
1789039833713219300,6.06721923828125,1.1671955211579799,-1.2919433060720562,-0.19715689530372618
1789039833723163600,6.07716357421875,0.5860059907644987,-1.3421689339652656,1.3546104823872447
1789039833733107500,6.087107421875,0.1152478429019451,-0.6657002897262573,1.7743664650261401
1789039833743051500,6.097051513671875,-0.13616963489949702,-0.549783169260621,1.1730863327622414
1789039833752995600,6.10699560546875,-0.3897697174370289,-0.4458738819748163,1.3077175060480832
1789039833762940400,6.1169404296875,-0.56397769882977,-0.26946079175323245,1.3708825488828122
1789039833772884500,6.126884521484375,-0.7680693618327379,-0.11051496916115283,1.395449857775867
1789039833782828500,6.13682861328125,-1.0939186880230902,0.11182342141121625,1.457471283533424
1789039833792772600,6.146772705078125,-1.1299135459899903,0.2226841352701187,1.270206252168864
1789039833802716400,6.15671630859375,-0.8258569494128227,0.3946522287815809,1.2939759809434412
1789039833812660500,6.166660400390625,-0.945394013941288,0.3972562738001346,1.3755728986561297
1789039833822604500,6.1766044921875,-1.3508663274228572,0.49515316892862316,1.3552575481191276
1789039833832548600,6.186548583984375,-1.3225684536993503,0.6292708397343755,0.8113990927323699
1789039833842492700,6.19649267578125,-1.2079361123472452,0.3941933790981769,0.12301949981674551
1789039833852437500,6.2064375,-1.0636346089184283,0.20014643250852823,-0.48651057439818973
1789039833862381600,6.216381591796875,-0.4585539153277874,0.21043109515756367,-0.32997853494957086
1789039833872325400,6.226325439453125,0.5933294655203819,-0.040672202128171915,0.10007175494953989
1789039833882269700,6.236269775390625,1.081675292521715,-0.06910626945197582,-1.0196613194182516
1789039833892213500,6.246213623046875,0.6656506053656339,-0.07992167797684668,-1.4703740197263657
1789039833902157600,6.256157470703125,-0.08911153112649917,-0.4016840271145105,-1.9130179798692464
1789039833912101600,6.2661015625,-0.2434936990648508,-0.9092764063775539,-2.381223666770011
1789039833922045400,6.27604541015625,-0.4106465012490749,-0.940015243512392,-1.1171590591613203
1789039833931989500,6.285989501953125,-1.4637766672879458,-1.579274101036787,-0.18864963585706426
1789039833941934600,6.2959345703125,-1.6085773524105549,-0.31660978868007655,0.42003257109057157
1789039833951878700,6.305878662109375,-1.1495704326182603,0.578826892915368,0.8986366466805338
1789039833961822500,6.315822509765625,-0.8334159864902496,-0.5189204134851694,0.34889074069038034
1789039833971766500,6.3257666015625,-0.2545791567027569,-2.2133055793017147,0.16899923376850784
1789039833981710300,6.33571044921875,-0.4187351151585579,-2.5439210969805717,-0.3366106664404273
1789039833991654400,6.345654296875,-0.876138691407442,0.5983645370781421,-1.5122677264735103
1789039834001598700,6.3555986328125,-1.8617893124133347,3.3516642975538966,-3.326868878993392
1789039834011542500,6.36554248046875,-2.8097201513558625,1.0155296264410019,-1.6362445270150898
1789039834021486600,6.375486572265625,-2.2277742496371267,0.8809113126367331,-2.162012468307465
1789039834031431400,6.385431396484375,-1.7616466841846703,0.7191302666187286,-3.619759938433766
1789039834041375500,6.39537548828125,-1.5057839174121617,-0.13135901974737643,-2.5807328242883085
1789039834051319600,6.405319580078125,-0.8559627493411303,0.2151326969772577,-2.1179189134284853
1789039834061263600,6.415263671875,-0.19612930582165716,0.6470201391756534,-1.5651131814762949
1789039834071207400,6.42520751953125,0.42149464299976824,0.8557552440702915,0.9107730746760964
1789039834081151500,6.4351513671875,0.3215454915165901,0.8276081769943237,2.9467294519498943
1789039834091095600,6.445095458984375,-0.48135903685390946,0.6041665013551711,3.272947611452639
1789039834101039400,6.455039306640625,-0.8551537710458039,1.0865092885494232,2.231847490425408
1789039834110984400,6.464984375,-0.07964110746979713,1.8817285231143235,1.2418754990890621
1789039834120928500,6.474928466796875,0.8998790479570626,2.331893380281329,0.5312149546518922
1789039834130872600,6.48487255859375,1.7161071682810782,2.1075047791808843,0.02267272731810808
1789039834140816400,6.49481640625,2.3892934298485518,2.6732787137776612,-0.7188038111433387
1789039834150760400,6.504760498046875,2.8987708922058344,2.740339156615734,-0.8250856727793813
1789039834160704500,6.51470458984375,2.5737238223090766,1.79805246104002,-0.9525921087518334
1789039834170648600,6.524648681640625,1.5405886888116598,0.42656010969579217,-1.2203098562300205
1789039834180592600,6.534592529296875,1.1443991674602032,-1.2330869202166794,-1.3933856187224387
1789039834190536400,6.544536376953125,0.030639468413591383,-0.6147913557440042,-1.3321388305991888
1789039834200481500,6.5544814453125,-0.710910427545011,-1.8092524849683045,-0.12355974417328834
1789039834210425600,6.564425537109375,-0.7350970665574074,-2.397776596033573,1.0012351436287164
1789039834220369700,6.57436962890625,-2.087549201866984,-0.32518998549878597,0.47530397459864615
1789039834230313500,6.5843134765625,-1.920363081935048,-0.3899520882666111,1.3581865873083472
1789039834240257500,6.594257568359375,-0.6782327313020825,-0.43419338105320926,1.651533573822677
1789039834250201300,6.604201416015625,-0.3023661592721939,-0.37608079930245875,0.9891367095559835
1789039834260145400,6.6141455078125,0.29175065723359583,0.20996435442864894,0.9686097620949149
1789039834270089700,6.62408984375,0.26215689848065377,0.7305512398213148,0.08802344362884759
1789039834280033500,6.634033447265625,0.0426817883849144,1.9012123912632464,-1.498748319686949
1789039834289978600,6.643978515625,0.4376034817576408,2.5066192480683327,-1.030074576883018
1789039834299922400,6.65392236328125,1.377228556908667,2.1665210317730903,0.11204086355417966
1789039834309866500,6.663866455078125,1.5925357336699961,1.0083832618176936,-0.5696519450739026
1789039834319810300,6.673810302734375,1.3082540971428156,0.13795944092571735,-1.5554647709041833
1789039834329754600,6.683754638671875,1.2676599286869168,-0.14513795425295828,-1.0722408169612287
1789039834339698400,6.693698486328125,1.3098191545024513,0.07745265751481056,0.48968233630210156
1789039834349642500,6.703642578125,1.296594931270182,0.1500531988233328,1.9158228081569075
1789039834359586600,6.713586669921875,0.7509151056751608,-0.7546440630704164,2.6628356456965205
1789039834369531400,6.723531494140625,0.6391817006349563,-1.4129320307135582,3.0939234619498253
1789039834379475700,6.733475830078125,1.5020619742795824,-1.2383090387791393,2.2831313951998946
1789039834389419500,6.74341943359375,2.766863006404042,-1.1712941886484622,0.10470043766349553
1789039834399363600,6.753363525390625,3.2096982513353227,-1.3382049987703561,-3.304923589166999
1789039834409307400,6.763307373046875,2.4485934678182004,0.3393289854884147,-4.242536155451834
1789039834419251500,6.77325146484375,2.762849971370399,2.7922961383461953,-2.33844733196944
1789039834429195500,6.783195556640625,3.143452339750528,3.9853842256516216,-2.276160387143493
1789039834439139600,6.7931396484375,1.2648390260472893,3.936516442108154,-2.683187528851628
1789039834449083600,6.803083740234375,0.3457122567847371,3.6705993143111466,-1.5851856631681323
1789039834459028500,6.813028564453125,0.967802975756675,2.732632820022106,-1.447028361582756
1789039834468972500,6.82297265625,1.4958736410334705,1.8513263705879448,-1.8626479750692844
1789039834478916400,6.832916259765625,2.384859831315279,1.1758178035527467,-2.8514979766383766
1789039834488860700,6.842860595703125,3.763225575560331,1.888880148434639,-2.862469160246849
1789039834498804500,6.852804443359375,4.782181669318676,3.2443133453816175,-2.4989649339228865
1789039834508748500,6.86274853515625,3.2402289986774324,5.021450444164872,-2.652482009464502
1789039834518692600,6.872692626953125,1.7751085155650972,5.839777582594752,-1.269987202590704
1789039834528636400,6.882636474609375,1.2272677125439047,4.856124272885919,-0.11728840881884098
1789039834538580500,6.89258056640625,0.48173488442897794,2.021793411886692,0.5171908132135867
1789039834548525600,6.902525634765625,-0.03484948732405901,-1.6162252368152141,1.714315024167299
1789039834558469600,6.9124697265625,-0.5798550669193268,-3.3542923079699274,2.1248203633800147
1789039834568413200,6.9224130859375,-0.8703481253072619,-4.108779134652019,3.1891409087359905
1789039834578357200,6.932357177734375,-1.4794561747178434,-4.434311065456271,3.30865108525753
1789039834588301000,6.942301025390625,-2.60890122641325,-4.07043099155724,3.205228704705834
1789039834598245000,6.9522451171875,-2.904090333662927,-3.716391928192973,2.4642297206282615
1789039834608189200,6.962189208984375,-2.9730443351626397,-3.000497574755549,1.3106690493300557
1789039834618133000,6.972133056640625,-2.313034658293426,-2.362919802185893,-0.1506277838408947
1789039834628078300,6.982078369140625,-1.1050845174208284,-1.6237123777002096,-0.9502575283244251
1789039834638022100,6.992022216796875,0.1868193334236741,-0.8647650644779205,-2.2571280621543526
1789039834647966200,7.00196630859375,0.885264247149229,0.292654912596941,-2.848779657590389
1789039834657910000,7.011909912109375,1.4195859356448053,0.6895405995190144,-3.177363961702585
1789039834667854000,7.02185400390625,1.4245401970513165,0.24088673143684863,-2.936744356769323
1789039834677798100,7.031798095703125,1.1620435452222824,-0.4674596908390522,-3.2032790319427846
1789039834687742200,7.0417421875,0.6920929143503308,-1.3367892867535351,-3.5941190089598294
1789039834697686300,7.051686279296875,0.23056612069159746,-2.4888380921840665,-3.871168648406863
1789039834707631000,7.061631103515625,0.465404804135859,-3.1012580426216125,-3.3255528279587625
1789039834717575200,7.0715751953125,1.196710223325342,-2.7986773638159037,-2.564405374343693
1789039834727519200,7.081519287109375,1.5461070138417183,-2.1097288849711417,-2.934925909170508
1789039834737463300,7.09146337890625,0.5977040273427963,-1.7325696427822113,-3.8672777784481642
1789039834747407000,7.101406982421875,-0.6436109152540564,-1.1398550942897796,-4.304207014206051
1789039834757351200,7.11135107421875,-1.4954194675251842,-0.5865396592497826,-4.300700759650766
1789039834767295200,7.121295166015625,-2.0539023683309554,-0.2196253322213888,-3.7810114076197143
1789039834777239000,7.131239013671875,-2.314975270967185,0.04490706321895122,-3.054127750395238
1789039834787184000,7.14118408203125,-2.5408742766305803,0.15898293973207472,-1.9633377157866954
1789039834797128200,7.151128173828125,-2.677576410971582,0.08060381502211093,-0.6686766751885413
1789039834807072300,7.161072265625,-2.751803092177212,-0.31167467036545277,0.1521536782339215
1789039834817016000,7.17101611328125,-2.7843562852576373,-0.6419961735337972,0.5638754074990749
1789039834826960100,7.180960205078125,-2.4998344102337957,-0.6839806273043155,0.8950427138417959
1789039834836904200,7.190904296875,-1.8100079795107245,-0.6545557953774929,0.9629311319366097
1789039834846848300,7.20084814453125,-1.0444783652886747,-0.4467325446307659,0.41840661385655403
1789039834856792300,7.210792236328125,-0.2597735104754567,-0.06061901161372661,-0.4325175567954778
1789039834866737200,7.220737060546875,0.34798078623861073,0.26784780359864235,-1.3697528142005204
1789039834876681200,7.23068115234375,0.6244108324825763,0.5692214447021484,-2.1053838415041564
1789039834886625300,7.240625244140625,0.6447022176221012,0.8589058170557021,-2.601880533996224
1789039834896569300,7.2505693359375,0.2727121947646141,1.1341665272593497,-2.781012527787685
1789039834906513200,7.26051318359375,-0.27920974009037014,1.2228922739386558,-2.610498140215874
1789039834916457200,7.270457275390625,-0.9260510155677795,0.49788463971912855,-2.0574919172555206
1789039834926401000,7.280401123046875,-1.436267313593626,-0.47973698861002917,-0.5524111796766519
1789039834936345000,7.290344970703125,-0.6073182433843612,-0.977168039342761,1.0478209537148475
1789039834946290200,7.300290283203125,0.25373715292066334,-1.220816052186489,1.3373112648010252
1789039834956234200,7.310234130859375,0.2228130223467946,-0.37922143541574477,1.5371610524505377
1789039834966178300,7.32017822265625,-0.048743280380964274,0.7483084303081036,1.7859096033036708
1789039834976122000,7.3301220703125,0.16777999417185782,2.211740814203024,2.153618880102038
1789039834986066200,7.340066162109375,0.5961065290182829,3.1774761899054047,2.3196394633859394
1789039834996010000,7.350010009765625,1.1314926318749785,3.4248271489202975,1.6661673715919256
1789039835005954300,7.359954345703125,1.4273428333818912,2.5603590215623377,0.6654746642768382
1789039835015898000,7.369898193359375,1.2494763294816016,1.4056933116316794,0.28393443052470685
1789039835025843200,7.37984326171875,0.8075485547840595,0.5825158105611801,0.2503290980428457
1789039835035787000,7.389787109375,0.2993321984037757,0.07697802574038505,0.38498189863860605
1789039835045731000,7.39973095703125,0.0006093640699982643,-0.19115502454042432,0.6695926209896802
1789039835055675400,7.40967529296875,0.20917583439946175,-0.2653489725202322,1.001744846716523
1789039835065619200,7.419619140625,0.7058309323236346,-0.04343465257883072,1.056747772014141
1789039835075563300,7.429563232421875,1.4325494621142745,0.18946049558222292,1.2205261293292045
1789039835085507000,7.439507080078125,1.917640086711943,0.1500999605745077,1.6567302656829357
1789039835095451100,7.449451171875,2.000123724131286,-0.23425533059835432,1.9849521662235259
1789039835105395200,7.459395263671875,1.675411293016374,-0.4804290625274181,1.7889719134837387
1789039835115340300,7.46934033203125,1.4163774949923156,-0.745605016568303,1.948150083526969
1789039835125284000,7.4792841796875,1.078650684003532,-1.4943506692498922,2.374162496212125
1789039835135228200,7.489228271484375,0.5468643592044711,-2.616556709602475,2.6734739440888164
1789039835145172200,7.499172119140625,0.6278969210326671,-2.720823724284768,2.362436402583122
1789039835155116000,7.509115966796875,0.7559002006113529,-2.2856664666354654,1.8517478108704089
1789039835165060400,7.519060302734375,0.5333034513637424,-1.3124509643107651,1.1312374880701304
1789039835175004200,7.529004150390625,-0.3023258272618055,-1.2376719099193811,0.3074772186756134
1789039835184948200,7.5389482421875,-0.8722849385887383,-1.338673200803995,-0.1873871964395046
1789039835194893000,7.54889306640625,-0.5780281437531113,-0.7252887892484664,-0.5302338346600532
1789039835204837000,7.558837158203125,-0.07695639843046664,-0.13597148197889328,-0.7416863818198443
1789039835214781200,7.56878125,0.698336484915018,0.34720249534249303,-1.0454746828496455
1789039835224725200,7.578725341796875,1.0485393311172724,0.7366776137471198,-1.548954366096854
1789039835234669300,7.58866943359375,1.0279469172045588,0.8984715192466973,-1.9714789366662502
1789039835244613000,7.598613037109375,1.0053171522453426,1.0299562112003564,-2.218473337328434
1789039835254557200,7.60855712890625,0.7951353556737303,1.440230372005701,-2.6561492998003957
1789039835264502300,7.618502197265625,0.1554553501278162,1.4529039756178854,-2.7945962319821116
1789039835274446300,7.6284462890625,-0.5248585713624954,0.2702121946424246,-2.1115601920515297
1789039835284390100,7.63839013671875,-0.7341343590050935,-0.9821908359408378,-1.3156558978319168
1789039835294334200,7.648334228515625,-0.7051110936164856,-1.5088240157604216,-0.9696867436766624
1789039835304278000,7.658278076171875,-0.763578187893331,-1.5770575940310954,-0.5968722526937723
1789039835314222000,7.66822216796875,-1.2482926726549863,-1.4056371975302695,-0.2759568757742643
1789039835324166100,7.678166259765625,-0.6839777046948671,-0.5755623381614685,0.11392565438747405
1789039835334110200,7.688110107421875,-0.24979718312323093,0.14592238262891769,0.7690595419138669
1789039835344054300,7.69805419921875,-0.5458130965858697,-0.07089549095630646,1.5132985308259725
1789039835353999000,7.7079990234375,-1.0335206256836653,-0.3031061639845371,1.7052672098368404
1789039835363943200,7.717943115234375,-1.132918573024869,0.28925708685219287,1.173620001247525
1789039835373887000,7.727886962890625,-0.9134025463968515,0.9528525132536888,0.7459908010154962
1789039835383831300,7.737831298828125,-0.779652832120657,1.088325982582569,0.7736912933677434
1789039835393775000,7.747775146484375,-0.34055472789108754,1.121638469597697,0.90081662106812
1789039835403719200,7.75771923828125,-0.04063011655211449,1.2668822223126888,0.8241203348785638
1789039835413663200,7.767663330078125,0.4948462949365377,0.877069250255823,1.0394663823455572
1789039835423607000,7.77760693359375,0.7804016046613454,0.6140548581629991,1.3421931916236878
1789039835433552400,7.787552490234375,1.2290998964071274,0.2682411868304014,1.6665724452614783
1789039835443496200,7.79749609375,1.3577695309400557,-0.17791268112957476,1.621281351161003
1789039835453440300,7.807440185546875,0.7021510747671127,-0.3700865273237228,0.9856757554471492
1789039835463384000,7.817384033203125,0.7188520341992378,-0.028075755405426023,0.6499976936817169
1789039835473328000,7.827328125,1.8866911139577627,0.2862041290223598,1.0222551353037357
1789039835483272200,7.837272216796875,2.186150445872545,0.024366964015364645,1.2641221099495887
1789039835493216300,7.84721630859375,1.3288257605284453,0.12321896791160106,1.0307698656708002
1789039835503160300,7.857160400390625,0.9810556944310664,0.4838742345452308,0.6457113946646451
1789039835513105200,7.867105224609375,0.8828688764452933,0.984340707451105,0.13298457512259482
1789039835523049200,7.87704931640625,1.1069754457339644,1.0202449645251035,-0.09798340436816215
1789039835532993000,7.886992919921875,1.7601289730980991,-0.00850011731982231,-0.014268179327249527
1789039835542937300,7.896937255859375,1.3346499366372824,-1.0269821638256311,0.12803718184828758
1789039835552881200,7.906881103515625,0.5752680313900113,-0.9806254863202571,-0.0751239223062992
1789039835562824700,7.91682470703125,0.5027092833966017,-0.7294669517159461,-0.2574801388412714
1789039835572768800,7.926768798828125,0.09600158290117979,-0.23523206667602062,-0.5578080702841282
1789039835582712600,7.936712646484375,0.16311609401404856,0.04728022209107875,-0.41575580708682536
1789039835592658000,7.946657958984375,-0.5827969655901193,-0.11012450853884219,-0.49862639799714087
1789039835602601700,7.956601806640625,-0.47041620255708694,-0.9853092602223157,-0.07659984007775783
1789039835612545800,7.9665458984375,-0.1688201508745551,-0.48031917241215705,0.16911738025546072
1789039835622489600,7.976489501953125,-0.22613486024588345,0.5842734678834677,-0.5115612828940153
1789039835632433700,7.98643359375,-0.5164408716291189,0.013032500052452087,-0.7240081017881631
1789039835642377700,7.996377685546875,-0.5903384670108557,-0.08840309059619902,-0.533583729609847
1789039835652321800,8.00632177734375,-0.32376492113173005,-0.38217151739299293,-0.4689496371358633
1789039835662266600,8.0162666015625,-0.3044745297282934,-0.8997387627035379,-0.18719781134724617
1789039835672210700,8.026210693359374,0.258202607896924,-1.3352736214935779,-0.24696751265525815
1789039835682154800,8.03615478515625,0.28144670536220073,-1.5841162803709505,-0.06438742423653603
1789039835692098800,8.046098876953126,-0.2247688325896859,-1.6595523373663426,-0.23005846343040465
1789039835702043000,8.05604296875,-0.18172814776450394,-1.7462392716944217,-0.6028887365043163
1789039835711986700,8.065986572265626,0.43708179597109553,-1.7191583725452422,-0.6679401776075363
1789039835721930800,8.0759306640625,0.3325847719252109,-1.6835691727697848,-0.42993338552117344
1789039835731874800,8.085874755859376,0.38974107586443424,-1.6942741066575049,-0.07280337040424346
1789039835741820000,8.09581982421875,0.5328212208047509,-1.2619465194761752,0.5246498970478772
1789039835751763700,8.105763671875,0.7076458727911115,-0.9126187025427818,0.7204004326850175
1789039835761707800,8.115707763671875,0.7064999176263809,-0.6880705269664525,0.9290963746130466
1789039835771651800,8.12565185546875,0.8685615341514349,-0.7775999912440776,1.3564309758126736
1789039835781595600,8.135595703125,0.939028570562601,-1.1170412049353122,1.6037351730763911
1789039835791539700,8.145539794921875,0.8350871345728635,-1.3620616751760244,1.7285078001707792
1789039835801483800,8.15548388671875,0.8886009903565049,-1.3610112893402575,1.837017859250307
1789039835811427800,8.165427734375,0.7087772149085998,-1.2635270666658878,1.969343678203225
1789039835821372700,8.17537255859375,0.3048848640948534,-1.0526087725132702,1.8409505225241183
1789039835831316700,8.185316650390625,0.20865794800519943,-0.9429659100115299,1.6753361819535493
1789039835841260500,8.195260498046874,0.4681605325847864,-0.7986082924813032,1.1399649844050406
1789039835851204900,8.205204833984375,0.40288668090254065,-0.6865799961477518,0.7619991020083426
1789039835861149000,8.21514892578125,-0.0575432574301958,-0.6567442453324794,0.40650107200741764
1789039835871092700,8.2250927734375,-0.0033729835644364355,-0.737592975026369,-0.037108372166752814
1789039835881036800,8.235036865234376,0.19951953278183937,-0.9132266053080558,-0.643369215452671
1789039835890981600,8.244981689453125,0.24664602561593055,-1.2099620652168988,-1.0265770901560782
1789039835900926000,8.254926025390626,-0.06078063191622495,-1.5496294888794422,-1.1395678017809987
1789039835910869800,8.264869873046875,-0.3244368290439248,-1.659844013789296,-1.1590350110560654
1789039835920813800,8.274813720703126,-0.14761808063089846,-1.7243851672828197,-1.4709496276572347
1789039835930758000,8.2847578125,0.14979776275753975,-1.6495318786114452,-1.861973144547641
1789039835940701700,8.29470166015625,0.4784884498536586,-1.4058032017469406,-2.011513425412774
1789039835950645800,8.304645751953124,0.7767886748611926,-1.1180717170268297,-2.166197206646204
1789039835960589600,8.314589599609375,0.8778510482832789,-0.8987100041776895,-2.239549150843918
1789039835970535000,8.324534912109375,0.8410323067128658,-0.8367477612614631,-2.12267487578392
1789039835980478700,8.334478759765625,0.9810849205255507,-0.7614099039435386,-2.031561649446189
1789039835990422800,8.3444228515625,1.1065931684181094,-0.7309510527938604,-1.6613634784415363
1789039836000366600,8.35436669921875,0.9651774495586752,-0.5327525394827127,-1.1104168183594942
1789039836010310700,8.364310546875,1.2183496620729566,-0.4197305559366941,-0.2800499903067946
1789039836020255000,8.3742548828125,1.3225108782932162,-0.3408247770041227,0.2766708692625165
1789039836030198800,8.38419873046875,1.1306178948670624,-0.4965156894534826,0.5337082327723502
1789039836040142800,8.394142822265625,0.9641977908715605,-0.6641694268971681,0.5969613922819494
1789039836050087700,8.404087646484374,0.6969611049085855,-0.7960708829581737,0.4509425635412335
1789039836060031700,8.41403173828125,0.6785434046864509,-0.9871002352923154,-0.048638650962710375
1789039836069975800,8.423975830078126,1.2568679010376334,-0.904731164163351,-0.727201344871521
1789039836079919900,8.433919921875,1.100016128115356,-0.7595107923239469,-0.876401726257801
1789039836089863700,8.44386376953125,0.9851879719302058,-0.415461792576313,-0.5871718196734785
1789039836099807700,8.453807861328125,1.1554402014344929,-0.1104898347198963,-0.3847504279702902
1789039836109751800,8.463751708984375,1.1022188988566397,0.003492518290877342,-0.13627017266452313
1789039836119697000,8.47369677734375,1.5481132390975951,0.06192717160284519,-0.3377247651621699
1789039836129640700,8.483640625,1.6629168453633785,0.056526189342141146,-0.6556728167086839
1789039836139584800,8.493584716796875,1.476517490917444,0.07222410921156407,-1.132746723589301
1789039836149528800,8.50352880859375,1.1012661281764506,0.04970832602083683,-1.536262203914672
1789039836159472600,8.51347265625,1.5810343887075782,0.0103740944981575,-2.1828459974996743
1789039836169416700,8.523416748046875,2.258020042558014,-0.11930559386014937,-2.668682033637166
1789039836179360800,8.53336083984375,2.767775445073843,0.24386662403047082,-3.3534973581999536
1789039836189304800,8.543304931640625,2.536633570320904,0.43359716872572895,-4.075207704439759
1789039836199249700,8.553249755859374,2.2672926055550575,0.3138537679702043,-4.941148242437839
1789039836209193700,8.56319384765625,2.2901497495293617,0.11879998242557048,-5.5524447418034075
1789039836219137800,8.5731376953125,1.9941478645920752,-0.2298001047551632,-5.865128881472349
1789039836229081900,8.583081787109375,1.7507855368219314,-1.093604215246439,-5.441780719560384
1789039836239026000,8.59302587890625,2.3114202088341114,-1.934363550236821,-4.5610056005239485
1789039836248969700,8.6029697265625,1.6177261428974568,-2.7164246125429865,-4.341554455825686
1789039836258913800,8.612913818359376,2.303567449507117,-2.5216122345387935,-3.7045819556728
1789039836268858600,8.622858642578125,2.2618469073697924,-1.640140365409851,-3.778199272808432
1789039836278803000,8.632802978515626,-0.2695452551662922,-0.48759413185119627,-4.639783661423623
1789039836288746800,8.642746826171875,-3.7835029321745037,0.4193792582809925,-4.556132733790577
1789039836298690800,8.65269091796875,-4.787679682213068,0.10503332287967204,-4.547919908979535
1789039836308635000,8.662634765625,-1.4982865473940967,-0.05751578490138053,-3.7285552441954612
1789039836318578700,8.67257861328125,3.5868700607448813,0.08529811031818389,-0.2026036164022982
1789039836328522800,8.682522705078124,7.335790632098913,-0.12592881139218806,3.065456661400199
1789039836338466600,8.692466552734375,5.142484469252825,-0.6797603792607784,4.876922730764746
1789039836348412000,8.702411865234374,0.5200675376936793,-2.7523113339602947,3.9997354070872064
1789039836358355700,8.712355712890625,-1.9636521885633467,-3.353875543862581,2.559711371308565
1789039836368299800,8.7222998046875,-2.132290406999737,-2.8026830923259256,1.0089622307494281
1789039836378243600,8.73224365234375,-1.7886382976152002,-1.9395809926241636,0.5774255016848444
1789039836388187600,8.742187744140624,-1.2008290568210185,-1.378825178450346,0.5230544445499777
1789039836398132000,8.752132080078125,-0.40823768654167647,-0.6898994959592819,0.9969760248795151
1789039836408075800,8.76207568359375,-0.29673019921183585,-0.011235679763555526,1.8068028998591004
1789039836418020600,8.7720205078125,0.22203999214768408,0.24066695120632647,2.2689104160152374
1789039836427964700,8.781964599609376,0.6666825787618756,0.5210831444770098,1.8137002581574022
1789039836437908700,8.79190869140625,0.24511896217912435,0.8623363760262728,1.0134507743403316
1789039836447852800,8.801852783203126,0.25420155556201934,1.0438818607002496,-0.17657069193609057
1789039836457796900,8.811796875,-0.36359891887009144,1.512316534051299,-0.9732849142991006
1789039836467740700,8.82174072265625,0.23821342057436704,1.9405857857525348,-1.0965557585284114
1789039836477684700,8.831684814453125,1.129366287370771,2.275109416785836,-0.8392436697304249
1789039836487629600,8.841629638671876,1.5918912982866167,2.4370412694513797,-1.048843793956563
1789039836497574000,8.851573974609375,1.903645171368122,2.5733488515168426,-1.128949011806771
1789039836507517700,8.861517578125,1.6686583116248248,2.231177920600772,-0.5893791935246437
1789039836517461800,8.871461669921874,2.0556559340000153,1.8203163152962922,-0.7459454275038093
1789039836527405800,8.88140576171875,2.0575605985775587,1.623763815626502,-1.1990741029124705
1789039836537349600,8.891349609375,1.4547814599275588,1.6116256340652704,-1.1977488456580787
1789039836547293700,8.901293701171875,1.7701558615937827,1.1842851876467466,-1.4172171606868504
1789039836557237800,8.91123779296875,2.451152796912193,1.2980237950295208,-1.2488543981909752
1789039836567183000,8.92118310546875,2.3117438878305254,1.3071312305927276,-0.5249562595833093
1789039836577127000,8.931126953125,2.409721885371208,0.8359639174073934,0.2869699988283217
1789039836587071000,8.941071044921875,2.0977799423716963,0.6296697759240866,0.20332630465365945
1789039836597015000,8.95101513671875,1.5951193204224108,0.33955636450350285,-0.2725921485815197
1789039836606959000,8.960958984375,1.040341119353473,0.22690087618231772,-0.8180505865108221
1789039836616903200,8.970903076171876,1.0619149455189705,0.033680151283740994,-1.3270739484250544
1789039836626847000,8.980846923828125,0.6703855249330402,-0.6453881540596484,-1.2159626938711852
1789039836636792000,8.9907919921875,-0.29426088648885484,-0.7134066282749175,-0.2162505950912833
1789039836646736100,9.000736083984375,-0.9143559015989303,-0.2135907282322645,0.627797406180948
1789039836656680200,9.01068017578125,-1.0698547986075282,0.5958961011379957,0.8676381356962025
1789039836666624000,9.0206240234375,-1.2149576815471053,1.207207213550806,0.8749633640177548
1789039836676568000,9.030568115234376,-1.5234198196068405,1.3585533747941254,1.0811030455917119
1789039836686511900,9.040511962890625,-1.7577052530825137,0.9104740917295217,0.9519881515093147
1789039836696456000,9.0504560546875,-2.0819559119045734,0.22347850051820276,0.8595020293831824
1789039836706400300,9.060400146484374,-1.9127695580661295,-0.3775485337674618,0.511004233533144
1789039836716345000,9.070344970703125,-1.6500792833611369,-0.6858201176911592,0.23960545945465564
1789039836726289200,9.0802890625,-1.4772615872830153,-0.7020505370020866,0.18040259824916718
1789039836736233000,9.09023291015625,-1.1789943877622484,-0.6125386083811521,0.1706213550776243
1789039836746177000,9.100177001953124,-0.6444999730482697,-0.6228302852928638,-0.14412702364474533
1789039836756121000,9.11012109375,-0.4023860379040241,-0.607419365671277,-0.5281543980374932
1789039836766065200,9.120065185546874,-0.8624152864813804,-0.32869302518367766,-0.43684842560663817
1789039836776009000,9.130009033203125,-1.0483692352473735,0.05409224019348621,-0.47784532964453097
1789039836785954000,9.1399541015625,-0.5088160758391023,0.2548573891222477,-1.0171503595106304
1789039836795897900,9.14989794921875,-0.18536270487457512,0.5024053320139646,-1.224355916750431
1789039836805842200,9.15984228515625,0.1624479854941368,0.7021323700666428,-1.1516969232529402
1789039836815786200,9.1697861328125,0.8304895776495337,0.8412637773811816,-1.0064571160607039
1789039836825730000,9.17972998046875,1.3717740908950566,0.7972720754414796,-0.8212256363503635
1789039836835674000,9.189674072265625,1.59289199976176,0.8240706505179405,-1.0724354627504944
1789039836845618000,9.199617919921875,1.7100336935862899,0.9382178387016057,-1.5183917623117564
1789039836855563300,9.209563232421875,1.4136699895992875,1.1175140831440686,-1.6095356760486959
1789039836865507000,9.219507080078126,0.867481337699294,1.071841296249628,-1.3096698091596364
1789039836875451100,9.229451171875,0.5955690611407161,0.9104594786822795,-1.2880983210816979
1789039836885395000,9.23939501953125,0.4405936034843325,0.80060969543159,-1.3097037114292382
1789039836895339000,9.249339111328124,0.25745968057513235,0.7088111171782017,-0.9245634073585272
1789039836905283000,9.259282958984375,0.17173866866976023,0.3807879540801048,-0.7249141107171774
1789039836915227000,9.269226806640624,0.024576515112817287,-0.13823708882331848,-0.519598166616261
1789039836925172000,9.279171875,-0.08654927942305803,-0.5604857650607824,-0.3677905253410339
1789039836935116000,9.289115966796874,-0.13025135076642036,-0.7916998282670974,-0.3796533970922231
1789039836945060000,9.29906005859375,-0.472488040395081,-0.7413374222517013,-0.4954927761465311
1789039836955004000,9.30900390625,-0.8276046698629855,-0.5217705422192812,-0.8125158218026161
1789039836964948000,9.318947998046875,-0.8139569605216384,-0.24116964003145694,-1.2270309811785816
1789039836974892000,9.32889208984375,-0.5988955752149224,0.025969138514995573,-1.5613278177186847
1789039836984836000,9.338836181640625,-0.04919453127980232,0.37178923958837984,-1.822321225377917
1789039836994780200,9.3487802734375,0.6264598739668726,0.5333160185843706,-1.7065338687717913
1789039837004725000,9.35872509765625,0.8941475185677409,0.45059857240915296,-1.6906082776263356
1789039837014669000,9.3686689453125,0.952178851775825,0.21672435008287427,-1.5947972488611937
1789039837024613000,9.378613037109375,0.7167746434032917,-0.1383756205111742,-1.6218807783588767
1789039837034557200,9.38855712890625,0.8576382813379168,-1.4756909769654274,-1.0696043309777974
1789039837044501000,9.3985009765625,1.286576226080954,-2.9430776514440775,0.4941550978019833
1789039837054445000,9.408445068359375,1.1034043092489243,-2.0823048714727164,1.5971189698070287
1789039837064388900,9.418388916015624,0.4240697541847825,-0.3973959745317697,0.31973814983367915
1789039837074334200,9.428334228515626,0.16629326274543998,0.10615209777653217,-2.055604203812778
1789039837084278000,9.438278076171875,0.3466568441584706,0.20764964774549005,-3.2604645619764923
1789039837094222000,9.44822216796875,0.3585425122633576,0.32413667705357074,-2.330770805992186
1789039837104166100,9.458166259765624,0.3251566677510738,0.35574411371648307,-1.2959984266817568
1789039837114110000,9.46810986328125,0.811471573446691,0.16255495299994946,-0.5834975150749087
1789039837124054000,9.478053955078124,1.9794249272346496,-0.020770985350012778,-0.3941811041384935
1789039837133998000,9.487998046875,1.522493936933577,0.03539104685485363,-0.02937777791470289
1789039837143943200,9.497943115234374,0.6048202890887856,-0.09494798219501972,0.20465894149690866
1789039837153887000,9.507886962890625,0.17394728462994097,-0.11671323927938937,0.345294615894556
1789039837163831000,9.5178310546875,0.006861994723975658,0.06114858844578266,0.15023673869669438
1789039837173774800,9.52777490234375,0.14125877473205328,0.287587692335248,-0.30057693776786326
1789039837183719200,9.53771923828125,0.6918935923859476,0.013050035709142684,-0.21717910811305044
1789039837193663200,9.547663330078125,0.9716434307023882,-0.03397241222858429,0.07285100893825291
1789039837203607000,9.55760693359375,1.152702593164146,0.32911680355370043,0.2698722951635718
1789039837213551900,9.5675517578125,0.6828861100658774,0.2546341017603874,0.2694122764363885
1789039837223496000,9.577495849609376,-0.24745149677991865,0.26203999410271644,0.07486381006538867
1789039837233440300,9.587440185546875,-0.31784926734715696,0.2107452756732702,0.12335662281662226
1789039837243384000,9.597384033203125,-0.22884616503119468,0.07203823125064372,0.8203370169475674
1789039837253328100,9.607328125,0.1553954366341233,0.15144962161779402,1.3412708160817621
1789039837263272000,9.61727197265625,0.4205120617032051,0.23122166199088096,1.755966300460696
1789039837273216000,9.627216064453124,0.5791816977024078,-0.15584055005311964,1.8297195189356803
1789039837283161000,9.6371611328125,0.26301000817865133,-0.36553660893440243,1.6928385208964347
1789039837293105200,9.647105224609374,-0.2249091178432107,0.18304244523346422,1.4704559989213943
1789039837303049000,9.657049072265625,-0.5191612365037203,0.444839278230071,0.7752110502809285
1789039837312993000,9.666992919921874,-0.3967535849750042,0.31824820353686806,-0.006767594438791275
1789039837322937000,9.67693701171875,-0.4204389964669943,0.22603870639503001,-0.27595219959914685
1789039837332881000,9.686880859375,-0.908457491210103,1.1330500904500485,-0.2881903344035148
1789039837342825000,9.696824951171875,-0.4828539515867829,2.1827327463835475,-0.2172287924736738
1789039837352770000,9.70677001953125,0.2415846505731344,2.2568208959013223,-0.3503974919915199
1789039837362714000,9.716714111328125,-0.008783610436320304,1.6963064892679451,-0.3558306229561567
1789039837372658000,9.726657958984376,-0.8562798524662851,1.198888882538676,0.168840901401639
1789039837382602000,9.73660205078125,-1.9006243622422216,0.6689841337025165,0.7606003411263227
1789039837392546000,9.746546142578126,-2.839175378420949,0.2424386370539665,1.0936480543881655
1789039837402490000,9.756489990234375,-3.1677766336679456,-0.3333370515972376,1.4688438875496386
1789039837412434200,9.76643408203125,-1.7088760479837655,-0.47212183743119235,1.6489192996710538
1789039837422379000,9.77637890625,-0.5695350406959653,-0.39509529637396335,1.394556416067481
1789039837432323000,9.786322998046876,-1.336364339339733,-0.5023147311210632,0.7958078481078148
1789039837442267000,9.796266845703125,-1.9788783992677925,-0.8708516909152269,0.8277665824264288
1789039837452211200,9.806211181640625,-1.9501064782917499,-1.113867251074314,0.9672580552250146
1789039837462155000,9.816155029296874,-1.856738458764553,-0.8347522035300731,0.1265156713694334
1789039837472099000,9.82609912109375,-2.0145225441008807,-0.5632575678616761,-0.5041337632417678
1789039837482043100,9.836043212890624,-1.5557921031624078,-1.0333996296525,-0.01812660832107067
1789039837491987000,9.845987060546875,-1.2052519878298042,-1.5061656102061272,0.3824778068631887
1789039837501932000,9.85593212890625,-1.2680869219273327,-1.5607418345242738,0.17822189320921897
1789039837511876000,9.8658759765625,-0.9405009812027215,-1.5037982965528964,0.09377367771863937
1789039837521820200,9.875820068359374,-0.7746399723947047,-1.4287877714931965,0.16824644263982771
1789039837531764000,9.885763916015625,-0.6208540167838335,-1.7276807016968727,0.07830196782052516
1789039837541708000,9.8957080078125,-0.5144727864265441,-1.967337014555931,0.337234059035778
1789039837551651800,9.90565185546875,-0.3684130411535501,-1.9454057532548903,0.7061357604891061
1789039837561596200,9.91559619140625,-0.9783002582430839,-1.918766752654314,0.5197954427540302
1789039837571540700,9.925540771484375,-1.1157283687710762,-1.504587985625863,0.7651344774246215
1789039837581484800,9.93548486328125,-0.2956765985056758,-1.3407915081322193,0.7747954552173614
1789039837591429000,9.94542919921875,0.3668333707466721,-1.3902707015722988,0.4112620027989149
1789039837601373000,9.955373046875,0.5742798971354961,-1.1448223613083361,0.08970949701964855
1789039837611317000,9.96531689453125,0.12918868997097013,-0.780643012201786,0.2597264564633369
1789039837621260800,9.9752607421875,-0.4662199199110269,-0.7195552140325308,0.8740116162508725
1789039837631204900,9.985204833984374,-0.5488493955418468,-0.8683984525442123,1.3001461940109729
1789039837641150000,9.99514990234375,-0.03420768228918314,-0.9271621916800736,1.461301217085123
1789039837651094000,10.005093994140625,0.340441915166378,-0.9000228403419256,1.5053975484430788
1789039837661037800,10.015037841796875,0.5820370871335268,-0.9476005840748548,1.7373188831359148
1789039837670982000,10.02498193359375,0.4820721535593271,-1.0348667795956135,1.8428940578073263
1789039837680926000,10.034926025390625,0.4001595940262079,-0.9715782565116882,1.8548177198350428
1789039837690869800,10.044869873046874,0.6715016694813967,-0.7811842794716358,1.8303285907447338
1789039837700813800,10.054813720703125,0.8476572778105735,-0.6408768141150474,1.6723200490027665
1789039837710759000,10.064759033203124,0.8908432163253426,-0.5282447066694498,1.4371598785191773
1789039837720703000,10.074702880859375,0.8572256088837981,-0.4380138161242008,1.099527175554633
1789039837730646800,10.084646728515626,0.6122174136027694,-0.3203910607844591,0.7925310183942318
1789039837740590800,10.0945908203125,0.34949528245478867,-0.26114158395826814,0.7951943923845887
1789039837750534700,10.10453466796875,0.14641601136475801,-0.6042454118102789,0.7125412436172366
1789039837760479000,10.11447900390625,-0.02493628833591938,-0.7964403007924556,0.29620237594544885
1789039837770423000,10.124423095703126,0.0929550548121333,-0.9198965845912694,0.07598521531075239
1789039837780368000,10.134367919921875,0.28197891254276036,-1.0666764608323573,-0.21980098104923962
1789039837790312000,10.14431201171875,0.12277648484110831,-1.0100269373714923,-0.6495701159194112
1789039837800255700,10.154255859375,-0.009250935687124729,-0.6718243255645037,-0.9651245503276586
1789039837810200000,10.164199951171875,0.10375497350692749,-0.14807283866107462,-1.1580968534231186
1789039837820143900,10.174143798828124,0.7410837397515774,0.398723423743248,-1.48437697224617
1789039837830088000,10.184087890625,1.3855977413251994,0.686850045260787,-1.9612109328910707
1789039837840031700,10.19403173828125,1.2999369351744652,0.7915098586529493,-2.2265268799245357
1789039837849976800,10.203976806640625,1.1476096539393066,0.7320587217748165,-2.3586472394332287
1789039837859921000,10.2139208984375,1.5859887962445616,0.6550315961956977,-2.728228155322373
1789039837869865000,10.223864990234375,1.915543991215527,0.861004250639677,-3.110619160684943
1789039837879809000,10.23380908203125,1.901192809779942,1.140757011565566,-3.218138747422397
1789039837889752800,10.2437529296875,1.4209562010847032,1.1346282995522021,-3.1941499690696595
1789039837899697000,10.25369677734375,1.1190917077243328,0.5549766462504864,-3.287561535477638
1789039837909640700,10.263640625,0.9360042543053626,-0.12073065822720527,-3.241510855181515
1789039837919586000,10.2735859375,0.5468567604199052,-0.6684878746181726,-2.8758646483927963
1789039837929529900,10.28352978515625,0.4384560069337487,-0.3804880943506956,-1.9138868716582655
1789039837939474000,10.293473876953126,0.4917664490997791,0.28960896902978417,-1.2677740565858782
1789039837949417700,10.303417724609375,0.09955343016386031,0.4643202237695455,-0.863932120785117
1789039837959361800,10.31336181640625,0.22046149078458546,0.32887714957892894,-0.9549293195277452
1789039837969306000,10.32330615234375,0.6555483135461807,0.23057342721521853,-1.405861946196854
1789039837979250000,10.33325,-0.03481426988020539,0.14275719659626482,-1.3707080690987408
1789039837989194800,10.34319482421875,-0.44072950482368467,0.0789975488692522,-0.8675687237218022
1789039837999138800,10.353138916015626,0.23434096305519342,0.08514438106119632,-0.17134747739508746
1789039838009083000,10.363082763671875,0.5658958074107766,0.26397300799191,-0.18462430759742854
1789039838019027000,10.37302685546875,0.4791808160319924,0.4454933582246303,-0.36606443220078944
1789039838028971000,10.382970947265624,0.3010964315973222,0.6198690973997115,-0.14546762459874152
1789039838038914800,10.392914794921875,-0.0036962241694331165,0.9273135828495025,-0.0375592577394098
1789039838048860000,10.40285986328125,0.3883712488159537,1.3478776670008896,-0.2518852414436638
1789039838058803700,10.4128037109375,0.3887465118691325,1.7499299429059028,-0.4726770601611584
1789039838068748000,10.422748046875,-0.00227612823843956,1.8084125270128248,-0.43946883723810315
1789039838078691800,10.43269189453125,0.1657566716507077,1.397487793344259,-0.4966317170485854
1789039838088636000,10.442635986328124,0.5309525043234229,1.103278052520752,-0.3380548008341342
1789039838098580000,10.452580078125,0.4676785942867398,0.9738491240531205,-0.17045871186181902
1789039838108523800,10.462523681640626,0.5324360208794474,0.899665697467327,-0.3819008106928318
1789039838118469000,10.47246923828125,0.9380452586136758,0.8836895451784134,-0.2551383249554783
1789039838128413000,10.482412841796876,1.065873327755928,0.7413800923496484,0.09255845670998096
1789039838138357000,10.49235693359375,1.2451102432265877,0.8420879532456398,-0.11291830397583544
1789039838148300800,10.50230078125,1.381075441595167,0.8159691771268844,-0.4586985844954848
1789039838158244900,10.512244873046875,1.2197218272089958,0.7027315050035715,-0.838800821333751
1789039838168189000,10.52218896484375,1.0486953984618186,0.5015209503948688,-0.6384812242154032
1789039838178132700,10.5321328125,1.0207754181399942,0.49858781955242154,-0.2695384600993246
1789039838188077800,10.542077880859376,0.5323319759830832,0.6658966890811919,-0.36036826638579367
1789039838198022000,10.55202197265625,0.1699813036084175,0.5468325027614832,-0.35798977375142277
1789039838207966000,10.561966064453125,0.08257716092169284,0.40965106047093863,-0.1683179004408419
1789039838217909800,10.57190966796875,-0.25109423719644547,0.580555908665061,0.04638385777324438
1789039838227853800,10.581853759765625,-0.7215700609862804,0.6469710393369198,0.4893786771804094
1789039838237798000,10.5917978515625,-0.9206922650136053,0.7413648947805166,1.1169764691360293
1789039838247742000,10.601741943359375,-0.3971230028092861,0.7911345955997705,1.3288389122709632
1789039838257686800,10.611686767578124,0.028843817168474197,0.7512211028844118,0.8932914862602949
1789039838267630800,10.621630859375,-0.08639671920984983,0.5778437270969152,0.721137076396495
1789039838277574700,10.63157470703125,-0.7010974740609526,0.8056219706356524,0.694975776310265
1789039838287519000,10.64151904296875,-0.9602861703857779,0.9999182158112525,0.2700871069580316
1789039838297463000,10.651463134765624,-0.6393550113752484,1.1941618540167809,-0.3372457494735718
1789039838307406800,10.66140673828125,0.004752455224096775,1.1191261945158242,-0.668107789259404
1789039838317351000,10.671350830078126,0.1541039355188608,1.013296752822399,-0.5206095356158912
1789039838327295700,10.681295654296875,0.36275662282705307,0.7316635849773884,-0.4577836616076529
1789039838337240000,10.691239990234376,0.5629574158713221,0.5776555110484362,-0.8736088806688785
1789039838347183900,10.701183837890625,0.7005851406246423,0.6882371157050132,-1.7298238512054085
1789039838357128000,10.7111279296875,0.6295423501521349,0.6958160265266895,-2.4817554404467344
1789039838367071700,10.72107177734375,0.4500006065160036,0.5072001650750637,-2.720781054186821
1789039838377015800,10.731015869140625,0.14382657939344642,0.14469664022624493,-2.4024396194085478
1789039838386961000,10.7409609375,-0.18814122967720032,-0.2502899350762367,-2.2378905699819325
1789039838396905000,10.750905029296876,-0.3761936120271683,-0.49673254707455633,-2.17189278793931
1789039838406849000,10.76084912109375,-0.4740668340191245,-0.5874474217444658,-2.0553505213126537
1789039838416792800,10.770792724609375,-0.6544403523042798,-0.5400713380634784,-1.6201748512238263
1789039838426737000,10.78073681640625,-0.3516930847600102,-0.3777665604323148,-1.1411875119373203
1789039838436680700,10.7906806640625,0.014664485168457031,-0.4604869292169809,-0.8647095348984003
1789039838446625000,10.800625,-0.02493482703119516,-0.6942723042160273,-0.7174357376605272
1789039838456568800,10.81056884765625,0.0016427987709641456,-0.8145353449314833,-0.9016127398818731
1789039838466514000,10.820513916015624,0.009619768999516963,-0.6906628815472126,-1.1226780417785047
1789039838476457700,10.830457763671875,-0.300377908064425,-0.33597850601673124,-0.7331278123110533
1789039838486401800,10.84040185546875,-0.2379904254734516,-0.14668050751984119,-0.418636038698256
1789039838496346000,10.85034619140625,0.3302466843664646,-0.044510757377743716,-0.17369535569548605
1789039838506290000,10.8602900390625,0.9055131083212792,-0.08882803801000118,0.2145709714412689
1789039838516234000,10.87023388671875,1.2223264567494392,-0.16516484323740005,0.2074041485518217
1789039838526178800,10.8801787109375,1.1816223981782794,-0.03305763547122478,-0.10161153173744678
1789039838536123000,10.890122802734375,0.8548246852219105,0.1415548350691795,-0.745959529094398
1789039838546067000,10.90006689453125,0.436679937171936,0.3621954818129539,-1.106235733282566
1789039838556011000,10.910010986328125,0.06673515640646219,0.5001899940520524,-1.1180255397975445
1789039838565955600,10.91995556640625,0.1897133012995124,0.300726575371623,-1.1049679053038357
1789039838575899600,10.929899658203125,0.6704132897228002,0.39663551155328747,-0.45527679335325955
1789039838585843500,10.939843505859375,0.7780816372811794,0.2586842539340258,-0.05836392616331577
1789039838595788800,10.949788818359375,0.7747028084978461,0.29955753159224985,0.353491366353631
1789039838605732600,10.959732666015626,0.237590612500906,0.11063128901720046,0.8101189897939562
1789039838615676700,10.9696767578125,-0.3379828315764665,-0.3622311376482248,0.5765621628537774
1789039838625620500,10.979620361328125,-0.41421792999505996,0.027883447703719137,0.4581199078246951
1789039838635564500,10.989564453125,0.029308804331719875,0.6617033290445804,0.506483541238308
1789039838645508900,10.9995087890625,0.49654520780891176,1.1363210749447346,0.7822571694001555
1789039838655452700,11.00945263671875,0.31447482247799635,0.946551951804757,1.476894507536292
1789039838665397800,11.019397705078125,0.0737865362226963,0.13273147714436054,1.8793226310163735
1789039838675341600,11.029341552734374,-0.07726414920538663,-0.009542319849133491,2.092581350815296
1789039838685285600,11.03928564453125,-0.26204671610444785,0.717684159463644,2.4577245765179394
1789039838695229700,11.049229736328124,-0.4757859128966927,1.1330156036585568,2.3647411723941563
1789039838705173800,11.059173828125,-0.8988982202261686,1.1733300783902405,1.678404921874404
1789039838715117600,11.06911767578125,-1.2363082203507423,1.571354998475313,1.0352718532651661
1789039838725062700,11.079062744140625,-0.8197051487848163,2.000798554652929,0.47505438375174996
1789039838735006500,11.08900634765625,0.11793109063655137,1.6312918730437755,0.86709730681777
1789039838744950800,11.09895068359375,0.954549088038504,0.6956465151786804,1.1682494141250848
1789039838754894800,11.108894775390626,0.9790501998275518,0.2197042426764965,1.1731903776586055
1789039838764838700,11.118838623046875,-0.04726210191249847,0.6400859559983014,0.5135521644502878
1789039838774782700,11.12878271484375,-1.5796204302564263,1.4109797276020049,-0.06445405973196029
1789039838784726500,11.1387265625,-1.7307038489103317,1.4183914651632308,0.1580868676751852
1789039838794671900,11.148671875,-0.019607202267646787,0.35483518217802046,0.9254548032402992
1789039838804615700,11.15861572265625,0.6549287203431129,-1.301753629207611,2.195440252265334
1789039838814559700,11.168559814453126,-0.19752865122556684,-2.1154554459244013,3.1677544218361375
1789039838824503600,11.178503662109375,-0.932141149136424,-1.4374895488649606,3.076621614015102
1789039838834447600,11.188447509765625,-0.5176458635047078,-0.4842237786352634,2.255973339161277
1789039838844391700,11.1983916015625,-1.316472182650864,-1.2992156351625919,1.4853244822293519
1789039838854335700,11.208335693359375,-2.153012730902433,-1.2248393163532019,0.9552817862272261
1789039838864280600,11.218280517578124,-1.7182576243132353,-0.5559194800585509,0.9371732980847358
1789039838874224600,11.228224609375,-1.1920604978233575,-1.1444038436353206,1.5251824453651903
1789039838884168700,11.238168701171874,-0.2770283043980598,-1.9245424134463072,1.6106050588458776
1789039838894112500,11.248112548828125,0.7554296604901551,-2.0168314055651426,0.9988082087427377
1789039838904056800,11.258056884765624,0.8231570428043603,-1.6086743830442427,-0.2398503741264343
1789039838914000600,11.268000732421875,-0.26830548423826694,-1.0560685575783253,-0.4189151479005813
1789039838923944700,11.27794482421875,-0.5995055238068103,-1.58456519318223,0.23097791636288165
1789039838933889500,11.2878896484375,-0.10551058500260115,-1.8366724068135023,0.7609025389432906
1789039838943833600,11.29783349609375,0.25173691901415585,-1.8221248260229825,0.8371662789344787
1789039838953777700,11.307777587890625,-0.3092427670434117,-1.7962632395356892,0.926741920441389
1789039838963721700,11.3177216796875,-0.7979051126480102,-1.9815356357783078,1.319262397891283
1789039838973665800,11.327665771484375,-1.0700587967470288,-2.6119436628490686,1.7421102090656757
1789039838983609600,11.337609619140625,-1.3095970361843705,-3.4702848317593333,1.8849509922921657
1789039838993554700,11.3475546875,-1.0666150860339403,-3.9857168186068535,1.9032576333552598
1789039839003498800,11.357498779296876,-0.572534514772892,-3.902368673312664,1.9624001426756381
1789039839013442800,11.36744287109375,-0.32407997843027114,-3.5515035638093946,2.119700243887305
1789039839023386600,11.37738671875,-0.31010902848392724,-3.146648505443334,2.4607103143304583
1789039839033330700,11.38733056640625,-0.36598815209418534,-2.109730054014921,2.735286549401283
1789039839043274800,11.397274658203125,-0.5786588428720831,-0.7679220623165368,2.615480020281672
1789039839053218600,11.407218505859374,-0.2823709806002676,-0.022104279780387877,2.005909029534459
1789039839063163600,11.41716357421875,0.7168681669056415,0.3260164994508028,1.1055693783283234
1789039839073107700,11.427107666015624,1.8964672425627707,0.41947921152412887,0.7153215219855308
1789039839083051800,11.4370517578125,2.652795313197374,0.4330494717150926,0.6457800759866833
1789039839092995600,11.44699560546875,3.4561364794194698,0.410316246381402,0.8550058870077133
1789039839102939600,11.456939697265625,4.09081736150384,0.4862906480371952,0.8810627038061618
1789039839112883500,11.466883544921876,4.1287867344141,0.6443085421293974,0.8098167919769883
1789039839122827800,11.476827880859375,3.035319297289848,0.9094418260723351,0.8607818400606513
1789039839132772600,11.486772705078126,1.1697685865163803,1.3114374033540486,0.4573658745869994
1789039839142716700,11.496716552734375,1.0741638939782976,1.2861498173624277,-0.10255728815495967
1789039839152660700,11.50666064453125,1.2456558944106102,1.183956101822853,-0.8875997043594718
1789039839162604500,11.5166044921875,0.719329004061222,1.3377964179694652,-1.6606529920846222
1789039839172548900,11.526548828125,0.9096177671611309,1.6836141809552907,-1.992723384746909
1789039839182492700,11.53649267578125,1.0336740626797079,1.994972624978423,-1.8212898365035652
1789039839192437800,11.546437744140626,0.33414632215350865,1.8905518810391424,-2.019873549740016
1789039839202381600,11.556381591796875,0.7881728231847286,1.6067910535156726,-2.384533960361779
1789039839212325600,11.56632568359375,1.4276993917346,1.6519465385377405,-2.59586521922946
1789039839222269700,11.576269775390625,1.170304008567333,1.6246820995151996,-2.4313886505171656
1789039839232213800,11.5862138671875,0.4071393699109554,1.1254121429175137,-1.697022820843756
1789039839242157800,11.59615771484375,0.6596971037887036,0.8611158943206071,-0.9287313406929373
1789039839252101600,11.6061015625,1.1985260405756533,0.9791320328921079,-0.4913160749837756
1789039839262046500,11.61604638671875,1.0674313708528875,0.7105290270119905,-0.34888913325518367
1789039839271990800,11.62599072265625,0.4035620959460735,0.34234336487352846,-0.2470481766760349
1789039839281934800,11.635934814453124,0.7724294567383825,0.5000801039367914,-0.8145673475049435
1789039839291878700,11.645878662109375,1.629811863619089,0.935261326983571,-1.3434993057861924
1789039839301822700,11.65582275390625,1.8235984057068824,1.2877595906466246,-1.2809734376378357
1789039839311766500,11.6657666015625,0.9817534674368799,1.45716630923748,-0.847526783298701
1789039839321711900,11.6757119140625,0.8226771503329277,1.225154373651743,-0.3118210930988192
1789039839331655700,11.68565576171875,1.368453422039747,0.8679121303319931,-0.03675765903294086
1789039839341599700,11.695599853515626,1.4747311920225619,0.8993553163439035,-0.7828031128451227
1789039839351543600,11.70554345703125,0.3373335738874972,0.8229308328330517,-0.5992442425221205
1789039839361487600,11.715487548828126,-0.30933387939296664,0.4407406107395887,0.37335692729651926
1789039839371431700,11.725431640625,0.7464647752027959,0.2571364399701357,0.33354338782429693
1789039839381375700,11.735375732421875,2.197254169819504,0.7651841617852448,-0.6636001025766134
1789039839391320800,11.74532080078125,1.6495172655642032,1.3574310927659272,-1.0216410950586199
1789039839401264600,11.7552646484375,-0.06167392749413848,0.9508540329128503,0.24592706369161604
1789039839411208700,11.765208740234375,0.16339593386873602,0.18216215526759624,1.2015548868775368
1789039839421152500,11.775152587890625,1.4938075022839008,-0.0972708721846342,0.4655629173070192
1789039839431096800,11.785096923828124,2.1209809313476082,0.08888064498007298,-1.0986654441587627
1789039839441040600,11.79504052734375,1.1571499279618263,0.1925251438498497,-1.2129720606878398
1789039839450985700,11.80498583984375,0.9093385118283331,-0.07344517543911934,-0.12783259918689727
1789039839460929500,11.814929443359375,1.408155171700567,0.16053192273974418,-0.846688432778418
1789039839470873600,11.82487353515625,1.53108582419008,0.5248223310053348,-2.1614127488486465
1789039839480818000,11.83481787109375,0.7760884176373481,0.6164414610385894,-1.9605309878028927
1789039839490761700,11.84476171875,-0.7794505875468254,0.7238672320127487,-0.540220537275821
1789039839500705800,11.854705810546875,-1.7930210427440703,1.0624223105192183,0.627940906304866
1789039839510649600,11.864649658203126,-1.2849512552276252,1.1952864741325377,0.7082192887648939
1789039839520594700,11.8745947265625,-0.9984254930354655,1.4145838895738123,0.8378044307075441
1789039839530538500,11.88453857421875,-0.9539490763187408,1.880285923090577,1.5979568819358945
1789039839540482800,11.89448291015625,-0.7122025131821632,1.6109347291916607,2.115071707303822
1789039839550426600,11.904426513671876,-0.3492331243872642,1.1128653805553912,1.9916776750862597
1789039839560370700,11.91437060546875,0.3602862871907651,0.732309481665492,1.1961144493892788
1789039839570314800,11.924314697265626,0.9610672377608716,0.48362055204510684,0.5742743441775441
1789039839580259600,11.934259521484375,1.078777232992649,0.23205752829313278,0.28129852906316516
1789039839590203600,11.94420361328125,1.3324175014100967,-0.04555471347272396,-0.31657734771519896
1789039839600147700,11.954147705078125,1.4348502864025532,-0.0508902292817831,-0.9973626861095428
1789039839610091800,11.964091796875,1.1973651801027356,0.15548399170041083,-1.277001173005998
1789039839620035600,11.97403564453125,1.5289653249047697,0.3529945227473974,-1.6309423289537428
1789039839629979600,11.983979736328125,1.6420352392457425,0.6915764892607927,-1.7553636583924292
1789039839639923500,11.99392333984375,1.032813938719034,0.8790683151185512,-1.6063789655834435
1789039839649868800,12.003868896484375,0.49140302261486646,0.7173188332825898,-1.9391189280703662
1789039839659812600,12.0138125,0.012339257091283798,0.4219605069458484,-2.6626857158318162
1789039839669756700,12.023756591796875,-0.3448189612068236,0.40126492491960525,-2.7848040290251372
1789039839679700700,12.03370068359375,-0.3485458727754652,0.5373895516335964,-2.2138100216925145
1789039839689644500,12.04364453125,0.007774141132831573,0.5057575650513172,-1.6717825811251996
1789039839699588600,12.053588623046876,0.42827933470383284,0.282501767373085,-0.6309981019183993
1789039839709533700,12.06353369140625,1.0903532506264746,-0.10155074146091937,0.6245423499077558
1789039839719477800,12.073477783203124,1.8622737349294125,-0.35184652175605297,1.1997697570264338
1789039839729421600,12.083421630859375,2.201824838735908,-0.03880056303739547,1.069289858201146
1789039839739365600,12.09336572265625,1.9611366986110805,0.564748098680377,0.6545607638135552
1789039839749309400,12.103309326171875,1.552712257325649,1.0931441965192557,-0.08817600384205579
1789039839759253800,12.113253662109376,1.2227905671298502,1.3732429944038391,-1.1743635130912065
1789039839769197800,12.12319775390625,0.8072878580212592,1.5505916119098662,-1.6288769208565352
1789039839779142700,12.133142578125,0.30498437894657254,1.5491788225024938,-1.170412729638815
1789039839789086500,12.14308642578125,0.03917611835151911,1.1946978605896235,-0.3917439401194453
1789039839799030500,12.153030517578125,-0.08293430379629135,0.4462900615602731,0.43093730186671014
1789039839808974800,12.162974853515625,0.04389554808884859,-1.0763105506181716,1.1346426203384994
1789039839818918700,12.172918701171875,0.31653263179063795,-2.879727169039845,1.8384882240638136
1789039839828862700,12.18286279296875,0.4654521504089236,-3.477206155455112,2.1104490159392357
1789039839838807600,12.1928076171875,0.2815200628593564,-3.7008699494123456,2.046087310665846
1789039839848751600,12.202751708984374,-0.4406675455033779,-2.304466444173455,1.7906915768831968
1789039839858695700,12.21269580078125,-0.38932694210559127,0.4102525334954262,0.8813467814445495
1789039839868639700,12.2226396484375,-0.26407413027882576,1.740565317711234,0.36699557557106016
1789039839878583600,12.23258349609375,-0.6180310683175921,1.9578098922759293,-0.26407939097583294
1789039839888527600,12.242527587890624,-0.5173436656877398,1.4788608391731977,0.5149731371641159
1789039839898471700,12.2524716796875,-0.305564370791614,0.2822024921655655,1.2845634249538183
1789039839908416800,12.262416748046874,-0.19883418086618185,-0.2588707164168358,1.6198089405208824
1789039839918360800,12.27236083984375,-0.4662175818234682,0.04717033197581768,1.558245926055312
1789039839928304600,12.2823046875,-0.899926978752017,0.7756611321359872,0.9675012163311243
1789039839938248700,12.292248779296875,-1.4386106618493795,1.4573895965993404,0.3455027056872845
1789039839948192500,12.302192626953126,-1.8009610419631004,1.7580547971725462,0.3819283562868833
1789039839958136600,12.312136474609375,-2.143569195252657,1.5939064375013112,0.4507622385382652
1789039839968081700,12.32208154296875,-2.6279288752272723,1.4277443999201058,0.06539221736490726
1789039839978025700,12.332025634765625,-2.310904952788353,1.6604805581271647,-0.09481529572606086
1789039839987969500,12.341969482421876,-1.746234887780249,1.5539824233919382,0.03729892630279064
1789039839997913600,12.35191357421875,-0.9912629079297184,0.8479150519639254,1.1211942329615354
1789039840007857700,12.361857666015625,0.3828016319900751,-0.28547523022592064,2.4736451992273327
1789039840017801500,12.371801513671874,-0.47928164605796336,-0.9703034142702818,2.204020449084043
1789039840027745800,12.381745849609375,-1.4104133258908986,-0.8663385974049568,1.5987573846638201
1789039840037690600,12.391690673828125,-1.4051312938347458,-1.4107646235466003,1.632491896483302
1789039840047634700,12.401634765625,-0.9672627314001321,-1.6453654065817593,1.9541507852464912
1789039840057578500,12.41157861328125,-0.8720593131393194,-1.7817080599606037,1.926776456108689
1789039840067522600,12.4215224609375,-1.2340712550789117,-1.0553688848763703,1.647231200453639
1789039840077466600,12.431466552734374,-1.2449185200467705,-0.5784305870741605,2.0137340240716934
1789039840087410700,12.44141064453125,-0.4920058108136058,-1.3725304622203112,2.503123222646117
1789039840097355500,12.45135546875,0.39037878924608227,-1.916589993137121,2.919246694001555
1789039840107299600,12.461299560546875,0.4188751081511378,-2.1444962469696995,2.8491718717783687
1789039840117243600,12.47124365234375,0.27329116369634865,-1.8132552908688782,2.6201585334867237
1789039840127187700,12.481187744140625,-0.09504062891453505,-1.8104799809366463,3.040171998018026
1789039840137131800,12.4911318359375,-0.046537002508342265,-2.4921546693861485,3.3252246189177033
1789039840147075600,12.50107568359375,0.10507277810722589,-2.0215461591273547,2.8829730190932747
1789039840157019600,12.51101953125,-0.31433716757297514,-1.5586135903239249,2.4281997913479803
1789039840166964500,12.520964599609375,-0.6337424321904778,-0.9472843577325344,2.0426561671733854
1789039840176908800,12.53090869140625,-0.6753177206382155,-1.1654454626202582,2.190289445373416
1789039840186852600,12.5408525390625,-0.40419805576205253,-1.7191788308113813,2.43892401445806
1789039840196796700,12.550796630859375,-0.09409136536568402,-1.652052336999774,1.9006231931984423
1789039840206740700,12.56074072265625,-0.1303901747152209,-1.1769658045440912,1.2259218508929013
1789039840216684500,12.5706845703125,-0.2960767037391662,-0.7539315308868885,1.094344219958782
