time,seconds_elapsed,z,y,x
1790943252383777800,0.06477783203125,9.633065703463554,1.8366070864923296,-0.03612437294794945
1790943252393809000,0.074808837890625,9.636705521270633,1.8171712952688335,-0.04668411479487549
1790943252403839000,0.0848388671875,9.640614803668855,1.7959233400568364,-0.05992018829514272
1790943252413869800,0.094869873046875,9.644400167426467,1.7749071477741003,-0.0750441716009751
1790943252423900000,0.10489990234375,9.647520929795503,1.7572725607536732,-0.08788193453261628
1790943252433930800,0.1149306640625,9.649772508114577,1.7449072924382985,-0.08703910876661539
1790943252443960800,0.1249609375,9.651002342170477,1.7387458471991122,-0.0727744091712404
1790943252453991000,0.134990966796875,9.649793550902604,1.7463729810766875,-0.04531891368916258
1790943252464022000,0.14502197265625,9.64443056256473,1.7763247594870626,0.0028632553604547866
1790943252474051800,0.1550517578125,9.633913260203599,1.8308529068797825,0.07797859935136511
1790943252484083000,0.1650830078125,9.618570145121216,1.9032522265277803,0.1764177846630104
1790943252494113000,0.175113037109375,9.59974678670764,1.9823855306059122,0.29222335277926176
1790943252504143000,0.18514306640625,9.579487842532991,2.0562943780340253,0.41886462328974156
1790943252514174000,0.195174072265625,9.561020457950233,2.1122794462367893,0.5436406479176134
1790943252524204000,0.2052041015625,9.547499882119894,2.143201969375461,0.6498579929500818
1790943252534235000,0.21523486328125,9.540665652185679,2.150674935604632,0.7215835780549794
1790943252544265000,0.225264892578125,9.540262332081793,2.1366315049439666,0.7671909715630114
1790943252554296000,0.235296142578125,9.54463338677287,2.1030043990217147,0.804819495146349
1790943252564326100,0.245326171875,9.550795416533946,2.0581791688673197,0.8465134415376931
1790943252574356000,0.25535595703125,9.554342879882455,2.0165533192761242,0.9046680357992648
1790943252584386800,0.26538671875,9.550850946113467,1.9916468415565787,0.9924596434336155
1790943252594417000,0.2754169921875,9.536924127569794,1.9925940592788158,1.116703205152601
1790943252604447700,0.28544775390625,9.51192178826034,2.020957107193023,1.2686451403319834
1790943252614477800,0.295477783203125,9.477406939718128,2.068453310122341,1.4389737960733473
1790943252624508000,0.3055078125,9.435292137566208,2.1209085967637598,1.6270824386551974
1790943252634539000,0.3155390625,9.387494613602756,2.165194897735864,1.8322842548571525
1790943252644568800,0.32556884765625,9.336303940069675,2.1931216000594196,2.047933961445838
1790943252654600000,0.335599853515625,9.284659093028306,2.19964413369596,2.2642997073493896
1790943252664630000,0.345630126953125,9.236346020758152,2.1757871650293468,2.4751252086520195
1790943252674660900,0.355660888671875,9.191299841329455,2.112057620179653,2.6887922169908878
1790943252684691000,0.36569091796875,9.144642135050892,2.002179926008731,2.9218448938012123
1790943252694721000,0.375720947265625,9.096526046657562,1.8636403471074998,3.1544328757092357
1790943252704751900,0.385751953125,9.053196608018874,1.7330854833498597,3.3476007013767957
1790943252714782000,0.395781982421875,9.017160248997808,1.6158441285431384,3.500036411422491
1790943252724813000,0.40581298828125,8.986410890468955,1.4959600041426717,3.63000105420202
1790943252734843100,0.415843017578125,8.955388560217619,1.3640358978584408,3.756435184767842
1790943252744873000,0.425873046875,8.915441165232657,1.2302809228852392,3.895086991871893
1790943252754904000,0.435904052734375,8.860842729082703,1.1135462754916399,4.051649134197831
1790943252764934000,0.445933837890625,8.783455538019538,1.014545072383061,4.241696489757299
1790943252774965000,0.455965087890625,8.671217398327588,0.9116674662325531,4.48878967461884
1790943252784994800,0.465994873046875,8.509791741618514,0.7860597765535116,4.809983576218784
1790943252795026000,0.47602587890625,8.287019928064941,0.6378339392878115,5.204695133972168
1790943252805055700,0.4860556640625,7.991182878300547,0.47242801730353384,5.664644303050637
1790943252815085800,0.4960859375,7.606268784201145,0.2877255847022869,6.183225109317898
1790943252825117000,0.506116943359375,7.130321251001954,0.07669313525124452,6.732237294206023
1790943252835147000,0.51614697265625,6.5809226971447465,-0.16613441892191766,7.2687161607354875
1790943252845177900,0.526177734375,5.998799685293435,-0.43692441345229743,7.745572040951251
1790943252855208000,0.5362080078125,5.424245062869787,-0.7321851976986974,8.137066682484745
1790943252865238800,0.54623876953125,4.880916184315085,-1.0604018375422806,8.439348086082935
1790943252875268900,0.556268798828125,4.421505359897017,-1.414819013503939,8.638226398351788
1790943252885299000,0.566298828125,4.009132180985808,-1.7854114445231855,8.769809289982915
1790943252895330000,0.576330078125,3.6108494867473837,-2.165993793028593,8.85667099635601
1790943252905360000,0.58635986328125,3.237773129957914,-2.538049282337725,8.901995408204197
1790943252915391000,0.596390869140625,2.918917023655772,-2.894237340429425,8.903578878003358
1790943252925421000,0.606421142578125,2.6494118082389235,-3.230525935308635,8.87213160033822
1790943252935452000,0.616451904296875,2.412620675552636,-3.544760811550915,8.819541581401229
1790943252945482000,0.62648193359375,2.1999583142116665,-3.8420699796944855,8.750375690716504
1790943252955512000,0.636511962890625,2.0089516121007502,-4.121432572259009,8.66881150622964
1790943252965543000,0.64654296875,1.86797121591866,-4.3751738168329,8.57548440323472
1790943252975572700,0.65657275390625,1.8136876909367738,-4.597114440259337,8.470388536512852
1790943252985604000,0.66660400390625,1.8533743891589343,-4.789436755013465,8.354442189952731
1790943252995634000,0.676634033203125,1.9731423398338257,-4.955464937081933,8.22924519996643
1790943253005663700,0.686663818359375,2.1189735370479523,-5.073539527842402,8.120316623213887
1790943253015695000,0.696695068359375,2.2125964081190523,-5.136794148656725,8.055318373602628
1790943253025725200,0.70672509765625,2.226790060905367,-5.169463077071309,8.030470348072052
1790943253035756000,0.716756103515625,2.1791293150641025,-5.202699576240778,8.022076029214263
1790943253045786000,0.7267861328125,2.1148433053754268,-5.266381482556462,7.997690360498428
1790943253055817200,0.736817138671875,2.068208103189617,-5.36646215146482,7.94317258836925
1790943253065847000,0.746846923828125,2.0583532102599738,-5.490117172706126,7.860800010108948
1790943253075877000,0.756877197265625,2.0821134405538437,-5.614457253602147,7.766147795990109
1790943253085908200,0.766908203125,2.134406960762292,-5.7239598308503625,7.67144005229175
1790943253095938300,0.776938232421875,2.205099476492405,-5.830147584462165,7.570819869679212
1790943253105969200,0.78696923828125,2.3673450712822377,-5.993766951823234,7.391942727431655
1790943253115999200,0.796999267578125,2.610188928136229,-6.08336948133707,7.235325347787142
1790943253126030000,0.807030029296875,2.8589693354323504,-6.163089499261975,7.071987135455012
1790943253136060200,0.81706005859375,3.1166517188474536,-6.263554199051857,6.872026873168349
1790943253146090200,0.82709033203125,3.38876244058758,-6.329164443081617,6.680444563126564
1790943253156121300,0.837121337890625,3.5826615031391382,-6.357492127421498,6.5511220176428555
1790943253166151200,0.847151123046875,3.7033585513576863,-6.403184788060188,6.438537840992212
1790943253176182300,0.857182373046875,3.764970081140101,-6.480276795569062,6.324665962618589
1790943253186212400,0.86721240234375,3.78450743304193,-6.656465137124061,6.12693740490675
1790943253196242200,0.8772421875,3.7295693896740674,-6.878703866714239,5.911355210596323
1790943253206273000,0.88727294921875,3.5559736949607728,-7.071610118836164,5.789454339545965
1790943253216303000,0.89730322265625,3.370099825693667,-7.184760112676024,5.761252911934256
1790943253226334200,0.907334228515625,3.1981676802784205,-7.230246437087654,5.802210945266485
1790943253236364000,0.917364013671875,3.041728287549317,-7.274706925582885,5.830687682688236
1790943253246395100,0.92739501953125,2.914669010822475,-7.339611067169904,5.814223454621434
1790943253256425200,0.93742529296875,2.811910354876518,-7.410068166708946,5.7753311216473575
1790943253266455300,0.947455322265625,2.722715529380739,-7.465800575324892,5.746218424409627
1790943253276486100,0.957486083984375,2.6385446695268153,-7.497040932241082,5.7448097266554825
1790943253286516200,0.96751611328125,2.5619667490199207,-7.511631767651438,5.760391911190748
1790943253296547000,0.977547119140625,2.4942858361959455,-7.523339156579971,5.774797453162074
1790943253306577200,0.9875771484375,2.4034876671567558,-7.535368032547831,5.797574517637491
1790943253316608300,0.997608154296875,2.2681319789886474,-7.54825732473731,5.835219480898976
1790943253326638300,1.007638427734375,2.0982684565410015,-7.560237685388326,5.88306727374494
1790943253336668200,1.017668212890625,1.9053344396293161,-7.568483535686135,5.937855679509044
1790943253346699300,1.02769921875,1.6787756548829376,-7.576172921144962,5.996141279739141
1790943253356729300,1.037729248046875,1.410052383624017,-7.590252884423732,6.047330784228444
1790943253366760200,1.04776025390625,1.1426390259198844,-7.619918539369106,6.0664323750615115
1790943253376790300,1.057790283203125,0.8985423925258219,-7.650013233381509,6.069623280057311
1790943253386821400,1.0678212890625,0.6845243057269602,-7.691845126938819,6.044611588397622
1790943253396851200,1.077851318359375,0.5112051629327238,-7.743145690587163,5.996061784762143
1790943253406881000,1.087881103515625,0.33407599686365574,-7.804673049217462,5.928395192724466
1790943253416912100,1.097912109375,0.10350285277622752,-7.869451518598199,5.850761917945742
1790943253426942200,1.107942138671875,-0.17183946216311305,-7.909742027932405,5.794551954945922
1790943253436973000,1.11797314453125,-0.48534390523899346,-7.946614837777614,5.725919148224592
1790943253447003100,1.128003173828125,-0.7667210890289395,-8.006410258048772,5.610694101676344
1790943253457033200,1.138033203125,-1.0025571860127152,-8.105992914307118,5.427535921108722
1790943253467064000,1.14806396484375,-1.2032307842005043,-8.237203465494513,5.183733009964228
1790943253477094100,1.15809423828125,-1.3781412878394126,-8.383883973014354,4.8971001341357825
1790943253487125200,1.168125244140625,-1.5447658283658325,-8.529092654415965,4.586793244992196
1790943253497155000,1.178155029296875,-1.6813751698568462,-8.657477626788616,4.288527506776154
1790943253507186200,1.188186279296875,-1.7653649740554391,-8.771387499085067,4.014553036990762
1790943253517216300,1.19821630859375,-1.8199400293298065,-8.881042052024602,3.7396953546300526
1790943253527246300,1.208246337890625,-1.8835398103199898,-8.98783478579223,3.441150507211685
1790943253537277200,1.218277099609375,-1.9482183264575899,-9.085839817470312,3.134061118809879
1790943253547307300,1.228307373046875,-2.0012623727723957,-9.185490862789749,2.791429584644735
1790943253557338000,1.238338134765625,-2.026581084554642,-9.284724559479951,2.4201725522369144
1790943253567368200,1.2483681640625,-2.0277816925160588,-9.367118180528282,2.0774016096010803
1790943253577398300,1.258398193359375,-2.0376703415848314,-9.425171725568175,1.7844962293744087
1790943253587429400,1.268429443359375,-2.0620381823830307,-9.462053887763618,1.5452967203721404
1790943253597459200,1.278459228515625,-2.0989923869013785,-9.480903549662232,1.3700629030629992
1790943253607490300,1.288490234375,-2.15679064200595,-9.483200136166811,1.259994216364622
1790943253617520000,1.29852001953125,-2.2274019091933965,-9.47542365694642,1.1939126284960657
1790943253627551000,1.308551025390625,-2.3053438115298746,-9.457925409656763,1.1846555553290992
1790943253637581000,1.3185810546875,-2.399796265292913,-9.431452413272858,1.2079347241077572
1790943253647611100,1.328611083984375,-2.4665219232186675,-9.411664593741298,1.2276841843903064
1790943253657642200,1.338642333984375,-2.480571491359174,-9.408148110052943,1.226350451568514
1790943253667672000,1.348672119140625,-2.464267130029201,-9.410437682294845,1.241543782916665
1790943253677703200,1.358703125,-2.4372191102363168,-9.409687156188488,1.2992802248314022
1790943253687733200,1.368733154296875,-2.415783377367258,-9.402659449508786,1.3872221276566385
1790943253697764000,1.37876416015625,-2.404867723338306,-9.395638172569871,1.4522360132284462
1790943253707794200,1.388794189453125,-2.3890454464368522,-9.394264546129106,1.486812674960494
1790943253717824300,1.39882421875,-2.3656055341385303,-9.40019159809053,1.4868389784455298
1790943253727855000,1.408855224609375,-2.335538312654942,-9.413259753978252,1.451270090805739
1790943253737885200,1.41888525390625,-2.3002086405985054,-9.43512204169631,1.363037096079439
1790943253747916300,1.428916259765625,-2.266236374500394,-9.464336445742845,1.2086769938424229
1790943253757946400,1.4389462890625,-2.244975267545879,-9.494844396731256,0.9891490575809031
1790943253767977200,1.448977294921875,-2.2377855021722612,-9.520570374140142,0.7220863399453461
1790943253778007300,1.45900732421875,-2.2235924339078363,-9.541368832018971,0.4339667326904833
1790943253788037400,1.469037353515625,-2.1856981720604,-9.558909749406576,0.1427176409040112
1790943253798068200,1.479068115234375,-2.121917627675831,-9.573378419741987,-0.13531537442402913
1790943253808098000,1.48909814453125,-2.0352216332584616,-9.585521277478337,-0.382134802111797
1790943253818129400,1.49912939453125,-1.9331192492641507,-9.597648353123665,-0.564407432016544
1790943253828159000,1.509158935546875,-1.8424257096432148,-9.609913960456847,-0.6522176347535104
1790943253838189000,1.51918896484375,-1.768419977711886,-9.624223640838265,-0.6460509288173168
1790943253848220200,1.52922021484375,-1.7135311803132294,-9.638830842861532,-0.5719475451977923
1790943253858250200,1.539250244140625,-1.6848029523484407,-9.649926821893454,-0.45907563764695075
1790943253868281000,1.549281005859375,-1.6841767832741141,-9.65543535618186,-0.32637050052024424
1790943253878311200,1.559311279296875,-1.705937948705256,-9.655336571982502,-0.18619420552896335
1790943253888342000,1.569342041015625,-1.7411719053022563,-9.650710665747523,-0.04983695736918598
1790943253898372000,1.5793720703125,-1.7815772731877861,-9.643193129724263,0.07217754838978871
1790943253908402200,1.589402099609375,-1.8115934951364994,-9.63637526640296,0.16978302282365038
1790943253918433300,1.599433349609375,-1.8119722653210162,-9.634964230561256,0.2337246943203732
1790943253928463000,1.609463134765625,-1.7836701538138091,-9.639649173507093,0.2570714667088352
1790943253938494200,1.619494140625,-1.7467136112079023,-9.646698507496714,0.24611723423516377
1790943253948524300,1.629524169921875,-1.741535331787169,-9.648960607209801,0.18703726875698193
1790943253958554400,1.639554443359375,-1.7223714893728495,-9.653447981756925,0.12145259755989536
1790943253968585200,1.649585205078125,-1.6400762141324579,-9.66805985995531,0.09561003543348051
1790943253978615300,1.659615234375,-1.5879146497406065,-9.676870942920447,0.08409414135590196
1790943253988646100,1.669646240234375,-1.6084079871930181,-9.673642628523707,0.06368831779016182
1790943253998676200,1.67967626953125,-1.695711007592827,-9.658912676903604,0.018819200544978956
1790943254008707300,1.689707275390625,-1.8055078916124998,-9.638876435568928,-0.05081353361664805
1790943254018737200,1.699737060546875,-1.8672892250038682,-9.626588616403938,-0.111491148116393
1790943254028767200,1.709767333984375,-1.839505584412813,-9.631715457898379,-0.12913556241109034
1790943254038798000,1.719798095703125,-1.721225972599536,-9.653919106400012,-0.09804708072151988
1790943254048828200,1.729828125,-1.5317793594121931,-9.686212771761417,-0.03641659279359737
1790943254058859000,1.73985888671875,-1.3079229654923081,-9.719041274651884,0.0003121081458622939
1790943254068889000,1.74988916015625,-1.1350019551701842,-9.740742234328389,-0.01070018578901072
1790943254078920200,1.759920166015625,-1.0468854994956402,-9.750431269171834,-0.059134001786937
1790943254088950300,1.7699501953125,-1.0051018289942293,-9.754088622635603,-0.13372634253376162
1790943254098979800,1.779979736328125,-1.033709133993089,-9.749361594113706,-0.2275633769453503
1790943254109011200,1.79001123046875,-1.1071372852321713,-9.738307116135955,-0.3316981618164107
1790943254119041000,1.800041015625,-1.143687292863801,-9.728945413550735,-0.458249160227552
1790943254129071900,1.81007177734375,-1.1016009861540048,-9.727630823820828,-0.5745038055518642
1790943254139102000,1.82010205078125,-0.8943188565466552,-9.743400639882683,-0.660861690588668
1790943254149133000,1.830133056640625,-0.6011143107103184,-9.759785372972487,-0.7454233033258467
1790943254159163000,1.840162841796875,-0.3882754237586632,-9.7602833856225,-0.8697714213978499
1790943254169193000,1.85019287109375,-0.27577823127172885,-9.745283384889364,-1.0600875108961014
1790943254179224000,1.86022412109375,-0.25410056113926693,-9.717094816759229,-1.2976396180175245
1790943254189254100,1.870254150390625,-0.303628763086535,-9.680752752789854,-1.5366253381386399
1790943254199285000,1.880284912109375,-0.3983791768828407,-9.63549673000276,-1.7801339425116776
1790943254209315000,1.890315185546875,-0.49935058408584443,-9.585229601055383,-2.011070211689919
1790943254219346000,1.900345947265625,-0.5673309913130477,-9.539572011730074,-2.201153807606548
1790943254229376000,1.9103759765625,-0.6313344942659139,-9.504228895670176,-2.332689791356027
1790943254239406000,1.920406005859375,-0.7198527356743812,-9.480144255727529,-2.403973550977558
1790943254249437200,1.930437255859375,-0.8284952620271593,-9.467290034851432,-2.4195948984794318
1790943254259467000,1.940467041015625,-0.9271024973820895,-9.46115547761917,-2.4077744045652447
1790943254269498000,1.950498046875,-1.0085189439613371,-9.457610352358222,-2.3889041382700205
1790943254279528200,1.960528076171875,-1.072095344075933,-9.452160854780674,-2.3827875550858675
1790943254289559000,1.97055908203125,-1.1374793781343846,-9.444709954252838,-2.3820085335373875
1790943254299589000,1.980589111328125,-1.2187232446257024,-9.435180493885278,-2.3795887590445575
1790943254309620200,1.9906201171875,-1.3114619532734155,-9.421729476159811,-2.383581628073007
1790943254319650000,2.000650146484375,-1.4114526058107613,-9.404053534215688,-2.396235650201887
1790943254329680000,2.010679931640625,-1.5180449947007,-9.382261973646283,-2.416419044922292
1790943254339711000,2.0207109375,-1.6324384127303957,-9.355659797924757,-2.444828123935312
1790943254349741000,2.030740966796875,-1.7554739868991076,-9.324978243935108,-2.4765812526792286
1790943254359772000,2.04077197265625,-1.8845291136182845,-9.290560426026582,-2.5108590775951742
1790943254369802000,2.050802001953125,-2.02137694004029,-9.249342280453442,-2.556188165618479
1790943254379833000,2.0608330078125,-2.182573464168608,-9.196282305917144,-2.6144132678329943
1790943254389863000,2.07086279296875,-2.367127921400219,-9.136443631026149,-2.6631732070878145
1790943254399893000,2.08089306640625,-2.568339206661284,-9.069245825544,-2.70606805370152
1790943254409924000,2.090924072265625,-2.7824259017169473,-8.99404649991393,-2.7451071016699076
1790943254419954200,2.1009541015625,-3.010065613567829,-8.910724073582887,-2.776493881319463
1790943254429985000,2.110985107421875,-3.253450591561198,-8.817807304954528,-2.79852568038553
1790943254440015000,2.12101513671875,-3.5092817941516636,-8.713170287916064,-2.8170918491676447
1790943254450046000,2.1310458984375,-3.7698049539506435,-8.593633223387599,-2.8475305343121287
1790943254460076000,2.141075927734375,-4.0283740570724005,-8.456785543096066,-2.9026436419859527
1790943254470106000,2.151106201171875,-4.27912576444149,-8.302117543953656,-2.98902691719234
1790943254480137200,2.16113720703125,-4.520794878427684,-8.128296516051888,-3.1086282791286703
1790943254490167000,2.1711669921875,-4.761535187131166,-7.930372728028893,-3.256895471318066
1790943254500198100,2.1811982421875,-5.0133185756355525,-7.702886160913109,-3.420907637389004
1790943254510228200,2.191228271484375,-5.274445546546578,-7.446509599399566,-3.5916748306781052
1790943254520259000,2.201259033203125,-5.524660078299045,-7.167041500633955,-3.779161103577912
1790943254530289200,2.2112890625,-5.741953168180585,-6.866492035394907,-4.006456239774823
1790943254540320300,2.2213203125,-5.915569028899073,-6.548490500095486,-4.277115009140968
1790943254550349800,2.231349853515625,-6.055629241496324,-6.21638211351037,-4.566870693165064
1790943254560380000,2.2413798828125,-6.179740774333476,-5.874277818089723,-4.844999360020458
1790943254570411000,2.251410888671875,-6.299726751673221,-5.519257926994562,-5.101135975298285
1790943254580441000,2.261441162109375,-6.41138738373816,-5.156335299950838,-5.336354597970843
1790943254590472000,2.271471923828125,-6.506102726221084,-4.8015059629917145,-5.5485582557588815
1790943254600502000,2.281501953125,-6.57994537654519,-4.45280446126312,-5.74867633895576
1790943254610533000,2.291533203125,-6.6237646445274345,-4.097280420038103,-5.958892037796974
1790943254620563000,2.30156298828125,-6.645674863040447,-3.7269153680339455,-6.173777482014894
1790943254630594000,2.311593994140625,-6.643340282613039,-3.3456089430376887,-6.390877095150947
1790943254640624000,2.3216240234375,-6.6168982658892865,-2.954816604554653,-6.607277035585046
1790943254650654000,2.331654052734375,-6.572645867186784,-2.5594997743844985,-6.813200005668401
1790943254660685000,2.34168505859375,-6.517848109072446,-2.1588592649735507,-7.001956736895441
1790943254670715100,2.351715087890625,-6.457960918864607,-1.7574156224861741,-7.167748772120476
1790943254680746000,2.36174609375,-6.3963704318702215,-1.357462218556553,-7.308496382459998
1790943254690776000,2.371776123046875,-6.336201502111554,-0.9636137804385274,-7.422559399491548
1790943254700807200,2.38180712890625,-6.292050810217857,-0.5737768795168027,-7.500086875808239
1790943254710837200,2.391837158203125,-6.258945243951678,-0.1874626728285104,-7.547243763780593
1790943254720867000,2.4018671875,-6.233012345793843,0.20104416679954154,-7.568321623122691
1790943254730898200,2.411898193359375,-6.212821790680289,0.5844883527431637,-7.565025504186749
1790943254740928300,2.42192822265625,-6.19086831754744,0.9604604309741407,-7.544604647448659
1790943254750959000,2.431958984375,-6.154613347339629,1.3309690561674534,-7.517953371888399
1790943254760989000,2.441989013671875,-6.095723351475596,1.6991873054012656,-7.491684958165884
1790943254771020300,2.452020263671875,-6.02074263703227,2.0651438933134076,-7.460310745736956
1790943254781049900,2.4620498046875,-5.923735384219884,2.414863339912891,-7.432913035723566
1790943254791081000,2.4720810546875,-5.808044473725557,2.746168593421578,-7.409151051864027
1790943254801111000,2.482111083984375,-5.6778784631550305,3.04755100235343,-7.392191733756661
1790943254811141000,2.49214111328125,-5.539284815979004,3.315922829826176,-7.381824653521179
1790943254821172000,2.502171875,-5.397259440788626,3.553189032678306,-7.37663935983777
1790943254831202000,2.5122021484375,-5.253768669220805,3.763551738774776,-7.375906369388103
1790943254841233000,2.52223291015625,-5.1122319543302055,3.9485216449394818,-7.3786623900979755
1790943254851263000,2.532262939453125,-4.982171157699823,4.111288487124443,-7.378729610115289
1790943254861294000,2.542294189453125,-4.868411215268075,4.247999097032845,-7.377224466249347
1790943254871324200,2.55232421875,-4.766825987015665,4.3597751721709965,-7.37835551610589
1790943254881354000,2.56235400390625,-4.674971002399921,4.455417858631908,-7.379990423831344
1790943254891385000,2.572385009765625,-4.605466381280124,4.543191419152915,-7.3701763013035055
1790943254901415200,2.582415283203125,-4.5609287358954544,4.6272994429036975,-7.3455024632960555
1790943254911446000,2.592446044921875,-4.5433267359703775,4.701563533510267,-7.309164490979909
1790943254921476000,2.60247607421875,-4.546905178979039,4.749785712626577,-7.275683661660552
1790943254931507200,2.612507080078125,-4.560264719028771,4.773854570478201,-7.251532970744371
1790943254941537000,2.622537109375,-4.571695044581592,4.770030043753981,-7.246849781364202
1790943254951568100,2.632568115234375,-4.589855262911319,4.7337329879701135,-7.259158058795332
1790943254961598200,2.64259814453125,-4.610212991285324,4.668626894070208,-7.288364864057302
1790943254971628000,2.6526279296875,-4.6310625948294994,4.576731577444076,-7.333292970064282
1790943254981659100,2.6626591796875,-4.6484442300021644,4.461043589559197,-7.393336227616667
1790943254991689000,2.67268896484375,-4.662952355565131,4.322988871565461,-7.465856104904413
1790943255001720000,2.682719970703125,-4.678275889164209,4.163893411369622,-7.54626235152781
1790943255011750000,2.69275,-4.698803421147168,3.988341029630601,-7.627895509597659
1790943255021781000,2.702781005859375,-4.725388937994837,3.804319217970967,-7.705082794174552
1790943255031811000,2.71281103515625,-4.7545483969837425,3.6168878901287913,-7.777069002977013
1790943255041841200,2.722841064453125,-4.784714402666688,3.4251585728317497,-7.84507286414504
1790943255051872000,2.7328720703125,-4.820876433894038,3.2265921029910443,-7.906873194497823
1790943255061902000,2.742902099609375,-4.866146485206484,3.0198797360956666,-7.96061004538238
1790943255071933000,2.752932861328125,-4.9200019940346476,2.8036554444894195,-8.006464034062624
1790943255081963000,2.762962890625,-4.977329562887549,2.574638891327381,-8.047844092199206
1790943255091994000,2.772994140625,-5.0363230191260575,2.333814411471784,-8.084500044423342
1790943255102024200,2.783024169921875,-5.092289236497879,2.0846543572083114,-8.117460064738989
1790943255112055000,2.793054931640625,-5.145369669300317,1.8347621892780064,-8.14427325286269
1790943255122085000,2.803085205078125,-5.194734296450019,1.5859708221964537,-8.165156466415525
1790943255132115000,2.813114990234375,-5.241816365620494,1.3366251822330057,-8.179678912764787
1790943255142145800,2.823145751953125,-5.287638790118694,1.0842952657617628,-8.18752378104627
1790943255152175900,2.83317578125,-5.336385577630996,0.832697682153061,-8.185356373879314
1790943255162207000,2.84320703125,-5.384720861732959,0.5881483000228181,-8.174916228407621
1790943255172236800,2.85323681640625,-5.423930590093136,0.3472237938588485,-8.162769863539934
1790943255182268000,2.863267822265625,-5.45441632924974,0.10559048183839767,-8.14914348924756
1790943255192298000,2.873298095703125,-5.481042470368743,-0.13343943361747077,-8.130853214797376
1790943255202328800,2.883328857421875,-5.499993254554272,-0.3677627605512738,-8.110806452068687
1790943255212359000,2.89335888671875,-5.507584440335631,-0.601480513674207,-8.091668036356568
1790943255222389000,2.903388916015625,-5.499354956650734,-0.8374360357865691,-8.076272898826003
1790943255232419800,2.913419921875,-5.474719697088003,-1.0710589867655187,-8.065399622634052
1790943255242450000,2.923449951171875,-5.446033116307854,-1.3060010575190186,-8.05018451784551
1790943255252481000,2.93348095703125,-5.416164632266759,-1.5535937163352966,-8.026327841439842
1790943255262511000,2.943510986328125,-5.3722284599065775,-1.8070656424485145,-8.002755242672562
1790943255272542000,2.9535419921875,-5.31465130020678,-2.059468478025496,-7.980189775121212
1790943255282572000,2.963572021484375,-5.248960392156243,-2.3051652400925753,-7.956445326918363
1790943255292602000,2.97360205078125,-5.168277666679025,-2.5463190980330106,-7.935714089056849
1790943255302633000,2.983633056640625,-5.06537609513104,-2.787876568338275,-7.92086664853692
1790943255312663000,2.9936630859375,-4.949436762833595,-3.0307673330739138,-7.904932581824064
1790943255322694100,3.003694091796875,-4.831501288282871,-3.2754163396537304,-7.880267511644959
1790943255332724000,3.013723876953125,-4.715748710729182,-3.530607490774989,-7.840083385294675
1790943255342755000,3.023755126953125,-4.604047746653855,-3.8003658041700716,-7.780124883416295
1790943255352785000,3.033784912109375,-4.512292423020303,-4.075723252746463,-7.694027731674909
1790943255362816000,3.04381591796875,-4.449323633410036,-4.337623253856599,-7.586760366132855
1790943255372845800,3.053845703125,-4.414191529752314,-4.579736604478955,-7.464000247904658
1790943255382876000,3.0638759765625,-4.400611040428281,-4.803342530769109,-7.330271576416492
1790943255392907000,3.073906982421875,-4.403360923658311,-5.0122787111938,-7.187342530384659
1790943255402936800,3.083936767578125,-4.410927851781249,-5.206259899070859,-7.043363683038949
1790943255412968000,3.093968017578125,-4.388716019973159,-5.386196779504418,-6.920870691314339
1790943255422998000,3.103998046875,-4.306578127251565,-5.563260734850168,-6.831830471858382
1790943255433028900,3.11402880859375,-4.1976819914639,-5.7436190555661915,-6.74986764344275
1790943255443059000,3.124058837890625,-4.11757969622314,-5.925868304595351,-6.64078241482377
1790943255453090000,3.134090087890625,-4.063285795977712,-6.107226157742739,-6.508600388255715
1790943255463120000,3.144119873046875,-4.004417427423596,-6.287869140619039,-6.371634634542465
1790943255473150000,3.15414990234375,-3.920684082204103,-6.467727695119381,-6.242367618638276
1790943255483181000,3.16418115234375,-3.80891998976469,-6.643373600360751,-6.126020874583721
1790943255493211100,3.174211181640625,-3.6849244845226403,-6.8029252798914905,-6.025939621153474
1790943255503242000,3.184241943359375,-3.565967850230634,-6.936681423908472,-5.944467206603289
1790943255513272000,3.19427197265625,-3.455158282037079,-7.047216851335763,-5.87954319127202
1790943255523303000,3.204302978515625,-3.3501842881292103,-7.14610509558916,-5.820635659751296
1790943255533333000,3.2143330078125,-3.2438416362166405,-7.244449734485149,-5.758979706305265
1790943255543364000,3.224364013671875,-3.1292791452303526,-7.3493380959361785,-5.689044584813714
1790943255553394200,3.234394287109375,-3.000627046354115,-7.46492846866548,-5.607268803402781
1790943255563423700,3.244423828125,-2.8604037521496415,-7.590271589124202,-5.511466250205039
1790943255573455000,3.254455078125,-2.7164649445533753,-7.7208929422467945,-5.401758505773544
1790943255583485000,3.26448486328125,-2.573378077611327,-7.85197314505279,-5.281538135156035
1790943255593515800,3.274515869140625,-2.4322224709928033,-7.979833216768503,-5.155279653418064
1790943255603545900,3.2845458984375,-2.2918071613475677,-8.10130563327372,-5.028603238528967
1790943255613577000,3.294576904296875,-2.1493113921664655,-8.214104913979769,-4.907069447225332
1790943255623607000,3.30460693359375,-2.0079767757192255,-8.314909220987557,-4.795905366505682
1790943255633638000,3.314637939453125,-1.8773725198619067,-8.39843915258944,-4.702346208320558
1790943255643668000,3.32466796875,-1.7603462691105902,-8.464810444119571,-4.628016651262342
1790943255653698000,3.334697998046875,-1.6549910208001732,-8.517664082428812,-4.569550726029276
1790943255663729000,3.34472900390625,-1.5586043841041624,-8.562780404484272,-4.518839652706682
1790943255673759000,3.354759033203125,-1.465613965717703,-8.605866682016849,-4.467817029216885
1790943255683790000,3.3647900390625,-1.3630384112536906,-8.653504631504417,-4.407874893951416
1790943255693820000,3.37481982421875,-1.2430243768632412,-8.705931568834185,-4.339591923581064
1790943255703851000,3.38485107421875,-1.1123439870297909,-8.758342139551043,-4.269019673229754
1790943255713881000,3.394881103515625,-0.9777106948520987,-8.803165616139768,-4.209362784646451
1790943255723912000,3.404911865234375,-0.8481840781636536,-8.834286146068573,-4.172089285045862
1790943255733942000,3.41494189453125,-0.7404394504986703,-8.8506299626261,-4.157939763662219
1790943255743972000,3.42497216796875,-0.6664539576377719,-8.852761713957786,-4.165914103542268
1790943255754003000,3.4350029296875,-0.6251674960687756,-8.845962555336952,-4.186704378114641
1790943255764033000,3.445032958984375,-0.6173457164019346,-8.836280534756183,-4.20825482340455
1790943255774064000,3.455064208984375,-0.6350926777556538,-8.83016702031195,-4.2184377792447805
1790943255784094200,3.46509423828125,-0.6697937695849686,-8.831504406395554,-4.210259148964286
1790943255794125000,3.475125,-0.7097120115406811,-8.843810930261016,-4.177764115811884
1790943255804155000,3.48515478515625,-0.745230703363195,-8.86769391015172,-4.120563972730935
1790943255814186000,3.49518603515625,-0.7751063477974385,-8.900352901694179,-4.043922631599009
1790943255824215800,3.5052158203125,-0.7995704155117273,-8.938614535549283,-3.9537636372461913
1790943255834246000,3.515245849609375,-0.8062375452507287,-8.980989449942111,-3.8551515795856712
1790943255844277000,3.525277099609375,-0.7832521717868745,-9.024874184376001,-3.7561362018212674
1790943255854306800,3.535306884765625,-0.7262267276857047,-9.067102383774518,-3.664787120901048
1790943255864338000,3.545337890625,-0.6409133467331528,-9.104888801333308,-3.5861700957819815
1790943255874368000,3.555367919921875,-0.5438588572455569,-9.135701872748136,-3.5232878154113885
1790943255884398800,3.56539892578125,-0.4587798695707693,-9.157603907954693,-3.4782445585921407
1790943255894429000,3.575428955078125,-0.40201161510106176,-9.171098764821886,-3.44959889434427
1790943255904460000,3.5854599609375,-0.37515787577126175,-9.179192639428377,-3.4310464618265626
1790943255914490000,3.595489990234375,-0.36950697387009857,-9.184823338791727,-3.41656084035635
1790943255924520000,3.60552001953125,-0.37183198275156315,-9.190881908178328,-3.3999764930412173
1790943255934551000,3.615551025390625,-0.3695774087578058,-9.199535170233249,-3.3767326878368853
1790943255944581000,3.6255810546875,-0.3552311957582831,-9.211126239305734,-3.346542424495518
1790943255954612000,3.635612060546875,-0.33210502558425065,-9.224252262860537,-3.312587840184569
1790943255964642000,3.64564208984375,-0.30809801745507864,-9.2366096401304,-3.280321355091035
1790943255974673200,3.655673095703125,-0.2864380291097797,-9.24656930860877,-3.254120161385834
1790943255984703000,3.665702880859375,-0.26644931671125816,-9.253310015040636,-3.2366093468755484
1790943255994734000,3.675734130859375,-0.24713711533481253,-9.256631268417834,-3.2286373450830577
1790943256004764200,3.68576416015625,-0.22803947002450004,-9.25688027474284,-3.229325035086274
1790943256014793700,3.695793701171875,-0.20788274411531163,-9.255248289626836,-3.235356424205005
1790943256024824600,3.705824462890625,-0.18527336435699834,-9.253249809285998,-3.2424402449861165
1790943256034854700,3.715854736328125,-0.16065401474945246,-9.252031665667891,-3.2472254334360358
1790943256044885800,3.7258857421875,-0.13506379254944623,-9.252003608617185,-3.2484681269735094
1790943256054915600,3.73591552734375,-0.10883766533238813,-9.253055748018621,-3.246456494890153
1790943256064946700,3.74594677734375,-0.08139507499765604,-9.255152428036928,-3.241283183905482
1790943256074976800,3.755976806640625,-0.05338348456935491,-9.258282542756199,-3.2329172143593428
1790943256085007600,3.766007568359375,-0.025904934721963944,-9.262108823046088,-3.222274824313819
1790943256095037700,3.77603759765625,-0.00043550748101770295,-9.266029795882105,-3.2110894134327768
1790943256105067800,3.78606787109375,0.02209013937389245,-9.269668444645404,-3.200491739311814
1790943256115098600,3.7960986328125,0.04073787864237092,-9.27349940111041,-3.1891876704871653
1790943256125128700,3.806128662109375,0.052813183001265855,-9.27797333165407,-3.1759745531708
1790943256135159800,3.816159912109375,0.05645767241688445,-9.283791662544012,-3.1588617980673908
1790943256145190000,3.82618994140625,0.056100374278659,-9.290126126262544,-3.140187492735684
1790943256155220700,3.836220703125,0.055931730580329894,-9.297084859359265,-3.119529612371325
1790943256165250800,3.846250732421875,0.05559783615057822,-9.306068960803747,-3.092633422139287
1790943256175281700,3.85628173828125,0.052116483141109345,-9.316760450688005,-3.0603359573855995
1790943256185311700,3.866311767578125,0.04606759033172857,-9.326974386188388,-3.0291628204867243
1790943256195341800,3.876341796875,0.046515078370901755,-9.334142378121614,-3.0069878135576844
1790943256205373000,3.886373046875,0.05755028082602657,-9.334583107626438,-3.0054344466358422
1790943256215402800,3.89640283203125,0.07167247124474961,-9.326046165427565,-3.031522827616334
1790943256225433900,3.906433837890625,0.07685123928925022,-9.31040903583467,-3.079085958302021
1790943256235463700,3.916463623046875,0.07350823530454653,-9.290784297910331,-3.1378803848370906
1790943256245494800,3.926494873046875,0.06861291927734856,-9.271317965418099,-3.1950521786063906
1790943256255524600,3.936524658203125,0.06412168140586,-9.256505596211552,-3.237807616749406
1790943256265554700,3.9465546875,0.05351449967103544,-9.250362855672837,-3.255503724698722
1790943256275585500,3.95658544921875,0.02822092233004514,-9.255774359327555,-3.240405232027173
1790943256285615600,3.96661572265625,-0.006703259927485487,-9.27256650417447,-3.192157333947718
1790943256295646700,3.976646728515625,-0.040586126713338305,-9.298445626318454,-3.1157123921707273
1790943256305676800,3.9866767578125,-0.0616151921773795,-9.331159562918543,-3.0159613936081526
1790943256315707600,3.996707763671875,-0.05723975813870784,-9.366705508074164,-2.903778783495724
1790943256325737700,4.00673779296875,-0.026742228079610502,-9.400904714795946,-2.791530999192595
1790943256335768600,4.0167685546875,0.014670620365010108,-9.430148344936967,-2.6911805734321472
1790943256345798700,4.026798583984375,0.052677450625272466,-9.451379349014163,-2.6151547338500616
1790943256355828700,4.036828857421875,0.08105709348125383,-9.464800556123256,-2.5654151359081268
1790943256365859800,4.04685986328125,0.10099790248428471,-9.472042197814583,-2.5378391467183827
1790943256375889700,4.0568896484375,0.11914634817782789,-9.47385889184773,-2.5302570210263133
1790943256385920800,4.066920654296875,0.1402240248568356,-9.471375258338451,-2.5384610780090093
1790943256395950800,4.076950927734375,0.16044831784320995,-9.46671135818064,-2.5546076184287667
1790943256405981700,4.086981689453125,0.1737783395375125,-9.461470534917712,-2.5730837708398697
1790943256416011800,4.09701171875,0.17876471311533823,-9.456749936136603,-2.590040166337788
1790943256426043000,4.10704296875,0.1797861468512565,-9.453848953998088,-2.6005411020860074
1790943256436072700,4.11707275390625,0.18083324475139378,-9.453632680898904,-2.6012512961819767
1790943256446102500,4.1271025390625,0.18155825282400473,-9.455932774534821,-2.5928330119267105
1790943256456134000,4.1371337890625,0.17848819772889837,-9.459716384726763,-2.5791996233716605
1790943256466163700,4.147163818359375,0.16815763184521346,-9.464001514700055,-2.564135032969713
1790943256476194600,4.157194580078125,0.15074445075681434,-9.46815103559494,-2.549852825117111
1790943256486224600,4.167224609375,0.1313461876652669,-9.471758120176196,-2.5375018775880336
1790943256496255700,4.177255859375,0.11601415109932423,-9.474484330269695,-2.528057172894478
1790943256506285600,4.18728564453125,0.10777813720894046,-9.475916408899426,-2.5230498661264775
1790943256516316700,4.197316650390625,0.10980450107054784,-9.469874206125736,-2.5455446065291762
1790943256526346800,4.2073466796875,0.1270891421421431,-9.447371282416581,-2.6270555995240805
1790943256536376800,4.217376953125,0.154055475000944,-9.43618294892609,-2.665539351697266
1790943256546407700,4.22740771484375,0.19705129777109248,-9.425490874519944,-2.7003110976099967
1790943256556437800,4.237437744140625,0.2521404400474392,-9.414805229854583,-2.732815775373578
1790943256566468600,4.247468505859375,0.31446368002947417,-9.404276237055658,-2.76243729891628
1790943256576498700,4.257498779296875,0.37919114987533536,-9.393571887689829,-2.790588165384531
1790943256586529800,4.26752978515625,0.4391203160613775,-9.382105321779846,-2.8202231329306957
1790943256596560000,4.277559814453125,0.4857287398381158,-9.370378059107065,-2.8514009460046887
1790943256606590700,4.2875908203125,0.516487669912912,-9.359169851872325,-2.882633119614422
1790943256616620800,4.297620849609375,0.5358020997790619,-9.350065338918567,-2.908537960721552
1790943256626651000,4.30765087890625,0.546786362064816,-9.34332521700859,-2.9280840804517267
1790943256636681700,4.317681640625,0.5556678433850407,-9.339978244668245,-2.9370781187683344
1790943256646711800,4.3277119140625,0.5612555073242634,-9.338651964500546,-2.9402365827992556
1790943256656743000,4.337742919921875,0.5645961229890585,-9.338838426983356,-2.938995642827451
1790943256666772700,4.347772705078125,0.5680217135235667,-9.34067908641398,-2.932479392801225
1790943256676803800,4.357803955078125,0.5694336261481047,-9.343872914019226,-2.922016450975835
1790943256686833700,4.367833740234375,0.567552926968038,-9.347797393986582,-2.909804619656503
1790943256696864800,4.37786474609375,0.5630389201423153,-9.352257296004892,-2.8963153157472608
1790943256706894600,4.38789453125,0.5600548628302291,-9.35736660184264,-2.8803479312866926
1790943256716924700,4.397924560546875,0.5578933374147862,-9.36271965330839,-2.863323146727681
1790943256726955800,4.407955810546875,0.5564641448618843,-9.36850525097251,-2.8446166926920413
1790943256736985600,4.417985595703125,0.557325255203247,-9.374859588435292,-2.8234365420192478
1790943256747016700,4.4280166015625,0.56050644252263,-9.381318555316328,-2.8012618273511527
1790943256757046800,4.438046875,0.5639836171139031,-9.387330947473645,-2.7803438347458838
1790943256767077600,4.44807763671875,0.5696082520626485,-9.393173828282952,-2.75938872500062
1790943256777107700,4.458107666015625,0.5780375691685825,-9.399067562496661,-2.7374787987485525
1790943256787138800,4.468138916015625,0.5886151868822053,-9.405129054492711,-2.7143101046070455
1790943256797168600,4.478168701171875,0.5984665361478925,-9.411608479639888,-2.689586289978027
1790943256807198700,4.48819873046875,0.6041374213911592,-9.418738477650285,-2.6632290289282796
1790943256817229800,4.498229736328125,0.60443223961927,-9.426962700638175,-2.633899766330421
1790943256827260000,4.508260009765625,0.5988647051526234,-9.436532493016124,-2.6006936622992156
1790943256837290800,4.518290771484375,0.5894854303780943,-9.447669388580321,-2.5621198937550185
1790943256847320800,4.52832080078125,0.5776826913163066,-9.460143670228122,-2.518407008756697
1790943256857351700,4.5383515625,0.5643403581297025,-9.473393027901649,-2.4711867001593113
1790943256867381800,4.5483818359375,0.5483227413192391,-9.486579841732977,-2.4237466113314032
1790943256877412900,4.558412841796875,0.528282225668244,-9.49894189517796,-2.3793730704672633
1790943256887443000,4.56844287109375,0.5064684167344122,-9.509319496807455,-2.342377803286165
1790943256897472500,4.578472412109375,0.4898708446115255,-9.517080778458714,-2.3142190457724032
1790943256907503900,4.58850390625,0.4854289166413247,-9.522729013478756,-2.2918077458694577
1790943256917533700,4.59853369140625,0.4956252434197813,-9.52831704274416,-2.2662603398978707
1790943256927564500,4.608564453125,0.5172550740888342,-9.536697333076596,-2.2258055799126626
1790943256937594600,4.6185947265625,0.5493139443136751,-9.544462706381083,-2.18446293117702
1790943256947625700,4.628625732421875,0.5894448791719973,-9.547765255057811,-2.1594215750314296
1790943256957655600,4.638655517578125,0.6292272197883576,-9.548123566976189,-2.1465772910274565
1790943256967686700,4.648686767578125,0.6611582623824477,-9.546976735028624,-2.1420761802159247
1790943256977716700,4.658716796875,0.6825287479955703,-9.544650922429561,-2.1457421553775666
1790943256987746800,4.668746826171875,0.6947569459278136,-9.54151963866651,-2.155715852381289
1790943256997777700,4.678777587890625,0.7009762588340789,-9.53780850918889,-2.170078139732778
1790943257007807700,4.688807861328125,0.7028458520982414,-9.533453236588835,-2.1885329570949077
1790943257017838600,4.698838623046875,0.7011985232826322,-9.528478370785713,-2.2106081569112837
1790943257027868400,4.708868408203125,0.6987279684506357,-9.52314870019555,-2.234232047474384
1790943257037899500,4.7188994140625,0.6999501306567341,-9.517576453021167,-2.2574767294615508
1790943257047929600,4.7289296875,0.7085963053837419,-9.511725388905406,-2.2793336103521287
1790943257057960400,4.73896044921875,0.7248737056415527,-9.505533548527955,-2.299957588446885
1790943257067990500,4.748990478515625,0.7474214183405041,-9.498726206600665,-2.3207627683274445
1790943257078021600,4.759021728515625,0.7741277120236307,-9.490785476729274,-2.3443816904544827
1790943257088051500,4.769051513671875,0.8020018073771148,-9.481250171142817,-2.373411385583877
1790943257098081500,4.77908154296875,0.8283249469615519,-9.470001047375797,-2.409016513580829
1790943257108112600,4.789112548828125,0.8510513041630386,-9.457281851056218,-2.4506978927515446
1790943257118142500,4.799142578125,0.8696272636868059,-9.443361462253332,-2.4974103979572653
1790943257128173600,4.809173583984375,0.8856335919182747,-9.428600530973076,-2.5470643634423613
1790943257138203400,4.819203369140625,0.9014797611519694,-9.413218837445974,-2.597891464360058
1790943257148234200,4.829234130859375,0.9169948718003929,-9.397589306637645,-2.648545546798408
1790943257158264300,4.839264404296875,0.9303318346921354,-9.382101230126619,-2.6983441814512013
1790943257168295400,4.84929541015625,0.9384788277253509,-9.367260219347477,-2.746648193632066
1790943257178325500,4.859325439453125,0.9391060197129845,-9.353404127952455,-2.793264398856461
1790943257188355300,4.869355224609375,0.932422888687253,-9.34047216566503,-2.838406732136011
1790943257198386400,4.879386474609375,0.9195982592318207,-9.328374900636076,-2.88204041441828
1790943257208416500,4.88941650390625,0.8999440029520541,-9.317339711880683,-2.923636745654046
1790943257218447400,4.899447265625,0.8719883667949586,-9.307668797215818,-2.9626576734438537
1790943257228477400,4.9094775390625,0.8337216914385557,-9.299280908098817,-2.9997786128312347
1790943257238508500,4.919508544921875,0.7827012599058448,-9.291908918026088,-3.03614610350281
1790943257248538400,4.929538330078125,0.7162473315935581,-9.285589067354797,-3.071681527264416
1790943257258569500,4.939569580078125,0.6320150969412177,-9.28069603461623,-3.104774234049022
1790943257268599600,4.949599609375,0.5318891275864094,-9.277553060415386,-3.1328049812689422
1790943257278630400,4.95963037109375,0.42451311403810976,-9.275767930564284,-3.1544121251821515
1790943257288660500,4.969660400390625,0.3229490016389638,-9.273772957354783,-3.1722607933446763
1790943257298691600,4.979691650390625,0.23793851262312382,-9.268494140169024,-3.1951231980159878
1790943257308721700,4.9897216796875,0.17128487875396384,-9.256431946453452,-3.2341192836254833
1790943257318751500,4.99975146484375,0.11593951496053487,-9.23616306540668,-3.2939705257371066
1790943257328782600,5.009782470703125,0.061920002076542004,-9.208566033428907,-3.371773604124784
1790943257338812700,5.019812744140625,0.0008425800984146917,-9.175489108735322,-3.4613238189294933
1790943257348843500,5.029843505859375,-0.07463029357045889,-9.139335260814427,-3.554905188946426
1790943257358873300,5.039873291015625,-0.16824823273811487,-9.10106310556531,-3.648656654833257
1790943257368904700,5.04990478515625,-0.2827957636172883,-9.06260390331149,-3.736261873050034
1790943257378934300,5.059934326171875,-0.4223901670673862,-9.024927960389851,-3.8134845212012527
1790943257388965400,5.06996533203125,-0.5930417711528018,-8.985847995889186,-3.8824250786975023
1790943257398995500,5.079995361328125,-0.7993212630562484,-8.94076265349388,-3.9489571137472983
1790943257409026300,5.0900263671875,-1.0383289758134633,-8.886178830391168,-4.015977516835927
1790943257419056400,5.100056396484375,-1.2944143723607062,-8.81996886690259,-4.086930290937423
1790943257429087500,5.11008740234375,-1.5481768058530985,-8.739337579351663,-4.1710339307740325
1790943257439117300,5.120117431640625,-1.7897309151574967,-8.641477509102225,-4.276930007962882
1790943257449147400,5.1301474609375,-2.0256024487808344,-8.521328450155258,-4.410704856680334
1790943257459178500,5.140178466796875,-2.2670624500609935,-8.378208265465497,-4.564692764604091
1790943257469208600,5.15020849609375,-2.510949093966186,-8.218435052138567,-4.724708262254297
1790943257479239400,5.160239501953125,-2.7527850889518857,-8.045959593626856,-4.884169048631191
1790943257489269500,5.17026953125,-2.9797829957678914,-7.863380089730024,-5.045647312310337
1790943257499300400,5.18030029296875,-3.1753283642217514,-7.678160884979367,-5.208983186554908
1790943257509330400,5.190330322265625,-3.3501173603728414,-7.491346519991755,-5.369058597698808
1790943257519361500,5.200361572265625,-3.5178380255728956,-7.296943891832232,-5.527189304515719
1790943257529391600,5.2103916015625,-3.6854689666628837,-7.088698616281151,-5.686653890284895
1790943257539422500,5.22042236328125,-3.8588700155869122,-6.861417216348648,-5.8481163718730205
1790943257549452500,5.23045263671875,-4.036699986869096,-6.617759266632795,-6.006719956898689
1790943257559483600,5.240483642578125,-4.208483955985307,-6.363873937413096,-6.161179281726479
1790943257569513500,5.250513427734375,-4.36575541562438,-6.104765905109048,-6.312083544421196
1790943257579543600,5.26054345703125,-4.503462050832808,-5.842551723483204,-6.461720563659071
1790943257589574700,5.27057470703125,-4.610573056769371,-5.580235250526666,-6.616187487271428
1790943257599604500,5.2806044921875,-4.677095447207987,-5.3244508096873755,-6.778303464332223
1790943257609635600,5.290635498046875,-4.705750171545148,-5.076124868160486,-6.946888929668068
1790943257619665400,5.30066552734375,-4.719838610391318,-4.831771337395907,-7.109673599770665
1790943257629696300,5.3106962890625,-4.740184063805639,-4.5888948934465645,-7.255554481345414
1790943257639726300,5.320726318359375,-4.7742032377853985,-4.346207834589481,-7.381590844765305
1790943257649757400,5.33075732421875,-4.812278409157693,-4.1035429875642055,-7.494883461946249
1790943257659787500,5.34078759765625,-4.8351703321844335,-3.8629850496903058,-7.607156672951579
1790943257669818400,5.350818359375,-4.839505731040239,-3.6261619144305586,-7.720138324487209
1790943257679848400,5.360848388671875,-4.827850949081778,-3.392825744503736,-7.83268859886825
1790943257689879300,5.37087939453125,-4.8057910929650065,-3.163131730471551,-7.941620098230242
1790943257699909400,5.380909423828125,-4.784947334639728,-2.9390491265803576,-8.039691180881857
1790943257709939500,5.390939453125,-4.772953822246194,-2.727232130022347,-8.121054289838671
1790943257719970600,5.400970458984375,-4.769460134911537,-2.5332579564079643,-8.185674353787302
1790943257730000400,5.41100048828125,-4.770198093797267,-2.359396304234862,-8.23704389101863
1790943257740031500,5.421031494140625,-4.773937864847481,-2.204947500801086,-8.277563532933593
1790943257750061600,5.4310615234375,-4.779863747765123,-2.0668166488312183,-8.309725680869818
1790943257760092400,5.441092529296875,-4.784985620823503,-1.9494880541324615,-8.335093346360326
1790943257770122500,5.45112255859375,-4.785850420959293,-1.8562031828440724,-8.355869592407345
1790943257780153600,5.461153564453125,-4.786823357644677,-1.7804843633845449,-8.371775602069496
1790943257790183400,5.471183349609375,-4.792180793024599,-1.7178553271226584,-8.381787292996048
1790943257800214500,5.481214599609375,-4.7975285837933415,-1.6665880812220275,-8.38907686548233
1790943257810244600,5.49124462890625,-4.786826280254125,-1.628146268494427,-8.40272778969407
1790943257820275500,5.501275390625,-4.763398058393597,-1.6114467703670263,-8.419243455687164
1790943257830305500,5.511305419921875,-4.737803890670835,-1.6127392943955956,-8.433424541252851
1790943257840335400,5.52133544921875,-4.710663078027963,-1.6287321055583655,-8.445546356201172
1790943257850366700,5.53136669921875,-4.680877596095204,-1.6603626308359205,-8.455945585140585
1790943257860396300,5.541396240234375,-4.648783252698183,-1.7031687762528658,-8.46513134663701
1790943257870427400,5.551427490234375,-4.617144544114172,-1.7508178316563368,-8.47272136337459
1790943257880457500,5.56145751953125,-4.589207320396602,-1.7992212125584481,-8.477755265888572
1790943257890488300,5.57148828125,-4.565705156517028,-1.8467358279272912,-8.480230716091395
1790943257900518400,5.581518310546875,-4.548742915800213,-1.893861882369965,-8.47895178219676
1790943257910549500,5.591549560546875,-4.535421369673312,-1.9419509366258978,-8.475210842102765
1790943257920579300,5.601579345703125,-4.5173660730227825,-1.9909103439755738,-8.473490594181419
1790943257930610400,5.6116103515625,-4.49336911136359,-2.042503460829705,-8.473974578306079
1790943257940640500,5.621640625,-4.468692350746691,-2.0993607818223534,-8.473124098956584
1790943257950671400,5.63167138671875,-4.449007991589606,-2.1624422380268573,-8.467617318233847
1790943257960701400,5.641701416015625,-4.443310364469886,-2.2286970635704697,-8.453421619620919
1790943257970731500,5.6517314453125,-4.456365660876036,-2.292981319693476,-8.429317105934024
1790943257980762400,5.661762451171875,-4.487282777187228,-2.3531221924014387,-8.396280513250828
1790943257990792400,5.67179248046875,-4.5284009695172305,-2.4093871004588903,-8.358157995605469
1790943258000823600,5.681823486328125,-4.5695931038662785,-2.4575746466532347,-8.321630638197064
1790943258010853600,5.691853515625,-4.596554176028072,-2.496118312320113,-8.2952687009722
1790943258020885000,5.701885009765625,-4.601073699279129,-2.5272175071999428,-8.283335102072357
1790943258030915000,5.7119150390625,-4.592831063851714,-2.5521909126758575,-8.280257009801268
1790943258040946000,5.72194580078125,-4.581688907590508,-2.5734648791119454,-8.27984375282526
1790943258050976000,5.73197607421875,-4.5727805017307395,-2.589814540888369,-8.279669565302132
1790943258061007000,5.742007080078125,-4.562367828787863,-2.597352827438712,-8.283053362521528
1790943258071037000,5.752036865234375,-4.547629693861306,-2.594275611950457,-8.292113451811671
1790943258081068000,5.762068115234375,-4.532423356901109,-2.5832711105942723,-8.303868187013268
1790943258091097900,5.772097900390625,-4.5168572467178105,-2.5702783580303192,-8.316372863799334
1790943258101128000,5.7821279296875,-4.495663067519665,-2.558473061685264,-8.33148509273529
1790943258111158800,5.79215869140625,-4.462377760772407,-2.54911837336272,-8.35222159129381
1790943258121188900,5.80218896484375,-4.415199830012023,-2.549408880741894,-8.377167816501855
1790943258131220000,5.812219970703125,-4.363116883814334,-2.5722660247161984,-8.397441958245635
1790943258141249800,5.822249755859375,-4.33128060683161,-2.622511526353657,-8.398382453966141
1790943258151281000,5.832281005859375,-4.315950643491745,-2.68735253957659,-8.385769056108593
1790943258161311000,5.84231103515625,-4.31543626422882,-2.7451965335190294,-8.367277706128359
1790943258171341800,5.852341796875,-4.3421287485823035,-2.784703783521056,-8.340366902849079
1790943258181372000,5.862371826171875,-4.397503429801762,-2.815188645894825,-8.30102974871695
1790943258191403000,5.872403076171875,-4.466724557805061,-2.8466303706020115,-8.253208259356022
1790943258201432800,5.882432861328125,-4.535416693498194,-2.886166846698522,-8.201854504215717
1790943258211464000,5.8924638671875,-4.59957235480547,-2.9358628977596757,-8.148312299120425
1790943258221494000,5.902493896484375,-4.653762210154533,-2.991309182910621,-8.097219240742922
1790943258231524000,5.912524169921875,-4.6875402688547965,-3.045108869898319,-8.057585149490833
1790943258241555000,5.922554931640625,-4.700882857769727,-3.0964979886129496,-8.030182178780436
1790943258251585000,5.9325849609375,-4.709029339346289,-3.151921769671142,-8.003800367811321
1790943258261615900,5.942615966796875,-4.719352288179099,-3.2186452356398103,-7.971101044258475
1790943258271646000,5.95264599609375,-4.722223459701239,-3.2995120855122804,-7.9362571098923675
1790943258281677000,5.962677001953125,-4.713541556073725,-3.391887879131734,-7.902406278216838
1790943258291707100,5.97270703125,-4.6953500658228995,-3.4901845872327684,-7.870369217965006
1790943258301738000,5.982738037109375,-4.66903313678354,-3.5908179215878246,-7.840700055888295
1790943258311768000,5.99276806640625,-4.648743212948739,-3.6910643024519083,-7.806126170635223
1790943258321799000,6.002798828125,-4.642129055505991,-3.788604639227688,-7.763214080625772
1790943258331828700,6.012828857421875,-4.641862805785238,-3.880290697017312,-7.717956304273009
1790943258341860000,6.022860107421875,-4.639960187034308,-3.963288421438634,-7.676815315589308
1790943258351890000,6.032889892578125,-4.638125957344472,-4.038603774663806,-7.638578231653571
1790943258361920000,6.042919921875,-4.638851641270518,-4.110682045663893,-7.599590037089586
1790943258371950800,6.052950927734375,-4.642344159561396,-4.176371200148761,-7.561543507289886
1790943258381981000,6.06298095703125,-4.65642441510111,-4.227826954358816,-7.5241984037578105
1790943258392011800,6.07301171875,-4.685395365780591,-4.2642435448691245,-7.485566767546534
1790943258402041900,6.083041748046875,-4.72074929549545,-4.2920583112508055,-7.44736066327095
1790943258412073000,6.093072998046875,-4.755872923585772,-4.314465081109106,-7.411983644941449
1790943258422103000,6.10310302734375,-4.78727373176068,-4.335263831248879,-7.379559046676754
1790943258432134000,6.1131337890625,-4.811579613238573,-4.3584418777406215,-7.350037768638134
1790943258442164000,6.1231640625,-4.835403264157474,-4.381678960943222,-7.320531103646755
1790943258452194800,6.13319482421875,-4.866172788691521,-4.406174227513373,-7.285352822759747
1790943258462225000,6.143224853515625,-4.907618313279747,-4.432544055783748,-7.241423664662242
1790943258472256000,6.153256103515625,-4.95334487618804,-4.459852626208961,-7.193363105848431
1790943258482286000,6.1632861328125,-4.994558930107951,-4.486436097230017,-7.148192423257231
1790943258492316000,6.17331591796875,-5.031742121076584,-4.511662600684166,-7.106114445984363
1790943258502347000,6.183346923828125,-5.070032396504283,-4.541925052478909,-7.059464338490367
1790943258512377000,6.193377197265625,-5.1100616245538,-4.580848657374084,-7.005243503481149
1790943258522408000,6.203407958984375,-5.147071212521195,-4.622168509756029,-6.9508005501538515
1790943258532438000,6.21343798828125,-5.179729035019874,-4.655868827044964,-6.903887407809496
1790943258542469000,6.22346923828125,-5.208063733622431,-4.6796927702248095,-6.866360517969727
1790943258552499000,6.2334990234375,-5.228287021961808,-4.7029003350719805,-6.835066969561576
1790943258562530000,6.243530029296875,-5.235811572247743,-4.733736495101452,-6.807963858580589
1790943258572560000,6.253559814453125,-5.235069229447841,-4.771693008530139,-6.781990628412365
1790943258582591000,6.263591064453125,-5.233023402833938,-4.811749709108471,-6.755213096123933
1790943258592620800,6.273620849609375,-5.227358801200985,-4.854119655065238,-6.729234605258703
1790943258602652000,6.28365185546875,-5.205367918667197,-4.9069800153762095,-6.707914169332384
1790943258612682000,6.293681884765625,-5.161667308628559,-4.97721499659717,-6.689914402261376
1790943258622711800,6.3037119140625,-5.101362769791484,-5.062455823770165,-6.672183515259623
1790943258632743000,6.313742919921875,-5.027426011443138,-5.161085124826431,-6.652708999460935
1790943258642773000,6.32377294921875,-4.935649060499668,-5.274935960412025,-6.632105771893262
1790943258652803800,6.333803955078125,-4.832818800622224,-5.401371552282572,-6.606014468303322
1790943258662834000,6.343833984375,-4.7222830809339875,-5.538771021237969,-6.5720952475667
1790943258672865000,6.353864990234375,-4.605051662999391,-5.687129691103101,-6.528436723104119
1790943258682894800,6.363894775390625,-4.483863908654451,-5.843200542780757,-6.474747803014516
1790943258692926000,6.373926025390625,-4.361406865026057,-6.004017712202668,-6.410947823277115
1790943258702956000,6.3839560546875,-4.2425832094639535,-6.170031865745782,-6.332579804483056
1790943258712987000,6.39398681640625,-4.12785500652194,-6.343493412685394,-6.2362868374198674
1790943258723017000,6.404016845703125,-4.008232017275691,-6.525066369888186,-6.12600392344892
1790943258733048000,6.414048095703125,-3.877482069337368,-6.714046972998976,-6.004755963349342
1790943258743078000,6.424077880859375,-3.7377769537881016,-6.906021497228741,-5.874201245722174
1790943258753108000,6.43410791015625,-3.595367255455255,-7.097631864321231,-5.733007645180821
1790943258763139000,6.44413916015625,-3.4549759112074967,-7.287483405047655,-5.579080819794536
1790943258773169200,6.454169189453125,-3.3171430192708966,-7.474039411360025,-5.413469401833415
1790943258783200000,6.464199951171875,-3.1764196665897964,-7.657456535124778,-5.238710800820589
1790943258793230000,6.47422998046875,-3.0244883989349005,-7.838926031953096,-5.057081144994497
1790943258803261000,6.484260986328125,-2.856365290413797,-8.017857534736395,-4.8708898803412914
1790943258813290800,6.494290771484375,-2.6749489850774406,-8.191656935328245,-4.68100648317188
1790943258823322000,6.504322021484375,-2.4858073461860415,-8.357142681083083,-4.488797565664351
1790943258833352000,6.51435205078125,-2.299430349702388,-8.509539812684059,-4.297760322284698
1790943258843382800,6.5243828125,-2.1302479413866995,-8.644422914904355,-4.111739445762336
1790943258853412900,6.534412841796875,-1.989534233316779,-8.758817355847357,-3.936399245469272
1790943258863444000,6.54444384765625,-1.8835098535731434,-8.854034802633523,-3.7721152767196298
1790943258873473800,6.554473876953125,-1.8093536072552203,-8.933976938876508,-3.6167210091292854
1790943258883503900,6.56450390625,-1.7489855016626417,-9.003629736295341,-3.4707457272693514
1790943258893535000,6.574534912109375,-1.6830740827292203,-9.066236122334002,-3.3378134668558834
1790943258903565000,6.58456494140625,-1.6018874993830918,-9.122393478363751,-3.222778974443674
1790943258913596000,6.594595947265625,-1.5074289081402121,-9.171561121636628,-3.127382663959265
1790943258923626000,6.6046259765625,-1.4075341171927749,-9.213854202964901,-3.0486273994132875
1790943258933656800,6.61465673828125,-1.301569650942832,-9.25039266628921,-2.9843796759083867
1790943258943687000,6.62468701171875,-1.1978305325921623,-9.280601342070103,-2.9336013825684786
1790943258953718000,6.634718017578125,-1.1051974762760102,-9.303923765468596,-2.8958523744106293
1790943258963748000,6.644748046875,-1.0269304336383938,-9.320894189491867,-2.8699694528743622
1790943258973779000,6.654779052734375,-0.9635122197601944,-9.33237536844909,-2.8546090943962334
1790943258983809000,6.66480908203125,-0.9123863550916314,-9.340520680981873,-2.8447487946391106
1790943258993839900,6.67483984375,-0.8714934959501027,-9.347236837494373,-2.8354999047785996
1790943259003870000,6.684869873046875,-0.8410780455507337,-9.352311072018741,-2.82794554387629
1790943259013900000,6.694900146484375,-0.8146697849661111,-9.356288743478059,-2.8225077367365357
1790943259023931100,6.70493115234375,-0.7805432781543582,-9.361763375496864,-2.813984238541126
1790943259033961000,6.7149609375,-0.7288687666270881,-9.372186569833755,-2.7930697530671953
1790943259043992000,6.724991943359375,-0.6651164254236966,-9.387985611990093,-2.755667658650875
1790943259054022000,6.73502197265625,-0.6188796479709446,-9.406163073715566,-2.703976634380221
1790943259064053000,6.745052978515625,-0.624674086528644,-9.423490640613435,-2.6415920743986963
1790943259074082800,6.755082763671875,-0.6840940976161509,-9.436617248690128,-2.579273273129761
1790943259084114000,6.765114013671875,-0.7721526856236159,-9.444962467709184,-2.523257371397316
1790943259094143700,6.775143798828125,-0.8636305805552751,-9.449345212838054,-2.4767694687277078
1790943259104174800,6.7851748046875,-0.9398322881609201,-9.451037988230585,-2.442329292856902
1790943259114205000,6.795204833984375,-0.9894096082132309,-9.452510983392596,-2.416912965919077
1790943259124235800,6.80523583984375,-1.015265276416391,-9.455708902651072,-2.393572422342002
1790943259134265900,6.815265869140625,-1.0309014561612158,-9.460849188148975,-2.3664169966518878
1790943259144296000,6.8252958984375,-1.0519752969153224,-9.466610820415616,-2.3338825082719326
1790943259154327000,6.8353271484375,-1.0876739484146236,-9.471426696264743,-2.2977023568660018
1790943259164356900,6.84535693359375,-1.1409790568184106,-9.47436099615097,-2.2594379465319214
1790943259174388000,6.855387939453125,-1.212326383195445,-9.47529564665258,-2.217978393418342
1790943259184418000,6.86541796875,-1.2910916576787828,-9.476219191238284,-2.1690403211176394
1790943259194449000,6.875448974609375,-1.359111885459721,-9.480510750952362,-2.1078698131009936
1790943259204479000,6.88547900390625,-1.3971926097899674,-9.489518817794323,-2.0413842475414277
1790943259214510000,6.895510009765625,-1.399145351292938,-9.503467263647913,-1.9740578472435473
1790943259224540000,6.905539794921875,-1.379354755282402,-9.52109819740653,-1.9016987134754657
1790943259234571000,6.915571044921875,-1.3597371777512133,-9.539289103135467,-1.82303404982239
1790943259244601000,6.92560107421875,-1.3625652407839894,-9.553553775331377,-1.7445413817353546
1790943259254632000,6.9356318359375,-1.4047308963403105,-9.559523497390746,-1.677090039883554
1790943259264662000,6.945662109375,-1.4900859975427387,-9.555108019036053,-1.627863798291236
1790943259274692000,6.955692138671875,-1.6138333732426167,-9.540124384915828,-1.5974897028155624
1790943259284723000,6.965722900390625,-1.7577518687032163,-9.516928802767396,-1.5839073137953876
1790943259294752800,6.975752685546875,-1.8927368238627909,-9.491212177708745,-1.5826650586493312
1790943259304784100,6.9857841796875,-1.9944883485928178,-9.470272265532612,-1.5831464124254881
1790943259314814000,6.99581396484375,-2.0569237619787453,-9.45843394370079,-1.574007266549766
1790943259324844800,7.0058447265625,-2.095154270043224,-9.453151034861802,-1.5552024667061863
1790943259334875000,7.015875,-2.1347209951475263,-9.447888584288954,-1.5332247359149158
1790943259344905700,7.02590576171875,-2.192468396847695,-9.437744791415334,-1.5140759449392556
1790943259354935800,7.035935791015625,-2.2669924535647032,-9.42243733216822,-1.4996062516905366
1790943259364967000,7.045966796875,-2.346101061592996,-9.404798799625038,-1.4886073032923042
1790943259374997000,7.0559970703125,-2.4242491540260613,-9.384815165260434,-1.489504106001556
1790943259385027800,7.06602783203125,-2.516236386719346,-9.358591759723424,-1.5019037149779497
1790943259395058000,7.076057861328125,-2.6432576695233583,-9.321194049221276,-1.516213395359367
1790943259405088000,7.086087890625,-2.8009111142173406,-9.27411373361647,-1.521883988341689
1790943259415118800,7.096118896484375,-2.965110911814868,-9.225134306392073,-1.508433847399056
1790943259425149000,7.10614892578125,-3.1007877947613594,-9.185666219356655,-1.4761526031278074
1790943259435180000,7.116179931640625,-3.200501091662049,-9.157703276675939,-1.4365448153607547
1790943259445209900,7.1262099609375,-3.277534939242899,-9.136209822270274,-1.3992100870922206
1790943259455241000,7.136240966796875,-3.3438223518818613,-9.117366590112447,-1.364866357333213
1790943259465271000,7.14627099609375,-3.4103459113642574,-9.098157447251676,-1.3279562842175363
1790943259475302000,7.156302001953125,-3.489496604968607,-9.074618750753999,-1.282615944147855
1790943259485332000,7.16633203125,-3.6022763041913506,-9.038278440350293,-1.226177140828222
1790943259495363000,7.176363037109375,-3.7779660485744473,-8.974276216039062,-1.1660556304078549
1790943259505393200,7.18639306640625,-4.022928943409026,-8.873402935448288,-1.1176485962439329
1790943259515424000,7.196424072265625,-4.293716599851846,-8.748702789068222,-1.0929815533034504
1790943259525454000,7.2064541015625,-4.520774420161545,-8.634450386944412,-1.085941206337884
1790943259535485000,7.21648486328125,-4.671497481070459,-8.556891930967568,-1.0616737571742385
1790943259545515000,7.226514892578125,-4.757537641927599,-8.516470488730073,-1.0029445048298686
1790943259555544800,7.236544921875,-4.805407062083482,-8.496003454762697,-0.9467864912129939
1790943259565576000,7.246575927734375,-4.842077919615805,-8.47729232455194,-0.9274774681743234
1790943259575605800,7.256605712890625,-4.890454412510991,-8.448096040683984,-0.9399541609749198
1790943259585636900,7.266636962890625,-4.972959092718362,-8.396004034397006,-0.9732250008054077
1790943259595667000,7.2766669921875,-5.093198752558231,-8.317954580032826,-1.0204618221461772
1790943259605697800,7.28669775390625,-5.212905912956595,-8.238505195742846,-1.0597194082360715
1790943259615727900,7.296727783203125,-5.289544331479072,-8.187427919456363,-1.075720402705297
1790943259625759000,7.306759033203125,-5.3172202739119525,-8.168827848404645,-1.0806677229143677
1790943259635788800,7.316788818359375,-5.318685085767507,-8.16691879991293,-1.0878628220502287
1790943259645820000,7.32681982421875,-5.319887447294593,-8.164992215764522,-1.0964129159916192
1790943259655850000,7.33685009765625,-5.337129673996567,-8.1532842423141,-1.0997272281713784
1790943259665880800,7.346880859375,-5.377309124171734,-8.127068435561656,-1.098053522805497
1790943259675911000,7.356910888671875,-5.437994186758995,-8.086556392431259,-1.0982694305785
1790943259685942000,7.36694189453125,-5.511461574029922,-8.035728706991671,-1.105096207858622
1790943259695971800,7.376971923828125,-5.588315681129694,-7.980401372045278,-1.11995234314166
1790943259706002000,7.387001953125,-5.6611073610961435,-7.92599582811892,-1.1405550592526792
1790943259716033000,7.397032958984375,-5.728348421198129,-7.874232323133945,-1.1631353590469806
1790943259726063000,7.40706298828125,-5.794494087278842,-7.822688598379492,-1.1831370405249297
1790943259736094000,7.417093994140625,-5.8648109015643595,-7.768214080870151,-1.1954962444256991
1790943259746124000,7.4271240234375,-5.942592060381174,-7.708938885080814,-1.195104907020554
1790943259756155100,7.437155029296875,-6.025710488572717,-7.646148959168792,-1.182212180764973
1790943259766185000,7.44718505859375,-6.105739718577265,-7.585042456299066,-1.1650989872701465
1790943259776216000,7.457216064453125,-6.176492001670598,-7.5297110296994445,-1.150980518611893
1790943259786246100,7.46724609375,-6.237574539142846,-7.479972308540344,-1.145903288412839
1790943259796277000,7.477277099609375,-6.2903971977919335,-7.433809692302346,-1.1574942113548516
1790943259806306800,7.487306884765625,-6.339228740978241,-7.387727155563235,-1.185781855945289
1790943259816338200,7.497338134765625,-6.390552685502171,-7.3368456941097975,-1.2255495835144072
1790943259826367700,7.50736767578125,-6.448122830939292,-7.2782707555443045,-1.272336980587244
1790943259836398800,7.51739892578125,-6.512965013206005,-7.211318449255824,-1.3223235390275716
1790943259846429000,7.527428955078125,-6.584464899796247,-7.137398642042279,-1.368492877267301
1790943259856459000,7.537458984375,-6.660650313854217,-7.058477665540575,-1.4085501623675227
1790943259866489900,7.54748974609375,-6.7365621716678135,-6.97795743714869,-1.4481879068814216
1790943259876520000,7.55752001953125,-6.808304050320387,-6.898756474661827,-1.4914948414273559
1790943259886550800,7.56755078125,-6.87364833689034,-6.822738818386196,-1.5406423186950384
1790943259896580900,7.577580810546875,-6.930984089049696,-6.751121442896127,-1.598183091907203
1790943259906612000,7.587612060546875,-6.979363796815275,-6.684850104609131,-1.6648161031134425
1790943259916642000,7.59764208984375,-7.019790499749779,-6.624167964631319,-1.7358866583757102
1790943259926673000,7.6076728515625,-7.052308621516823,-6.5699827854573725,-1.8085078040808438
1790943259936703000,7.617702880859375,-7.076816455307602,-6.522819467744231,-1.8819993028797208
1790943259946733800,7.62773388671875,-7.094908576837182,-6.482022177931666,-1.953464118156582
1790943259956764000,7.637763916015625,-7.109280216538906,-6.446129611295461,-2.018899297880381
1790943259966795000,7.647794921875,-7.123083116441965,-6.412146677672863,-2.0776170059174297
1790943259976825000,7.6578251953125,-7.139739067688584,-6.376874873283505,-2.128379663296789
1790943259986855000,7.66785498046875,-7.160892914876341,-6.338731897372007,-2.1708345110580325
1790943259996886000,7.677885986328125,-7.187830021640658,-6.296069398209452,-2.2056728924661875
1790943260006916000,7.687916015625,-7.221389176893234,-6.247334885656834,-2.2344315155692396
1790943260016947000,7.697947021484375,-7.260906363767385,-6.192605516603589,-2.258599011489749
1790943260026976500,7.7079765625,-7.308387076866627,-6.129737849280238,-2.2768881168961523
1790943260037008000,7.7180078125,-7.372432555797696,-6.050755497980117,-2.2816541622541844
1790943260047037700,7.72803759765625,-7.459458512821793,-5.947014552998542,-2.2715292202115056
1790943260057068500,7.738068603515625,-7.56343794273436,-5.819405241173506,-2.2581650039866563
1790943260067098600,7.7480986328125,-7.67849055532515,-5.666442876905203,-2.2588946334354576
1790943260077129700,7.758129638671875,-7.804595892328024,-5.477342446807026,-2.292910592544824
1790943260087159600,7.76815966796875,-7.938093677669763,-5.246797661164402,-2.3723789737962186
1790943260097190700,7.778190673828125,-8.067395180365443,-4.990450325745344,-2.486540336635709
1790943260107220700,7.788220703125,-8.178136359497904,-4.7350943394511935,-2.620570913679898
1790943260117250600,7.79825048828125,-8.26628635211587,-4.517889512374997,-2.72536165997535
1790943260127281700,7.80828173828125,-8.340414249122142,-4.349842099438607,-2.772501012291014
1790943260137311700,7.818311767578125,-8.402956337752938,-4.209949644623697,-2.799465299323201
1790943260147342600,7.828342529296875,-8.454617551407217,-4.077554852087795,-2.83960207940042
1790943260157372700,7.83837255859375,-8.498558984464406,-3.9415290095731614,-2.89986044100821
1790943260167403800,7.84840380859375,-8.536974932098389,-3.801413559657335,-2.973167961542308
1790943260177433900,7.858433837890625,-8.572471777415275,-3.666930270409584,-3.0391961387231943
1790943260187464700,7.868464599609375,-8.603038180592655,-3.551431959877908,-3.089568481610715
1790943260197494800,7.878494873046875,-8.627657073542474,-3.4609950253665445,-3.123373428317904
1790943260207525600,7.888525634765625,-8.645687820273638,-3.3953970562964675,-3.145433284434676
1790943260217555700,7.8985556640625,-8.65717133731842,-3.3487001870512962,-3.163847185264528
1790943260227586800,7.9085869140625,-8.663499955818057,-3.3129829769819974,-3.184075734300911
1790943260237617000,7.918616943359375,-8.66815567266941,-3.2804464427754283,-3.205016230998933
1790943260247647700,7.928647705078125,-8.672287657907605,-3.2470395554751157,-3.227782189558446
1790943260257677800,7.938677734375,-8.676911810576915,-3.2112174237266182,-3.2511022748693823
1790943260267707600,7.948707763671875,-8.684202552106976,-3.1714792875781654,-3.2705785442337394
1790943260277738800,7.95873876953125,-8.696377558547258,-3.12627265689075,-3.281737651629746
1790943260287768600,7.9687685546875,-8.714581908279657,-3.0727173000529406,-3.284031607785821
1790943260297799700,7.978799560546875,-8.737710270410776,-3.011860095769167,-3.278949189954996
1790943260307829500,7.98882958984375,-8.765279245337844,-2.947778668741882,-3.2635748029515144
1790943260317860600,7.998860595703125,-8.798175552767514,-2.8809634328365323,-3.2345822249621152
1790943260327890700,8.008890625,-8.83852334524691,-2.808352077873051,-3.1881095198616385
1790943260337921500,8.018921630859374,-8.884855472832918,-2.7271540963500738,-3.1292665780097244
1790943260347951600,8.02895166015625,-8.935240675202012,-2.635501648569107,-3.063658379806578
1790943260357982700,8.038982666015626,-8.988850100314616,-2.5342042973473666,-2.9914424539014695
1790943260368012500,8.049012451171874,-9.041779141947627,-2.4284102192282675,-2.9188059644967317
1790943260378042600,8.059042724609375,-9.092941758430003,-2.3188892295405266,-2.848084076541662
1790943260388073700,8.06907373046875,-9.141242555740476,-2.210926136819273,-2.7784625510439276
1790943260398103800,8.079103759765625,-9.18755831671357,-2.109926161108911,-2.7032155868798493
1790943260408134700,8.089134765625,-9.235365777549147,-2.017005154696852,-2.60961872703284
1790943260418164700,8.099164794921874,-9.285430077400804,-1.9346429517000912,-2.4916432127326726
1790943260428195800,8.10919580078125,-9.335277519631385,-1.8638174572400747,-2.3556708539709446
1790943260438225700,8.1192255859375,-9.379539270684122,-1.8070973527610301,-2.220147992542386
1790943260448256800,8.1292568359375,-9.416412080529332,-1.7647592632472513,-2.0945659487612542
1790943260458286800,8.139286865234375,-9.446544768464564,-1.7340506751202045,-1.9814619860202072
1790943260468317700,8.149317626953126,-9.469774837404488,-1.7176792399033902,-1.8823744198024273
1790943260478347800,8.15934765625,-9.487129292309284,-1.7201608275860547,-1.7904785186544059
1790943260488379000,8.16937890625,-9.499470302966236,-1.7373866876751183,-1.7064258783526718
1790943260498408700,8.17940869140625,-9.507219309657811,-1.7646470350444317,-1.63375475602597
1790943260508439800,8.189439697265625,-9.509164598506688,-1.8019290102124212,-1.580875983275473
1790943260518470000,8.199469970703126,-9.50731341768205,-1.8438642180137335,-1.5432218137942253
1790943260528499700,8.209499755859374,-9.503858308792113,-1.8777979056671261,-1.5234776872739195
1790943260538530600,8.219530517578125,-9.499078088778257,-1.9029687334112821,-1.5220501386888323
1790943260548560600,8.229560546875,-9.492105911678076,-1.9278633745625613,-1.534173122680932
1790943260558591500,8.239591552734375,-9.483436867532134,-1.958083156259358,-1.5494365966558457
1790943260568621600,8.24962158203125,-9.472472405925393,-1.9971384247101842,-1.566561188327521
1790943260578652700,8.259652587890624,-9.459337030020356,-2.0510715288192034,-1.576213836683333
1790943260588682800,8.269682861328125,-9.444411848089098,-2.1155314337700606,-1.5805081728763877
1790943260598713600,8.279713623046876,-9.427235087838769,-2.1920516327403483,-1.5787706815592943
1790943260608743700,8.28974365234375,-9.408649629834294,-2.2791810501389205,-1.5662161742821334
1790943260618774500,8.2997744140625,-9.389245841184257,-2.372095626810193,-1.5445369880460202
1790943260628804600,8.3098046875,-9.36781376157701,-2.472088032913208,-1.5176482504680753
1790943260638834700,8.319834716796874,-9.34311771173775,-2.5832611737221476,-1.484356221719086
1790943260648865800,8.32986572265625,-9.314990518406033,-2.707315423414111,-1.439362210869044
1790943260658895600,8.3398955078125,-9.283225845354796,-2.8438270036190745,-1.3801383068755269
1790943260668926700,8.3499267578125,-9.247264305135607,-2.989785918866098,-1.311348117635399
1790943260678956800,8.359956787109375,-9.206641787368058,-3.1424630364522335,-1.2381905269660054
1790943260688987600,8.369987548828124,-9.160580293416976,-3.3025629975154995,-1.1606920575480908
1790943260699017700,8.380017822265625,-9.109130092164873,-3.4680899520635604,-1.0800590894967317
1790943260709048800,8.390048828125,-9.052572923162579,-3.6360984942942856,-1.0000509753454476
1790943260719078700,8.40007861328125,-8.991189356917141,-3.804494866798818,-0.9245313317198306
1790943260729109800,8.41010986328125,-8.924660828998684,-3.97312534032017,-0.8573778768360615
1790943260739139800,8.420139892578124,-8.852781587702035,-4.142790709847212,-0.7974414406590163
1790943260749170700,8.430170654296875,-8.774997506275772,-4.314676385772228,-0.7438779735799879
1790943260759200800,8.44020068359375,-8.691140242415665,-4.488826791758835,-0.6963447996411473
1790943260769230600,8.450230712890624,-8.601217979428172,-4.665099012205005,-0.6529075167138129
1790943260779261700,8.46026171875,-8.505027888217567,-4.843390171258151,-0.6135938165225088
1790943260789291500,8.47029150390625,-8.401361762037872,-5.024672328820825,-0.583271633897163
1790943260799322600,8.480322509765625,-8.291187569138406,-5.206857864964008,-0.5614997278762981
1790943260809352700,8.490352783203125,-8.176420787751674,-5.386745645558833,-0.5472547102289274
1790943260819383600,8.500383544921876,-8.057266585060953,-5.564187202045321,-0.5390954057034105
1790943260829413600,8.51041357421875,-7.933553111630678,-5.739513373813033,-0.5358496287152171
1790943260839444700,8.52044482421875,-7.804813334470987,-5.913308098229765,-0.5367136616660282
1790943260849474600,8.530474609375,-7.672248446065187,-6.0841112396150825,-0.5390479132998734
1790943260859505700,8.540505615234375,-7.539359732532501,-6.247756325939298,-0.5422337037291377
1790943260869535700,8.55053564453125,-7.407510883441567,-6.403158484575152,-0.5466050141485408
1790943260879566600,8.560566650390625,-7.2726447323560715,-6.555635695675015,-0.550172022447735
1790943260889596700,8.5705966796875,-7.132672198042273,-6.707509680184722,-0.5519636916374787
1790943260899627800,8.580627685546874,-6.990461529412865,-6.855692993482947,-0.550705362139456
1790943260909657600,8.59065771484375,-6.847589182004332,-6.998440837728976,-0.5501883525280281
1790943260919687700,8.600687744140625,-6.704944798132777,-7.134948910802603,-0.553737167583406
1790943260929718800,8.61071875,-6.564794569164514,-7.2635069016546,-0.5615597875004634
1790943260939748900,8.620748779296875,-6.42994303112626,-7.382367089834809,-0.5717572102574632
1790943260949779700,8.63077978515625,-6.301704773747921,-7.491382175827026,-0.5814903765035793
1790943260959809800,8.640809814453124,-6.179321087616682,-7.591847460138798,-0.5918123024230822
1790943260969840600,8.650840576171875,-6.061982409915328,-7.68470110040307,-0.606760865229927
1790943260979870700,8.66087060546875,-5.951127833536267,-7.769238747742771,-0.6271849003057927
1790943260989901800,8.67090185546875,-5.849645481136441,-7.844105480417609,-0.6496709459453821
1790943260999932000,8.680931884765625,-5.7570332484126086,-7.9108052732497445,-0.6679433924779296
1790943261009962800,8.690962646484374,-5.668009980091452,-7.973947081339359,-0.6784239430252462
1790943261019992600,8.70099267578125,-5.578279440283775,-8.036361744198203,-0.6855998260039836
1790943261030023700,8.711023681640626,-5.4907256599932905,-8.096129107418657,-0.6891857216667383
1790943261040053500,8.721053466796874,-5.409637860846519,-8.150764952969551,-0.6864893952548503
1790943261050083600,8.73108349609375,-5.336590744814276,-8.199471408471465,-0.6781169959679245
1790943261060114700,8.74111474609375,-5.270566659286618,-8.242885602784156,-0.6680553284198045
1790943261070144800,8.751144775390625,-5.207817065384984,-8.28355663586855,-0.6570688011117279
1790943261080175600,8.761175537109375,-5.145254518488049,-8.323675880289077,-0.6427603628393262
1790943261090205700,8.771205810546874,-5.085005509230494,-8.362178337162733,-0.6221414993111044
1790943261100236500,8.781236572265625,-5.028854582941531,-8.398170272520185,-0.5930833087395876
1790943261110266600,8.7912666015625,-4.977030287680029,-8.431499126148223,-0.5562404556412249
1790943261120297700,8.801297607421875,-4.931490187254548,-8.460837448835372,-0.5148018357178196
1790943261130327800,8.811327880859375,-4.896072252392768,-8.483769411611556,-0.473836203601025
1790943261140358700,8.821358642578126,-4.87219804033041,-8.499601771515607,-0.4345693382261321
1790943261150388700,8.831388671875,-4.8591602795809505,-8.508984516888857,-0.3951458940500393
1790943261160419600,8.841419677734375,-4.855136723153293,-8.512807290047407,-0.3607307795552537
1790943261170449700,8.85144970703125,-4.857313482670485,-8.512498077967763,-0.33805779650881884
1790943261180479700,8.861479736328125,-4.864468907383084,-8.508876964861154,-0.3261136762149632
1790943261190510800,8.8715107421875,-4.875865915188193,-8.502709089881181,-0.3166370785458013
1790943261200540700,8.881540771484374,-4.889875735840201,-8.49506412808597,-0.30557785132769494
1790943261210571800,8.89157177734375,-4.90602899826169,-8.486232002332805,-0.2917575070994906
1790943261220601900,8.901601806640626,-4.925410575079917,-8.47544523538053,-0.2785333934650756
1790943261230632700,8.9116328125,-4.949269005051255,-8.461794895690678,-0.2705295900285244
1790943261240662500,8.92166259765625,-4.976747379085421,-8.445729896074534,-0.26846074786521495
1790943261250694000,8.93169384765625,-5.005245743817091,-8.42883779798448,-0.2695252900904976
1790943261260723700,8.9417236328125,-5.033311562350392,-8.412107027935981,-0.2693939553284086
1790943261270754600,8.951754638671876,-5.063852246564626,-8.39385124027729,-0.2666316327419132
1790943261280784600,8.96178466796875,-5.103372356048226,-8.370027297097444,-0.2619748564446345
1790943261290815500,8.9718154296875,-5.158492185723781,-8.336288109102846,-0.25820854444736613
1790943261300845600,8.981845458984376,-5.2320677095443004,-8.290418922853469,-0.2545887099823914
1790943261310875600,8.991875732421875,-5.321317187836766,-8.233635543879867,-0.24741505549335852
1790943261320906800,9.00190673828125,-5.420861265650391,-8.168813235357403,-0.23485130546381697
1790943261330936600,9.0119365234375,-5.5246536485582585,-8.09940476808846,-0.21964379945984108
1790943261340967700,9.0219677734375,-5.6271197512984275,-8.028861159309745,-0.20816388087794183
1790943261350997800,9.031997802734375,-5.723996071207523,-7.960183344402909,-0.2041927852898836
1790943261361028600,9.042028564453124,-5.8121560006976125,-7.895921007850766,-0.20901068869931622
1790943261371058700,9.05205859375,-5.8890492707639925,-7.838356707632541,-0.2227211793448776
1790943261381089800,9.06208984375,-5.953800852137804,-7.788632599520683,-0.24464091460490597
1790943261391119600,9.07211962890625,-6.007027415412664,-7.746782001262903,-0.27089237719262016
1790943261401150700,9.082150634765625,-6.0494473379909985,-7.712851090088487,-0.2941146098859608
1790943261411180800,9.092180908203124,-6.08269845020771,-7.686068297103047,-0.309010675320588
1790943261421211600,9.102211669921875,-6.110900462341308,-7.663418073877692,-0.31519568409845233
1790943261431241700,9.11224169921875,-6.140742058375477,-7.639462028750777,-0.3167153679464012
1790943261441272800,9.12227294921875,-6.180735046067833,-7.606900652363896,-0.3225021346542984
1790943261451302700,9.132302734375,-6.237726514834165,-7.559314140802622,-0.34339159528482704
1790943261461332700,9.142332763671876,-6.313838279134035,-7.493792159578204,-0.38584958485122767
1790943261471363800,9.15236376953125,-6.4064470047265285,-7.411244809272885,-0.4485785743562504
1790943261481393700,9.1623935546875,-6.511309062692523,-7.314351538228988,-0.5229350194213912
1790943261491424800,9.1724248046875,-6.623481151410937,-7.207090602427721,-0.5981211567763238
1790943261501454600,9.18245458984375,-6.738102386847138,-7.094194291087985,-0.6638939709566534
1790943261511485700,9.192485595703126,-6.852758109074831,-6.978517993640899,-0.7144271304290741
1790943261521515500,9.202515625,-6.964403543570637,-6.86344609182775,-0.7487092661939561
1790943261531546600,9.212546630859375,-7.068256716755032,-6.753554223001003,-0.7743548718430101
1790943261541576700,9.22257666015625,-7.163254383310675,-6.649708648601174,-0.799708581873402
1790943261551607600,9.232607666015625,-7.249656655478477,-6.551083439198136,-0.8343735794760286
1790943261561637600,9.2426376953125,-7.327629537475109,-6.457645861566067,-0.8803604007557034
1790943261571667700,9.252667724609376,-7.398263747146725,-6.3694514452844855,-0.9306833515435456
1790943261581698600,9.262698486328125,-7.461491479954123,-6.288369491356611,-0.9762143918797374
1790943261591728600,9.272728759765625,-7.516613063195347,-6.2166837268054485,-1.0118263149436562
1790943261601759700,9.282759765625,-7.56709471167624,-6.151139533749222,-1.0358331404097378
1790943261611789800,9.292789794921875,-7.616953259822726,-6.086921036338806,-1.049661101688817
1790943261621820700,9.302820556640626,-7.668791583609581,-6.019229894381761,-1.0625193411529064
1790943261631850800,9.312850830078125,-7.722771595600247,-5.9463891145765775,-1.0814920449092984
1790943261641881600,9.322881591796875,-7.778992664515972,-5.866947329071164,-1.1120199427071957
1790943261651911700,9.33291162109375,-7.839670128318667,-5.776131916636229,-1.1602934866845607
1790943261661942800,9.34294287109375,-7.905240624859928,-5.670160436123609,-1.2356554555304349
1790943261671972900,9.352972900390625,-7.975956667596101,-5.546504830360412,-1.3381922854192554
1790943261682003700,9.363003662109374,-8.050721108940243,-5.406629911202192,-1.4575975402615964
1790943261692033800,9.37303369140625,-8.128390039554239,-5.2529631980568166,-1.5830596109248696
1790943261702063900,9.38306396484375,-8.208969304656982,-5.087037891840934,-1.7044743058934806
1790943261712094700,9.3930947265625,-8.29194569402933,-4.911187988460064,-1.8150180627577006
1790943261722124500,9.40312451171875,-8.375338262987137,-4.728584226904809,-1.9143273089021444
1790943261732156000,9.413156005859374,-8.459530457890033,-4.53768960686624,-2.0040189780041575
1790943261742185500,9.423185546875,-8.545963709717988,-4.3377430808439845,-2.078663738491386
1790943261752216600,9.433216552734375,-8.633871710273622,-4.1334474197015165,-2.1310297394141555
1790943261762246700,9.44324658203125,-8.720279243138432,-3.928804844817519,-2.166012789990008
1790943261772277500,9.453277587890625,-8.802332087925077,-3.7284298642501232,-2.1881756680898365
1790943261782307600,9.4633076171875,-8.876599685662985,-3.5380908322677014,-2.2041490438997746
1790943261792338700,9.473338623046875,-8.941979043546318,-3.3614892337366937,-2.216265013629198
1790943261802368800,9.48336865234375,-8.999767800170183,-3.2024267990276214,-2.217896998745203
1790943261812399600,9.493399658203124,-9.050767919567226,-3.066596186824143,-2.202259723021835
1790943261822429700,9.5034296875,-9.09598828651905,-2.9555577783107756,-2.1674964526765046
1790943261832459800,9.513459716796875,-9.137439071804284,-2.861038835182786,-2.1194391087330877
1790943261842490600,9.52349072265625,-9.177399910792708,-2.771700801824033,-2.0648063319221137
1790943261852520700,9.533520751953125,-9.218505243641138,-2.6781144633710383,-2.0043077318176628
1790943261862551800,9.5435517578125,-9.260715907382965,-2.5787518796041606,-1.9389732359893619
1790943261872581600,9.55358154296875,-9.300247122782467,-2.4794033243626354,-1.8783961638212203
1790943261882612700,9.56361279296875,-9.335499053427576,-2.3858520572230217,-1.823889789868891
1790943261892642800,9.573642822265626,-9.367221640902757,-2.30259188247323,-1.7673869814023375
1790943261902673700,9.583673583984375,-9.39655353384912,-2.227632503078878,-1.706704256902635
1790943261912703700,9.593703857421875,-9.42741804319024,-2.1472814937740563,-1.638090739403665
1790943261922734800,9.60373486328125,-9.456558212956786,-2.05805247374773,-1.5837534384079277
1790943261932764700,9.6137646484375,-9.478381922230124,-1.9721395925320684,-1.5624793258413672
1790943261942795800,9.623795654296876,-9.493539743873477,-1.9003997597061097,-1.5593619244731962
1790943261952825900,9.633825927734375,-9.503805117300152,-1.8431242133013903,-1.5655673549845814
1790943261962855700,9.643855712890625,-9.509757888224721,-1.7995726563446222,-1.580026526839286
1790943261972886800,9.65388671875,-9.510041965863108,-1.7764860875286161,-1.6042353776834903
1790943261982916600,9.66391650390625,-9.50427448837757,-1.775553775114566,-1.6390535930864512
1790943261992947500,9.673947509765625,-9.494272149801255,-1.7911494036532938,-1.6795700201310217
1790943262002977500,9.6839775390625,-9.480565111488103,-1.8229818812437355,-1.7222041699819266
1790943262013008600,9.694008544921875,-9.465043717229365,-1.869754592204094,-1.757090920576453
1790943262023039200,9.704039306640626,-9.448727957722545,-1.9305087745048104,-1.7790841411978005
1790943262033070300,9.7140703125,-9.432012969765067,-2.0048652195699512,-1.7854994150675831
1790943262043100400,9.724100341796875,-9.415158281075954,-2.089867269551009,-1.7769709484361111
1790943262053131300,9.73413134765625,-9.397436161902545,-2.1836749956697226,-1.7578674579069018
1790943262063161300,9.744161376953125,-9.377933589053153,-2.28488349956423,-1.733230152517557
1790943262073192400,9.7541923828125,-9.355500807970762,-2.395050824331492,-1.705499557287991
1790943262083222300,9.76422216796875,-9.33032661922574,-2.5153002749130127,-1.669915764340013
1790943262093252400,9.77425244140625,-9.300838074412942,-2.6513100430756804,-1.6233796386145054
1790943262103283500,9.784283447265626,-9.26568609701097,-2.802608273524046,-1.5693495038717984
1790943262113313500,9.7943134765625,-9.225983032175899,-2.962550121416151,-1.5082858172304927
1790943262123344400,9.804344482421875,-9.180432410356401,-3.132386755856871,-1.441614958231896
1790943262133374200,9.814374267578126,-9.127174282899498,-3.314740049782395,-1.370235775411874
1790943262143405300,9.8244052734375,-9.066616646084189,-3.507845039346814,-1.2891416926547885
1790943262153435100,9.83443505859375,-8.99764657023251,-3.7133550447151062,-1.1931947625502943
1790943262163466200,9.84446630859375,-8.916652294588088,-3.9361481933176514,-1.0818895928595214
1790943262173496300,9.854496337890625,-8.82225960818827,-4.173941050392389,-0.9572674801517277
1790943262183527200,9.864527099609376,-8.7145170263499,-4.4214758415415885,-0.823477506930381
1790943262193557200,9.87455712890625,-8.590725226986407,-4.67854447697252,-0.6935767231673002
1790943262203587300,9.88458740234375,-8.453207100087404,-4.937929864913225,-0.5749395666206255
1790943262213618200,9.8946181640625,-8.309372629648447,-5.187539416509867,-0.46276835468504574
1790943262223648300,9.904648193359375,-8.162658804380893,-5.423551235386729,-0.35570524301081896
1790943262233679400,9.914679443359375,-8.010729290291666,-5.650471985313296,-0.2660758985552937
1790943262243709400,9.92470947265625,-7.853635525307059,-5.869246253663301,-0.20679536900371312
1790943262253740300,9.934740234375,-7.693141596490144,-6.078942897066473,-0.1799577405584976
1790943262263770400,9.944770263671876,-7.528871656265855,-6.281348798939585,-0.1764682910075411
1790943262273801200,9.95480126953125,-7.3600716713964935,-6.47806145760715,-0.18552945800991727
1790943262283831300,9.964831298828125,-7.186864391478895,-6.669402360108494,-0.19598386946897953
1790943262293862400,9.9748623046875,-7.011258818247914,-6.8537184785395855,-0.1980269744028337
1790943262303892500,9.984892578125,-6.835939660742879,-7.02881668677032,-0.18998718633744865
1790943262313923300,9.99492333984375,-6.663661770629883,-7.19267395454049,-0.17733555709505452
1790943262323953400,10.004953369140624,-6.498611493682861,-7.342403328236937,-0.1659280461622402
1790943262333983500,10.0149833984375,-6.346084013700485,-7.474716287708282,-0.16207487786542624
1790943262344014300,10.025014404296876,-6.207433667901158,-7.590148255005478,-0.16672778170518576
1790943262354044200,10.035044189453124,-6.079232819923758,-7.693033459940552,-0.17471112687559798
1790943262364075500,10.045075439453125,-5.954782264390587,-7.789299538996815,-0.19439877396831287
1790943262374105000,10.05510498046875,-5.834920790213346,-7.878617406350374,-0.2270178718918003
1790943262384136200,10.06513623046875,-5.725771848708391,-7.957368286982178,-0.2573419724795967
1790943262394166300,10.075166259765625,-5.628127467036247,-8.025995833006501,-0.2791560371417552
1790943262404197000,10.085197021484374,-5.5368771703153845,-8.088565394166112,-0.29743714190479364
1790943262414227200,10.095227294921875,-5.4477323214411735,-8.147981459730863,-0.32098398517630994
1790943262424258300,10.10525830078125,-5.364020019009709,-8.201950365805626,-0.35457317024096846
1790943262434288400,10.115288330078124,-5.290981086283922,-8.247351350021361,-0.3964174118231982
1790943262444318200,10.125318115234375,-5.233833550173044,-8.281789626196026,-0.4351237937711179
1790943262454349300,10.135349365234376,-5.201978860750794,-8.300519461107253,-0.4595405152123421
1790943262464379400,10.14537939453125,-5.199007735985517,-8.301517239972949,-0.4749204551737755
1790943262474410200,10.15541015625,-5.216856696408986,-8.288936575341225,-0.4982892019320279
1790943262484440300,10.1654404296875,-5.246696538877487,-8.267398112750053,-0.5409846900487318
1790943262494471400,10.175471435546875,-5.287753940930962,-8.237247889158128,-0.5981192205475643
1790943262504501200,10.185501220703125,-5.345395398038625,-8.195328317317367,-0.6585702186506242
1790943262514532400,10.195532470703125,-5.422409079614281,-8.139508230417967,-0.7185393149882554
1790943262524562400,10.2055625,-5.5117614337593315,-8.074148161756991,-0.7739715716138482
1790943262534593300,10.21559326171875,-5.6009279099434615,-8.007929430440068,-0.8204191422730683
1790943262544623400,10.225623291015625,-5.680760740593075,-7.947992555871606,-0.8536842830151319
1790943262554654500,10.235654541015625,-5.746339420440792,-7.899054629701375,-0.8688762991890311
1790943262564684300,10.245684326171874,-5.796398459595442,-7.862923578134179,-0.8640292975492775
1790943262574714400,10.25571435546875,-5.832976085886359,-7.837955725616216,-0.8445277476131916
1790943262584745500,10.265745361328126,-5.8618654957622285,-7.818727293533087,-0.8224494790568947
1790943262594775300,10.275775390625,-5.8902107157588,-7.798441461351514,-0.8124654798548668
1790943262604806400,10.285806396484375,-5.924781093880534,-7.7718170737981795,-0.816240395283699
1790943262614836200,10.295836181640626,-5.969712122496962,-7.736590862116217,-0.8234833521492779
1790943262624867300,10.305867431640625,-6.023058512759208,-7.694793455350399,-0.8266050643663853
1790943262634897200,10.315897216796875,-6.079326343426108,-7.6514225156575435,-0.8172367128446698
1790943262644928300,10.32592822265625,-6.131454005548358,-7.612390481951833,-0.7919546798110008
1790943262654958300,10.335958251953125,-6.175029527902603,-7.58015000808239,-0.7620788892462849
1790943262664989200,10.3459892578125,-6.213039817345142,-7.550909885072707,-0.7431677794840187
1790943262675019300,10.356019287109374,-6.25289894952476,-7.518177828294038,-0.7407096457421779
1790943262685050400,10.36605029296875,-6.299831381091475,-7.477966813936829,-0.7500098273985087
1790943262695080200,10.376080078125,-6.351888900586962,-7.432723066109419,-0.7606220415014773
1790943262705110300,10.3861103515625,-6.404100733861327,-7.387879715776443,-0.759685491303727
1790943262715141400,10.396141357421875,-6.454064495947956,-7.3458654513895505,-0.7440942466791719
1790943262725171200,10.406171142578126,-6.50801235923469,-7.299649643659591,-0.7288749771721661
1790943262735202300,10.416202392578125,-6.572731207382678,-7.2415604427844285,-0.7276273882638663
1790943262745232400,10.426232421875,-6.649316434413194,-7.170956043729186,-0.730997376153618
1790943262755263200,10.43626318359375,-6.73716598277986,-7.089638527479767,-0.7197301322080194
1790943262765293300,10.446293212890625,-6.835201994118094,-6.997168918097019,-0.7000514721393585
1790943262775324400,10.456324462890626,-6.942453577569126,-6.891316680049896,-0.6946301046777517
1790943262785354500,10.4663544921875,-7.0589423604428765,-6.770073980647325,-0.7126403200775384
1790943262795385300,10.47638525390625,-7.187463526415825,-6.628821927917003,-0.7546400444824248
1790943262805415400,10.48641552734375,-7.331010412085056,-6.46166737216711,-0.8207146911535411
1790943262815446300,10.4964462890625,-7.489317644512653,-6.26569296464622,-0.9064126144442707
1790943262825476400,10.506476318359375,-7.652047954079508,-6.049974576735496,-1.0071302660819141
1790943262835506200,10.516506103515624,-7.80544286454618,-5.832186396813392,-1.1095400355249643
1790943262845537500,10.52653759765625,-7.9428037550568575,-5.626738643026352,-1.192489025433734
1790943262855567000,10.536567138671876,-8.06372847455144,-5.439985652837157,-1.246277241179347
1790943262865598200,10.54659814453125,-8.172395185497402,-5.268331447580456,-1.275560764939338
1790943262875628300,10.556628173828125,-8.275247657206654,-5.101925664371252,-1.2887892259553073
1790943262885659100,10.5666591796875,-8.377226268690825,-4.930670103043317,-1.2965003848545253
1790943262895689200,10.576689208984375,-8.482039811339973,-4.744458087863028,-1.3097769227959215
1790943262905720300,10.58672021484375,-8.591297473916411,-4.534935047461092,-1.3395323018513619
1790943262915750100,10.596750244140624,-8.701720088618993,-4.301834147594869,-1.3945371268451212
1790943262925781200,10.60678125,-8.808558999615908,-4.0494790966823695,-1.4769548594214021
1790943262935811300,10.616811279296876,-8.904165153458713,-3.791991066795587,-1.5833762756586074
1790943262945841400,10.62684130859375,-8.985179302847385,-3.5421214029580352,-1.7000864461980758
1790943262955872300,10.636872314453125,-9.051429598346353,-3.3081261846005914,-1.8161226629987357
1790943262965902300,10.64690234375,-9.09996303536892,-3.100556908614933,-1.9358692786246536
1790943262975933400,10.656933349609375,-9.132868110626935,-2.9137200395345686,-2.0667263401992617
1790943262985963300,10.66696337890625,-9.153031777733563,-2.737970381657779,-2.212678825705498
1790943262995994400,10.676994384765624,-9.163046975791454,-2.5730288257822393,-2.3639973682895303
1790943263006024400,10.6870244140625,-9.166061939698457,-2.4287540642298757,-2.500974812440574
1790943263016055300,10.69705517578125,-9.166873840603232,-2.307098692373186,-2.610776664896309
1790943263026085600,10.707085693359375,-9.171456492218375,-2.1976615815766154,-2.6879557661667466
1790943263036116500,10.717116455078125,-9.183020673283934,-2.0888981322579085,-2.734781814749539
1790943263046146600,10.727146484375,-9.203574801012874,-1.975495624961704,-2.7499071954280137
1790943263056177700,10.737177734375,-9.233715672254561,-1.8551827537551522,-2.732610315929353
1790943263066207700,10.747207763671875,-9.273549085471034,-1.729154865902662,-2.67987358199805
1790943263076237600,10.757237548828124,-9.321492155385016,-1.6015236345067618,-2.591394795817137
1790943263086268700,10.7672685546875,-9.368998002925515,-1.4828538543321192,-2.4886530910059808
1790943263096298800,10.777298828125,-9.405387413167952,-1.3911204502694308,-2.4028739191725847
1790943263106329600,10.78732958984375,-9.431208667644858,-1.3288709148444235,-2.335991609380394
1790943263116359700,10.797359619140625,-9.452138058426975,-1.2871743381045757,-2.2739121698252855
1790943263126390800,10.807390869140624,-9.470380402082204,-1.2585260435082017,-2.21323529054448
1790943263136420600,10.817420654296875,-9.484891157993674,-1.239932548327744,-2.160957406296581
1790943263146451700,10.82745166015625,-9.49480114211142,-1.2331301748365162,-2.1209750861287118
1790943263156481800,10.837481689453124,-9.499150569492578,-1.2374329865969718,-2.0988655456513166
1790943263166512600,10.8475126953125,-9.49953635393977,-1.2500528141953051,-2.0896223548792303
1790943263176542700,10.857542724609376,-9.49722515438795,-1.2701860861636698,-2.0879932923726736
1790943263186573800,10.86757373046875,-9.491068969845772,-1.3054839017771183,-2.0942083674952388
1790943263196603600,10.877603759765625,-9.481984915158153,-1.3594288424544037,-2.101033537340164
1790943263206633700,10.8876337890625,-9.470738714000582,-1.4323068855300545,-2.1033178488850592
1790943263216664800,10.897664794921875,-9.456837614420056,-1.525883433241397,-2.100055486088246
1790943263226694700,10.907694580078125,-9.440666231819987,-1.638591528532654,-2.0878753650814295
1790943263236725800,10.917725830078124,-9.421800203308463,-1.7698304290316997,-2.065859640367329
1790943263246755600,10.927755615234375,-9.398948320031165,-1.9221318451732397,-2.033601776971668
1790943263256786700,10.93778662109375,-9.370924002552032,-2.0968394466511904,-1.9898269326530396
1790943263266816500,10.94781640625,-9.338198960036038,-2.289891244723648,-1.9299737908452748
1790943263276847600,10.95784765625,-9.299705855512618,-2.5005501572877167,-1.852865562853962
1790943263286877700,10.967877685546876,-9.25389979762733,-2.728651056909561,-1.7578998988717793
1790943263296908500,10.977908447265625,-9.199186795186996,-2.9718904889523983,-1.6471946678355336
1790943263306938600,10.987938720703125,-9.133445618253946,-3.2277015255376695,-1.5272520912460983
1790943263316968700,10.99796875,-9.055712390232086,-3.4936940566584465,-1.3995092161692677
1790943263326999600,11.00799951171875,-8.964866582658887,-3.7681016571640966,-1.2660780663229525
1790943263337029600,11.018029541015625,-8.858432160809636,-4.052510427202284,-1.1294641947872937
1790943263347060700,11.028060791015625,-8.736119786348938,-4.34538833490014,-0.9839720933344215
1790943263357090800,11.0380908203125,-8.598178465601801,-4.643675408165157,-0.8234217581551522
1790943263367121700,11.04812158203125,-8.440184536907076,-4.94892472165823,-0.6646792761154472
1790943263377151700,11.05815185546875,-8.26289086445868,-5.254194785678386,-0.5371455868098884
1790943263387182600,11.0681826171875,-8.07967072457075,-5.5405280940383665,-0.4380461840238422
1790943263397212700,11.078212646484374,-7.899943102973699,-5.799682303571701,-0.3535004995081574
1790943263407243800,11.088243896484375,-7.7240867698520415,-6.035539224147796,-0.2849139613476582
1790943263417273900,11.09827392578125,-7.550520593494176,-6.253360721817613,-0.23573722145287318
1790943263427304700,11.1083046875,-7.378682263842225,-6.456322504007816,-0.20336913914838806
1790943263437334800,11.118334716796875,-7.206385084506869,-6.648776336187124,-0.17922412905432283
1790943263447364900,11.12836474609375,-7.032174765026569,-6.8332315708279605,-0.1608619036127813
1790943263457395700,11.138395751953125,-6.857526054129004,-7.008564756858348,-0.1572328811943531
1790943263467425500,11.148425537109375,-6.6885922137469045,-7.16969932166636,-0.16889560899725184
1790943263477457000,11.158456787109374,-6.531915212869643,-7.31209236112535,-0.19448610519189385
1790943263487486700,11.16848681640625,-6.38820407654941,-7.436807705074548,-0.23476229373980312
1790943263497517600,11.178517578125,-6.255799931663274,-7.5468538876801725,-0.2835205890268087
1790943263507547600,11.188547607421874,-6.134968735671043,-7.643557189109921,-0.32949104369357224
1790943263517578500,11.19857861328125,-6.024285424205661,-7.729472554543614,-0.365580119282566
1790943263527608600,11.208608642578126,-5.92180470841825,-7.807047961655258,-0.3907212825408205
1790943263537639700,11.2186396484375,-5.825585391113162,-7.878319300186633,-0.4062803419288248
1790943263547669800,11.228669677734375,-5.734704512226581,-7.9441154221773145,-0.41784667841885237
1790943263557700600,11.23870068359375,-5.649983909535408,-8.003867003306746,-0.4314480644004419
1790943263567730700,11.248730712890625,-5.5714995708853,-8.057710821697116,-0.4495714213185012
1790943263577760800,11.2587607421875,-5.49822390679419,-8.106482159128785,-0.4742332035619765
1790943263587791600,11.26879150390625,-5.429308191478252,-8.150937386927009,-0.5051560554942116
1790943263597821700,11.27882177734375,-5.3656040733307595,-8.190736897873878,-0.5408535379497335
1790943263607852800,11.288852783203126,-5.31073500354588,-8.223809730914235,-0.5792036172732711
1790943263617882600,11.298882568359375,-5.268910124251246,-8.247507417365908,-0.6226048790391534
1790943263627913700,11.308913818359375,-5.2434647173494096,-8.259947212222219,-0.670638842106983
1790943263637943800,11.31894384765625,-5.235878792265058,-8.260659159883856,-0.7193802227918058
1790943263647974700,11.328974609375,-5.24456420302391,-8.25091634902656,-0.7663587585225701
1790943263658004700,11.339004638671875,-5.266314262539148,-8.23279090974927,-0.8108465734161436
1790943263668035800,11.349035888671875,-5.2985950684189795,-8.207923594996332,-0.8516206284835934
1790943263678065700,11.359065673828125,-5.340455603548884,-8.177093572446703,-0.8860255138453096
1790943263688096800,11.3690966796875,-5.393632482463121,-8.13946380675435,-0.9100890379346906
1790943263698126800,11.379126953125,-5.460530428215861,-8.093227540758251,-0.9234183289766311
1790943263708156700,11.38915673828125,-5.541597184574604,-8.03727944356501,-0.9291178557924926
1790943263718187800,11.399187744140624,-5.635205442598462,-7.97209882312417,-0.9276417918905615
1790943263728217600,11.409217529296875,-5.737609586018324,-7.899784697541594,-0.918471666354686
1790943263738248700,11.419248779296876,-5.8421413891166445,-7.824437487873435,-0.9043902417711913
1790943263748278500,11.429278564453124,-5.941805293917656,-7.750602436333894,-0.8907680321972816
1790943263758309600,11.4393095703125,-6.0332391305118795,-7.680628736397623,-0.8822442417409271
1790943263768339700,11.449339599609376,-6.116738082453608,-7.614996865057945,-0.8762086148384958
1790943263778370600,11.45937060546875,-6.194052208280563,-7.5533473413527,-0.8666154415849596
1790943263788400600,11.469400634765625,-6.2651896912992,-7.496164733928442,-0.8516219436578452
1790943263798431700,11.479431640625,-6.330223596745729,-7.443470670095086,-0.8326972437616437
1790943263808461600,11.489461669921875,-6.391041345801949,-7.393867558014392,-0.8097343013253062
1790943263818492700,11.49949267578125,-6.451462204495072,-7.344214177051186,-0.7820238721009344
1790943263828522800,11.509522705078124,-6.516568590655923,-7.289598205244541,-0.7526881066970527
1790943263838552800,11.519552734375,-6.592872078135609,-7.2234765045613045,-0.7251003540042787
1790943263848583700,11.529583740234376,-6.684975776815414,-7.140942598259449,-0.6988757063582539
1790943263858613800,11.53961376953125,-6.79373133508861,-7.040052951055765,-0.6732640760440379
1790943263868644600,11.54964453125,-6.91454733351171,-6.924041138043999,-0.6458450309816748
1790943263878674700,11.5596748046875,-7.038679909136891,-6.800787098819017,-0.6137189042069018
1790943263888705800,11.569705810546875,-7.155898759850859,-6.680195556801557,-0.5818071508351713
1790943263898735900,11.57973583984375,-7.2623045401275155,-6.566935672846436,-0.5520176868470386
1790943263908766700,11.5897666015625,-7.359048173567652,-6.4605637948393815,-0.5253195399377495
1790943263918796800,11.599796875,-7.448111773899197,-6.359020652163029,-0.50880281449873
1790943263928827600,11.60982763671875,-7.532091202834248,-6.259122938606143,-0.511261386631988
1790943263938857700,11.619857666015625,-7.615095064735412,-6.155528124096989,-0.5386532514264807
1790943263948888800,11.629888916015625,-7.701574493792653,-6.041746262094378,-0.594498509299755
1790943263958919000,11.6399189453125,-7.796448826229572,-5.910289042669534,-0.6739556385047734
1790943263968948500,11.649948486328125,-7.90301827263534,-5.755709890854359,-0.7645045089580118
1790943263978979600,11.6599794921875,-8.01648273925185,-5.581789494231343,-0.8660274125639349
1790943263989009700,11.670009765625,-8.130372737804056,-5.395563742786646,-0.9774006790548563
1790943263999040500,11.68004052734375,-8.240442301285267,-5.203146150964498,-1.0921156571891157
1790943264009070600,11.690070556640626,-8.342285303691028,-5.011453950807452,-1.2091102706931531
1790943264019101700,11.700101806640625,-8.434370882192253,-4.823635084952413,-1.3282888771727681
1790943264029130500,11.710130615234375,-8.51757698866725,-4.637427453686296,-1.4545016200728713
1790943264039161300,11.720161376953126,-8.592859900927543,-4.44673332465589,-1.599899248175323
1790943264049191400,11.73019140625,-8.661248377498984,-4.247651598769426,-1.7637071238458155
1790943264059222500,11.740222412109375,-8.724560865980386,-4.040788132965565,-1.929885089648515
1790943264069252400,11.75025244140625,-8.784419999137521,-3.8286774141579865,-2.084607449326664
1790943264079283500,11.760283447265625,-8.840640483531356,-3.6163486686855553,-2.2215978990897534
1790943264089313300,11.770313232421875,-8.892864007243514,-3.4080288665935394,-2.3393843205586076
1790943264099343400,11.78034326171875,-8.941613132843374,-3.2050545171827074,-2.438361412139237
1790943264109374200,11.790374267578125,-8.988332798442244,-3.0054148651525376,-2.5194796064242717
1790943264119404300,11.800404296875,-9.03339651352763,-2.807475002777576,-2.585778709501028
1790943264129435400,11.810435302734374,-9.075582042828202,-2.612707048436999,-2.6415771690905094
1790943264139465200,11.82046533203125,-9.116010499328373,-2.4224423968650397,-2.683376037161052
1790943264149496300,11.830496337890626,-9.15675109051764,-2.238760338553786,-2.7041233493745325
1790943264159526400,11.8405263671875,-9.197023479673266,-2.0649792042709887,-2.705738091094792
1790943264169557200,11.85055712890625,-9.235276930221914,-1.9044559032291173,-2.693154503853619
1790943264179587300,11.86058740234375,-9.271415580573677,-1.7566915459953247,-2.669317993453145
1790943264189618400,11.870618408203125,-9.307336788782477,-1.6169214023858307,-2.6323750409811733
1790943264199648300,11.880648193359375,-9.342238590815663,-1.4880521536275744,-2.5843185738205907
1790943264209679400,11.890679443359375,-9.373100177547336,-1.3788036972709,-2.5326450852066276
1790943264219709400,11.90070947265625,-9.399008525785803,-1.2908943815410137,-2.4824679726302623
1790943264229739500,11.910739501953126,-9.421811893746256,-1.216931319707632,-2.432889118207991
1790943264239770400,11.920770263671875,-9.442347316774725,-1.1552813576109706,-2.38282452609539
1790943264249800400,11.930800537109375,-9.459461533182859,-1.1122745750553906,-2.3349166736252607
1790943264259831600,11.94083154296875,-9.473126485919952,-1.0943835290558634,-2.287481407102942
1790943264269861400,11.950861328125,-9.484176287722587,-1.1014022487115114,-2.2377882786512373
1790943264279892500,11.960892578125,-9.492586973193287,-1.130168543664366,-2.18720916114524
1790943264289922600,11.970922607421874,-9.49731984693408,-1.1805484122712164,-2.1395212350361046
1790943264299953400,11.980953369140625,-9.498611640310287,-1.252830608345568,-2.092174815841019
1790943264309983200,11.990983154296876,-9.496339019203186,-1.346619045241922,-2.043651315690577
1790943264320014600,12.0010146484375,-9.490764433941244,-1.4591294260039924,-1.9916592626467347
1790943264330044200,12.011044189453125,-9.482855852773785,-1.5844725464627145,-1.9326827575430272
1790943264340075300,12.0210751953125,-9.471883792382478,-1.7202119732514023,-1.8694054865054786
1790943264350105300,12.031105224609375,-9.455784305974841,-1.8690709938541055,-1.8069531219847499
1790943264360135400,12.041135498046875,-9.43359000982344,-2.032319482076168,-1.745680761028826
1790943264370166300,12.051166259765624,-9.404601815748213,-2.2092761776551604,-1.686098837377876
1790943264380196400,12.0611962890625,-9.367499873322249,-2.3997740534611043,-1.6313753135435283
1790943264390227200,12.071227294921876,-9.321295756030082,-2.604180335371196,-1.5817840380311012
1790943264400257300,12.08125732421875,-9.265288622125983,-2.823104533585906,-1.5345599300414323
1790943264410288400,12.091288330078125,-9.198243961378932,-3.0580291417479515,-1.4870089281849563
1790943264420318500,12.101318359375,-9.118488872140645,-3.309421192847192,-1.4392175417013466
1790943264430349300,12.111349365234375,-9.025840983581542,-3.5728561484396457,-1.3925814627327024
1790943264440379400,12.12137939453125,-8.921025687366724,-3.8419615508839486,-1.350941438485682
1790943264450410200,12.13141015625,-8.805022642183303,-4.111812803259491,-1.31718822196573
1790943264460440300,12.1414404296875,-8.678577113440632,-4.380537681953609,-1.2898092166528106
1790943264470471400,12.151471435546876,-8.54148276491165,-4.6485772087320685,-1.2665602968819438
1790943264480501500,12.16150146484375,-8.394775369384885,-4.915402391284704,-1.2397474010191858
1790943264490531300,12.17153125,-8.239531031659245,-5.178973832738399,-1.2078052525091916
1790943264500562400,12.1815625,-8.075542830985784,-5.437479807496071,-1.1789156234376132
1790943264510592500,12.191592529296875,-7.904456781005859,-5.687845730417966,-1.1568796596530824
1790943264520623400,12.201623291015625,-7.731708350771665,-5.924093696138263,-1.1385176351409405
1790943264530653400,12.2116533203125,-7.563451386737823,-6.14023410885334,-1.1234291524067521
1790943264540684500,12.2216845703125,-7.4028142500579355,-6.33445553522706,-1.1150963544778525
1790943264550714400,12.23171435546875,-7.247691492885351,-6.511672050786018,-1.1133102017134426
1790943264560745500,12.241745361328125,-7.092749352976679,-6.679919662469625,-1.1144261270660907
1790943264570775300,12.251775390625,-6.935140624207258,-6.843253198626637,-1.1153694723308085
1790943264580806100,12.26180615234375,-6.77769146991372,-6.999500575914978,-1.113686341549456
1790943264590836200,12.271836181640625,-6.625188539850711,-7.144774723768234,-1.1088141324032097
1790943264600867300,12.281867431640626,-6.4795964120894665,-7.277825934386253,-1.103844746492803
1790943264610897400,12.2918974609375,-6.339542044711113,-7.400485514849424,-1.1015419494431464
1790943264620928300,12.30192822265625,-6.203133924880624,-7.515513577520847,-1.0993550338581204
1790943264630958300,12.311958251953126,-6.071081077650189,-7.623471847936511,-1.0931838709425181
1790943264640988400,12.321988525390625,-5.944954113337397,-7.723798600560427,-1.0820639995783567
1790943264651019300,12.332019287109375,-5.8244625245630735,-7.817479923820495,-1.0644614881966263
1790943264661049300,12.34204931640625,-5.709605726805329,-7.904768331173062,-1.041839614282921
1790943264671080400,12.35208056640625,-5.601810537996887,-7.984708129328489,-1.0171331161148847
1790943264681110300,12.3621103515625,-5.5054041736871,-8.054734436234831,-0.99102223104164
1790943264691141400,12.372141357421874,-5.427451165434718,-8.11117294729352,-0.9602304216105491
1790943264701171500,12.38217138671875,-5.374151536923646,-8.151055460348724,-0.9214935714591294
1790943264711202300,12.392202392578126,-5.348671058708429,-8.172644776344299,-0.877489594559744
1790943264721232400,12.402232421875,-5.353036268180609,-8.17327722902894,-0.844357724808529
1790943264731263500,12.412263427734375,-5.387186959585547,-8.151255951356887,-0.8400062516007571
1790943264741293300,12.422293212890626,-5.4415065787941215,-8.111608416101337,-0.8730519774384796
1790943264751324400,12.432324462890625,-5.496131902951002,-8.068226955014467,-0.9309472631767391
1790943264761354500,12.4423544921875,-5.538463562723994,-8.031980168113112,-0.9915195861045271
1790943264771385300,12.45238525390625,-5.57231965509653,-8.002622556203603,-1.038107368952036
1790943264781415400,12.46241552734375,-5.60993773035109,-7.972704387801885,-1.0653679355170578
1790943264791445200,12.4724453125,-5.663923587560653,-7.932647102701663,-1.078637166934833
1790943264801476400,12.482476318359375,-5.7400113864630455,-7.876829353889822,-1.0854679628029464
1790943264811506200,12.492506103515625,-5.836036057978868,-7.805165216648578,-1.091076377269253
1790943264821537300,12.502537353515624,-5.947031504133343,-7.7196514177531,-1.100103148811683
1790943264831567400,12.5125673828125,-6.069665950155258,-7.621168247169256,-1.116838448904827
1790943264841598200,12.52259814453125,-6.2020017059803,-7.509753698819876,-1.144177706729248
1790943264851628300,12.532628173828124,-6.3402504852414125,-7.387344878247379,-1.1826715419050304
1790943264861659400,12.542659423828125,-6.47804216838479,-7.258569445252418,-1.232281302922219
1790943264871689200,12.552689208984376,-6.608665275073051,-7.129609303340316,-1.2901970469266175
1790943264881720300,12.56272021484375,-6.728444331663846,-7.005528165641427,-1.3494341026626526
1790943264891750400,12.57275048828125,-6.83862261621654,-6.887735898953676,-1.4009548849329352
1790943264901781200,12.58278125,-6.944291314390301,-6.773769912555814,-1.4363915244951844
1790943264911811300,12.592811279296875,-7.050795294344425,-6.659028265610337,-1.4539575763240455
1790943264921842400,12.602842529296876,-7.156418984332681,-6.542368217822909,-1.4674718685440717
1790943264931872300,12.612872314453124,-7.260276833692193,-6.422295731243491,-1.4875675849810241
1790943264941902300,12.62290234375,-7.361908823695779,-6.299322847047447,-1.5136935214929281
1790943264951933400,12.632933349609376,-7.462561155012249,-6.1743473908573385,-1.5355973102651534
1790943264961963500,12.642963623046874,-7.562868618413805,-6.047781450605392,-1.5484562073163688
1790943264971994400,12.652994384765625,-7.662455950847268,-5.91829757708013,-1.559129284761101
1790943264982024400,12.6630244140625,-7.760994651010632,-5.783074283120036,-1.579061335068941
1790943264992055300,12.67305517578125,-7.856680884352326,-5.640772429075837,-1.6200845425918697
1790943265002085400,12.68308544921875,-7.947955146470665,-5.492202162286639,-1.684091150817275
1790943265012116500,12.693116455078124,-8.034645587930083,-5.336599512642621,-1.7707557271830736
1790943265022147000,12.70314697265625,-8.119314168173075,-5.168801398292183,-1.8789932529315352
1790943265032178200,12.71317822265625,-8.20425221300721,-4.987467510542273,-1.9964520498812197
1790943265042208000,12.7232080078125,-8.290990585261582,-4.791651508453488,-2.1142158211268485
1790943265052239000,12.733239013671875,-8.381255378076434,-4.579368940210342,-2.2258350982680914
1790943265062269000,12.74326904296875,-8.474468499302864,-4.3520054149523375,-2.3267672694392503
