time,seconds_elapsed,z,y,x
1790943252383777800,0.06477783203125,0.06960601359605789,0.1066138744354248,-0.18505434691905975
1790943252393809000,0.074808837890625,0.06754366308450699,0.1395244151353836,-0.2132825255393982
1790943252403839000,0.0848388671875,0.010041030123829842,0.15131700038909912,-0.2235611528158188
1790943252413869800,0.094869873046875,-0.07285891473293304,0.14888180792331696,-0.20583435893058777
1790943252423900000,0.10489990234375,-0.15114331245422363,0.06355149298906326,-0.1528058797121048
1790943252433930800,0.1149306640625,-0.09662387520074844,-0.11109700798988342,-0.10184282809495926
1790943252443960800,0.1249609375,-0.06362984329462051,-0.21259640157222748,-0.010802961885929108
1790943252453991000,0.134990966796875,-0.026483535766601562,-0.3753690719604492,0.18257075548171997
1790943252464022000,0.14502197265625,-0.004494843538850546,-0.631093442440033,0.4387269616127014
1790943252474051800,0.1550517578125,0.03529251739382744,-0.9054957032203674,0.6778519153594971
1790943252484083000,0.1650830078125,0.2122330367565155,-1.0756313800811768,0.8108929991722107
1790943252494113000,0.175113037109375,0.4491766095161438,-1.1845523118972778,0.8320075869560242
1790943252504143000,0.18514306640625,0.6292939782142639,-1.1984361410140991,0.7297163009643555
1790943252514174000,0.195174072265625,0.7050827741622925,-1.090179443359375,0.49526357650756836
1790943252524204000,0.2052041015625,0.6774518489837646,-0.7857658267021179,0.24050939083099365
1790943252534235000,0.21523486328125,0.6843984127044678,-0.4187180697917938,0.01757725328207016
1790943252544265000,0.225264892578125,0.754723846912384,-0.234190434217453,-0.19582878053188324
1790943252554296000,0.235296142578125,0.924107015132904,-0.19094789028167725,-0.35676947236061096
1790943252564326100,0.245326171875,1.2505309581756592,-0.2208893895149231,-0.3703431189060211
1790943252574356000,0.25535595703125,1.6583607196807861,-0.392709344625473,-0.21107010543346405
1790943252584386800,0.26538671875,2.0146374702453613,-0.6790415644645691,0.07035288214683533
1790943252594417000,0.2754169921875,2.2117252349853516,-1.0120309591293335,0.42015349864959717
1790943252604447700,0.28544775390625,2.2848470211029053,-1.2073194980621338,0.7264142036437988
1790943252614477800,0.295477783203125,2.1831912994384766,-1.4041404724121094,0.8887953758239746
1790943252624508000,0.3055078125,1.917095422744751,-1.6510701179504395,0.8647609949111938
1790943252634539000,0.3155390625,1.6163864135742188,-1.8765698671340942,0.7097423672676086
1790943252644568800,0.32556884765625,1.1287033557891846,-2.0606300830841064,0.445328027009964
1790943252654600000,0.335599853515625,0.5701404213905334,-2.162670373916626,0.06817728281021118
1790943252664630000,0.345630126953125,0.3073573708534241,-2.1774327754974365,-0.3686073422431946
1790943252674660900,0.355660888671875,0.46837714314460754,-2.2934134006500244,-0.8011582493782043
1790943252684691000,0.36569091796875,1.0520695447921753,-2.4191222190856934,-1.1032776832580566
1790943252694721000,0.375720947265625,1.0540469884872437,-2.147914171218872,-1.1534196138381958
1790943252704751900,0.385751953125,0.26833856105804443,-1.8233574628829956,-1.2423509359359741
1790943252714782000,0.395781982421875,-0.1967894434928894,-1.5523861646652222,-1.3450264930725098
1790943252724813000,0.40581298828125,-0.040588170289993286,-1.3912230730056763,-1.4156105518341064
1790943252734843100,0.415843017578125,0.20597313344478607,-1.4183433055877686,-1.4312169551849365
1790943252744873000,0.425873046875,0.22100602090358734,-1.6174147129058838,-1.3353590965270996
1790943252754904000,0.435904052734375,0.0703619122505188,-1.8781970739364624,-1.1508738994598389
1790943252764934000,0.445933837890625,0.09369076043367386,-2.427686929702759,-1.0432164669036865
1790943252774965000,0.455965087890625,0.4365743398666382,-3.1952247619628906,-1.068198561668396
1790943252784994800,0.465994873046875,0.8112003803253174,-4.135117053985596,-1.1609070301055908
1790943252795026000,0.47602587890625,1.1915699243545532,-5.058711051940918,-1.1451376676559448
1790943252805055700,0.4860556640625,1.6799052953720093,-6.027711391448975,-0.979939341545105
1790943252815085800,0.4960859375,2.2753684520721436,-7.008153438568115,-0.7286815643310547
1790943252825117000,0.506116943359375,2.8312511444091797,-7.671644687652588,-0.4952417314052582
1790943252835147000,0.51614697265625,3.149888038635254,-7.892855167388916,-0.4347682595252991
1790943252845177900,0.526177734375,3.255932569503784,-7.445901870727539,-0.4930925667285919
1790943252855208000,0.5362080078125,3.397512435913086,-7.0340776443481445,-0.5713836550712585
1790943252865238800,0.54623876953125,3.5400238037109375,-5.7483062744140625,-0.9625419974327087
1790943252875268900,0.556268798828125,3.6822078227996826,-4.779900074005127,-0.9551621079444885
1790943252885299000,0.566298828125,3.9367282390594482,-4.404136657714844,-0.822059690952301
1790943252895330000,0.576330078125,3.9699928760528564,-4.238101482391357,-0.7177639007568359
1790943252905360000,0.58635986328125,3.881298065185547,-3.7528269290924072,-0.5583146214485168
1790943252915391000,0.596390869140625,3.744936227798462,-3.0963327884674072,-0.4253419041633606
1790943252925421000,0.606421142578125,3.5298423767089844,-2.6844847202301025,-0.40021562576293945
1790943252935452000,0.616451904296875,3.330657958984375,-2.3474953174591064,-0.41677942872047424
1790943252945482000,0.62648193359375,3.1832220554351807,-2.1295108795166016,-0.46026507019996643
1790943252955512000,0.636511962890625,3.0032360553741455,-1.8357901573181152,-0.3293437957763672
1790943252965543000,0.64654296875,2.7591915130615234,-1.1623510122299194,-0.07035356014966965
1790943252975572700,0.65657275390625,2.4583675861358643,-0.17015334963798523,0.19528476893901825
1790943252985604000,0.66660400390625,2.2130699157714844,0.8228397965431213,0.30383816361427307
1790943252995634000,0.676634033203125,1.87277352809906,1.6294838190078735,0.2866930067539215
1790943253005663700,0.686663818359375,1.206809639930725,1.2771003246307373,0.5363042950630188
1790943253015695000,0.696695068359375,0.752549409866333,0.12521545588970184,0.8266797065734863
1790943253025725200,0.70672509765625,0.5762909054756165,-0.9104068875312805,0.9355233311653137
1790943253035756000,0.716756103515625,0.742573618888855,-1.2244995832443237,0.6654908061027527
1790943253045786000,0.7267861328125,1.0795234441757202,-0.8999713063240051,0.19769619405269623
1790943253055817200,0.736817138671875,1.4087231159210205,-0.23115670680999756,-0.18650686740875244
1790943253065847000,0.746846923828125,1.53846275806427,0.2676564157009125,-0.2787952125072479
1790943253075877000,0.756877197265625,1.5252583026885986,0.8001198172569275,-0.2603861093521118
1790943253085908200,0.766908203125,1.1363956928253174,0.7363412380218506,-0.09633192420005798
1790943253095938300,0.776938232421875,1.8004151582717896,1.9726393222808838,-0.7024831175804138
1790943253105969200,0.78696923828125,1.521185040473938,3.6984875202178955,-1.0274910926818848
1790943253115999200,0.796999267578125,0.7132490873336792,3.870124578475952,-0.3715350329875946
1790943253126030000,0.807030029296875,1.4591506719589233,3.5414273738861084,-0.08993921428918839
1790943253136060200,0.81706005859375,1.2782871723175049,3.9058470726013184,0.00014859996736049652
1790943253146090200,0.82709033203125,0.9815730452537537,3.090252637863159,0.8157436847686768
1790943253156121300,0.837121337890625,1.153159737586975,0.639280378818512,1.3938989639282227
1790943253166151200,0.847151123046875,1.881349802017212,-0.19277530908584595,1.7176640033721924
1790943253176182300,0.857182373046875,2.5633363723754883,-0.59787917137146,1.1371082067489624
1790943253186212400,0.86721240234375,3.4782121181488037,-0.2603132426738739,0.07700169831514359
1790943253196242200,0.8772421875,2.4570257663726807,0.6622568964958191,-2.2003607749938965
1790943253206273000,0.88727294921875,1.8766201734542847,-2.086697578430176,-1.1559276580810547
1790943253216303000,0.89730322265625,1.3141179084777832,-3.317997455596924,0.21286332607269287
1790943253226334200,0.907334228515625,0.8416144847869873,-3.4168641567230225,0.4404706358909607
1790943253236364000,0.917364013671875,1.0310981273651123,-2.6226181983947754,0.15021298825740814
1790943253246395100,0.92739501953125,1.1598825454711914,-1.768943428993225,-0.13854503631591797
1790943253256425200,0.93742529296875,1.11553955078125,-1.5419363975524902,-0.06407134234905243
1790943253266455300,0.947455322265625,0.9030289649963379,-1.8616714477539062,0.2968965768814087
1790943253276486100,0.957486083984375,0.6160373687744141,-2.2499606609344482,0.6107227206230164
1790943253286516200,0.96751611328125,0.6099685430526733,-2.341946601867676,0.8839821815490723
1790943253296547000,0.977547119140625,0.6430000066757202,-2.5579864978790283,1.0210191011428833
1790943253306577200,0.9875771484375,0.5994411110877991,-3.1420021057128906,0.9206867814064026
1790943253316608300,0.997608154296875,0.5385846495628357,-3.703535318374634,0.8106347918510437
1790943253326638300,1.007638427734375,0.4489873945713043,-4.091050624847412,0.7705957889556885
1790943253336668200,1.017668212890625,0.3630724847316742,-4.383753299713135,0.7580645680427551
1790943253346699300,1.02769921875,0.2700483500957489,-4.7771148681640625,0.46986472606658936
1790943253356729300,1.037729248046875,0.394587904214859,-4.576506614685059,-0.0752641037106514
1790943253366760200,1.04776025390625,0.4256087839603424,-3.8899505138397217,-0.16020895540714264
1790943253376790300,1.057790283203125,0.47561946511268616,-3.2211263179779053,-0.477750688791275
1790943253386821400,1.0678212890625,0.752959668636322,-2.3268706798553467,-0.616824746131897
1790943253396851200,1.077851318359375,0.8432186841964722,-1.870120882987976,-0.7057695388793945
1790943253406881000,1.087881103515625,1.1191394329071045,-2.2349941730499268,-0.7214234471321106
1790943253416912100,1.097912109375,0.8324868679046631,-3.3782482147216797,-0.8945826888084412
1790943253426942200,1.107942138671875,0.6498430371284485,-4.043984413146973,-0.8359740972518921
1790943253436973000,1.11797314453125,0.8008501529693604,-3.9576940536499023,-0.9987547993659973
1790943253447003100,1.128003173828125,1.5645049810409546,-3.106107473373413,-0.9804269671440125
1790943253457033200,1.138033203125,2.4037880897521973,-2.0230445861816406,-1.3365364074707031
1790943253467064000,1.14806396484375,3.163658857345581,-0.6150901913642883,-1.838624358177185
1790943253477094100,1.15809423828125,3.61215877532959,0.050455059856176376,-2.054943799972534
1790943253487125200,1.168125244140625,3.5849711894989014,-0.28367090225219727,-1.6945546865463257
1790943253497155000,1.178155029296875,3.105159044265747,-0.8511825203895569,-0.8661248683929443
1790943253507186200,1.188186279296875,2.939804792404175,-0.4810151159763336,-0.4454234540462494
1790943253517216300,1.19821630859375,3.2406840324401855,0.11426395922899246,-0.6855471134185791
1790943253527246300,1.208246337890625,3.570289373397827,0.937238335609436,-1.0674469470977783
1790943253537277200,1.218277099609375,3.809342384338379,1.4755419492721558,-1.2194039821624756
1790943253547307300,1.228307373046875,4.255172252655029,1.341217279434204,-0.8577409982681274
1790943253557338000,1.238338134765625,4.159182548522949,1.0452734231948853,-0.33679288625717163
1790943253567368200,1.2483681640625,3.641568660736084,1.217692494392395,-0.27020537853240967
1790943253577398300,1.258398193359375,3.194920063018799,1.7714357376098633,-0.5253825187683105
1790943253587429400,1.268429443359375,2.623962640762329,1.8255321979522705,-0.5956590175628662
1790943253597459200,1.278459228515625,1.9185526371002197,2.1192708015441895,-0.7832960486412048
1790943253607490300,1.288490234375,1.5659637451171875,2.671079635620117,-1.0828123092651367
1790943253617520000,1.29852001953125,1.0455104112625122,2.9067728519439697,-1.1141196489334106
1790943253627551000,1.308551025390625,0.46900320053100586,2.4188575744628906,-1.2208706140518188
1790943253637581000,1.3185810546875,0.02280917949974537,1.2655006647109985,-1.1473348140716553
1790943253647611100,1.328611083984375,0.060936104506254196,0.45737388730049133,-0.451215535402298
1790943253657642200,1.338642333984375,0.014814148657023907,-0.013209853321313858,0.0591936856508255
1790943253667672000,1.348672119140625,-0.34212997555732727,0.08830633759498596,0.2520788908004761
1790943253677703200,1.358703125,-0.7567926645278931,0.34993210434913635,0.24671050906181335
1790943253687733200,1.368733154296875,-0.6947750449180603,0.5652781128883362,0.06235795468091965
1790943253697764000,1.37876416015625,-0.3653441369533539,0.6692308783531189,0.026429248973727226
1790943253707794200,1.388794189453125,0.12427029013633728,1.1803373098373413,0.02732338383793831
1790943253717824300,1.39882421875,0.4729936718940735,1.14127779006958,0.1084965392947197
1790943253727855000,1.408855224609375,0.8322790265083313,0.8352521657943726,0.23864991962909698
1790943253737885200,1.41888525390625,1.2742090225219727,0.005403732415288687,0.3816637694835663
1790943253747916300,1.428916259765625,1.8099157810211182,-0.7313922643661499,0.417074978351593
1790943253757946400,1.4389462890625,2.3558638095855713,-1.1005851030349731,0.23765835165977478
1790943253767977200,1.448977294921875,2.541928768157959,-1.7480688095092773,0.20402400195598602
1790943253778007300,1.45900732421875,2.514071464538574,-2.327828884124756,0.35810303688049316
1790943253788037400,1.469037353515625,2.3455281257629395,-2.8756802082061768,0.5825568437576294
1790943253798068200,1.479068115234375,1.9871351718902588,-3.552567720413208,0.7386383414268494
1790943253808098000,1.48909814453125,1.474189043045044,-3.918900489807129,0.8631234169006348
1790943253818129400,1.49912939453125,0.7605442404747009,-3.3699800968170166,0.8595958352088928
1790943253828159000,1.509158935546875,-0.025804799050092697,-2.1611945629119873,0.6788620948791504
1790943253838189000,1.51918896484375,-0.6649778485298157,-1.024740219116211,0.6119927763938904
1790943253848220200,1.52922021484375,-1.0656214952468872,-0.28711071610450745,0.4261440634727478
1790943253858250200,1.539250244140625,-1.2867989540100098,0.05599070340394974,0.15284354984760284
1790943253868281000,1.549281005859375,-1.3888945579528809,0.25336742401123047,-0.11918431520462036
1790943253878311200,1.559311279296875,-1.3662691116333008,0.46470364928245544,-0.2981697916984558
1790943253888342000,1.569342041015625,-1.2303884029388428,0.6947413086891174,-0.4061095416545868
1790943253898372000,1.5793720703125,-0.9988033771514893,0.8132194876670837,-0.41235145926475525
1790943253908402200,1.589402099609375,-0.7329881191253662,0.6707631945610046,-0.19423718750476837
1790943253918433300,1.599433349609375,-0.4025159180164337,0.29194772243499756,0.17719094455242157
1790943253928463000,1.609463134765625,-0.031185859814286232,-0.05842890590429306,0.3693959414958954
1790943253938494200,1.619494140625,0.19486591219902039,-0.04187683016061783,0.3811931908130646
1790943253948524300,1.629524169921875,0.8483926057815552,-0.06976713240146637,-0.19491314888000488
1790943253958554400,1.639554443359375,0.525541365146637,0.4894663095474243,0.6663789749145508
1790943253968585200,1.649585205078125,0.39208224415779114,1.5400668382644653,0.8509529829025269
1790943253978615300,1.659615234375,0.4120487570762634,1.7523887157440186,0.15712442994117737
1790943253988646100,1.669646240234375,0.4607541561126709,0.8233410716056824,-0.5933083891868591
1790943253998676200,1.67967626953125,0.5078479051589966,-0.5522471070289612,-1.1470927000045776
1790943254008707300,1.689707275390625,0.49916547536849976,-1.5314645767211914,-1.0189708471298218
1790943254018737200,1.699737060546875,0.11516588926315308,-1.562123417854309,-0.22373874485492706
1790943254028767200,1.709767333984375,-0.294161319732666,-1.2380366325378418,0.7671367526054382
1790943254038798000,1.719798095703125,-0.6784072518348694,-0.6565147042274475,1.623871088027954
1790943254048828200,1.729828125,-0.6247514486312866,-0.07442973554134369,2.249169111251831
1790943254058859000,1.73985888671875,-0.07111278921365738,0.3918924331665039,2.224494218826294
1790943254068889000,1.74988916015625,0.4160510003566742,0.764328122138977,1.2287023067474365
1790943254078920200,1.759920166015625,0.7853275537490845,1.207688808441162,0.7102523446083069
1790943254088950300,1.7699501953125,1.0439088344573975,1.6880955696105957,0.11219930648803711
1790943254098979800,1.779979736328125,1.1560449600219727,1.258824348449707,-0.6051422953605652
1790943254109011200,1.79001123046875,1.2119132280349731,0.33677393198013306,-0.6916516423225403
1790943254119041000,1.800041015625,1.3379278182983398,-0.12923955917358398,0.012661254033446312
1790943254129071900,1.81007177734375,0.9846512675285339,-0.25011640787124634,0.9500285983085632
1790943254139102000,1.82010205078125,0.630852997303009,-1.7524375915527344,2.917167901992798
1790943254149133000,1.830133056640625,0.8550354838371277,-2.6634299755096436,2.525956630706787
1790943254159163000,1.840162841796875,1.4529138803482056,-2.0522427558898926,1.4032689332962036
1790943254169193000,1.85019287109375,2.347931385040283,-0.35164040327072144,0.698083221912384
1790943254179224000,1.86022412109375,2.4379212856292725,0.4010365605354309,-0.2093508243560791
1790943254189254100,1.870254150390625,2.545802593231201,0.3185065984725952,-0.6858113408088684
1790943254199285000,1.880284912109375,2.4567806720733643,-0.4799858033657074,-1.2407023906707764
1790943254209315000,1.890315185546875,2.1863527297973633,-1.1574125289916992,-1.0937590599060059
1790943254219346000,1.900345947265625,1.6435151100158691,-1.1450120210647583,-0.8886322379112244
1790943254229376000,1.9103759765625,1.0359742641448975,-0.457853764295578,-0.8665114641189575
1790943254239406000,1.920406005859375,0.45577219128608704,0.28134387731552124,-1.0259628295898438
1790943254249437200,1.930437255859375,-0.01359500177204609,0.2738122344017029,-1.0640926361083984
1790943254259467000,1.940467041015625,-0.21271716058254242,-0.2513822913169861,-1.0028632879257202
1790943254269498000,1.950498046875,-0.25230371952056885,-0.7801063060760498,-0.9779146313667297
1790943254279528200,1.960528076171875,-0.09024184197187424,-0.8240106701850891,-0.8268124461174011
1790943254289559000,1.97055908203125,-0.08367590606212616,-0.49521294236183167,-0.8996964693069458
1790943254299589000,1.980589111328125,-0.0464148186147213,-0.2813968062400818,-1.0020148754119873
1790943254309620200,1.9906201171875,0.07743148505687714,-0.1289726346731186,-1.0572978258132935
1790943254319650000,2.000650146484375,0.18331292271614075,0.06179331615567207,-1.0754554271697998
1790943254329680000,2.010679931640625,0.2885911166667938,0.1621205359697342,-1.1289396286010742
1790943254339711000,2.0207109375,0.3559752106666565,0.09891440719366074,-1.2412000894546509
1790943254349741000,2.030740966796875,0.335267573595047,-0.06493237614631653,-1.3707751035690308
1790943254359772000,2.04077197265625,0.3279832899570465,-0.3069782853126526,-1.4905239343643188
1790943254369802000,2.050802001953125,0.49051371216773987,-0.5153111219406128,-1.719248652458191
1790943254379833000,2.0608330078125,0.46036726236343384,-0.5817908048629761,-2.0551443099975586
1790943254389863000,2.07086279296875,0.3034225404262543,-0.697636067867279,-2.321521282196045
1790943254399893000,2.08089306640625,0.24026010930538177,-0.7701025605201721,-2.5147759914398193
1790943254409924000,2.090924072265625,0.16480058431625366,-0.75327467918396,-2.6724727153778076
1790943254419954200,2.1009541015625,0.07148582488298416,-0.6717995405197144,-2.843092918395996
1790943254429985000,2.110985107421875,-0.005883766338229179,-0.572873055934906,-3.017155885696411
1790943254440015000,2.12101513671875,0.0028308958280831575,-0.6005573868751526,-3.1644904613494873
1790943254450046000,2.1310458984375,0.12191089242696762,-0.8091145157814026,-3.291368246078491
1790943254460076000,2.141075927734375,0.3011118173599243,-1.0993719100952148,-3.3896398544311523
1790943254470106000,2.151106201171875,0.5297369956970215,-1.368083119392395,-3.443767547607422
1790943254480137200,2.16113720703125,0.7939966320991516,-1.5677536725997925,-3.526082754135132
1790943254490167000,2.1711669921875,1.0647794008255005,-1.5508755445480347,-3.7136857509613037
1790943254500198100,2.1811982421875,1.3225268125534058,-1.304445505142212,-3.930041551589966
1790943254510228200,2.191228271484375,1.5477157831192017,-1.1201701164245605,-4.024156093597412
1790943254520259000,2.201259033203125,1.764618992805481,-1.3894556760787964,-4.037806034088135
1790943254530289200,2.2112890625,1.9775229692459106,-2.000800371170044,-4.003786563873291
1790943254540320300,2.2213203125,2.1757044792175293,-2.420055627822876,-3.90876841545105
1790943254550349800,2.231349853515625,2.305248260498047,-2.380486488342285,-3.8354556560516357
1790943254560380000,2.2413798828125,2.3705594539642334,-2.048578977584839,-3.732616662979126
1790943254570411000,2.251410888671875,2.5352303981781006,-1.6707419157028198,-3.690045118331909
1790943254580441000,2.261441162109375,2.5035133361816406,-1.4657368659973145,-3.522517442703247
1790943254590472000,2.271471923828125,2.3935065269470215,-1.3205910921096802,-3.3035950660705566
1790943254600502000,2.281501953125,2.4387943744659424,-1.4123095273971558,-3.1744625568389893
1790943254610533000,2.291533203125,2.6090524196624756,-1.6298552751541138,-3.106478214263916
1790943254620563000,2.30156298828125,2.795677661895752,-1.6497688293457031,-3.054300308227539
1790943254630594000,2.311593994140625,2.868034839630127,-1.844315767288208,-3.0437538623809814
1790943254640624000,2.3216240234375,2.966860294342041,-1.8647047281265259,-2.976260185241699
1790943254650654000,2.331654052734375,3.0226378440856934,-1.836880087852478,-2.9068543910980225
1790943254660685000,2.34168505859375,3.105996608734131,-1.7042567729949951,-2.821321725845337
1790943254670715100,2.351715087890625,3.189755439758301,-1.494710087776184,-2.6575021743774414
1790943254680746000,2.36174609375,3.2060415744781494,-1.3261959552764893,-2.5182321071624756
1790943254690776000,2.371776123046875,3.2320241928100586,-1.0283843278884888,-2.386920690536499
1790943254700807200,2.38180712890625,3.213064432144165,-0.6507312655448914,-2.3025741577148438
1790943254710837200,2.391837158203125,3.163039445877075,-0.46898549795150757,-2.360490322113037
1790943254720867000,2.4018671875,3.143415927886963,-0.20668916404247284,-2.3807265758514404
1790943254730898200,2.411898193359375,3.08657169342041,-0.10301635414361954,-2.330204486846924
1790943254740928300,2.42192822265625,3.1003878116607666,-0.029575688764452934,-2.2456350326538086
1790943254750959000,2.431958984375,3.1031486988067627,-0.26080116629600525,-2.189408540725708
1790943254760989000,2.441989013671875,3.177536725997925,-0.39886078238487244,-2.145467758178711
1790943254771020300,2.452020263671875,3.098832130432129,-0.5833427906036377,-2.114199638366699
1790943254781049900,2.4620498046875,2.8886349201202393,-0.7492491602897644,-2.1172194480895996
1790943254791081000,2.4720810546875,2.6773715019226074,-0.9028381109237671,-2.061828136444092
1790943254801111000,2.482111083984375,2.328986167907715,-1.0047425031661987,-1.9738445281982422
1790943254811141000,2.49214111328125,2.030606746673584,-1.0601245164871216,-1.8511253595352173
1790943254821172000,2.502171875,1.7346504926681519,-1.093645691871643,-1.7433518171310425
1790943254831202000,2.5122021484375,1.477083683013916,-1.09935462474823,-1.6750882863998413
1790943254841233000,2.52223291015625,1.2753870487213135,-0.9929531216621399,-1.5677207708358765
1790943254851263000,2.532262939453125,1.0881811380386353,-0.8609111309051514,-1.4139539003372192
1790943254861294000,2.542294189453125,0.8903917670249939,-0.7161928415298462,-1.1977909803390503
1790943254871324200,2.55232421875,0.7141351103782654,-0.6914318799972534,-1.0517152547836304
1790943254881354000,2.56235400390625,0.6895983815193176,-0.6099021434783936,-0.8452317714691162
1790943254891385000,2.572385009765625,0.7795795798301697,-0.3365812301635742,-0.652435839176178
1790943254901415200,2.582415283203125,0.7723216414451599,-0.1532452404499054,-0.5089625120162964
1790943254911446000,2.592446044921875,0.6595105528831482,0.14015361666679382,-0.339020311832428
1790943254921476000,2.60247607421875,0.3761456310749054,0.2670212686061859,-0.16714923083782196
1790943254931507200,2.612507080078125,0.13818904757499695,0.16115683317184448,-0.04137106239795685
1790943254941537000,2.622537109375,-0.18333812057971954,0.042751096189022064,0.17426322400569916
1790943254951568100,2.632568115234375,-0.4498593211174011,0.030879175290465355,0.3899287283420563
1790943254961598200,2.64259814453125,-0.7498494982719421,-0.06053994968533516,0.5299090147018433
1790943254971628000,2.6526279296875,-0.9958875775337219,-0.1532289832830429,0.6701810956001282
1790943254981659100,2.6626591796875,-1.2048804759979248,-0.2796207666397095,0.8068444132804871
1790943254991689000,2.67268896484375,-1.3753838539123535,-0.3836251497268677,0.9849560260772705
1790943255001720000,2.682719970703125,-1.5251336097717285,-0.4013330638408661,1.137267827987671
1790943255011750000,2.69275,-1.6313414573669434,-0.31134653091430664,1.197732925415039
1790943255021781000,2.702781005859375,-1.677720069885254,-0.2147880494594574,1.1905146837234497
1790943255031811000,2.71281103515625,-1.6985059976577759,-0.18155674636363983,1.18562650680542
1790943255041841200,2.722841064453125,-1.7202690839767456,-0.12953855097293854,1.2378484010696411
1790943255051872000,2.7328720703125,-1.7622278928756714,-0.021360794082283974,1.3005932569503784
1790943255061902000,2.742902099609375,-1.8133504390716553,0.11573900282382965,1.3575776815414429
1790943255071933000,2.752932861328125,-1.8726849555969238,0.19300659000873566,1.4593675136566162
1790943255081963000,2.762962890625,-1.939026117324829,0.22137272357940674,1.5793030261993408
1790943255091994000,2.772994140625,-1.997864842414856,0.23739029467105865,1.6646037101745605
1790943255102024200,2.783024169921875,-2.0165226459503174,0.2241581231355667,1.700494647026062
1790943255112055000,2.793054931640625,-1.9662100076675415,0.2554798722267151,1.706589937210083
1790943255122085000,2.803085205078125,-1.9390521049499512,0.2436234951019287,1.732744812965393
1790943255132115000,2.813114990234375,-1.9190582036972046,0.27305224537849426,1.7640902996063232
1790943255142145800,2.823145751953125,-1.9553320407867432,0.3312862515449524,1.7703226804733276
1790943255152175900,2.83317578125,-1.8944344520568848,0.43544790148735046,1.746845006942749
1790943255162207000,2.84320703125,-1.801005244255066,0.43014103174209595,1.7153183221817017
1790943255172236800,2.85323681640625,-1.8109122514724731,0.3202943205833435,1.7331491708755493
1790943255182268000,2.863267822265625,-1.7809418439865112,0.3383260667324066,1.737627625465393
1790943255192298000,2.873298095703125,-1.7574634552001953,0.30997055768966675,1.7102938890457153
1790943255202328800,2.883328857421875,-1.6947503089904785,0.2506220042705536,1.7204861640930176
1790943255212359000,2.89335888671875,-1.708776831626892,0.1386210024356842,1.7449219226837158
1790943255222389000,2.903388916015625,-1.7187906503677368,-0.028527509421110153,1.7594298124313354
1790943255232419800,2.913419921875,-1.6748517751693726,-0.14942868053913116,1.7547073364257812
1790943255242450000,2.923449951171875,-1.8005932569503784,-0.030026912689208984,1.7377259731292725
1790943255252481000,2.93348095703125,-1.9526519775390625,-0.10699987411499023,1.7613214254379272
1790943255262511000,2.943510986328125,-1.9969323873519897,-0.25330114364624023,1.7309120893478394
1790943255272542000,2.9535419921875,-2.0089480876922607,-0.3463677167892456,1.6690982580184937
1790943255282572000,2.963572021484375,-1.9819321632385254,-0.42331257462501526,1.6032123565673828
1790943255292602000,2.97360205078125,-2.0171337127685547,-0.6534109115600586,1.5431957244873047
1790943255302633000,2.983633056640625,-2.1240341663360596,-0.902866542339325,1.4559942483901978
1790943255312663000,2.9936630859375,-2.1921002864837646,-0.9575727581977844,1.4021775722503662
1790943255322694100,3.003694091796875,-2.2896230220794678,-0.9044349789619446,1.3764468431472778
1790943255332724000,3.013723876953125,-2.49674654006958,-0.8275858163833618,1.412701964378357
1790943255342755000,3.023755126953125,-2.6658811569213867,-0.6239796876907349,1.4756439924240112
1790943255352785000,3.033784912109375,-2.6146068572998047,-0.18927344679832458,1.5417098999023438
1790943255362816000,3.04381591796875,-2.3811893463134766,0.26662540435791016,1.5844485759735107
1790943255372845800,3.053845703125,-2.1577553749084473,0.6688785552978516,1.6008949279785156
1790943255382876000,3.0638759765625,-1.9771744012832642,0.987743616104126,1.5938832759857178
1790943255392907000,3.073906982421875,-1.8313043117523193,1.2235827445983887,1.5867869853973389
1790943255402936800,3.083936767578125,-1.6014444828033447,1.2475277185440063,1.63677179813385
1790943255412968000,3.093968017578125,-1.410042643547058,0.6387918591499329,1.7802150249481201
1790943255422998000,3.103998046875,-1.4002052545547485,-0.01946808584034443,1.9115983247756958
1790943255433028900,3.11402880859375,-1.5250152349472046,0.11515600234270096,1.8750309944152832
1790943255443059000,3.124058837890625,-1.6833516359329224,0.5836462378501892,1.6922529935836792
1790943255453090000,3.134090087890625,-1.817221760749817,0.6451398134231567,1.5203808546066284
1790943255463120000,3.144119873046875,-1.937142252922058,0.31165826320648193,1.4128003120422363
1790943255473150000,3.15414990234375,-2.008298873901367,-0.17609980702400208,1.355948805809021
1790943255483181000,3.16418115234375,-1.9821206331253052,-0.6075388193130493,1.2774707078933716
1790943255493211100,3.174211181640625,-1.759823203086853,-0.7903734445571899,1.1043542623519897
1790943255503242000,3.184241943359375,-1.456530213356018,-0.819597065448761,0.9468424320220947
1790943255513272000,3.19427197265625,-1.2121801376342773,-0.7498636841773987,0.8878872990608215
1790943255523303000,3.204302978515625,-1.1327742338180542,-0.6614522933959961,0.9179109930992126
1790943255533333000,3.2143330078125,-1.1975358724594116,-0.677642285823822,0.9626039862632751
1790943255543364000,3.224364013671875,-1.3556245565414429,-0.7814528346061707,1.0370053052902222
1790943255553394200,3.234394287109375,-1.5573347806930542,-0.9316642880439758,1.1168943643569946
1790943255563423700,3.244423828125,-1.7340376377105713,-1.0056018829345703,1.1559823751449585
1790943255573455000,3.254455078125,-1.8305164575576782,-0.9525381326675415,1.1931668519973755
1790943255583485000,3.26448486328125,-1.8436604738235474,-0.8212419152259827,1.2520250082015991
1790943255593515800,3.274515869140625,-1.808680534362793,-0.6992315053939819,1.3023616075515747
1790943255603545900,3.2845458984375,-1.7212833166122437,-0.6517627835273743,1.3318995237350464
1790943255613577000,3.294576904296875,-1.6070222854614258,-0.6835939884185791,1.3406219482421875
1790943255623607000,3.30460693359375,-1.4017317295074463,-0.7030007243156433,1.2413328886032104
1790943255633638000,3.314637939453125,-1.181105136871338,-0.8106503486633301,1.0139319896697998
1790943255643668000,3.32466796875,-0.9780632853507996,-1.014782190322876,0.7490177750587463
1790943255653698000,3.334697998046875,-0.8477631211280823,-1.1446648836135864,0.5618551969528198
1790943255663729000,3.34472900390625,-0.7681750655174255,-1.0730315446853638,0.5145771503448486
1790943255673759000,3.354759033203125,-0.7671938538551331,-0.8061427474021912,0.6806753873825073
1790943255683790000,3.3647900390625,-0.8239527344703674,-0.4593355357646942,1.052646279335022
1790943255693820000,3.37481982421875,-0.8405846953392029,-0.1875859647989273,1.3641095161437988
1790943255703851000,3.38485107421875,-0.7932025194168091,-0.13993747532367706,1.4536985158920288
1790943255713881000,3.394881103515625,-0.6126869320869446,-0.4376298487186432,1.3096771240234375
1790943255723912000,3.404911865234375,-0.37587255239486694,-0.9511206150054932,0.9335132837295532
1790943255733942000,3.41494189453125,-0.1420327126979828,-1.2526419162750244,0.43935278058052063
1790943255743972000,3.42497216796875,0.10533259809017181,-1.219498872756958,0.07422167807817459
1790943255754003000,3.4350029296875,0.16685020923614502,-1.019498348236084,-0.1973116099834442
1790943255764033000,3.445032958984375,0.12738215923309326,-0.6969174742698669,-0.3976593613624573
1790943255774064000,3.455064208984375,-0.005200366023927927,-0.39472976326942444,-0.5031887292861938
1790943255784094200,3.46509423828125,-0.23600880801677704,-0.19087891280651093,-0.5353954434394836
1790943255794125000,3.475125,-0.5207118391990662,-0.045204922556877136,-0.45539969205856323
1790943255804155000,3.48515478515625,-0.748690664768219,0.23443418741226196,-0.24901321530342102
1790943255814186000,3.49518603515625,-0.8972038626670837,0.6932734847068787,0.009369684383273125
1790943255824215800,3.5052158203125,-0.9766331315040588,1.0819945335388184,0.2815607190132141
1790943255834246000,3.515245849609375,-1.0100942850112915,1.2096673250198364,0.5908107757568359
1790943255844277000,3.525277099609375,-0.9754717946052551,1.0383726358413696,0.8780732154846191
1790943255854306800,3.535306884765625,-0.8955807685852051,0.5909110903739929,1.04351806640625
1790943255864338000,3.545337890625,-0.7829974889755249,-0.032195083796978,1.031631350517273
1790943255874368000,3.555367919921875,-0.6266552805900574,-0.5498076677322388,0.829730749130249
1790943255884398800,3.56539892578125,-0.42509257793426514,-0.7030782103538513,0.523162305355072
1790943255894429000,3.575428955078125,-0.27067896723747253,-0.5620423555374146,0.23384954035282135
1790943255904460000,3.5854599609375,-0.1792270690202713,-0.2948647439479828,0.03987181931734085
1790943255914490000,3.595489990234375,-0.15979118645191193,-0.08881045132875443,-0.04099396988749504
1790943255924520000,3.60552001953125,-0.2119033932685852,-0.03721623867750168,-0.03804292157292366
1790943255934551000,3.615551025390625,-0.29885026812553406,-0.1259922981262207,0.037976689636707306
1790943255944581000,3.6255810546875,-0.36537840962409973,-0.20518484711647034,0.1451481431722641
1790943255954612000,3.635612060546875,-0.37609824538230896,-0.18410614132881165,0.20271743834018707
1790943255964642000,3.64564208984375,-0.32804709672927856,-0.1545194834470749,0.19360676407814026
1790943255974673200,3.655673095703125,-0.24552100896835327,-0.2162533551454544,0.1461317092180252
1790943255984703000,3.665702880859375,-0.14943468570709229,-0.3752147853374481,0.08179932087659836
1790943255994734000,3.675734130859375,-0.04987318068742752,-0.5422847270965576,0.016206713393330574
1790943256004764200,3.68576416015625,0.027837593108415604,-0.6880019903182983,-0.030900612473487854
1790943256014793700,3.695793701171875,0.0612727627158165,-0.816366970539093,-0.05550026521086693
1790943256024824600,3.705824462890625,0.05028615891933441,-0.9088367223739624,-0.06157466769218445
1790943256034854700,3.715854736328125,0.017476599663496017,-0.9297109246253967,-0.05234843119978905
1790943256044885800,3.7258857421875,-0.018040647730231285,-0.9121748208999634,-0.041206296533346176
1790943256054915600,3.73591552734375,-0.04761702939867973,-0.8847512006759644,-0.019876591861248016
1790943256064946700,3.74594677734375,-0.07989135384559631,-0.8313215374946594,0.008599523454904556
1790943256074976800,3.755976806640625,-0.10879803448915482,-0.7758405208587646,0.031068596988916397
1790943256085007600,3.766007568359375,-0.12206244468688965,-0.7551011443138123,0.026908207684755325
1790943256095037700,3.77603759765625,-0.11456611752510071,-0.8048904538154602,-0.01848367415368557
1790943256105067800,3.78606787109375,-0.1101284921169281,-0.9264150261878967,-0.09514063596725464
1790943256115098600,3.7960986328125,-0.12177083641290665,-1.046533226966858,-0.1850307732820511
1790943256125128700,3.806128662109375,-0.15451094508171082,-1.0690630674362183,-0.28448784351348877
1790943256135159800,3.816159912109375,-0.19069711863994598,-1.0748515129089355,-0.35909125208854675
1790943256145190000,3.82618994140625,-0.1939925104379654,-1.1188839673995972,-0.38293319940567017
1790943256155220700,3.836220703125,-0.24293199181556702,-1.187349796295166,-0.3975932002067566
1790943256165250800,3.846250732421875,-0.3167087733745575,-1.1832075119018555,-0.4026950001716614
1790943256175281700,3.85628173828125,-0.346915602684021,-1.080593466758728,-0.4159031808376312
1790943256185311700,3.866311767578125,-0.2952966094017029,-0.9959843158721924,-0.37044939398765564
1790943256195341800,3.876341796875,-0.15003462135791779,-1.0365879535675049,-0.26841607689857483
1790943256205373000,3.886373046875,0.14484095573425293,-1.2508381605148315,-0.2365819662809372
1790943256215402800,3.89640283203125,0.4238850176334381,-1.5097070932388306,-0.3718164563179016
1790943256225433900,3.906433837890625,0.6081256866455078,-1.6779214143753052,-0.5576406717300415
1790943256235463700,3.916463623046875,0.6642845273017883,-1.8291122913360596,-0.6716512441635132
1790943256245494800,3.926494873046875,0.5770617127418518,-1.9074220657348633,-0.7037913799285889
1790943256255524600,3.936524658203125,0.35830992460250854,-1.8502434492111206,-0.7019253969192505
1790943256265554700,3.9465546875,0.039057087153196335,-1.4878392219543457,-0.7135413289070129
1790943256275585500,3.95658544921875,-0.3459027111530304,-1.0132979154586792,-0.6967558860778809
1790943256285615600,3.96661572265625,-0.6786881685256958,-0.5302457809448242,-0.5747072100639343
1790943256295646700,3.976646728515625,-0.9555895924568176,-0.16490498185157776,-0.37541311979293823
1790943256305676800,3.9866767578125,-1.1598542928695679,-0.041225921362638474,-0.12113476544618607
1790943256315707600,3.996707763671875,-1.2116554975509644,-0.17415647208690643,0.15169306099414825
1790943256325737700,4.00673779296875,-1.1573991775512695,-0.37061041593551636,0.3079604208469391
1790943256335768600,4.0167685546875,-0.9448971748352051,-0.4071275293827057,0.3234480023384094
1790943256345798700,4.026798583984375,-0.655382513999939,-0.20323219895362854,0.2993117570877075
1790943256355828700,4.036828857421875,-0.39758631587028503,0.02397662028670311,0.25228050351142883
1790943256365859800,4.04685986328125,-0.17994745075702667,-0.1026604101061821,0.1588195115327835
1790943256375889700,4.0568896484375,0.02496718056499958,-0.5081067085266113,0.07111525535583496
1790943256385920800,4.066920654296875,0.15826718509197235,-0.9443548917770386,-0.02114623412489891
1790943256395950800,4.076950927734375,0.20968422293663025,-1.2073642015457153,-0.13874682784080505
1790943256405981700,4.086981689453125,0.21977441012859344,-1.262759804725647,-0.2518262565135956
1790943256416011800,4.09701171875,0.17658406496047974,-1.1712490320205688,-0.30001401901245117
1790943256426043000,4.10704296875,0.0821949765086174,-0.9838360548019409,-0.26236864924430847
1790943256436072700,4.11707275390625,-0.033072326332330704,-0.7135259509086609,-0.18261641263961792
1790943256446102500,4.1271025390625,-0.11496932804584503,-0.4428536593914032,-0.12487749010324478
1790943256456134000,4.1371337890625,-0.15289579331874847,-0.2541678249835968,-0.1362348347902298
1790943256466163700,4.147163818359375,-0.15332722663879395,-0.2112904042005539,-0.20821021497249603
1790943256476194600,4.157194580078125,-0.1345830112695694,-0.3058629631996155,-0.28951236605644226
1790943256486224600,4.167224609375,-0.10890134423971176,-0.5254741311073303,-0.3326648771762848
1790943256496255700,4.177255859375,-0.06891321390867233,-0.8157996535301208,-0.3444784879684448
1790943256506285600,4.18728564453125,-0.0059784576296806335,-1.0682923793792725,-0.3276795446872711
1790943256516316700,4.197316650390625,0.8070942759513855,-1.3040231466293335,-0.23126740753650665
1790943256526346800,4.2073466796875,0.6468561291694641,-1.9798405170440674,-0.3243800699710846
1790943256536376800,4.217376953125,0.3669605255126953,-2.5498621463775635,-0.3531129062175751
1790943256546407700,4.22740771484375,0.4395899772644043,-2.714210033416748,-0.24369291961193085
1790943256556437800,4.237437744140625,0.3862678110599518,-2.5862581729888916,-0.12143459171056747
1790943256566468600,4.247468505859375,0.38766491413116455,-2.3300509452819824,0.001724097179248929
1790943256576498700,4.257498779296875,0.3834342956542969,-2.0897061824798584,0.058889634907245636
1790943256586529800,4.26752978515625,0.4154204726219177,-1.9118221998214722,0.005709505174309015
1790943256596560000,4.277559814453125,0.4243850111961365,-1.7469346523284912,-0.12339955568313599
1790943256606590700,4.2875908203125,0.39583083987236023,-1.6133203506469727,-0.23517215251922607
1790943256616620800,4.297620849609375,0.339043527841568,-1.4635206460952759,-0.3060459792613983
1790943256626651000,4.30765087890625,0.23544363677501678,-1.2788373231887817,-0.30052974820137024
1790943256636681700,4.317681640625,0.10826358199119568,-1.0466885566711426,-0.24149811267852783
1790943256646711800,4.3277119140625,0.05157047137618065,-0.710196852684021,-0.18956756591796875
1790943256656743000,4.337742919921875,-0.014571474865078926,-0.4471452832221985,-0.10220496356487274
1790943256666772700,4.347772705078125,-0.08046873658895493,-0.26941096782684326,-0.05338336527347565
1790943256676803800,4.357803955078125,-0.11426668614149094,-0.1441899836063385,-0.04722617566585541
1790943256686833700,4.367833740234375,-0.13187870383262634,-0.06297795474529266,-0.05856991186738014
1790943256696864800,4.37786474609375,-0.15893404185771942,-0.024723926559090614,-0.047792039811611176
1790943256706894600,4.38789453125,-0.17897272109985352,0.047547876834869385,-0.009483002126216888
1790943256716924700,4.397924560546875,-0.19558575749397278,0.10247122496366501,0.011728374287486076
1790943256726955800,4.407955810546875,-0.21473973989486694,0.08878497034311295,0.017359362915158272
1790943256736985600,4.417985595703125,-0.23924964666366577,0.007871300913393497,0.031221019104123116
1790943256747016700,4.4280166015625,-0.2247021347284317,-0.021087646484375,0.02606886625289917
1790943256757046800,4.438046875,-0.2178765833377838,-0.0684167891740799,0.028097309172153473
1790943256767077600,4.44807763671875,-0.21997036039829254,-0.10972640663385391,0.04324057698249817
1790943256777107700,4.458107666015625,-0.23252038657665253,-0.11806215345859528,0.07036027312278748
1790943256787138800,4.468138916015625,-0.24809695780277252,-0.06695742905139923,0.0956222265958786
1790943256797168600,4.478168701171875,-0.27075520157814026,0.04553743824362755,0.09827549010515213
1790943256807198700,4.48819873046875,-0.30782321095466614,0.20439738035202026,0.09385917335748672
1790943256817229800,4.498229736328125,-0.3537195026874542,0.41017425060272217,0.08408769220113754
1790943256827260000,4.508260009765625,-0.4147498309612274,0.6138077974319458,0.08634685724973679
1790943256837290800,4.518290771484375,-0.4856243431568146,0.7822943925857544,0.10174882411956787
1790943256847320800,4.52832080078125,-0.5432775020599365,0.9643440842628479,0.1264837384223938
1790943256857351700,4.5383515625,-0.5751960873603821,1.1634650230407715,0.15288345515727997
1790943256867381800,4.5483818359375,-0.5699528455734253,1.3970609903335571,0.1689460426568985
1790943256877412900,4.558412841796875,-0.5259525179862976,1.636936902999878,0.1792314052581787
1790943256887443000,4.56844287109375,-0.433467835187912,1.795426607131958,0.22523032128810883
1790943256897472500,4.578472412109375,-0.347602516412735,1.7681912183761597,0.3065590262413025
1790943256907503900,4.58850390625,-0.2992008924484253,1.5689349174499512,0.41409027576446533
1790943256917533700,4.59853369140625,-0.4137520492076874,1.3919260501861572,0.5009756088256836
1790943256927564500,4.608564453125,-0.5480504631996155,1.2785531282424927,0.5799702405929565
1790943256937594600,4.6185947265625,-0.42282211780548096,1.2156860828399658,0.6666219234466553
1790943256947625700,4.628625732421875,-0.2531406879425049,1.1102787256240845,0.6863349080085754
1790943256957655600,4.638655517578125,-0.15483716130256653,0.9954811334609985,0.6080648303031921
1790943256967686700,4.648686767578125,-0.07333990931510925,1.00669527053833,0.5049067139625549
1790943256977716700,4.658716796875,-0.004216305445879698,1.1114598512649536,0.41811493039131165
1790943256987746800,4.668746826171875,0.042059578001499176,1.2196030616760254,0.3669430911540985
1790943256997777700,4.678777587890625,0.07146094739437103,1.3407648801803589,0.34523025155067444
1790943257007807700,4.688807861328125,0.10554781556129456,1.481298804283142,0.3392280042171478
1790943257017838600,4.698838623046875,0.1258825957775116,1.6007790565490723,0.3411204218864441
1790943257027868400,4.708868408203125,0.12509216368198395,1.6638368368148804,0.37362778186798096
1790943257037899500,4.7188994140625,0.11222972720861435,1.687508463859558,0.4487127661705017
1790943257047929600,4.7289296875,0.09403075277805328,1.7110297679901123,0.5412775278091431
1790943257057960400,4.73896044921875,0.0776536762714386,1.753553867340088,0.6292533874511719
1790943257067990500,4.748990478515625,0.08732547610998154,1.776048183441162,0.6959019303321838
1790943257078021600,4.759021728515625,0.12753862142562866,1.7669689655303955,0.7289866209030151
1790943257088051500,4.769051513671875,0.19362042844295502,1.7277557849884033,0.7207843661308289
1790943257098081500,4.77908154296875,0.2619726061820984,1.6682586669921875,0.6872501969337463
1790943257108112600,4.789112548828125,0.3234484791755676,1.6115963459014893,0.6328679323196411
1790943257118142500,4.799142578125,0.36687779426574707,1.5721272230148315,0.5927735567092896
1790943257128173600,4.809173583984375,0.3921445310115814,1.5316929817199707,0.5792044997215271
1790943257138203400,4.819203369140625,0.3958919048309326,1.4936529397964478,0.580652117729187
1790943257148234200,4.829234130859375,0.3902752995491028,1.475122094154358,0.5721312761306763
1790943257158264300,4.839264404296875,0.37688085436820984,1.4756537675857544,0.5449843406677246
1790943257168295400,4.84929541015625,0.3566344380378723,1.4886276721954346,0.48610907793045044
1790943257178325500,4.859325439453125,0.3402479588985443,1.483324646949768,0.4085172414779663
1790943257188355300,4.869355224609375,0.33575761318206787,1.4144352674484253,0.32408440113067627
1790943257198386400,4.879386474609375,0.3300234079360962,1.2852129936218262,0.22596603631973267
1790943257208416500,4.88941650390625,0.3232693672180176,1.1444475650787354,0.10809586197137833
1790943257218447400,4.899447265625,0.30788275599479675,1.047024130821228,-0.0162164568901062
1790943257228477400,4.9094775390625,0.30632829666137695,0.9925744533538818,-0.15420947968959808
1790943257238508500,4.919508544921875,0.3100680410861969,0.937953531742096,-0.3175279200077057
1790943257248538400,4.929538330078125,0.3081183433532715,0.8787165880203247,-0.5158255696296692
1790943257258569500,4.939569580078125,0.2755673825740814,0.8523379564285278,-0.7149642705917358
1790943257268599600,4.949599609375,0.22143545746803284,0.8341333866119385,-0.857205331325531
1790943257278630400,4.95963037109375,0.16944850981235504,0.7380592226982117,-0.8980543613433838
1790943257288660500,4.969660400390625,0.1796116679906845,0.534353494644165,-0.8347731232643127
1790943257298691600,4.979691650390625,0.30942949652671814,0.3138440251350403,-0.6994710564613342
1790943257308721700,4.9897216796875,0.5309091210365295,0.16470512747764587,-0.5792953372001648
1790943257318751500,4.99975146484375,0.7575283050537109,0.08185839653015137,-0.5404170751571655
1790943257328782600,5.009782470703125,0.926751434803009,-0.03930876776576042,-0.6190828084945679
1790943257338812700,5.019812744140625,1.0221279859542847,-0.19546720385551453,-0.7962906360626221
1790943257348843500,5.029843505859375,1.0534430742263794,-0.2992410361766815,-1.0223140716552734
1790943257358873300,5.039873291015625,1.0067980289459229,-0.36460572481155396,-1.2764863967895508
1790943257368904700,5.04990478515625,0.9033864140510559,-0.44346433877944946,-1.5664207935333252
1790943257378934300,5.059934326171875,0.7759478688240051,-0.5305501818656921,-1.9229683876037598
1790943257388965400,5.06996533203125,0.7053610682487488,-0.5912132859230042,-2.3388710021972656
1790943257398995500,5.079995361328125,0.6869738101959229,-0.6736604571342468,-2.7958362102508545
1790943257409026300,5.0900263671875,0.6544123888015747,-0.94204181432724,-3.2433488368988037
1790943257419056400,5.100056396484375,0.65304034948349,-1.3920502662658691,-3.558741569519043
1790943257429087500,5.11008740234375,0.7517072558403015,-1.792926549911499,-3.6860854625701904
1790943257439117300,5.120117431640625,0.9758500456809998,-1.9741019010543823,-3.6962616443634033
1790943257449147400,5.1301474609375,1.2822307348251343,-1.812573790550232,-3.7181081771850586
1790943257459178500,5.140178466796875,1.5213667154312134,-1.3892672061920166,-3.6567163467407227
1790943257469208600,5.15020849609375,1.6209526062011719,-1.0304512977600098,-3.5496420860290527
1790943257479239400,5.160239501953125,1.7005181312561035,-0.8210267424583435,-3.4518795013427734
1790943257489269500,5.17026953125,1.7119004726409912,-0.9575246572494507,-3.3005735874176025
1790943257499300400,5.18030029296875,1.5947219133377075,-1.228887677192688,-3.191126585006714
1790943257509330400,5.190330322265625,1.5094773769378662,-1.3495478630065918,-3.2221457958221436
1790943257519361500,5.200361572265625,1.4923008680343628,-1.3908435106277466,-3.325770378112793
1790943257529391600,5.2103916015625,1.5433733463287354,-1.3822345733642578,-3.4976561069488525
1790943257539422500,5.22042236328125,1.6008319854736328,-1.3148223161697388,-3.6858742237091064
1790943257549452500,5.23045263671875,1.6244820356369019,-1.1906827688217163,-3.7487752437591553
1790943257559483600,5.240483642578125,1.62270987033844,-1.1728870868682861,-3.724575996398926
1790943257569513500,5.250513427734375,1.6018104553222656,-1.1669280529022217,-3.63018536567688
1790943257579543600,5.26054345703125,1.577091097831726,-1.3029807806015015,-3.578826427459717
1790943257589574700,5.27057470703125,1.4400712251663208,-1.6730430126190186,-3.550983428955078
1790943257599604500,5.2806044921875,1.298980712890625,-2.078787088394165,-3.4857888221740723
1790943257609635600,5.290635498046875,1.2450469732284546,-2.2259488105773926,-3.3560404777526855
1790943257619665400,5.30066552734375,1.268953561782837,-1.9923666715621948,-3.2353312969207764
1790943257629696300,5.3106962890625,1.2936632633209229,-1.6054655313491821,-3.1224701404571533
1790943257639726300,5.320726318359375,1.3459185361862183,-1.2154951095581055,-2.9938976764678955
1790943257649757400,5.33075732421875,1.4024522304534912,-1.1179022789001465,-2.835245132446289
1790943257659787500,5.34078759765625,1.44827139377594,-1.1733853816986084,-2.649434804916382
1790943257669818400,5.350818359375,1.4740209579467773,-1.220571517944336,-2.4878294467926025
1790943257679848400,5.360848388671875,1.5094966888427734,-1.2483078241348267,-2.334329843521118
1790943257689879300,5.37087939453125,1.528340458869934,-1.1772656440734863,-2.1968741416931152
1790943257699909400,5.380909423828125,1.5010555982589722,-0.9568045735359192,-2.0501914024353027
1790943257709939500,5.390939453125,1.40675687789917,-0.7208413481712341,-1.8549097776412964
1790943257719970600,5.400970458984375,1.305230975151062,-0.5013676285743713,-1.6116604804992676
1790943257730000400,5.41100048828125,1.1966525316238403,-0.3615109324455261,-1.3451530933380127
1790943257740031500,5.421031494140625,1.1317027807235718,-0.2320760041475296,-1.0875054597854614
1790943257750061600,5.4310615234375,1.073730230331421,-0.13897748291492462,-0.8376245498657227
1790943257760092400,5.441092529296875,0.9217632412910461,-0.10646453499794006,-0.5722786784172058
1790943257770122500,5.45112255859375,0.8011662364006042,-0.07464321702718735,-0.34153708815574646
1790943257780153600,5.461153564453125,0.7192233204841614,-0.022711891680955887,-0.20112119615077972
1790943257790183400,5.471183349609375,0.6154921054840088,0.07929542660713196,-0.09351618587970734
1790943257800214500,5.481214599609375,0.5333675742149353,-0.02615487389266491,-0.05223887041211128
1790943257810244600,5.49124462890625,0.30753445625305176,-0.24347041547298431,-0.03297223150730133
1790943257820275500,5.501275390625,0.10421530157327652,-0.2904336452484131,0.038488809019327164
1790943257830305500,5.511305419921875,-0.04128463566303253,-0.28367292881011963,0.12050218880176544
1790943257840335400,5.52133544921875,-0.16628707945346832,-0.3000001013278961,0.2029341757297516
1790943257850366700,5.53136669921875,-0.3076916038990021,-0.30915871262550354,0.27007246017456055
1790943257860396300,5.541396240234375,-0.3819490671157837,-0.33356407284736633,0.29584845900535583
1790943257870427400,5.551427490234375,-0.4014551341533661,-0.27812665700912476,0.31039702892303467
1790943257880457500,5.56145751953125,-0.415752112865448,-0.2541191875934601,0.2801249325275421
1790943257890488300,5.57148828125,-0.42879948019981384,-0.18950210511684418,0.22519800066947937
1790943257900518400,5.581518310546875,-0.45921462774276733,-0.1187683716416359,0.19437283277511597
1790943257910549500,5.591549560546875,-0.48136016726493835,-0.13251827657222748,0.1598164588212967
1790943257920579300,5.601579345703125,-0.5150620341300964,-0.22536122798919678,0.13333889842033386
1790943257930610400,5.6116103515625,-0.563582718372345,-0.2662239670753479,0.1284637153148651
1790943257940640500,5.621640625,-0.6296743154525757,-0.23942145705223083,0.1513243317604065
1790943257950671400,5.63167138671875,-0.6932527422904968,-0.13149578869342804,0.15166841447353363
1790943257960701400,5.641701416015625,-0.7363176345825195,0.06163928285241127,0.08589189499616623
1790943257970731500,5.6517314453125,-0.7417808771133423,0.265874981880188,-0.013026164844632149
1790943257980762400,5.661762451171875,-0.7196921706199646,0.43743565678596497,-0.046985872089862823
1790943257990792400,5.67179248046875,-0.648161768913269,0.5088123679161072,-0.01940217986702919
1790943258000823600,5.681823486328125,-0.5049830675125122,0.4519874155521393,0.018658386543393135
1790943258010853600,5.691853515625,-0.3571443259716034,0.21266059577465057,0.10379485785961151
1790943258020885000,5.701885009765625,-0.2413666844367981,-0.002399419667199254,0.16627566516399384
1790943258030915000,5.7119150390625,-0.1627131551504135,-0.07070603966712952,0.20120063424110413
1790943258040946000,5.72194580078125,-0.1153026819229126,-0.05618714913725853,0.21774762868881226
1790943258050976000,5.73197607421875,-0.04665731266140938,-0.03945477306842804,0.19015435874462128
1790943258061007000,5.742007080078125,0.05118472874164581,-0.11242123693227768,0.1408277302980423
1790943258071037000,5.752036865234375,0.14318788051605225,-0.16194485127925873,0.08701217919588089
1790943258081068000,5.762068115234375,0.19006019830703735,-0.1595328003168106,0.05874209851026535
1790943258091097900,5.772097900390625,0.1722971796989441,-0.19027605652809143,0.042111992835998535
1790943258101128000,5.7821279296875,0.1414753943681717,-0.30963748693466187,0.012730235233902931
1790943258111158800,5.79215869140625,0.11230286955833435,-0.46484652161598206,0.06154757738113403
1790943258121188900,5.80218896484375,0.004594384226948023,-0.5645306706428528,0.21707428991794586
1790943258131220000,5.812219970703125,-0.23275931179523468,-0.4410814940929413,0.40323591232299805
1790943258141249800,5.822249755859375,-0.4315251111984253,-0.0627293512225151,0.5784177780151367
1790943258151281000,5.832281005859375,-0.49289658665657043,0.06019417569041252,0.5544415712356567
1790943258161311000,5.84231103515625,-0.35939928889274597,0.2637752294540405,0.42344582080841064
1790943258171341800,5.852341796875,-0.2309741973876953,0.6138209104537964,0.3026176691055298
1790943258181372000,5.862371826171875,-0.22329875826835632,0.8725355267524719,0.2475733608007431
1790943258191403000,5.872403076171875,-0.2729688286781311,0.9453405141830444,0.2645488977432251
1790943258201432800,5.882432861328125,-0.37357935309410095,0.9186307787895203,0.3081371784210205
1790943258211464000,5.8924638671875,-0.5031613111495972,0.8444172739982605,0.275826632976532
1790943258221494000,5.902493896484375,-0.5905985236167908,0.6258596181869507,0.16652928292751312
1790943258231524000,5.912524169921875,-0.5935426354408264,0.2966409921646118,0.07973472028970718
1790943258241555000,5.922554931640625,-0.5925410985946655,0.12821568548679352,0.09007532149553299
1790943258251585000,5.9325849609375,-0.657878041267395,0.18468427658081055,0.15430089831352234
1790943258261615900,5.942615966796875,-0.7571483254432678,0.22485259175300598,0.2791667580604553
1790943258271646000,5.95264599609375,-0.8902131915092468,0.09938840568065643,0.3561696410179138
1790943258281677000,5.962677001953125,-0.9918235540390015,-0.00015341141261160374,0.3711669147014618
1790943258291707100,5.97270703125,-1.0472835302352905,-0.14340804517269135,0.3649095594882965
1790943258301738000,5.982738037109375,-1.0494306087493896,-0.15332236886024475,0.3930390477180481
1790943258311768000,5.99276806640625,-1.014060616493225,0.034116774797439575,0.4274928867816925
1790943258321799000,6.002798828125,-0.9539909958839417,0.2030140906572342,0.45356932282447815
1790943258331828700,6.012828857421875,-0.8647814989089966,0.220101997256279,0.4498392939567566
1790943258341860000,6.022860107421875,-0.7678755521774292,0.1761929839849472,0.40471771359443665
1790943258351890000,6.032889892578125,-0.7027745842933655,0.21455155313014984,0.4268946647644043
1790943258361920000,6.042919921875,-0.619135320186615,0.2929501533508301,0.4962548613548279
1790943258371950800,6.052950927734375,-0.5137346386909485,0.3331039845943451,0.4503403902053833
1790943258381981000,6.06298095703125,-0.35770183801651,0.4892779290676117,0.34134793281555176
1790943258392011800,6.07301171875,-0.2367761880159378,0.613324761390686,0.27912479639053345
1790943258402041900,6.083041748046875,-0.18149389326572418,0.61705082654953,0.23977088928222656
1790943258412073000,6.093072998046875,-0.13718421757221222,0.5853642821311951,0.21165084838867188
1790943258422103000,6.10310302734375,-0.13285496830940247,0.5233016610145569,0.25663748383522034
1790943258432134000,6.1131337890625,-0.12887221574783325,0.4752292037010193,0.29128336906433105
1790943258442164000,6.1231640625,-0.09782074391841888,0.5560330748558044,0.33321982622146606
1790943258452194800,6.13319482421875,-0.08105961233377457,0.7387480139732361,0.4056761860847473
1790943258462225000,6.143224853515625,-0.07306893914937973,0.8986790180206299,0.4421932101249695
1790943258472256000,6.153256103515625,-0.0776040330529213,0.8868886232376099,0.43665996193885803
1790943258482286000,6.1632861328125,-0.09092860668897629,0.7694229483604431,0.3819884657859802
1790943258492316000,6.17331591796875,-0.09615027159452438,0.7610241174697876,0.38236236572265625
1790943258502347000,6.183346923828125,-0.1493745595216751,0.8728832006454468,0.48162102699279785
1790943258512377000,6.193377197265625,-0.19614684581756592,0.9193164706230164,0.5511641502380371
1790943258522408000,6.203407958984375,-0.1825711876153946,0.8363624811172485,0.5106378197669983
1790943258532438000,6.21343798828125,-0.11308585107326508,0.7077469825744629,0.3865233361721039
1790943258542469000,6.22346923828125,-0.060514383018016815,0.5874163508415222,0.3283902406692505
1790943258552499000,6.2334990234375,-0.06829241663217545,0.4909960627555847,0.41456693410873413
1790943258562530000,6.243530029296875,-0.1253756284713745,0.3794694244861603,0.5068926811218262
1790943258572560000,6.253559814453125,-0.17934033274650574,0.3379608690738678,0.5318294167518616
1790943258582591000,6.263591064453125,-0.1983451247215271,0.3375975489616394,0.5120927691459656
1790943258592620800,6.273620849609375,-0.22388696670532227,0.2458287477493286,0.5835227370262146
1790943258602652000,6.28365185546875,-0.33220356702804565,0.052107930183410645,0.7445855140686035
1790943258612682000,6.293681884765625,-0.4671352803707123,-0.1093163788318634,0.9209922552108765
1790943258622711800,6.3037119140625,-0.5615524053573608,-0.194301575422287,1.0551435947418213
1790943258632743000,6.313742919921875,-0.6539531946182251,-0.2711274027824402,1.2366657257080078
1790943258642773000,6.32377294921875,-0.7671499848365784,-0.3724385201931,1.418716311454773
1790943258652803800,6.333803955078125,-0.8550047278404236,-0.34167367219924927,1.543117642402649
1790943258662834000,6.343833984375,-0.9349671602249146,-0.28092435002326965,1.7283662557601929
1790943258672865000,6.353864990234375,-1.0158827304840088,-0.19651226699352264,1.8690931797027588
1790943258682894800,6.363894775390625,-1.084776520729065,-0.11529199779033661,1.9708313941955566
1790943258692926000,6.373926025390625,-1.1258512735366821,0.045044150203466415,2.068556308746338
1790943258702956000,6.3839560546875,-1.177420735359192,0.3450675308704376,2.231654644012451
1790943258712987000,6.39398681640625,-1.2445118427276611,0.6034591197967529,2.4068567752838135
1790943258723017000,6.404016845703125,-1.3476966619491577,0.6942362189292908,2.56164288520813
1790943258733048000,6.414048095703125,-1.4789841175079346,0.6811004281044006,2.6360743045806885
1790943258743078000,6.424077880859375,-1.5935927629470825,0.666362464427948,2.620234489440918
1790943258753108000,6.43410791015625,-1.7173405885696411,0.6989188194274902,2.562870740890503
1790943258763139000,6.44413916015625,-1.8188179731369019,0.7887365221977234,2.5020980834960938
1790943258773169200,6.454169189453125,-1.862951397895813,0.92579185962677,2.514023780822754
1790943258783200000,6.464199951171875,-1.8788002729415894,1.0839461088180542,2.628169298171997
1790943258793230000,6.47422998046875,-1.9049268960952759,1.130661964416504,2.764376401901245
1790943258803261000,6.484260986328125,-1.9404256343841553,1.1151479482650757,2.8637874126434326
1790943258813290800,6.494290771484375,-1.989067554473877,1.0545077323913574,2.874244213104248
1790943258823322000,6.504322021484375,-2.0190415382385254,0.9166030883789062,2.765115737915039
1790943258833352000,6.51435205078125,-2.035043239593506,0.69291752576828,2.4636025428771973
1790943258843382800,6.5243828125,-1.9804238080978394,0.4568616449832916,2.0210633277893066
1790943258853412900,6.534412841796875,-1.8522850275039673,0.31114280223846436,1.5587999820709229
1790943258863444000,6.54444384765625,-1.7193735837936401,0.371262788772583,1.1499137878417969
1790943258873473800,6.554473876953125,-1.5862293243408203,0.47634151577949524,0.8971967697143555
1790943258883503900,6.56450390625,-1.460959553718567,0.4893163740634918,0.860396683216095
1790943258893535000,6.574534912109375,-1.2929543256759644,0.4162520170211792,0.9534909129142761
1790943258903565000,6.58456494140625,-1.1076749563217163,0.23117636144161224,1.061652660369873
1790943258913596000,6.594595947265625,-0.9300991892814636,0.0585944727063179,1.0855425596237183
1790943258923626000,6.6046259765625,-0.7702337503433228,-0.0060586705803871155,1.1159600019454956
1790943258933656800,6.61465673828125,-0.613763153553009,0.04348358139395714,1.173327922821045
1790943258943687000,6.62468701171875,-0.4269227087497711,0.3746877908706665,1.185234785079956
1790943258953718000,6.634718017578125,-0.23462678492069244,0.86635422706604,1.1919198036193848
1790943258963748000,6.644748046875,-0.06639270484447479,1.3808263540267944,1.1817998886108398
1790943258973779000,6.654779052734375,0.06047762185335159,1.7446610927581787,1.137856364250183
1790943258983809000,6.66480908203125,0.08325617760419846,1.8865149021148682,1.0711849927902222
1790943258993839900,6.67483984375,0.09061235934495926,1.9817793369293213,0.9764342904090881
1790943259003870000,6.684869873046875,0.11093642562627792,1.9773582220077515,0.8834705948829651
1790943259013900000,6.694900146484375,0.09797827899456024,1.7755664587020874,0.8334662914276123
1790943259023931100,6.70493115234375,-0.020968476310372353,1.4189575910568237,0.8739367723464966
1790943259033961000,6.7149609375,-0.22660286724567413,1.0938948392868042,0.975608229637146
1790943259043992000,6.724991943359375,-0.4129909574985504,0.9061993360519409,0.9330433011054993
1790943259054022000,6.73502197265625,-0.5685904026031494,0.7820206880569458,0.4868224263191223
1790943259064053000,6.745052978515625,-0.6377881765365601,0.6891462802886963,-0.18626590073108673
1790943259074082800,6.755082763671875,-0.5829829573631287,0.618492066860199,-0.6661819219589233
1790943259084114000,6.765114013671875,-0.5019893050193787,0.5778712034225464,-0.8315873742103577
1790943259094143700,6.775143798828125,-0.36738911271095276,0.6487483382225037,-0.7455683350563049
1790943259104174800,6.7851748046875,-0.21983636915683746,0.8365228772163391,-0.45250916481018066
1790943259114205000,6.795204833984375,-0.1342490315437317,1.0337681770324707,-0.11237448453903198
1790943259124235800,6.80523583984375,-0.13086214661598206,1.179039716720581,0.11502262204885483
1790943259134265900,6.815265869140625,-0.17247962951660156,1.3055353164672852,0.1626492738723755
1790943259144296000,6.8252958984375,-0.20965535938739777,1.39243483543396,0.05600162595510483
1790943259154327000,6.8353271484375,-0.22965861856937408,1.4055453538894653,-0.11720424145460129
1790943259164356900,6.84535693359375,-0.25946640968322754,1.296488881111145,-0.35115835070610046
1790943259174388000,6.855387939453125,-0.32204991579055786,1.087807536125183,-0.5682179927825928
1790943259184418000,6.86541796875,-0.47335085272789,0.7581830024719238,-0.6326600313186646
1790943259194449000,6.875448974609375,-0.6414211392402649,0.36804160475730896,-0.5099961757659912
1790943259204479000,6.88547900390625,-0.7265429496765137,-0.2033335119485855,-0.23915258049964905
1790943259214510000,6.895510009765625,-0.8309151530265808,-0.7209039330482483,-0.014856621623039246
1790943259224540000,6.905539794921875,-0.9446882605552673,-1.0443912744522095,0.043835967779159546
1790943259234571000,6.915571044921875,-0.9905995726585388,-1.0372012853622437,-0.0655062347650528
1790943259244601000,6.92560107421875,-0.869623601436615,-0.6050488948822021,-0.32347017526626587
1790943259254632000,6.9356318359375,-0.5816069841384888,0.21382971107959747,-0.627332866191864
1790943259264662000,6.945662109375,-0.24898849427700043,1.0689899921417236,-0.9256728887557983
1790943259274692000,6.955692138671875,0.009842524304986,1.3540712594985962,-1.2223668098449707
1790943259284723000,6.965722900390625,0.08710204809904099,0.867976188659668,-1.37564218044281
1790943259294752800,6.975752685546875,0.01876506395637989,-0.07628487050533295,-1.2861785888671875
1790943259304784100,6.9857841796875,-0.21372602880001068,-0.8380323648452759,-0.9932700395584106
1790943259314814000,6.99581396484375,-0.3387864828109741,-0.8527767062187195,-0.6222800016403198
1790943259324844800,7.0058447265625,-0.3213786780834198,-0.4072757959365845,-0.42472749948501587
1790943259334875000,7.015875,-0.19204942882061005,0.1466100513935089,-0.4714345335960388
1790943259344905700,7.02590576171875,-0.01887555792927742,0.669728696346283,-0.6064010858535767
1790943259354935800,7.035935791015625,0.05236133933067322,0.7982994318008423,-0.7082379460334778
1790943259364967000,7.045966796875,0.04201159626245499,0.4543693959712982,-0.7472109794616699
1790943259374997000,7.0559970703125,0.09707538038492203,0.02548089809715748,-0.8408442735671997
1790943259385027800,7.06602783203125,0.13601405918598175,-0.09793682396411896,-1.1203007698059082
1790943259395058000,7.076057861328125,0.1797359734773636,0.14742499589920044,-1.4681103229522705
1790943259405088000,7.086087890625,0.17894130945205688,0.6723360419273376,-1.634573221206665
1790943259415118800,7.096118896484375,0.15213392674922943,1.2728573083877563,-1.4266383647918701
1790943259425149000,7.10614892578125,0.10049355775117874,1.5325943231582642,-0.9989428520202637
1790943259435180000,7.116179931640625,0.044682227075099945,1.3554978370666504,-0.7130405902862549
1790943259445209900,7.1262099609375,-0.06126974895596504,0.8924102783203125,-0.6215621829032898
1790943259455241000,7.136240966796875,-0.1915619671344757,0.501002848148346,-0.6234620809555054
1790943259465271000,7.14627099609375,-0.2867698073387146,0.4046977758407593,-0.7064688801765442
1790943259475302000,7.156302001953125,-0.4032154679298401,0.4106725752353668,-0.9357377290725708
1790943259485332000,7.16633203125,-0.5433114171028137,0.32468366622924805,-1.490836262702942
1790943259495363000,7.176363037109375,-0.5912496447563171,0.09318757802248001,-2.3543877601623535
1790943259505393200,7.18639306640625,-0.4240570366382599,0.00532727874815464,-3.040937662124634
1790943259515424000,7.196424072265625,0.062370914965867996,0.40003544092178345,-2.914283037185669
1790943259525454000,7.2064541015625,0.5362318158149719,1.1939340829849243,-2.036789655685425
1790943259535485000,7.21648486328125,0.5856528878211975,2.0099799633026123,-1.073421597480774
1790943259545515000,7.226514892578125,0.3960336446762085,2.1193692684173584,-0.46900317072868347
1790943259555544800,7.236544921875,0.3926141560077667,1.5216562747955322,-0.2698349356651306
1790943259565576000,7.246575927734375,0.4013223946094513,0.7075822353363037,-0.37214404344558716
1790943259575605800,7.256605712890625,0.3297850787639618,0.08596611022949219,-0.7132214903831482
1790943259585636900,7.266636962890625,0.3308788537979126,-0.29363933205604553,-1.2767776250839233
1790943259595667000,7.2766669921875,0.45054611563682556,-0.2162127047777176,-1.5796631574630737
1790943259605697800,7.28669775390625,0.4975540339946747,0.26121795177459717,-1.2180969715118408
1790943259615727900,7.296727783203125,0.4394904673099518,0.5505059361457825,-0.5267801880836487
1790943259625759000,7.306759033203125,0.3082684278488159,0.3774028420448303,-0.05844222381711006
1790943259635788800,7.316788818359375,0.1880757212638855,0.12053671479225159,0.05089331790804863
1790943259645820000,7.32681982421875,0.15236596763134003,0.10039772838354111,-0.07124421000480652
1790943259655850000,7.33685009765625,0.19260527193546295,0.30004826188087463,-0.3024792969226837
1790943259665880800,7.346880859375,0.2487080693244934,0.4113447368144989,-0.5757812857627869
1790943259675911000,7.356910888671875,0.29225343465805054,0.38008373975753784,-0.7951022386550903
1790943259685942000,7.36694189453125,0.3315083086490631,0.2829151451587677,-0.9129141569137573
1790943259695971800,7.376971923828125,0.364801824092865,0.19170668721199036,-0.918390691280365
1790943259706002000,7.387001953125,0.37297946214675903,0.12878325581550598,-0.8528668880462646
1790943259716033000,7.397032958984375,0.317163348197937,0.04849906638264656,-0.8240139484405518
1790943259726063000,7.40706298828125,0.27821585536003113,0.07980146259069443,-0.8432584404945374
1790943259736094000,7.417093994140625,0.24418465793132782,0.20696499943733215,-0.9107021689414978
1790943259746124000,7.4271240234375,0.20091554522514343,0.38567429780960083,-0.9932880997657776
1790943259756155100,7.437155029296875,0.19030417501926422,0.516261875629425,-1.0027260780334473
1790943259766185000,7.44718505859375,0.22700382769107819,0.5502948760986328,-0.9101754426956177
1790943259776216000,7.457216064453125,0.2684018611907959,0.5048211216926575,-0.7900570034980774
1790943259786246100,7.46724609375,0.2896612584590912,0.3125301003456116,-0.7030842304229736
1790943259796277000,7.477277099609375,0.2903235852718353,0.011506089009344578,-0.6572563052177429
1790943259806306800,7.487306884765625,0.33033809065818787,-0.16567552089691162,-0.6871850490570068
1790943259816338200,7.497338134765625,0.39026081562042236,-0.23879288136959076,-0.7694211006164551
1790943259826367700,7.50736767578125,0.477579265832901,-0.21767377853393555,-0.87535560131073
1790943259836398800,7.51739892578125,0.6006191968917847,-0.10416479408740997,-0.9570046663284302
1790943259846429000,7.527428955078125,0.6586659550666809,0.07449041306972504,-1.0246778726577759
1790943259856459000,7.537458984375,0.6973326206207275,0.1572372168302536,-1.0518664121627808
1790943259866489900,7.54748974609375,0.6958670020103455,0.10962402820587158,-1.0327885150909424
1790943259876520000,7.55752001953125,0.6712287664413452,0.006893119774758816,-0.9888607859611511
1790943259886550800,7.56755078125,0.6148537993431091,-0.1611054539680481,-0.9310142993927002
1790943259896580900,7.577580810546875,0.5287883877754211,-0.385711133480072,-0.8658232688903809
1790943259906612000,7.587612060546875,0.4057236313819885,-0.6130977869033813,-0.803848385810852
1790943259916642000,7.59764208984375,0.24422210454940796,-0.7935189604759216,-0.7529178261756897
1790943259926673000,7.6076728515625,0.043393395841121674,-0.9978262782096863,-0.6982417106628418
1790943259936703000,7.617702880859375,-0.15154600143432617,-1.176115870475769,-0.6512745022773743
1790943259946733800,7.62773388671875,-0.3240658938884735,-1.2654832601547241,-0.6162874102592468
1790943259956764000,7.637763916015625,-0.43995603919029236,-1.2724425792694092,-0.6006765365600586
1790943259966795000,7.647794921875,-0.49034175276756287,-1.2132420539855957,-0.6169815063476562
1790943259976825000,7.6578251953125,-0.490555077791214,-1.0916824340820312,-0.6533583998680115
1790943259986855000,7.66785498046875,-0.45041728019714355,-0.9332199096679688,-0.6893565654754639
1790943259996886000,7.677885986328125,-0.3879501521587372,-0.7757863998413086,-0.7488696575164795
1790943260006916000,7.687916015625,-0.3464612662792206,-0.666422426700592,-0.8190460205078125
1790943260016947000,7.697947021484375,-0.3281842768192291,-0.580436646938324,-0.891855001449585
1790943260026976500,7.7079765625,-0.2732691764831543,-0.4177456498146057,-1.0231620073318481
1790943260037008000,7.7180078125,-0.15638677775859833,-0.06438518315553665,-1.2729028463363647
1790943260047037700,7.72803759765625,0.06546815484762192,0.23893414437770844,-1.5343831777572632
1790943260057068500,7.738068603515625,0.29080912470817566,0.3638113737106323,-1.7419997453689575
1790943260067098600,7.7480986328125,0.38419100642204285,0.09675244987010956,-2.0734975337982178
1790943260077129700,7.758129638671875,0.4635539948940277,-0.3876371383666992,-2.550553798675537
1790943260087159600,7.76815966796875,0.5926529169082642,-0.888849139213562,-2.9409475326538086
1790943260097190700,7.778190673828125,0.7141644358634949,-1.1284019947052002,-3.024261951446533
1790943260107220700,7.788220703125,0.8946047425270081,-1.090168833732605,-2.674668788909912
1790943260117250600,7.79825048828125,0.8326172828674316,-0.4246326982975006,-2.0092921257019043
1790943260127281700,7.80828173828125,0.7528156638145447,0.05876322090625763,-1.5349913835525513
1790943260137311700,7.818311767578125,0.761162281036377,0.016202444210648537,-1.319533109664917
1790943260147342600,7.828342529296875,0.8267077207565308,-0.19320297241210938,-1.2886292934417725
1790943260157372700,7.83837255859375,0.7711707353591919,-0.45902320742607117,-1.3551050424575806
1790943260167403800,7.84840380859375,0.7491447925567627,-0.5288047790527344,-1.3643932342529297
1790943260177433900,7.858433837890625,0.7401835322380066,-0.3644362986087799,-1.1911230087280273
1790943260187464700,7.868464599609375,0.7706258893013,-0.17679782211780548,-0.8939265012741089
1790943260197494800,7.878494873046875,0.77906334400177,0.004227624274790287,-0.5885633826255798
1790943260207525600,7.888525634765625,0.7674435973167419,0.08693485707044601,-0.33928900957107544
1790943260217555700,7.8985556640625,0.771169126033783,0.07442305982112885,-0.16568045318126678
1790943260227586800,7.9085869140625,0.807733952999115,0.06713414937257767,-0.07668276876211166
1790943260237617000,7.918616943359375,0.8899718523025513,0.09018194675445557,-0.041424110531806946
1790943260247647700,7.928647705078125,1.0043247938156128,0.10184882581233978,-0.01756051555275917
1790943260257677800,7.938677734375,1.1215182542800903,0.15607957541942596,-0.008389919064939022
1790943260267707600,7.948707763671875,1.2199653387069702,0.26485520601272583,-0.019100075587630272
1790943260277738800,7.95873876953125,1.284933090209961,0.38693371415138245,-0.0749518871307373
1790943260287768600,7.9687685546875,1.296644687652588,0.47262492775917053,-0.17131178081035614
1790943260297799700,7.978799560546875,1.2513233423233032,0.5394228100776672,-0.24702651798725128
1790943260307829500,7.98882958984375,1.182771921157837,0.6417312026023865,-0.2991214096546173
1790943260317860600,7.998860595703125,1.0908803939819336,0.780809760093689,-0.37589848041534424
1790943260327890700,8.008890625,1.0146989822387695,0.9388698935508728,-0.4973814785480499
1790943260337921500,8.018921630859374,0.9506429433822632,0.9905725121498108,-0.6267745494842529
1790943260347951600,8.02895166015625,0.8930302262306213,1.0372867584228516,-0.7827491760253906
1790943260357982700,8.038982666015626,0.8237310647964478,1.0499924421310425,-0.875510036945343
1790943260368012500,8.049012451171874,0.7794557809829712,0.9946784973144531,-0.9384607672691345
1790943260378042600,8.059042724609375,0.8303993940353394,0.979733407497406,-0.944708526134491
1790943260388073700,8.06907373046875,0.9520106911659241,0.9898096323013306,-0.8540077805519104
1790943260398103800,8.079103759765625,1.0507011413574219,1.13307785987854,-0.7433268427848816
1790943260408134700,8.089134765625,1.095214605331421,1.3813135623931885,-0.6383915543556213
1790943260418164700,8.099164794921874,1.1219481229782104,1.622897744178772,-0.5234615206718445
1790943260428195800,8.10919580078125,1.1295807361602783,1.71384596824646,-0.39987653493881226
1790943260438225700,8.1192255859375,1.1045653820037842,1.5930194854736328,-0.2582933008670807
1790943260448256800,8.1292568359375,1.0358299016952515,1.4724574089050293,-0.15377944707870483
1790943260458286800,8.139286865234375,0.906617283821106,1.2788325548171997,-0.06933672726154327
1790943260468317700,8.149317626953126,0.7060827612876892,1.1164085865020752,0.06635841727256775
1790943260478347800,8.15934765625,0.49108317494392395,1.0212857723236084,0.21340219676494598
1790943260488379000,8.16937890625,0.327913761138916,0.8964232802391052,0.2952275276184082
1790943260498408700,8.17940869140625,0.2554190754890442,0.7086682915687561,0.38454410433769226
1790943260508439800,8.189439697265625,0.2733686566352844,0.5118376016616821,0.4838586449623108
1790943260518470000,8.199469970703126,0.35533833503723145,0.3791136145591736,0.4746542274951935
1790943260528499700,8.209499755859374,0.46994122862815857,0.19824963808059692,0.3736949563026428
1790943260538530600,8.219530517578125,0.5516784191131592,0.032842040061950684,0.33242741227149963
1790943260548560600,8.229560546875,0.5606213808059692,-0.023586679250001907,0.3921019434928894
1790943260558591500,8.239591552734375,0.48038405179977417,-0.08535896241664886,0.4243597388267517
1790943260568621600,8.24962158203125,0.3954450488090515,-0.07924921065568924,0.5533952713012695
1790943260578652700,8.259652587890624,0.29773423075675964,0.0025100959464907646,0.6793092489242554
1790943260588682800,8.269682861328125,0.21199606359004974,0.024166133254766464,0.7753292322158813
1790943260598713600,8.279713623046876,0.14979128539562225,0.10326680541038513,0.9024019241333008
1790943260608743700,8.28974365234375,0.12057289481163025,0.21917951107025146,0.9797834753990173
1790943260618774500,8.2997744140625,0.11072878539562225,0.28944405913352966,1.0366337299346924
1790943260628804600,8.3098046875,0.0666656568646431,0.33228185772895813,1.1310805082321167
1790943260638834700,8.319834716796874,-0.003282802412286401,0.40379518270492554,1.2543108463287354
1790943260648865800,8.32986572265625,-0.07808087021112442,0.5375574827194214,1.3865125179290771
1790943260658895600,8.3398955078125,-0.14241886138916016,0.6588264107704163,1.5052086114883423
1790943260668926700,8.3499267578125,-0.20223082602024078,0.7031505703926086,1.5825283527374268
1790943260678956800,8.359956787109375,-0.28905653953552246,0.7145387530326843,1.6542034149169922
1790943260688987600,8.369987548828124,-0.3796396255493164,0.7320040464401245,1.7318553924560547
1790943260699017700,8.380017822265625,-0.4323054850101471,0.7204185128211975,1.7800098657608032
1790943260709048800,8.390048828125,-0.44683516025543213,0.6861406564712524,1.8068252801895142
1790943260719078700,8.40007861328125,-0.4389934837818146,0.6092306971549988,1.8235589265823364
1790943260729109800,8.41010986328125,-0.4428800642490387,0.5113056898117065,1.8450795412063599
1790943260739139800,8.420139892578124,-0.4458521604537964,0.42895060777664185,1.883179783821106
1790943260749170700,8.430170654296875,-0.45092758536338806,0.3508976399898529,1.9268821477890015
1790943260759200800,8.44020068359375,-0.46247398853302,0.275126188993454,1.9775218963623047
1790943260769230600,8.450230712890624,-0.5136749148368835,0.2136179655790329,2.0121524333953857
1790943260779261700,8.46026171875,-0.5156669616699219,0.1176898404955864,2.071969509124756
1790943260789291500,8.47029150390625,-0.4879488945007324,0.012152750045061111,2.1324641704559326
1790943260799322600,8.480322509765625,-0.4557534158229828,-0.07227690517902374,2.1513938903808594
1790943260809352700,8.490352783203125,-0.40396848320961,-0.1336812525987625,2.1514298915863037
1790943260819383600,8.500383544921876,-0.35065120458602905,-0.17336714267730713,2.1593828201293945
1790943260829413600,8.51041357421875,-0.2967216372489929,-0.2044421136379242,2.173222780227661
1790943260839444700,8.52044482421875,-0.23406147956848145,-0.20580166578292847,2.1947264671325684
1790943260849474600,8.530474609375,-0.19102397561073303,-0.18207114934921265,2.171801805496216
1790943260859505700,8.540505615234375,-0.183069109916687,-0.20792405307292938,2.091095447540283
1790943260869535700,8.55053564453125,-0.17541652917861938,-0.20968760550022125,2.0432510375976562
1790943260879566600,8.560566650390625,-0.1793859601020813,-0.20337936282157898,2.0777504444122314
1790943260889596700,8.5705966796875,-0.205556258559227,-0.19748073816299438,2.0904958248138428
1790943260899627800,8.580627685546874,-0.24098189175128937,-0.20535330474376678,2.057255983352661
1790943260909657600,8.59065771484375,-0.2571398913860321,-0.2880992889404297,2.0161733627319336
1790943260919687700,8.600687744140625,-0.24010416865348816,-0.3365800082683563,1.959683895111084
1790943260929718800,8.61071875,-0.21471931040287018,-0.3865680694580078,1.8643662929534912
1790943260939748900,8.620748779296875,-0.19959256052970886,-0.3882192373275757,1.7493959665298462
1790943260949779700,8.63077978515625,-0.16242913901805878,-0.3414478600025177,1.6389366388320923
1790943260959809800,8.640809814453124,-0.11612874269485474,-0.33353373408317566,1.550214171409607
1790943260969840600,8.650840576171875,-0.06828304380178452,-0.3827396333217621,1.4581191539764404
1790943260979870700,8.66087060546875,-0.041259150952100754,-0.4291843771934509,1.335220456123352
1790943260989901800,8.67090185546875,-0.031483814120292664,-0.4125044345855713,1.1927809715270996
1790943260999932000,8.680931884765625,-0.03328011557459831,-0.2910616099834442,1.1042510271072388
1790943261009962800,8.690962646484374,-0.05422687903046608,-0.21666070818901062,1.099362850189209
1790943261019992600,8.70099267578125,-0.045714616775512695,-0.17365677654743195,1.09846830368042
1790943261030023700,8.711023681640626,-0.05133175849914551,-0.09066303819417953,1.0393779277801514
1790943261040053500,8.721053466796874,-0.06818796694278717,0.010138142853975296,0.9447061419487
1790943261050083600,8.73108349609375,-0.07691315561532974,0.06269875168800354,0.8483578562736511
1790943261060114700,8.74111474609375,-0.0596444196999073,0.0996120274066925,0.7770642638206482
1790943261070144800,8.751144775390625,-0.05469954013824463,0.14686115086078644,0.7671722173690796
1790943261080175600,8.761175537109375,-0.0826084092259407,0.1895764023065567,0.7594993710517883
1790943261090205700,8.771205810546874,-0.13022103905677795,0.27096500992774963,0.7159619927406311
1790943261100236500,8.781236572265625,-0.17675045132637024,0.3612736165523529,0.668447732925415
1790943261110266600,8.7912666015625,-0.20254749059677124,0.4604243040084839,0.6166691184043884
1790943261120297700,8.801297607421875,-0.20613397657871246,0.4946054518222809,0.5156844258308411
1790943261130327800,8.811327880859375,-0.16925369203090668,0.5138223171234131,0.37879252433776855
1790943261140358700,8.821358642578126,-0.11224020272493362,0.6163846254348755,0.24673382937908173
1790943261150388700,8.831388671875,-0.025278836488723755,0.7480570077896118,0.13138334453105927
1790943261160419600,8.841419677734375,0.07427917420864105,0.7350578904151917,0.03766591101884842
1790943261170449700,8.85144970703125,0.14921769499778748,0.5923541784286499,-0.027802109718322754
1790943261180479700,8.861479736328125,0.16662704944610596,0.48130276799201965,-0.09262397885322571
1790943261190510800,8.8715107421875,0.17453189194202423,0.5053501129150391,-0.1283518522977829
1790943261200540700,8.881540771484374,0.1794600784778595,0.5662792325019836,-0.1537615954875946
1790943261210571800,8.89157177734375,0.20566056668758392,0.6531070470809937,-0.17997492849826813
1790943261220601900,8.901601806640626,0.2510640025138855,0.6548239588737488,-0.2294016033411026
1790943261230632700,8.9116328125,0.26743876934051514,0.5553304553031921,-0.2857885956764221
1790943261240662500,8.92166259765625,0.2465822398662567,0.4108286499977112,-0.3215457797050476
1790943261250694000,8.93169384765625,0.1982802301645279,0.3155454695224762,-0.32089677453041077
1790943261260723700,8.9417236328125,0.18319635093212128,0.3306935429573059,-0.32151782512664795
1790943261270754600,8.951754638671876,0.20669299364089966,0.4239365756511688,-0.38280341029167175
1790943261280784600,8.96178466796875,0.27152925729751587,0.5338284373283386,-0.5294780731201172
1790943261290815500,8.9718154296875,0.36107727885246277,0.641487717628479,-0.7475051283836365
1790943261300845600,8.981845458984376,0.42068973183631897,0.7593469619750977,-0.9633582830429077
1790943261310875600,8.991875732421875,0.4417401850223541,0.8649674654006958,-1.1252398490905762
1790943261320906800,9.00190673828125,0.43993696570396423,0.9389090538024902,-1.2235058546066284
1790943261330936600,9.0119365234375,0.44724392890930176,0.913533091545105,-1.2520570755004883
1790943261340967700,9.0219677734375,0.45170605182647705,0.7895147204399109,-1.221549153327942
1790943261350997800,9.031997802734375,0.46030765771865845,0.6333606243133545,-1.1450212001800537
1790943261361028600,9.042028564453124,0.4657101333141327,0.47129711508750916,-1.0306572914123535
1790943261371058700,9.05205859375,0.4698551893234253,0.31752386689186096,-0.8869510293006897
1790943261381089800,9.06208984375,0.47428029775619507,0.1987740397453308,-0.7428732514381409
1790943261391119600,9.07211962890625,0.486458957195282,0.1933281272649765,-0.6031054258346558
1790943261401150700,9.082150634765625,0.49072107672691345,0.30221864581108093,-0.4650905132293701
1790943261411180800,9.092180908203124,0.4969939589500427,0.4622942805290222,-0.3626883625984192
1790943261421211600,9.102211669921875,0.5275936722755432,0.6158942580223083,-0.3281652629375458
1790943261431241700,9.11224169921875,0.5803292989730835,0.698477029800415,-0.4015643894672394
1790943261441272800,9.12227294921875,0.6598936319351196,0.6251828074455261,-0.591571569442749
1790943261451302700,9.132302734375,0.7376086711883545,0.39601120352745056,-0.8538053631782532
1790943261461332700,9.142332763671876,0.7981840968132019,0.0949736163020134,-1.1230778694152832
1790943261471363800,9.15236376953125,0.8324373960494995,-0.13221150636672974,-1.339455246925354
1790943261481393700,9.1623935546875,0.8433829545974731,-0.2327871173620224,-1.501739740371704
1790943261491424800,9.1724248046875,0.8321319222450256,-0.18012961745262146,-1.5847917795181274
1790943261501454600,9.18245458984375,0.8253158330917358,-0.006888591218739748,-1.6031036376953125
1790943261511485700,9.192485595703126,0.8183998465538025,0.22324347496032715,-1.591909408569336
1790943261521515500,9.202515625,0.8130708932876587,0.38901248574256897,-1.5145996809005737
1790943261531546600,9.212546630859375,0.7974054217338562,0.42538368701934814,-1.40043306350708
1790943261541576700,9.22257666015625,0.7268438935279846,0.2708289921283722,-1.3094615936279297
1790943261551607600,9.232607666015625,0.6199944019317627,-0.007114812731742859,-1.2342262268066406
1790943261561637600,9.2426376953125,0.49235230684280396,-0.252047598361969,-1.1623653173446655
1790943261571667700,9.252667724609376,0.3393656313419342,-0.3762282431125641,-1.095234751701355
1790943261581698600,9.262698486328125,0.12834076583385468,-0.4456653892993927,-0.9911011457443237
1790943261591728600,9.272728759765625,-0.1093103364109993,-0.49272722005844116,-0.9019937515258789
1790943261601759700,9.282759765625,-0.2710781991481781,-0.46031975746154785,-0.8697553873062134
1790943261611789800,9.292789794921875,-0.37863990664482117,-0.45923665165901184,-0.897672712802887
1790943261621820700,9.302820556640626,-0.43817567825317383,-0.5391972661018372,-0.9634115695953369
1790943261631850800,9.312850830078125,-0.45934563875198364,-0.6637161374092102,-1.0326002836227417
1790943261641881600,9.322881591796875,-0.3989161252975464,-0.7844018340110779,-1.131874680519104
1790943261651911700,9.33291162109375,-0.2907290458679199,-0.9881107807159424,-1.2763043642044067
1790943261661942800,9.34294287109375,-0.1848641335964203,-1.2743017673492432,-1.4672818183898926
1790943261671972900,9.352972900390625,-0.08451716601848602,-1.4784680604934692,-1.6595611572265625
1790943261682003700,9.363003662109374,-0.05523703992366791,-1.5781515836715698,-1.823238492012024
1790943261692033800,9.37303369140625,-0.07469615340232849,-1.5911401510238647,-1.96580970287323
1790943261702063900,9.38306396484375,-0.09577054530382156,-1.4801325798034668,-2.093634843826294
1790943261712094700,9.3930947265625,-0.09857013076543808,-1.3192217350006104,-2.167066812515259
1790943261722124500,9.40312451171875,-0.11519784480333328,-1.1908667087554932,-2.2289490699768066
1790943261732156000,9.413156005859374,-0.0949099138379097,-1.0543423891067505,-2.318464756011963
1790943261742185500,9.423185546875,-0.03135943412780762,-0.7613040804862976,-2.3609137535095215
1790943261752216600,9.433216552734375,0.04231131449341774,-0.4737643301486969,-2.3317923545837402
1790943261762246700,9.44324658203125,0.13418903946876526,-0.2604946494102478,-2.2732300758361816
1790943261772277500,9.453277587890625,0.14106763899326324,-0.14889012277126312,-2.1600804328918457
1790943261782307600,9.4633076171875,0.1996353417634964,-0.08743210136890411,-2.0010290145874023
1790943261792338700,9.473338623046875,0.3016796112060547,0.016478121280670166,-1.793070673942566
1790943261802368800,9.48336865234375,0.43399158120155334,0.2228991985321045,-1.5293184518814087
1790943261812399600,9.493399658203124,0.5479443073272705,0.4638752341270447,-1.2135159969329834
1790943261822429700,9.5034296875,0.5969030261039734,0.6695525050163269,-0.9553826451301575
1790943261832459800,9.513459716796875,0.5737064480781555,0.7436743378639221,-0.8463940620422363
1790943261842490600,9.52349072265625,0.5267759561538696,0.7851917147636414,-0.856503427028656
1790943261852520700,9.533520751953125,0.5340717434883118,0.841899573802948,-0.9329580664634705
1790943261862551800,9.5435517578125,0.5733214020729065,0.8631731867790222,-0.960403323173523
1790943261872581600,9.55358154296875,0.6015723943710327,0.7573432922363281,-0.9195116758346558
1790943261882612700,9.56361279296875,0.6127083897590637,0.7426575422286987,-0.8298870325088501
1790943261892642800,9.573642822265626,0.6338615417480469,0.7668958902359009,-0.702212393283844
1790943261902673700,9.583673583984375,0.6138960719108582,0.8383005857467651,-0.6777999997138977
1790943261912703700,9.593703857421875,0.6196025609970093,0.8612361550331116,-0.807706356048584
1790943261922734800,9.60373486328125,0.6203487515449524,0.5281937718391418,-0.8392224311828613
1790943261932764700,9.6137646484375,0.5914172530174255,0.21760216355323792,-0.7446632981300354
1790943261942795800,9.623795654296876,0.5082744359970093,0.08122967928647995,-0.5804392099380493
1790943261952825900,9.633825927734375,0.4393589496612549,-0.02403957024216652,-0.4608868956565857
1790943261962855700,9.643855712890625,0.4056827425956726,-0.11506694555282593,-0.29648569226264954
1790943261972886800,9.65388671875,0.39353424310684204,-0.2463870644569397,-0.04438641294836998
1790943261982916600,9.66391650390625,0.3813830316066742,-0.32680466771125793,0.14995218813419342
1790943261992947500,9.673947509765625,0.37309926748275757,-0.38407033681869507,0.31601133942604065
1790943262002977500,9.6839775390625,0.3468106985092163,-0.3581596314907074,0.48463311791419983
1790943262013008600,9.694008544921875,0.30154338479042053,-0.24330681562423706,0.620602548122406
1790943262023039200,9.704039306640626,0.2596598267555237,-0.10568369179964066,0.7713742256164551
1790943262033070300,9.7140703125,0.24891488254070282,0.07464571297168732,0.8952112793922424
1790943262043100400,9.724100341796875,0.24701258540153503,0.2083345204591751,0.9993235468864441
1790943262053131300,9.73413134765625,0.25067272782325745,0.29973161220550537,1.0826417207717896
1790943262063161300,9.744161376953125,0.27438074350357056,0.344666063785553,1.1730563640594482
1790943262073192400,9.7541923828125,0.3065074384212494,0.39876967668533325,1.2808319330215454
1790943262083222300,9.76422216796875,0.31144067645072937,0.5308099985122681,1.4124159812927246
1790943262093252400,9.77425244140625,0.2600192427635193,0.615865170955658,1.6013703346252441
1790943262103283500,9.784283447265626,0.21840734779834747,0.6857316493988037,1.7209854125976562
1790943262113313500,9.7943134765625,0.1982342153787613,0.7587297558784485,1.8046231269836426
1790943262123344400,9.804344482421875,0.1497308611869812,0.7974066138267517,1.9381321668624878
1790943262133374200,9.814374267578126,0.09725721180438995,0.8520161509513855,2.069718599319458
1790943262143405300,9.8244052734375,0.04098488390445709,0.9833863973617554,2.186580181121826
1790943262153435100,9.83443505859375,-0.04828161373734474,1.1302175521850586,2.36291766166687
1790943262163466200,9.84446630859375,-0.15520192682743073,1.2590328454971313,2.5716965198516846
1790943262173496300,9.854496337890625,-0.3038664162158966,1.332504153251648,2.713054895401001
1790943262183527200,9.864527099609376,-0.49962764978408813,1.295957326889038,2.8388328552246094
1790943262193557200,9.87455712890625,-0.6029229164123535,1.1265122890472412,2.9745426177978516
1790943262203587300,9.88458740234375,-0.5595729947090149,1.014891266822815,2.9871764183044434
1790943262213618200,9.8946181640625,-0.45318421721458435,1.048066258430481,2.8824961185455322
1790943262223648300,9.904648193359375,-0.3349156379699707,1.016011118888855,2.8026742935180664
1790943262233679400,9.914679443359375,-0.19795268774032593,0.8131488561630249,2.7751922607421875
1790943262243709400,9.92470947265625,-0.044795356690883636,0.4954129755496979,2.7157201766967773
1790943262253740300,9.934740234375,0.10269182920455933,0.2528001070022583,2.669626235961914
1790943262263770400,9.944770263671876,0.18944749236106873,0.09359157085418701,2.645453691482544
1790943262273801200,9.95480126953125,0.18561579287052155,0.0008736050222069025,2.632708787918091
1790943262283831300,9.964831298828125,0.0824958011507988,-0.030010540038347244,2.6159002780914307
1790943262293862400,9.9748623046875,0.007022958714514971,0.05920974910259247,2.5612664222717285
1790943262303892500,9.984892578125,-0.05892756208777428,0.10927584767341614,2.4764745235443115
1790943262313923300,9.99492333984375,-0.0543087013065815,0.13279642164707184,2.357098340988159
1790943262323953400,10.004953369140624,0.01969148963689804,0.16005121171474457,2.1713602542877197
1790943262333983500,10.0149833984375,0.13088209927082062,0.1343303918838501,1.9403997659683228
1790943262344014300,10.025014404296876,0.2459772676229477,0.18963919579982758,1.7439650297164917
1790943262354044200,10.035044189453124,0.3444313704967499,0.25612977147102356,1.6287267208099365
1790943262364075500,10.045075439453125,0.43174096941947937,0.08763822913169861,1.583336353302002
1790943262374105000,10.05510498046875,0.522965669631958,0.12063994258642197,1.4642258882522583
1790943262384136200,10.06513623046875,0.5611620545387268,0.33268481492996216,1.3005645275115967
1790943262394166300,10.075166259765625,0.5659087896347046,0.4758543074131012,1.176706314086914
1790943262404197000,10.085197021484374,0.5643766522407532,0.475270539522171,1.1282764673233032
1790943262414227200,10.095227294921875,0.5936975479125977,0.37472233176231384,1.087579607963562
1790943262424258300,10.10525830078125,0.6320816874504089,0.24016264081001282,0.9739300608634949
1790943262434288400,10.115288330078124,0.5948058366775513,0.11658645421266556,0.8111794590950012
1790943262444318200,10.125318115234375,0.43796905875205994,0.07140646129846573,0.5640959143638611
1790943262454349300,10.135349365234376,0.3330889642238617,0.20564913749694824,0.21378931403160095
1790943262464379400,10.14537939453125,0.3706933259963989,0.28476980328559875,-0.09641940891742706
1790943262474410200,10.15541015625,0.3828813433647156,-0.010314889252185822,-0.29844024777412415
1790943262484440300,10.1654404296875,0.28261199593544006,-0.5477426648139954,-0.4529834985733032
1790943262494471400,10.175471435546875,0.13277016580104828,-0.9304522275924683,-0.6478769183158875
1790943262504501200,10.185501220703125,0.051405537873506546,-1.0524375438690186,-0.9040514826774597
1790943262514532400,10.195532470703125,0.018691066652536392,-1.0541048049926758,-1.1363763809204102
1790943262524562400,10.2055625,-0.019520236179232597,-0.9634363651275635,-1.2179332971572876
1790943262534593300,10.21559326171875,-0.027873288840055466,-0.7680456638336182,-1.1444742679595947
1790943262544623400,10.225623291015625,-0.02393393963575363,-0.4723770320415497,-0.9663620591163635
1790943262554654500,10.235654541015625,-0.04959896206855774,-0.1552688479423523,-0.7429232597351074
1790943262564684300,10.245684326171874,-0.07532643526792526,0.1328391134738922,-0.5210580229759216
1790943262574714400,10.25571435546875,-0.07770798355340958,0.3005439341068268,-0.36566492915153503
1790943262584745500,10.265745361328126,-0.06725800782442093,0.22136284410953522,-0.319236159324646
1790943262594775300,10.275775390625,-0.0073436652310192585,0.015733104199171066,-0.3818153738975525
1790943262604806400,10.285806396484375,0.054303985089063644,-0.05410057306289673,-0.5082851648330688
1790943262614836200,10.295836181640626,0.07546644657850266,-0.010692248120903969,-0.6425371766090393
1790943262624867300,10.305867431640625,0.08803976327180862,0.13304467499256134,-0.7053414583206177
1790943262634897200,10.315897216796875,0.08678583800792694,0.40762293338775635,-0.6785576343536377
1790943262644928300,10.32592822265625,0.07769913226366043,0.5967822074890137,-0.5611212849617004
1790943262654958300,10.335958251953125,0.02045084536075592,0.4539766013622284,-0.47356194257736206
1790943262664989200,10.3459892578125,-0.09901829063892365,0.048344679176807404,-0.4856090247631073
1790943262675019300,10.356019287109374,-0.2529654800891876,-0.38432058691978455,-0.6055213212966919
1790943262685050400,10.36605029296875,-0.38148725032806396,-0.6513671875,-0.7323786020278931
1790943262695080200,10.376080078125,-0.4791180491447449,-0.6712751388549805,-0.7755358219146729
1790943262705110300,10.3861103515625,-0.4985783100128174,-0.4299498200416565,-0.7253786325454712
1790943262715141400,10.396141357421875,-0.3972949683666229,-0.1552937924861908,-0.6902093291282654
1790943262725171200,10.406171142578126,-0.2817279100418091,-0.18020500242710114,-0.8115953803062439
1790943262735202300,10.416202392578125,-0.19609497487545013,-0.3005429208278656,-0.9984300136566162
1790943262745232400,10.426232421875,-0.21027417480945587,-0.19689881801605225,-1.154605746269226
1790943262755263200,10.43626318359375,-0.26179924607276917,0.0086432583630085,-1.3016952276229858
1790943262765293300,10.446293212890625,-0.22296689450740814,0.00764404097571969,-1.4527201652526855
1790943262775324400,10.456324462890626,-0.1076871007680893,-0.19531266391277313,-1.6286917924880981
1790943262785354500,10.4663544921875,0.03965681418776512,-0.3868115246295929,-1.827181100845337
1790943262795385300,10.47638525390625,0.14102429151535034,-0.6242145895957947,-2.1030144691467285
1790943262805415400,10.48641552734375,0.23316539824008942,-0.8478604555130005,-2.4401068687438965
1790943262815446300,10.4964462890625,0.32192590832710266,-0.980250358581543,-2.736630916595459
1790943262825476400,10.506476318359375,0.4009954333305359,-1.064348816871643,-2.800693988800049
1790943262835506200,10.516506103515624,0.4497233033180237,-0.9000403881072998,-2.64867901802063
1790943262845537500,10.52653759765625,0.4009205996990204,-0.5796474814414978,-2.3782074451446533
1790943262855567000,10.536567138671876,0.3062913715839386,-0.2959822714328766,-2.1237521171569824
1790943262865598200,10.54659814453125,0.2279054969549179,-0.09648887068033218,-1.9795920848846436
1790943262875628300,10.556628173828125,0.16794449090957642,-0.0028000609017908573,-1.9633185863494873
1790943262885659100,10.5666591796875,0.17139753699302673,-0.004300752189010382,-2.055438995361328
1790943262895689200,10.576689208984375,0.24758099019527435,-0.09108038991689682,-2.2643134593963623
1790943262905720300,10.58672021484375,0.30174168944358826,-0.3321361541748047,-2.5001587867736816
1790943262915750100,10.596750244140624,0.319230854511261,-0.6401054263114929,-2.72294282913208
1790943262925781200,10.60678125,0.36244916915893555,-0.9375647902488708,-2.8221302032470703
1790943262935811300,10.616811279296876,0.35095155239105225,-1.1459319591522217,-2.7731499671936035
1790943262945841400,10.62684130859375,0.26328426599502563,-1.1848084926605225,-2.651948928833008
1790943262955872300,10.636872314453125,0.08270086348056793,-1.2625787258148193,-2.4135379791259766
1790943262965902300,10.64690234375,-0.08760882169008255,-1.3917630910873413,-2.13769268989563
1790943262975933400,10.656933349609375,-0.11362196505069733,-1.5652716159820557,-1.9676754474639893
1790943262985963300,10.66696337890625,-0.1039925068616867,-1.6879472732543945,-1.8878886699676514
1790943262995994400,10.676994384765624,-0.14138585329055786,-1.6512300968170166,-1.736757755279541
1790943263006024400,10.6870244140625,-0.1660587042570114,-1.4055033922195435,-1.4772907495498657
1790943263016055300,10.69705517578125,-0.05067887529730797,-1.0290547609329224,-1.2400898933410645
1790943263026085600,10.707085693359375,0.11553912609815598,-0.6437844634056091,-1.132925271987915
1790943263036116500,10.717116455078125,0.2469242662191391,-0.28683456778526306,-1.1274751424789429
1790943263046146600,10.727146484375,0.32073166966438293,0.08066035807132721,-1.1635899543762207
1790943263056177700,10.737177734375,0.4202549159526825,0.44982945919036865,-1.2124676704406738
1790943263066207700,10.747207763671875,0.5557224750518799,0.8738164305686951,-1.2091935873031616
1790943263076237600,10.757237548828124,0.739346444606781,1.2223217487335205,-1.1473746299743652
1790943263086268700,10.7672685546875,0.9480863213539124,1.1931143999099731,-0.8974500298500061
1790943263096298800,10.777298828125,1.035508155822754,0.9345614910125732,-0.531771183013916
1790943263106329600,10.78732958984375,0.9999123215675354,0.7963812351226807,-0.28533872961997986
1790943263116359700,10.797359619140625,0.7963138222694397,0.7721114754676819,-0.16536778211593628
1790943263126390800,10.807390869140624,0.5325615406036377,0.6677866578102112,-0.12594394385814667
1790943263136420600,10.817420654296875,0.38259878754615784,0.551324188709259,-0.04812752828001976
1790943263146451700,10.82745166015625,0.35672086477279663,0.37244924902915955,0.07166758179664612
1790943263156481800,10.837481689453124,0.36265289783477783,0.19507411122322083,0.1760249137878418
1790943263166512600,10.8475126953125,0.39452242851257324,0.10995816439390182,0.25346723198890686
1790943263176542700,10.857542724609376,0.44502100348472595,0.0287484098225832,0.37278905510902405
1790943263186573800,10.86757373046875,0.4690121114253998,-0.025563566014170647,0.5726531744003296
1790943263196603600,10.877603759765625,0.4399561583995819,0.01627354323863983,0.7624444365501404
1790943263206633700,10.8876337890625,0.3797479271888733,0.056300852447748184,0.9593258500099182
1790943263216664800,10.897664794921875,0.31591883301734924,0.1304817646741867,1.1621129512786865
1790943263226694700,10.907694580078125,0.2545231282711029,0.22372888028621674,1.3437767028808594
1790943263236725800,10.917725830078124,0.17447106540203094,0.3217436969280243,1.5298460721969604
1790943263246755600,10.927755615234375,0.08235818147659302,0.4107707738876343,1.7591618299484253
1790943263256786700,10.93778662109375,-0.01336461678147316,0.5427986979484558,1.9608711004257202
1790943263266816500,10.94781640625,-0.11072446405887604,0.7007419466972351,2.1293320655822754
1790943263276847600,10.95784765625,-0.20681865513324738,0.8679054379463196,2.313976764678955
1790943263286877700,10.967877685546876,-0.3056032955646515,1.0283182859420776,2.486511707305908
1790943263296908500,10.977908447265625,-0.40186020731925964,1.1302496194839478,2.6378564834594727
1790943263306938600,10.987938720703125,-0.4747442603111267,1.1821905374526978,2.7741265296936035
1790943263316968700,10.99796875,-0.5137193202972412,1.2482749223709106,2.895850658416748
1790943263326999600,11.00799951171875,-0.5557162761688232,1.2689790725708008,3.0230536460876465
1790943263337029600,11.018029541015625,-0.6437013149261475,1.2673848867416382,3.181513547897339
1790943263347060700,11.028060791015625,-0.7194807529449463,1.3838014602661133,3.2881510257720947
1790943263357090800,11.0380908203125,-0.8122222423553467,1.4951602220535278,3.420314073562622
1790943263367121700,11.04812158203125,-0.8942526578903198,1.1864444017410278,3.5782854557037354
1790943263377151700,11.05815185546875,-0.8814253807067871,0.7708717584609985,3.550368547439575
1790943263387182600,11.0681826171875,-0.7859190702438354,0.5756332874298096,3.323212146759033
1790943263397212700,11.078212646484374,-0.7031844258308411,0.4636725187301636,3.0771090984344482
1790943263407243800,11.088243896484375,-0.6154699921607971,0.28200098872184753,2.896453857421875
1790943263417273900,11.09827392578125,-0.494161993265152,0.10947626084089279,2.756591558456421
1790943263427304700,11.1083046875,-0.40869396924972534,0.004447579383850098,2.650139570236206
1790943263437334800,11.118334716796875,-0.3490675389766693,-0.013003537431359291,2.596245288848877
1790943263447364900,11.12836474609375,-0.27919045090675354,-0.09362807869911194,2.553128242492676
1790943263457395700,11.138395751953125,-0.16833029687404633,-0.24968643486499786,2.4619579315185547
1790943263467425500,11.148425537109375,-0.004158398136496544,-0.2746717035770416,2.268404722213745
1790943263477457000,11.158456787109374,0.19548727571964264,-0.2903537452220917,2.0338144302368164
1790943263487486700,11.16848681640625,0.3504584729671478,-0.31804636120796204,1.8408869504928589
1790943263497517600,11.178517578125,0.47922006249427795,-0.20531682670116425,1.6638307571411133
1790943263507547600,11.188547607421874,0.5453583002090454,0.002202806528657675,1.505534052848816
1790943263517578500,11.19857861328125,0.5155164003372192,0.15555210411548615,1.3786824941635132
1790943263527608600,11.208608642578126,0.4471112787723541,0.2562246322631836,1.2775518894195557
1790943263537639700,11.2186396484375,0.3576633334159851,0.27704501152038574,1.19925856590271
1790943263547669800,11.228669677734375,0.2857571840286255,0.18464398384094238,1.115330696105957
1790943263557700600,11.23870068359375,0.21631354093551636,0.038337770849466324,1.0169771909713745
1790943263567730700,11.248730712890625,0.1462063491344452,-0.1714615374803543,0.9269217848777771
1790943263577760800,11.2587607421875,0.09039381146430969,-0.3734527826309204,0.8526811599731445
1790943263587791600,11.26879150390625,0.06322610378265381,-0.5295321345329285,0.7848445773124695
1790943263597821700,11.27882177734375,0.056434474885463715,-0.6014642715454102,0.6930536031723022
1790943263607852800,11.288852783203126,0.05568692460656166,-0.6700865030288696,0.5499758124351501
1790943263617882600,11.298882568359375,0.03768015280365944,-0.8182361125946045,0.35088860988616943
1790943263627913700,11.308913818359375,0.019778383895754814,-0.9023166298866272,0.12729492783546448
1790943263637943800,11.31894384765625,0.03721768781542778,-0.8558973073959351,-0.08733352273702621
1790943263647974700,11.328974609375,0.0769677683711052,-0.7501551508903503,-0.2593931555747986
1790943263658004700,11.339004638671875,0.09901051968336105,-0.6564292907714844,-0.3960243761539459
1790943263668035800,11.349035888671875,0.07840804010629654,-0.6000903844833374,-0.5106870532035828
1790943263678065700,11.359065673828125,0.029315100982785225,-0.5147715210914612,-0.626740574836731
1790943263688096800,11.3690966796875,-0.0335293747484684,-0.38723811507225037,-0.7735228538513184
1790943263698126800,11.379126953125,-0.06679137796163559,-0.26116421818733215,-0.9415454268455505
1790943263708156700,11.38915673828125,-0.05469636619091034,-0.12640294432640076,-1.1024887561798096
1790943263718187800,11.399187744140624,-0.03611460700631142,0.046585094183683395,-1.2302825450897217
1790943263728217600,11.409217529296875,-0.012850563041865826,0.19693759083747864,-1.2982174158096313
1790943263738248700,11.419248779296876,0.0012077057035639882,0.2583090364933014,-1.2843387126922607
1790943263748278500,11.429278564453124,0.020469285547733307,0.21722711622714996,-1.2053645849227905
1790943263758309600,11.4393095703125,0.049954142421483994,0.16316981613636017,-1.1107909679412842
1790943263768339700,11.449339599609376,0.07588720321655273,0.20389620959758759,-1.0253524780273438
1790943263778370600,11.45937060546875,0.07977507263422012,0.2978956401348114,-0.9455632567405701
1790943263788400600,11.469400634765625,0.06432793289422989,0.3519687354564667,-0.863080620765686
1790943263798431700,11.479431640625,0.05236193165183067,0.38685324788093567,-0.7901327610015869
1790943263808461600,11.489461669921875,0.03518374636769295,0.43639177083969116,-0.757019579410553
1790943263818492700,11.49949267578125,-0.004861332941800356,0.4499207139015198,-0.7863698601722717
1790943263828522800,11.509522705078124,-0.04309234395623207,0.3904467523097992,-0.9086107611656189
1790943263838552800,11.519552734375,-0.0959092304110527,0.2980809807777405,-1.1223853826522827
1790943263848583700,11.529583740234376,-0.15460529923439026,0.21885620057582855,-1.3822764158248901
1790943263858613800,11.53961376953125,-0.20643247663974762,0.1604022979736328,-1.6260943412780762
1790943263868644600,11.54964453125,-0.2742331027984619,0.15360483527183533,-1.7730944156646729
1790943263878674700,11.5596748046875,-0.31766650080680847,0.15866850316524506,-1.773543119430542
1790943263888705800,11.569705810546875,-0.32648715376853943,0.12184257060289383,-1.6541498899459839
1790943263898735900,11.57973583984375,-0.3378009498119354,0.08682732284069061,-1.525100827217102
1790943263908766700,11.5897666015625,-0.3557210862636566,0.006488540209829807,-1.4242171049118042
1790943263918796800,11.599796875,-0.37253719568252563,-0.21103237569332123,-1.35951566696167
1790943263928827600,11.60982763671875,-0.38847967982292175,-0.5090680122375488,-1.354120135307312
1790943263938857700,11.619857666015625,-0.3848092555999756,-0.858204185962677,-1.4284706115722656
1790943263948888800,11.629888916015625,-0.3432018756866455,-1.173937201499939,-1.5891971588134766
1790943263958919000,11.6399189453125,-0.23590238392353058,-1.2897213697433472,-1.846042275428772
1790943263968948500,11.649948486328125,-0.15357474982738495,-1.3114581108093262,-2.0998570919036865
1790943263978979600,11.6599794921875,-0.1143709346652031,-1.4266360998153687,-2.262021541595459
1790943263989009700,11.670009765625,-0.08266253769397736,-1.4527944326400757,-2.3401083946228027
1790943263999040500,11.68004052734375,-0.05611123889684677,-1.4410096406936646,-2.338780641555786
1790943264009070600,11.690070556640626,-0.05345793068408966,-1.450730800628662,-2.2665393352508545
1790943264019101700,11.700101806640625,-0.06671715527772903,-1.47227144241333,-2.202549695968628
1790943264029130500,11.710130615234375,-0.08808769285678864,-1.6166272163391113,-2.1929214000701904
1790943264039161300,11.720161376953126,-0.09367014467716217,-1.880759596824646,-2.2691471576690674
1790943264049191400,11.73019140625,-0.10336698591709137,-1.9944167137145996,-2.3511013984680176
1790943264059222500,11.740222412109375,-0.1042112410068512,-1.910361409187317,-2.4194345474243164
1790943264069252400,11.75025244140625,-0.053600262850522995,-1.6912943124771118,-2.425504684448242
1790943264079283500,11.760283447265625,0.008576040156185627,-1.4348851442337036,-2.371058225631714
1790943264089313300,11.770313232421875,0.06536848098039627,-1.1934627294540405,-2.2845354080200195
1790943264099343400,11.78034326171875,0.09636130183935165,-0.9692452549934387,-2.2071847915649414
1790943264109374200,11.790374267578125,0.11679759621620178,-0.7725023627281189,-2.1716818809509277
1790943264119404300,11.800404296875,0.1688127964735031,-0.6175978183746338,-2.1187584400177
1790943264129435400,11.810435302734374,0.23904860019683838,-0.48973411321640015,-2.046517848968506
1790943264139465200,11.82046533203125,0.2646743059158325,-0.27591267228126526,-1.970028281211853
1790943264149496300,11.830496337890626,0.25906994938850403,-0.04806780070066452,-1.8776289224624634
1790943264159526400,11.8405263671875,0.19045355916023254,0.10732966661453247,-1.7587701082229614
1790943264169557200,11.85055712890625,0.11622007191181183,0.21984103322029114,-1.6206116676330566
1790943264179587300,11.86058740234375,0.04411944001913071,0.3289271593093872,-1.524428367614746
1790943264189618400,11.870618408203125,0.011046173982322216,0.46982917189598083,-1.4518897533416748
1790943264199648300,11.880648193359375,0.003569728694856167,0.5488526225090027,-1.2829294204711914
1790943264209679400,11.890679443359375,0.021501325070858,0.5443636178970337,-1.0335991382598877
1790943264219709400,11.90070947265625,0.025282403454184532,0.5282993316650391,-0.8323498964309692
1790943264229739500,11.910739501953126,0.025120748206973076,0.5303835868835449,-0.7202073335647583
1790943264239770400,11.920770263671875,-0.028545383363962173,0.5196776390075684,-0.5740990042686462
1790943264249800400,11.930800537109375,-0.06505865603685379,0.48540544509887695,-0.34482213854789734
1790943264259831600,11.94083154296875,-0.046929411590099335,0.504696249961853,-0.06023239344358444
1790943264269861400,11.950861328125,0.008386574685573578,0.5346493721008301,0.1928640455007553
1790943264279892500,11.960892578125,0.05616043508052826,0.5283783078193665,0.42776626348495483
1790943264289922600,11.970922607421874,0.06963576376438141,0.4972425103187561,0.6602370738983154
1790943264299953400,11.980953369140625,0.07334449142217636,0.5151445269584656,0.8882281184196472
1790943264309983200,11.990983154296876,0.08622833341360092,0.5284659266471863,1.1132451295852661
1790943264320014600,12.0010146484375,0.13025148212909698,0.6015637516975403,1.288317322731018
1790943264330044200,12.011044189453125,0.19501183927059174,0.6880355477333069,1.412353277206421
1790943264340075300,12.0210751953125,0.2573309540748596,0.7140523195266724,1.5399219989776611
1790943264350105300,12.031105224609375,0.28543663024902344,0.7040864825248718,1.7025583982467651
1790943264360135400,12.041135498046875,0.30067187547683716,0.7104412913322449,1.8558076620101929
1790943264370166300,12.051166259765624,0.3049488961696625,0.6811995506286621,1.9999717473983765
1790943264380196400,12.0611962890625,0.2988694906234741,0.6280428171157837,2.15480899810791
1790943264390227200,12.071227294921876,0.29615306854248047,0.5934329032897949,2.313201427459717
1790943264400257300,12.08125732421875,0.29588472843170166,0.5957298874855042,2.4862349033355713
1790943264410288400,12.091288330078125,0.28771016001701355,0.6127690672874451,2.6866042613983154
1790943264420318500,12.101318359375,0.29302549362182617,0.6273202896118164,2.8734514713287354
1790943264430349300,12.111349365234375,0.30817916989326477,0.6202754378318787,3.002864360809326
1790943264440379400,12.12137939453125,0.3212653696537018,0.5630158185958862,3.0677683353424072
1790943264450410200,12.13141015625,0.29828494787216187,0.4766266345977783,3.093961238861084
1790943264460440300,12.1414404296875,0.14461155235767365,0.35945892333984375,3.1029434204101562
1790943264470471400,12.151471435546876,0.03748136758804321,0.29106947779655457,3.129838466644287
1790943264480501500,12.16150146484375,0.015402405522763729,0.37319013476371765,3.1584904193878174
1790943264490531300,12.17153125,0.0003912326064892113,0.38741087913513184,3.160885810852051
1790943264500562400,12.1815625,-0.026058362796902657,0.2942737340927124,3.149641990661621
1790943264510592500,12.191592529296875,-0.050000980496406555,0.21070215106010437,3.07782244682312
1790943264520623400,12.201623291015625,-0.09189091622829437,0.1521366387605667,2.9146335124969482
1790943264530653400,12.2116533203125,-0.13941875100135803,0.048868827521800995,2.681379556655884
1790943264540684500,12.2216845703125,-0.20419760048389435,-0.11202868819236755,2.4508039951324463
1790943264550714400,12.23171435546875,-0.2848506271839142,-0.2619952857494354,2.313478946685791
1790943264560745500,12.241745361328125,-0.3463432788848877,-0.3503193259239197,2.275463342666626
1790943264570775300,12.251775390625,-0.38912829756736755,-0.3838519752025604,2.2462825775146484
1790943264580806100,12.26180615234375,-0.39544740319252014,-0.35765498876571655,2.161966323852539
1790943264590836200,12.271836181640625,-0.3747045695781708,-0.31762152910232544,2.031208038330078
1790943264600867300,12.281867431640626,-0.3302276134490967,-0.3142285645008087,1.9029468297958374
1790943264610897400,12.2918974609375,-0.2959681749343872,-0.3246766924858093,1.8108896017074585
1790943264620928300,12.30192822265625,-0.2708997130393982,-0.2690716087818146,1.7471880912780762
1790943264630958300,12.311958251953126,-0.2173195779323578,-0.13613514602184296,1.6704827547073364
1790943264640988400,12.321988525390625,-0.1367548704147339,0.0629344955086708,1.598952293395996
1790943264651019300,12.332019287109375,-0.04169759526848793,0.2974998652935028,1.542098879814148
1790943264661049300,12.34204931640625,0.05150028318166733,0.4913865625858307,1.4749181270599365
1790943264671080400,12.35208056640625,0.11000967025756836,0.6048299670219421,1.3650363683700562
1790943264681110300,12.3621103515625,0.12033631652593613,0.6762625575065613,1.180039405822754
1790943264691141400,12.372141357421874,0.11275163292884827,0.8004297614097595,0.9133251309394836
1790943264701171500,12.38217138671875,0.0863494798541069,0.9347872734069824,0.5910220742225647
1790943264711202300,12.392202392578126,0.06818486005067825,0.8947266936302185,0.2318013459444046
1790943264721232400,12.402232421875,0.09040497988462448,0.5404808521270752,-0.18493402004241943
1790943264731263500,12.412263427734375,0.18994887173175812,0.01981826312839985,-0.5762926936149597
1790943264741293300,12.422293212890626,0.3106493055820465,-0.4476779103279114,-0.7646205425262451
1790943264751324400,12.432324462890625,0.3444165885448456,-0.643250584602356,-0.6807397603988647
1790943264761354500,12.4423544921875,0.31751197576522827,-0.5409692525863647,-0.5167255997657776
1790943264771385300,12.45238525390625,0.2893517315387726,-0.24243231117725372,-0.4422873258590698
1790943264781415400,12.46241552734375,0.29349687695503235,0.08567861467599869,-0.5358368158340454
1790943264791445200,12.4724453125,0.3042938709259033,0.26962873339653015,-0.7761900424957275
1790943264801476400,12.482476318359375,0.2878764867782593,0.3041626214981079,-1.0587064027786255
1790943264811506200,12.492506103515625,0.273222953081131,0.2526347041130066,-1.2959336042404175
1790943264821537300,12.502537353515624,0.2660827040672302,0.1414312720298767,-1.4929704666137695
1790943264831567400,12.5125673828125,0.28935205936431885,0.005158393643796444,-1.6728034019470215
1790943264841598200,12.52259814453125,0.3362208604812622,-0.12437954545021057,-1.824804663658142
1790943264851628300,12.532628173828124,0.39307937026023865,-0.23729383945465088,-1.9193499088287354
1790943264861659400,12.542659423828125,0.4539421498775482,-0.33596643805503845,-1.912716269493103
1790943264871689200,12.552689208984376,0.49819350242614746,-0.3719939589500427,-1.8203318119049072
