time,seconds_elapsed,z,y,x
1790943252369987000,0.050987060546875,0.025427594780921936,0.0659201592206955,-0.11844488978385925
1790943252380017200,0.06101708984375,0.060975734144449234,0.09468363225460052,-0.17353184521198273
1790943252390048000,0.071048095703125,0.07425745576620102,0.133872851729393,-0.2101508378982544
1790943252400078000,0.081078125,0.03740755841135979,0.15231098234653473,-0.22718068957328796
1790943252410109000,0.09110888671875,-0.037999581545591354,0.15777365863323212,-0.22029295563697815
1790943252420138800,0.101138671875,-0.1244596391916275,0.11326024681329727,-0.18144169449806213
1790943252430170000,0.111170166015625,-0.11886487156152725,-0.05444806069135666,-0.12449345737695694
1790943252440200000,0.121199951171875,-0.07486838102340698,-0.16586486995220184,-0.06201703101396561
1790943252450229800,0.131229736328125,-0.04199112579226494,-0.30366426706314087,0.09407376497983932
1790943252460260900,0.1412607421875,-0.009299758821725845,-0.5222658514976501,0.33669784665107727
1790943252470291000,0.151291015625,0.011449195444583893,-0.8076467514038086,0.5950170159339905
1790943252480321800,0.16132177734375,0.13040274381637573,-1.0181819200515747,0.7708562612533569
1790943252490351900,0.171351806640625,0.3647894263267517,-1.1453115940093994,0.8342181444168091
1790943252500382000,0.1813818359375,0.5679446458816528,-1.20756995677948,0.778559148311615
1790943252510413000,0.1914130859375,0.6996603608131409,-1.1384286880493164,0.587498128414154
1790943252520443000,0.20144287109375,0.6906434297561646,-0.9224002361297607,0.3278540372848511
1790943252530474000,0.211473876953125,0.6764130592346191,-0.5373324155807495,0.09383994340896606
1790943252540504000,0.221504150390625,0.7212796211242676,-0.277014821767807,-0.12235094606876373
1790943252550535000,0.231534912109375,0.8423559665679932,-0.1944006383419037,-0.3134724199771881
1790943252560565000,0.24156494140625,1.1136258840560913,-0.19214308261871338,-0.3902047574520111
1790943252570595000,0.251594970703125,1.5016210079193115,-0.3059506118297577,-0.2946375012397766
1790943252580626000,0.2616259765625,1.9007134437561035,-0.5519648790359497,-0.05053401365876198
1790943252590656000,0.271656005859375,2.1502697467803955,-0.9017626047134399,0.28360241651535034
1790943252600687000,0.28168701171875,2.2772226333618164,-1.137577772140503,0.6206619143486023
1790943252610717200,0.29171728515625,2.2408039569854736,-1.3237305879592896,0.8458535075187683
1790943252620746800,0.301746826171875,2.029183864593506,-1.553455114364624,0.8881940245628357
1790943252630777900,0.31177783203125,1.7356255054473877,-1.7976638078689575,0.7783093452453613
1790943252640808000,0.321807861328125,1.3457640409469604,-1.9939824342727661,0.5554744005203247
1790943252650838800,0.3318388671875,0.7531297206878662,-2.1331701278686523,0.21701674163341522
1790943252660868900,0.341868896484375,0.36362749338150024,-2.1658332347869873,-0.20880034565925598
1790943252670900000,0.35189990234375,0.3513559103012085,-2.2324678897857666,-0.6526334285736084
1790943252680929800,0.3619296875,0.8096686005592346,-2.3927462100982666,-1.0208103656768799
1790943252690960000,0.3719599609375,1.1982706785202026,-2.2744741439819336,-1.1500346660614014
1790943252700991000,0.381990966796875,0.5807172060012817,-1.9432849884033203,-1.2055944204330444
1790943252711021000,0.39202099609375,-0.10580286383628845,-1.6393572092056274,-1.3164538145065308
1790943252721052000,0.402052001953125,-0.14140106737613678,-1.4298964738845825,-1.3996541500091553
1790943252731082000,0.41208203125,0.13101661205291748,-1.3763538599014282,-1.4375793933868408
1790943252741112000,0.422112060546875,0.24916934967041016,-1.5309396982192993,-1.3914843797683716
1790943252751143000,0.432142822265625,0.1278351992368698,-1.7519950866699219,-1.2232996225357056
1790943252761173000,0.442173095703125,0.04815154895186424,-2.19293212890625,-1.0713835954666138
1790943252771204000,0.4522041015625,0.28494971990585327,-2.870241641998291,-1.049271583557129
1790943252781234000,0.46223388671875,0.6759569048881531,-3.778822660446167,-1.1346278190612793
1790943252791265000,0.47226513671875,1.03797447681427,-4.711553573608398,-1.1759374141693115
1790943252801295000,0.482295166015625,1.4814062118530273,-5.645755290985107,-1.0590981245040894
1790943252811325000,0.492324951171875,2.0469980239868164,-6.664326190948486,-0.8339555859565735
1790943252821356000,0.50235595703125,2.642638921737671,-7.459702491760254,-0.5720989108085632
1790943252831385900,0.5123857421875,3.063750743865967,-7.8736724853515625,-0.4423592984676361
1790943252841417000,0.5224169921875,3.2266433238983154,-7.673840522766113,-0.4635990858078003
1790943252851446800,0.53244677734375,3.3112146854400635,-7.0226054191589355,-0.5746393203735352
1790943252861478000,0.542477783203125,3.5044188499450684,-6.297371864318848,-0.8068627119064331
1790943252871508000,0.552508056640625,3.6036534309387207,-5.0556111335754395,-1.0111076831817627
1790943252881537800,0.562537841796875,3.8529655933380127,-4.4811296463012695,-0.8653925657272339
1790943252891569000,0.57256884765625,3.9843358993530273,-4.317718029022217,-0.7678559422492981
1790943252901599000,0.582598876953125,3.919857978820801,-3.973616361618042,-0.6253006458282471
1790943252911629800,0.5926298828125,3.8058536052703857,-3.330044746398926,-0.467542439699173
1790943252921660000,0.602659912109375,3.620802402496338,-2.821775436401367,-0.40500473976135254
1790943252931691000,0.61269091796875,3.3942854404449463,-2.463773012161255,-0.4106306731700897
1790943252941721000,0.62272119140625,3.2391738891601562,-2.187290906906128,-0.45741868019104004
1790943252951751000,0.6327509765625,3.080946922302246,-1.9757165908813477,-0.406538724899292
1790943252961782000,0.642781982421875,2.8615124225616455,-1.4683024883270264,-0.17709675431251526
1790943252971812000,0.65281201171875,2.567409038543701,-0.5424214601516724,0.09695078432559967
1790943252981843000,0.662843017578125,2.304774761199951,0.44761931896209717,0.28659287095069885
1790943252991873000,0.672873046875,2.039614677429199,1.4183872938156128,0.2751831114292145
1790943253001903000,0.682903076171875,1.4522582292556763,1.551131248474121,0.42682430148124695
1790943253011934200,0.692934326171875,0.8883394598960876,0.5872941017150879,0.7179021835327148
1790943253021964300,0.70296435546875,0.6107594966888428,-0.5705508589744568,0.9357684850692749
1790943253031995400,0.712995361328125,0.6371532678604126,-1.2124855518341064,0.7930493950843811
1790943253042025200,0.723025146484375,0.9502307772636414,-1.065751552581787,0.3763025403022766
1790943253052056000,0.73305615234375,1.2969917058944702,-0.49697914719581604,-0.0756196603178978
1790943253062086100,0.743086181640625,1.529623031616211,0.14245940744876862,-0.2848181426525116
1790943253072116200,0.7531162109375,1.5057635307312012,0.5030586123466492,-0.23241859674453735
1790943253082147000,0.76314697265625,1.3237113952636719,0.8331922888755798,-0.179021418094635
1790943253092177200,0.77317724609375,1.2714381217956543,1.1652536392211914,-0.2952055335044861
1790943253102208300,0.783208251953125,2.0274009704589844,3.2148702144622803,-1.0781745910644531
1790943253112238000,0.793238037109375,0.7519640326499939,4.048787593841553,-0.6574450135231018
1790943253122269200,0.803269287109375,1.1262189149856567,3.469594955444336,-0.08546323329210281
1790943253132299300,0.81329931640625,1.347585916519165,3.9045073986053467,-0.18745484948158264
1790943253142329300,0.823329345703125,1.165283441543579,3.6029481887817383,0.5651264786720276
1790943253152360200,0.833360107421875,0.9719461798667908,1.5172555446624756,1.1482104063034058
1790943253162390300,0.843390380859375,1.8137568235397339,0.19937542080879211,1.7310928106307983
1790943253172421000,0.853421142578125,1.9419001340866089,-0.5898486375808716,1.3350183963775635
1790943253182451200,0.863451171875,3.6092419624328613,-0.48422208428382874,0.7425891757011414
1790943253192481300,0.873481201171875,2.8068292140960693,0.7898962497711182,-1.5820881128311157
1790943253202512400,0.883512451171875,1.976792573928833,-1.0837204456329346,-1.9154815673828125
1790943253212542200,0.893542236328125,1.766469955444336,-2.9834227561950684,-0.0969739481806755
1790943253222573300,0.9035732421875,0.8679332733154297,-3.482409954071045,0.4296397864818573
1790943253232603400,0.913603271484375,0.9517911076545715,-3.0086865425109863,0.28627970814704895
1790943253242634200,0.92363427734375,1.1301600933074951,-2.0195958614349365,-0.06913059949874878
1790943253252664000,0.9336640625,1.155652403831482,-1.5378189086914062,-0.14081357419490814
1790943253262694100,0.943694091796875,0.9958965182304382,-1.7083749771118164,0.1445033848285675
1790943253272725000,0.95372509765625,0.7183589339256287,-2.1242904663085938,0.5068978071212769
1790943253282755000,0.963755126953125,0.5823257565498352,-2.319756269454956,0.7810057997703552
1790943253292786200,0.9737861328125,0.6348190307617188,-2.431957960128784,0.9884181022644043
1790943253302816300,0.983816162109375,0.6205080151557922,-2.906212329864502,0.9679919481277466
1790943253312847000,0.99384716796875,0.5579277276992798,-3.5083842277526855,0.8324998617172241
1790943253322877200,1.003877197265625,0.4902282953262329,-3.9546058177948,0.7729939222335815
1790943253332907300,1.0139072265625,0.3870236277580261,-4.2723259925842285,0.7707220315933228
1790943253342938000,1.023938232421875,0.308244913816452,-4.644853115081787,0.6056427955627441
1790943253352968200,1.03396826171875,0.261851042509079,-4.726472854614258,0.14488820731639862
1790943253362999300,1.043999267578125,0.5072139501571655,-4.197070121765137,-0.11559583991765976
1790943253373029000,1.054029052734375,0.4465652406215668,-3.583745002746582,-0.37372565269470215
1790943253383060200,1.064060302734375,0.6578394174575806,-2.6690850257873535,-0.6362688541412354
1790943253393090300,1.07409033203125,0.7842609882354736,-1.9465222358703613,-0.6379085779190063
1790943253403120400,1.084120361328125,1.007690668106079,-2.005640745162964,-0.760025680065155
1790943253413151200,1.094151123046875,1.1071583032608032,-3.068260669708252,-0.8355574607849121
1790943253423181300,1.104181396484375,0.6536797881126404,-3.6678130626678467,-0.726920485496521
1790943253433212200,1.114212158203125,0.6855714321136475,-4.12278938293457,-1.04020357131958
1790943253443242200,1.1242421875,1.245911955833435,-3.4743194580078125,-0.9716838598251343
1790943253453272000,1.13427197265625,2.0919463634490967,-2.4557149410247803,-1.1922476291656494
1790943253463303200,1.14430322265625,2.9035065174102783,-1.1658467054367065,-1.6387265920639038
1790943253473333200,1.154333251953125,3.4849984645843506,-0.0253362488001585,-2.0397136211395264
1790943253483364000,1.164364013671875,3.679311513900757,-0.09050992876291275,-1.9173028469085693
1790943253493394200,1.174394287109375,3.2846853733062744,-0.6915989518165588,-1.1746563911437988
1790943253503425000,1.184425048828125,2.941930055618286,-0.7243795394897461,-0.5249263644218445
1790943253513455000,1.194455078125,3.0866031646728516,-0.1070883721113205,-0.5416448712348938
1790943253523485200,1.204485107421875,3.4922187328338623,0.5009040832519531,-0.9526587724685669
1790943253533516300,1.214516357421875,3.652561664581299,1.3786293268203735,-1.2262998819351196
1790943253543546000,1.224546142578125,4.135539531707764,1.5114437341690063,-1.02049720287323
1790943253553577200,1.2345771484375,4.285603046417236,1.0687254667282104,-0.5255063772201538
1790943253563607300,1.244607177734375,3.8107690811157227,0.9829391837120056,-0.2293327897787094
1790943253573637000,1.25463720703125,3.367143392562866,1.6122928857803345,-0.4508878290653229
1790943253583668200,1.264668212890625,2.847618341445923,1.8480327129364014,-0.5916110873222351
1790943253593698300,1.2746982421875,2.16741943359375,1.915155053138733,-0.7085132002830505
1790943253603729200,1.284729248046875,1.6444233655929565,2.6040995121002197,-1.010109543800354
1790943253613759200,1.29475927734375,1.2836953401565552,2.7688257694244385,-1.0998010635375977
1790943253623790300,1.304790283203125,0.6740098595619202,2.7080042362213135,-1.1675667762756348
1790943253633820400,1.3148203125,0.1434868574142456,1.7632373571395874,-1.2767380475997925
1790943253643850000,1.32485009765625,-0.023616911843419075,0.6984704732894897,-0.7322936654090881
1790943253653881300,1.33488134765625,0.07801038026809692,0.08432819694280624,-0.09123750030994415
1790943253663911200,1.3449111328125,-0.1970938891172409,0.010307498276233673,0.2043965458869934
1790943253673942000,1.35494189453125,-0.6029362082481384,0.27100247144699097,0.2598179876804352
1790943253683972000,1.36497216796875,-0.834297239780426,0.5492061376571655,0.13644465804100037
1790943253694003200,1.375003173828125,-0.48491981625556946,0.584960401058197,0.017115604132413864
1790943253704033000,1.385032958984375,-0.060495566576719284,1.0275285243988037,0.01480291411280632
1790943253714063000,1.39506298828125,0.34860751032829285,1.1818491220474243,0.0718904361128807
1790943253724094200,1.40509423828125,0.6930538415908813,1.0385864973068237,0.17352811992168427
1790943253734124300,1.415124267578125,1.099161982536316,0.3608202338218689,0.3243706226348877
1790943253744155100,1.425155029296875,1.5939629077911377,-0.5238866806030273,0.4272216260433197
1790943253754185200,1.435185302734375,2.1835525035858154,-0.9172595143318176,0.3011148273944855
1790943253764216000,1.445216064453125,2.5052781105041504,-1.5013195276260376,0.18103556334972382
1790943253774246100,1.45524609375,2.5443031787872314,-2.1070432662963867,0.279924601316452
1790943253784276200,1.465276123046875,2.4289612770080566,-2.666748523712158,0.503142774105072
1790943253794307300,1.475307373046875,2.141150951385498,-3.276731014251709,0.6847003102302551
1790943253804337200,1.485337158203125,1.6950501203536987,-3.888598918914795,0.8084781765937805
1790943253814368300,1.4953681640625,1.0511422157287598,-3.678196668624878,0.8878587484359741
1790943253824398300,1.5053984375,0.26137301325798035,-2.6407666206359863,0.7289745807647705
1790943253834428400,1.515428466796875,-0.4513344168663025,-1.4095014333724976,0.6610631346702576
1790943253844459300,1.525459228515625,-0.9415070414543152,-0.5015779137611389,0.5096776485443115
1790943253854489000,1.535489013671875,-1.2188297510147095,-0.03726561367511749,0.25691860914230347
1790943253864520200,1.545520263671875,-1.3607264757156372,0.19064398109912872,-0.028682244941592216
1790943253874550000,1.555550048828125,-1.3882895708084106,0.3752537667751312,-0.24761991202831268
1790943253884581000,1.5655810546875,-1.2912259101867676,0.6223932504653931,-0.37831559777259827
1790943253894611200,1.575611083984375,-1.0960590839385986,0.7930850982666016,-0.4313220977783203
1790943253904641000,1.58564111328125,-0.835792064666748,0.7605854868888855,-0.30998289585113525
1790943253914672000,1.595672119140625,-0.5274510383605957,0.4457934498786926,0.02467045933008194
1790943253924702200,1.6057021484375,-0.18319964408874512,0.03952876850962639,0.3265109956264496
1790943253934733000,1.615733154296875,0.10455463826656342,-0.06875136494636536,0.409525990486145
1790943253944763100,1.62576318359375,0.7600946426391602,-0.062004249542951584,-0.08298942446708679
1790943253954793200,1.635793212890625,0.6672062873840332,0.14804938435554504,0.2873958349227905
1790943253964824300,1.64582421875,0.42462027072906494,1.213701844215393,0.9267539381980896
1790943253974854100,1.655854248046875,0.4118139147758484,1.8108185529708862,0.43817654252052307
1790943253984885200,1.66588525390625,0.4340566396713257,1.2765945196151733,-0.32264062762260437
1790943253994915300,1.675915283203125,0.4918301999568939,-0.027652932330965996,-1.005691409111023
1790943254004946200,1.6859462890625,0.5362309217453003,-1.2743204832077026,-1.1711444854736328
1790943254014976000,1.69597607421875,0.2890922725200653,-1.6176769733428955,-0.5808284878730774
1790943254025006000,1.706006103515625,-0.13866972923278809,-1.3792239427566528,0.39282503724098206
1790943254035037000,1.716036865234375,-0.559403657913208,-0.8920425772666931,1.3267375230789185
1790943254045067000,1.72606689453125,-0.7315594553947449,-0.2821597754955292,2.038421630859375
1790943254055098000,1.73609814453125,-0.2826186418533325,0.2453218698501587,2.3480606079101562
1790943254065128200,1.746128173828125,0.25965046882629395,0.6364129185676575,1.6793478727340698
1790943254075159000,1.756158935546875,0.652963399887085,0.9936573505401611,0.789620578289032
1790943254085189000,1.766189208984375,0.9534087181091309,1.5915812253952026,0.38703399896621704
1790943254095219200,1.77621923828125,1.1533362865447998,1.5305533409118652,-0.3820568323135376
1790943254105250000,1.78625,1.1373884677886963,0.6717016696929932,-0.8123541474342346
1790943254115280100,1.796280029296875,1.3563247919082642,-0.02912459522485733,-0.3287709653377533
1790943254125311200,1.806311279296875,1.1387261152267456,-0.137069970369339,0.452224463224411
1790943254135341000,1.816341064453125,0.7218082547187805,-1.2024548053741455,2.4428305625915527
1790943254145372200,1.8263720703125,0.6774749159812927,-2.4455463886260986,2.8640377521514893
1790943254155402200,1.83640234375,1.2112133502960205,-2.491863250732422,1.8193672895431519
1790943254165432000,1.84643212890625,2.0378756523132324,-0.9426043033599854,0.9431717991828918
1790943254175463000,1.856462890625,2.4802374839782715,0.25227218866348267,0.10241478681564331
1790943254185493000,1.866492919921875,2.467303514480591,0.4057736098766327,-0.5136691927909851
1790943254195524000,1.876524169921875,2.50626540184021,-0.11036112904548645,-1.0850436687469482
1790943254205554000,1.886553955078125,2.3585867881774902,-0.9488949179649353,-1.2307748794555664
1790943254215585000,1.8965849609375,1.855308175086975,-1.2517163753509521,-0.9383962154388428
1790943254225615000,1.906614990234375,1.2540428638458252,-0.7690008282661438,-0.8570204377174377
1790943254235645000,1.91664501953125,0.6898476481437683,0.07021211087703705,-0.9661697745323181
1790943254245676000,1.926676025390625,0.11434707790613174,0.3778167963027954,-1.0758811235427856
1790943254255706000,1.9367060546875,-0.15015088021755219,-0.031070034950971603,-1.0286062955856323
1790943254265737000,1.946737060546875,-0.2776430547237396,-0.5964993238449097,-0.9987639784812927
1790943254275767000,1.95676708984375,-0.12226945161819458,-0.8809606432914734,-0.8502365350723267
1790943254285798100,1.966798095703125,-0.08350474387407303,-0.6219027042388916,-0.8657337427139282
1790943254295828200,1.976828125,-0.0747823640704155,-0.3339236378669739,-0.9704042077064514
1790943254305859000,1.986859130859375,0.030793597921729088,-0.1908320039510727,-1.047325611114502
1790943254315889200,1.99688916015625,0.14305302500724792,-0.006602775305509567,-1.073989987373352
1790943254325919200,2.006919189453125,0.24821007251739502,0.14973384141921997,-1.106774091720581
1790943254335950000,2.0169501953125,0.3409019410610199,0.1345929652452469,-1.1965526342391968
1790943254345980200,2.026980224609375,0.34345749020576477,0.01558135636150837,-1.3278177976608276
1790943254356011300,2.03701123046875,0.32970067858695984,-0.21106456220149994,-1.4511711597442627
1790943254366041000,2.047041015625,0.41483181715011597,-0.45966559648513794,-1.6035712957382202
1790943254376072200,2.057072265625,0.5247519016265869,-0.551483690738678,-1.9495584964752197
1790943254386102000,2.06710205078125,0.3459707200527191,-0.647200882434845,-2.2315425872802734
1790943254396132000,2.077132080078125,0.2605479657649994,-0.7534292936325073,-2.453465461730957
1790943254406163000,2.087162841796875,0.19821375608444214,-0.7619580626487732,-2.618032932281494
1790943254416193000,2.097193115234375,0.10753525048494339,-0.7049877643585205,-2.7803046703338623
1790943254426223900,2.107223876953125,0.016161127015948296,-0.6029947996139526,-2.9598162174224854
1790943254436254000,2.11725390625,-0.014727813191711903,-0.5607650279998779,-3.1171820163726807
1790943254446285000,2.12728515625,0.06963340938091278,-0.7148821949958801,-3.250288248062134
1790943254456315100,2.137315185546875,0.23155413568019867,-0.9804097414016724,-3.36357045173645
1790943254466345000,2.147344970703125,0.44208288192749023,-1.2697312831878662,-3.4292688369750977
1790943254476376000,2.1573759765625,0.6939672827720642,-1.5034539699554443,-3.4873948097229004
1790943254486406100,2.16740625,0.9646792411804199,-1.5867949724197388,-3.636634111404419
1790943254496437000,2.17743701171875,1.2258743047714233,-1.4147007465362549,-3.859161853790283
1790943254506467000,2.187467041015625,1.472012996673584,-1.1421879529953003,-4.011300563812256
1790943254516498200,2.197498291015625,1.67837393283844,-1.2287276983261108,-4.036223411560059
1790943254526528000,2.207528076171875,1.8963874578475952,-1.7641338109970093,-4.029402256011963
1790943254536559000,2.21755908203125,2.1103856563568115,-2.302215814590454,-3.953587770462036
1790943254546589200,2.227589111328125,2.2666473388671875,-2.447213649749756,-3.863905191421509
1790943254556619300,2.237619384765625,2.327526807785034,-2.2006800174713135,-3.7706894874572754
1790943254566650000,2.247650146484375,2.4841883182525635,-1.7880042791366577,-3.7108607292175293
1790943254576680200,2.25768017578125,2.53159761428833,-1.5344737768173218,-3.606294631958008
1790943254586711300,2.267711181640625,2.442316770553589,-1.356108546257019,-3.3809218406677246
1790943254596740900,2.277740966796875,2.3966503143310547,-1.3420478105545044,-3.224076509475708
1790943254606772200,2.287772216796875,2.5245277881622314,-1.5956004858016968,-3.130937337875366
1790943254616802000,2.297802001953125,2.7557291984558105,-1.6183420419692993,-3.0852303504943848
1790943254626833000,2.3078330078125,2.829461097717285,-1.781773567199707,-3.051604986190796
1790943254636863000,2.317863037109375,2.9377434253692627,-1.8681166172027588,-3.009319543838501
1790943254646893000,2.32789306640625,2.98292875289917,-1.8702863454818726,-2.928457736968994
1790943254656924000,2.337923828125,3.079566240310669,-1.7527996301651,-2.8599050045013428
1790943254666954000,2.3479541015625,3.1514244079589844,-1.569290041923523,-2.7140679359436035
1790943254676985000,2.357985107421875,3.222583770751953,-1.3744494915008545,-2.569594383239746
1790943254687015200,2.36801513671875,3.2041561603546143,-1.1730563640594482,-2.442074775695801
1790943254697046000,2.3780458984375,3.2344183921813965,-0.7673653364181519,-2.322596549987793
1790943254707076000,2.388076171875,3.1649816036224365,-0.5311344265937805,-2.3342204093933105
1790943254717106200,2.398106201171875,3.160470485687256,-0.3016189634799957,-2.3953871726989746
1790943254727137000,2.408136962890625,3.0996737480163574,-0.12344923615455627,-2.3590247631073
1790943254737167000,2.4181669921875,3.077833414077759,-0.03157257288694382,-2.2837748527526855
1790943254747198200,2.4281982421875,3.08427095413208,-0.18196101486682892,-2.2110798358917236
1790943254757228000,2.43822802734375,3.12104868888855,-0.385095477104187,-2.158836841583252
1790943254767259100,2.448259033203125,3.15012264251709,-0.46533361077308655,-2.118849992752075
1790943254777289200,2.458289306640625,2.969830274581909,-0.6683173179626465,-2.1207549571990967
1790943254787320000,2.468320068359375,2.767740249633789,-0.8463587164878845,-2.099567413330078
1790943254797350100,2.47835009765625,2.4452860355377197,-0.9731126427650452,-2.019373655319214
1790943254807380000,2.4883798828125,2.1347591876983643,-1.0614243745803833,-1.8986232280731201
1790943254817411000,2.4984111328125,1.842383623123169,-1.081546425819397,-1.7765496969223022
1790943254827441000,2.50844091796875,1.5891625881195068,-1.0702762603759766,-1.709233045578003
1790943254837472000,2.518471923828125,1.339985966682434,-1.050300121307373,-1.6175241470336914
1790943254847502000,2.528502197265625,1.1694227457046509,-0.9155681729316711,-1.4856414794921875
1790943254857533000,2.538532958984375,0.9507597088813782,-0.769591212272644,-1.2813533544540405
1790943254867563000,2.54856298828125,0.7275106310844421,-0.7291753888130188,-1.105672001838684
1790943254877593000,2.558593017578125,0.6707967519760132,-0.659750759601593,-0.9320400357246399
1790943254887624000,2.5686240234375,0.7227222323417664,-0.4378527104854584,-0.7128323316574097
1790943254897654000,2.578654052734375,0.7921737432479858,-0.21320068836212158,-0.5706078410148621
1790943254907685000,2.58868505859375,0.7493381500244141,0.06671778112649918,-0.40463802218437195
1790943254917715200,2.598715087890625,0.4479900300502777,0.22468610107898712,-0.22995410859584808
1790943254927746000,2.60874609375,0.25415876507759094,0.2662753462791443,-0.08708509802818298
1790943254937776000,2.618776123046875,-0.04099137336015701,0.11189378052949905,0.08602143079042435
1790943254947807000,2.628806884765625,-0.3345734477043152,0.09242500364780426,0.32698318362236023
1790943254957837000,2.638837158203125,-0.6380265355110168,-0.025379657745361328,0.47073954343795776
1790943254967867100,2.6488671875,-0.9023050665855408,-0.09790153056383133,0.6197322010993958
1790943254977898200,2.658898193359375,-1.1322021484375,-0.22875355184078217,0.7463881969451904
1790943254987928000,2.668927978515625,-1.3165030479431152,-0.3465600907802582,0.9125002026557922
1790943254997959200,2.678959228515625,-1.4713189601898193,-0.4031112492084503,1.0822697877883911
1790943255007989200,2.6889892578125,-1.5990008115768433,-0.34931352734565735,1.1816357374191284
1790943255018019800,2.699019775390625,-1.667761206626892,-0.24515889585018158,1.1917344331741333
1790943255028050000,2.7090498046875,-1.6906065940856934,-0.18304412066936493,1.1797699928283691
1790943255038080000,2.719080078125,-1.708265781402588,-0.1566370129585266,1.2137726545333862
1790943255048110800,2.72911083984375,-1.743154764175415,-0.06493958830833435,1.2742294073104858
1790943255058141000,2.739140869140625,-1.7912757396697998,0.0649598240852356,1.332050085067749
1790943255068172000,2.749172119140625,-1.8444907665252686,0.1784464418888092,1.4096436500549316
1790943255078202000,2.7592021484375,-1.9178922176361084,0.20307642221450806,1.531689167022705
1790943255088233000,2.76923291015625,-1.974859595298767,0.24416446685791016,1.632046103477478
1790943255098263000,2.779262939453125,-2.0215117931365967,0.2300395965576172,1.685547947883606
1790943255108294000,2.7892939453125,-1.9863322973251343,0.24973154067993164,1.6988328695297241
1790943255118324000,2.799323974609375,-1.9479124546051025,0.23845012485980988,1.718955159187317
1790943255128354000,2.80935400390625,-1.917992353439331,0.2729628384113312,1.7463077306747437
1790943255138385200,2.81938525390625,-1.9428249597549438,0.30215558409690857,1.768345594406128
1790943255148415000,2.8294150390625,-1.9140511751174927,0.4107033908367157,1.751062273979187
1790943255158446000,2.839446044921875,-1.8298912048339844,0.44616204500198364,1.7224446535110474
1790943255168476000,2.849475830078125,-1.8027863502502441,0.37014901638031006,1.7157423496246338
1790943255178507000,2.859507080078125,-1.7901827096939087,0.32968974113464355,1.7367520332336426
1790943255188536800,2.869536865234375,-1.7684412002563477,0.33181920647621155,1.7152820825576782
1790943255198568000,2.87956787109375,-1.7085256576538086,0.2854812741279602,1.705564260482788
1790943255208598000,2.889597900390625,-1.6981449127197266,0.1877344846725464,1.7350246906280518
1790943255218627800,2.8996279296875,-1.7221903800964355,0.03412548080086708,1.7526646852493286
1790943255228659000,2.909658935546875,-1.6780558824539185,-0.11783342808485031,1.7548332214355469
1790943255238689000,2.91968896484375,-1.7348757982254028,-0.07955154776573181,1.729781985282898
1790943255248720000,2.929719970703125,-1.9135477542877197,-0.058475561439991,1.7586687803268433
1790943255258750000,2.93975,-1.9848147630691528,-0.19687524437904358,1.7397392988204956
1790943255268781000,2.949781005859375,-2.0190012454986572,-0.32136258482933044,1.693165898323059
1790943255278811000,2.959810791015625,-1.9826322793960571,-0.37454459071159363,1.6183217763900757
1790943255288841000,2.969841064453125,-1.9926338195800781,-0.5502365231513977,1.5637269020080566
1790943255298872000,2.9798720703125,-2.082390069961548,-0.8289147615432739,1.4846817255020142
1790943255308902100,2.989902099609375,-2.166844606399536,-0.9463266134262085,1.4104082584381104
1790943255318933000,2.99993310546875,-2.236943244934082,-0.9314778447151184,1.3721606731414795
1790943255328963000,3.009963134765625,-2.4144814014434814,-0.8497297167778015,1.3942079544067383
1790943255338994000,3.019993896484375,-2.6115546226501465,-0.7424765229225159,1.4385855197906494
1790943255349024000,3.03002392578125,-2.664497137069702,-0.3590271472930908,1.5185253620147705
1790943255359055000,3.04005517578125,-2.4712095260620117,0.09941713511943817,1.5649826526641846
1790943255369085200,3.050085205078125,-2.2434630393981934,0.5394113063812256,1.5884019136428833
1790943255379114800,3.06011474609375,-2.0313074588775635,0.878744900226593,1.598942756652832
1790943255389146000,3.07014599609375,-1.8923546075820923,1.1479920148849487,1.5779404640197754
1790943255399176000,3.080176025390625,-1.698231816291809,1.2939039468765259,1.6041505336761475
1790943255409206800,3.090206787109375,-1.4593517780303955,0.928586483001709,1.7158563137054443
1790943255419236900,3.10023681640625,-1.388614296913147,0.17351026833057404,1.8671963214874268
1790943255429268000,3.11026806640625,-1.4618581533432007,-0.037041641771793365,1.9129600524902344
1790943255439297800,3.1202978515625,-1.624902367591858,0.442062109708786,1.7639223337173462
1790943255449329000,3.130328857421875,-1.7713589668273926,0.6776860952377319,1.5734645128250122
1790943255459359000,3.14035888671875,-1.896544337272644,0.47122132778167725,1.4439622163772583
1790943255469389000,3.15038916015625,-1.9857280254364014,0.01672252081334591,1.3680589199066162
1790943255479420000,3.160419921875,-2.01313853263855,-0.4638710021972656,1.3119362592697144
1790943255489450000,3.170449951171875,-1.8628838062286377,-0.7440707087516785,1.170214056968689
1790943255499481000,3.180481201171875,-1.5722160339355469,-0.8154455423355103,0.9922717213630676
1790943255509511000,3.190510986328125,-1.2840747833251953,-0.789318859577179,0.8917919993400574
1790943255519542000,3.2005419921875,-1.1415916681289673,-0.6748191714286804,0.8999178409576416
1790943255529572000,3.210572021484375,-1.1627782583236694,-0.6591137051582336,0.9391927719116211
1790943255539603000,3.22060302734375,-1.2875027656555176,-0.7299261093139648,1.0019456148147583
1790943255549633000,3.230633056640625,-1.4798941612243652,-0.8752921223640442,1.0871937274932861
1790943255559663000,3.2406630859375,-1.6745394468307495,-0.9862841367721558,1.137877345085144
1790943255569694000,3.25069384765625,-1.8036713600158691,-0.9800182580947876,1.1726462841033936
1790943255579724000,3.26072412109375,-1.846636414527893,-0.8695300817489624,1.2257825136184692
1790943255589755100,3.270755126953125,-1.828951120376587,-0.7379320859909058,1.2813026905059814
1790943255599785200,3.28078515625,-1.7579259872436523,-0.656165599822998,1.315786361694336
1790943255609816000,3.290816162109375,-1.6512235403060913,-0.6591315865516663,1.3392797708511353
1790943255619846000,3.300845947265625,-1.4961010217666626,-0.6874294877052307,1.2916288375854492
1790943255629877000,3.310876953125,-1.2613787651062012,-0.7507402896881104,1.1050347089767456
1790943255639906800,3.32090673828125,-1.047997236251831,-0.9333947896957397,0.8396643400192261
1790943255649937000,3.33093701171875,-0.8833646774291992,-1.1108242273330688,0.6134330630302429
1790943255659968000,3.340968017578125,-0.7874637246131897,-1.1236283779144287,0.5091100931167603
1790943255669997800,3.350997802734375,-0.7536173462867737,-0.9197764992713928,0.5875740051269531
1790943255680029000,3.36102880859375,-0.80694180727005,-0.5825145244598389,0.8974354863166809
1790943255690059000,3.37105908203125,-0.8353742361068726,-0.2688075006008148,1.2662243843078613
1790943255700089900,3.38108984375,-0.828386127948761,-0.10619248449802399,1.442636489868164
1790943255710120000,3.391119873046875,-0.6938163042068481,-0.2955016791820526,1.3880749940872192
1790943255720151000,3.401151123046875,-0.46165284514427185,-0.7530961632728577,1.097081184387207
1790943255730180900,3.411180908203125,-0.23454779386520386,-1.1797734498977661,0.6171183586120605
1790943255740211000,3.4212109375,0.028061462566256523,-1.25486421585083,0.18751344084739685
1790943255750242000,3.431241943359375,0.16184642910957336,-1.1049684286117554,-0.10492188483476639
1790943255760272100,3.441272216796875,0.14953462779521942,-0.8220363259315491,-0.341643363237381
1790943255770303000,3.451302978515625,0.06229719519615173,-0.49429282546043396,-0.47770506143569946
1790943255780333000,3.4613330078125,-0.1420828402042389,-0.2522761821746826,-0.5405663251876831
1790943255790364000,3.471364013671875,-0.4146917164325714,-0.09765172749757767,-0.5058613419532776
1790943255800394000,3.48139404296875,-0.6734143495559692,0.10852647572755814,-0.3421589434146881
1790943255810425000,3.491425048828125,-0.8493755459785461,0.5155472159385681,-0.09180981665849686
1790943255820455200,3.501455078125,-0.9541615843772888,0.9656736850738525,0.1683107167482376
1790943255830485000,3.511485107421875,-1.0037541389465332,1.1972994804382324,0.46949025988578796
1790943255840516000,3.52151611328125,-0.9945830702781677,1.1382135152816772,0.7759900093078613
1790943255850546000,3.5315458984375,-0.9290381669998169,0.7947935461997986,0.9953175783157349
1790943255860576800,3.54157666015625,-0.8291155695915222,0.21429897844791412,1.055627465248108
1790943255870606800,3.55160693359375,-0.6904883980751038,-0.38787397742271423,0.9204773902893066
1790943255880638000,3.561637939453125,-0.4999653398990631,-0.6876974105834961,0.636742353439331
1790943255890668000,3.57166796875,-0.3176506757736206,-0.6314147114753723,0.3296807110309601
1790943255900699000,3.581698974609375,-0.2034151703119278,-0.39520618319511414,0.09676729142665863
1790943255910729000,3.59172900390625,-0.15770334005355835,-0.14551645517349243,-0.02592906914651394
1790943255920759000,3.601759033203125,-0.18446917831897736,-0.03341441601514816,-0.05229676142334938
1790943255930790000,3.611789794921875,-0.26625457406044006,-0.08138513565063477,-0.001106809708289802
1790943255940820000,3.621820068359375,-0.34350916743278503,-0.18337568640708923,0.10355089604854584
1790943255950851000,3.63185107421875,-0.38041844964027405,-0.19746220111846924,0.1847727745771408
1790943255960881000,3.641880859375,-0.35081207752227783,-0.15330539643764496,0.19746993482112885
1790943255970912000,3.651912109375,-0.27920714020729065,-0.17786826193332672,0.1615646630525589
1790943255980942000,3.661942138671875,-0.18487663567066193,-0.3067846894264221,0.10219720751047134
1790943255990973000,3.671972900390625,-0.08554792404174805,-0.4783764183521271,0.03605547174811363
1790943256001003000,3.6820029296875,0.004701011814177036,-0.6319193840026855,-0.019895145669579506
1790943256011032800,3.69203271484375,0.05333246290683746,-0.765475869178772,-0.05481318011879921
1790943256021063700,3.702063720703125,0.05997492000460625,-0.8807848691940308,-0.0642213299870491
1790943256031093800,3.71209375,0.03345303237438202,-0.9247738718986511,-0.06081967428326607
1790943256041124900,3.722124755859375,-0.006232063286006451,-0.9159734845161438,-0.05013613775372505
1790943256051155000,3.732155029296875,-0.0363372340798378,-0.8950104117393494,-0.03492016717791557
1790943256061185800,3.742185791015625,-0.06772232055664062,-0.8503907322883606,-0.00509755639359355
1790943256071215600,3.752215576171875,-0.09993591904640198,-0.7923647165298462,0.021331919357180595
1790943256081247000,3.7622470703125,-0.12042254954576492,-0.7517997026443481,0.02833843044936657
1790943256091276500,3.772276611328125,-0.11993412673473358,-0.7731569409370422,-0.0014290522085502744
1790943256101306600,3.782306640625,-0.1090037152171135,-0.8689844012260437,-0.06621044874191284
1790943256111337700,3.792337646484375,-0.11732582747936249,-1.0037840604782104,-0.15497466921806335
1790943256121367800,3.802367919921875,-0.13668620586395264,-1.0644279718399048,-0.24955230951309204
1790943256131398700,3.812398681640625,-0.18360045552253723,-1.0654947757720947,-0.34120258688926697
1790943256141428700,3.8224287109375,-0.1914471983909607,-1.09334397315979,-0.3830887973308563
1790943256151459600,3.83245947265625,-0.2129591405391693,-1.1616913080215454,-0.3940615653991699
1790943256161489700,3.84248974609375,-0.2865161895751953,-1.1947808265686035,-0.4052462875843048
1790943256171520800,3.852520751953125,-0.3447592556476593,-1.1222022771835327,-0.41928595304489136
1790943256181550800,3.86255078125,-0.3236773908138275,-1.0087507963180542,-0.4050412178039551
1790943256191580700,3.87258056640625,-0.2196063995361328,-1.0023478269577026,-0.30983614921569824
1790943256201611800,3.88261181640625,0.024812672287225723,-1.1418944597244263,-0.23543834686279297
1790943256211641900,3.892641845703125,0.32921916246414185,-1.4191367626190186,-0.30936184525489807
1790943256221672700,3.902672607421875,0.5517233610153198,-1.6158699989318848,-0.4954395592212677
1790943256231702800,3.912702880859375,0.6606724858283997,-1.7697077989578247,-0.6441526412963867
1790943256241734000,3.92273388671875,0.6267440915107727,-1.8875415325164795,-0.7019264101982117
1790943256251763700,3.932763671875,0.4543169140815735,-1.8900195360183716,-0.7074415683746338
1790943256261793800,3.942793701171875,0.16859593987464905,-1.6618175506591797,-0.7119691967964172
1790943256271825000,3.952824951171875,-0.20595236122608185,-1.1904447078704834,-0.7182484269142151
1790943256281854700,3.962854736328125,-0.5633118152618408,-0.702651858329773,-0.6366403698921204
1790943256291885800,3.9728857421875,-0.8563703298568726,-0.27936026453971863,-0.459664523601532
1790943256301915600,3.98291552734375,-1.1005496978759766,-0.05019019916653633,-0.22726218402385712
1790943256311946800,3.99294677734375,-1.2092245817184448,-0.10006694495677948,0.049555301666259766
1790943256321976600,4.0029765625,-1.1917999982833862,-0.29963839054107666,0.26615896821022034
1790943256332007700,4.013007568359375,-1.042323112487793,-0.41710108518600464,0.3236731290817261
1790943256342037800,4.023037841796875,-0.7623005509376526,-0.29721489548683167,0.3073394298553467
1790943256352067600,4.033067626953125,-0.4844529628753662,-0.031927041709423065,0.2702448070049286
1790943256362098700,4.0430986328125,-0.26272934675216675,-0.008958874270319939,0.19091136753559113
1790943256372128800,4.053128662109375,-0.046248190104961395,-0.3297504782676697,0.09878410398960114
1790943256382159600,4.06315966796875,0.11918231844902039,-0.791790783405304,0.01104732509702444
1790943256392189700,4.073189697265625,0.19749575853347778,-1.1317672729492188,-0.09699498862028122
1790943256402220800,4.083220703125,0.2217063009738922,-1.26219642162323,-0.217055082321167
1790943256412251000,4.0932509765625,0.20057064294815063,-1.2150866985321045,-0.29656827449798584
1790943256422281700,4.10328173828125,0.12241192907094955,-1.0615839958190918,-0.29096606373786926
1790943256432311800,4.113311767578125,0.009987386874854565,-0.8163731098175049,-0.216755211353302
1790943256442342000,4.123341796875,-0.08998794853687286,-0.535870373249054,-0.14368979632854462
1790943256452372700,4.133372802734375,-0.14440111815929413,-0.30636152625083923,-0.12675368785858154
1790943256462402800,4.14340283203125,-0.1537642627954483,-0.20684611797332764,-0.17998787760734558
1790943256472434000,4.153433837890625,-0.14492842555046082,-0.25311189889907837,-0.2659142315387726
1790943256482463700,4.163463623046875,-0.12119113653898239,-0.4255499839782715,-0.3249357342720032
1790943256492494800,4.173494873046875,-0.08532848209142685,-0.7034130096435547,-0.3467180132865906
1790943256502525000,4.18352490234375,-0.035592880100011826,-0.979090690612793,-0.3419688045978546
1790943256512555800,4.1935556640625,0.2006119340658188,-1.192197322845459,-0.2968662977218628
1790943256522585600,4.203585693359375,0.9542489647865295,-1.6869127750396729,-0.26536375284194946
1790943256532615700,4.21361572265625,0.35395514965057373,-2.375953197479248,-0.37879258394241333
1790943256542646500,4.223646484375,0.43979522585868835,-2.687605381011963,-0.29178738594055176
1790943256552676600,4.233676513671875,0.3954639732837677,-2.657418966293335,-0.17486262321472168
1790943256562707700,4.243707763671875,0.38900047540664673,-2.4286231994628906,-0.04447958245873451
1790943256572737800,4.25373779296875,0.37459516525268555,-2.1687753200531006,0.04403110593557358
1790943256582768600,4.2637685546875,0.40802690386772156,-1.970292568206787,0.03538116067647934
1790943256592798700,4.273798828125,0.4240857660770416,-1.8046671152114868,-0.07635282725095749
1790943256602829600,4.28382958984375,0.424241304397583,-1.646921157836914,-0.20581254363059998
1790943256612859600,4.293859619140625,0.35366061329841614,-1.5295610427856445,-0.2871324419975281
1790943256622889700,4.3038896484375,0.2747737765312195,-1.3334583044052124,-0.3217543363571167
1790943256632920800,4.3139208984375,0.14389938116073608,-1.1516927480697632,-0.27013054490089417
1790943256642950700,4.32395068359375,0.08944865316152573,-0.8343260288238525,-0.2156236320734024
1790943256652981800,4.333981689453125,0.01780536212027073,-0.5291136503219604,-0.1354859173297882
1790943256663011800,4.34401171875,-0.05692213773727417,-0.32726147770881653,-0.07053674757480621
1790943256673042700,4.354042724609375,-0.10463666170835495,-0.17998388409614563,-0.04951029643416405
1790943256683072800,4.36407275390625,-0.12717047333717346,-0.08869391679763794,-0.05594662204384804
1790943256693103900,4.374103759765625,-0.14277739822864532,-0.01864718832075596,-0.06482347100973129
1790943256703133700,4.3841337890625,-0.1746959090232849,0.017536116763949394,-0.028779983520507812
1790943256713163800,4.394163818359375,-0.18721729516983032,0.09651162475347519,0.0030029804911464453
1790943256723195000,4.40419482421875,-0.2062482386827469,0.10372719168663025,0.012083561159670353
1790943256733224700,4.414224609375,-0.23148275911808014,0.03982038423418999,0.02111007831990719
1790943256743255800,4.424255859375,-0.23405350744724274,-0.017299361526966095,0.027774905785918236
1790943256753285600,4.43428564453125,-0.21741674840450287,-0.0436132587492466,0.020557738840579987
1790943256763316700,4.444316650390625,-0.21472162008285522,-0.09017889201641083,0.029567480087280273
1790943256773346600,4.4543466796875,-0.22691969573497772,-0.1152818500995636,0.0552520714700222
1790943256783377700,4.464377685546875,-0.23981313407421112,-0.09056132286787033,0.08483260124921799
1790943256793407700,4.47440771484375,-0.26433390378952026,-0.00932985171675682,0.09565115720033646
1790943256803437800,4.484437744140625,-0.2896680235862732,0.14539740979671478,0.0913618728518486
1790943256813468700,4.49446875,-0.33529171347618103,0.33505523204803467,0.08395375311374664
1790943256823498800,4.504498779296875,-0.3887200355529785,0.5461339354515076,0.07930387556552887
1790943256833529600,4.514529541015625,-0.4605305790901184,0.7249230742454529,0.08859271556138992
1790943256843559700,4.5245595703125,-0.5223782658576965,0.9062747955322266,0.10869425535202026
1790943256853590800,4.5345908203125,-0.5650237202644348,1.0882517099380493,0.13909077644348145
1790943256863620900,4.544620849609375,-0.5725604295730591,1.3116707801818848,0.1612461507320404
1790943256873651700,4.554651611328125,-0.5480884313583374,1.552984595298767,0.1708867847919464
1790943256883681800,4.564681884765625,-0.47123730182647705,1.754812240600586,0.19850003719329834
1790943256893712000,4.5747119140625,-0.3749467134475708,1.8060634136199951,0.26940298080444336
1790943256903742700,4.58474267578125,-0.30830350518226624,1.6592081785202026,0.3656115233898163
1790943256913772800,4.594772705078125,-0.34500986337661743,1.4548801183700562,0.4677882492542267
1790943256923804000,4.604803955078125,-0.5219372510910034,1.3151535987854004,0.5444121956825256
1790943256933833700,4.614833740234375,-0.4966723620891571,1.244171380996704,0.6287872195243835
1790943256943864800,4.62486474609375,-0.3022373616695404,1.1608532667160034,0.6895020008087158
1790943256953895000,4.63489501953125,-0.18617039918899536,1.0314414501190186,0.640099823474884
1790943256963925800,4.64492578125,-0.10353757441043854,0.9901190996170044,0.5389057993888855
1790943256973955600,4.65495556640625,-0.026189792901277542,1.0718836784362793,0.44324907660484314
1790943256983985700,4.664985595703125,0.027668645605444908,1.1833162307739258,0.3777361214160919
1790943256994016800,4.675016845703125,0.05974002927541733,1.2962052822113037,0.34576910734176636
1790943257004046600,4.685046630859375,0.09374327212572098,1.430220603942871,0.335373193025589
1790943257014077400,4.695077392578125,0.11970669031143188,1.5658916234970093,0.3319867253303528
1790943257024107500,4.705107421875,0.12798327207565308,1.6484378576278687,0.3522275388240814
1790943257034138400,4.715138427734375,0.11864302307367325,1.6855943202972412,0.410200834274292
1790943257044168400,4.72516845703125,0.10144539922475815,1.7042672634124756,0.5021595358848572
1790943257054199600,4.735199462890625,0.08281365782022476,1.7392373085021973,0.5953885316848755
1790943257064229400,4.7452294921875,0.0805041640996933,1.7746506929397583,0.6720148921012878
1790943257074260500,4.755260498046875,0.10804657638072968,1.7770805358886719,0.7167538404464722
1790943257084290600,4.76529052734375,0.16825026273727417,1.7505348920822144,0.7235140204429626
1790943257094320600,4.775320556640625,0.23882749676704407,1.6933642625808716,0.6975388526916504
1790943257104351500,4.7853515625,0.30234494805336,1.6351361274719238,0.6476645469665527
1790943257114381600,4.795381591796875,0.35579830408096313,1.5889779329299927,0.6016347408294678
1790943257124412400,4.805412353515625,0.38518497347831726,1.5512559413909912,0.5759634375572205
1790943257134442500,4.8154423828125,0.39575424790382385,1.5102216005325317,0.5758792757987976
1790943257144473600,4.8254736328125,0.39501336216926575,1.483611822128296,0.573759913444519
1790943257154503700,4.835503662109375,0.38257426023483276,1.4761803150177002,0.5558621883392334
1790943257164534500,4.845534423828125,0.3647870123386383,1.489052414894104,0.5062655806541443
1790943257174564600,4.855564697265625,0.3463699221611023,1.4953672885894775,0.4334241449832916
1790943257184594400,4.865594482421875,0.3363915979862213,1.4504070281982422,0.3514597713947296
1790943257194625300,4.875625244140625,0.3335081934928894,1.3409143686294556,0.26329874992370605
1790943257204655400,4.8856552734375,0.3277709484100342,1.1984325647354126,0.15029442310333252
1790943257214686500,4.8956865234375,0.3122042417526245,1.0820668935775757,0.02743801660835743
1790943257224716500,4.905716552734375,0.30461716651916504,1.014055848121643,-0.10389231145381927
1790943257234747400,4.915747314453125,0.3068147897720337,0.9622719883918762,-0.25507810711860657
1790943257244777500,4.925777587890625,0.31084921956062317,0.9020893573760986,-0.44284534454345703
1790943257254808300,4.935808349609375,0.2918584942817688,0.8612162470817566,-0.6484498977661133
1790943257264838400,4.94583837890625,0.2456774115562439,0.8484460711479187,-0.8179784417152405
1790943257274869500,4.955869384765625,0.18464148044586182,0.7903849482536316,-0.899976909160614
1790943257284899600,4.965899658203125,0.16418707370758057,0.6227471828460693,-0.8757272362709045
1790943257294930400,4.975930419921875,0.24463024735450745,0.39351481199264526,-0.7567111253738403
1790943257304960500,4.98596044921875,0.4434235095977783,0.21173781156539917,-0.6203873753547668
1790943257314990600,4.995990478515625,0.679183304309845,0.11688534170389175,-0.5458305478096008
1790943257325021400,5.006021484375,0.8710107803344727,0.01630786620080471,-0.5821741819381714
1790943257335051500,5.016051513671875,0.9954128861427307,-0.13427551090717316,-0.7256370782852173
1790943257345082600,5.02608251953125,1.0524612665176392,-0.2663733661174774,-0.9378989934921265
1790943257355112400,5.036112548828125,1.032164216041565,-0.33790719509124756,-1.18276846408844
1790943257365143600,5.0461435546875,0.950107753276825,-0.4094335734844208,-1.4554047584533691
1790943257375173600,5.056173583984375,0.8192141652107239,-0.4971349537372589,-1.7851040363311768
1790943257385204500,5.06620458984375,0.722594141960144,-0.5688123106956482,-2.1808340549468994
1790943257395234600,5.076234619140625,0.6917912364006042,-0.6248977184295654,-2.6264240741729736
1790943257405265700,5.086265625,0.6667612791061401,-0.8098025918006897,-3.0908892154693604
1790943257415295500,5.09629541015625,0.6428031921386719,-1.2097249031066895,-3.467592477798462
1790943257425326600,5.10632666015625,0.7060599327087402,-1.6621915102005005,-3.663773775100708
1790943257435356400,5.1163564453125,0.8705761432647705,-1.9336256980895996,-3.695584535598755
1790943257445386500,5.126386474609375,1.1689940690994263,-1.920178771018982,-3.719045400619507
1790943257455417300,5.136417236328125,1.4530137777328491,-1.5355446338653564,-3.697844982147217
1790943257465447400,5.146447509765625,1.5939998626708984,-1.1526679992675781,-3.592876434326172
1790943257475478500,5.156478515625,1.6727367639541626,-0.870456337928772,-3.4919464588165283
1790943257485508400,5.16650830078125,1.7234567403793335,-0.8498261570930481,-3.369731903076172
1790943257495539500,5.17653955078125,1.6453126668930054,-1.1464130878448486,-3.217507839202881
1790943257505569500,5.186569580078125,1.533956527709961,-1.3106882572174072,-3.201597213745117
1790943257515600400,5.196600341796875,1.4897406101226807,-1.376664161682129,-3.286229372024536
1790943257525630500,5.20663037109375,1.519087314605713,-1.3871047496795654,-3.424915075302124
1790943257535661600,5.21666162109375,1.5856831073760986,-1.3518307209014893,-3.6304547786712646
1790943257545691400,5.22669140625,1.6259416341781616,-1.2182694673538208,-3.7415788173675537
1790943257555722500,5.236722412109375,1.623905062675476,-1.1737165451049805,-3.747898578643799
1790943257565752600,5.246752685546875,1.6132258176803589,-1.1533024311065674,-3.6683123111724854
1790943257575782700,5.25678271484375,1.5929434299468994,-1.2217451333999634,-3.598437786102295
1790943257585813500,5.2668134765625,1.5020718574523926,-1.5188093185424805,-3.5644829273223877
1790943257595843600,5.276843505859375,1.3385577201843262,-1.9347569942474365,-3.529280662536621
1790943257605874400,5.28687451171875,1.2563025951385498,-2.2179040908813477,-3.412376642227173
1790943257615904500,5.296904541015625,1.2647106647491455,-2.1005258560180664,-3.281479597091675
1790943257625935600,5.306935546875,1.278192400932312,-1.756615161895752,-3.171783208847046
1790943257635965700,5.316965576171875,1.327499508857727,-1.343059778213501,-3.0443978309631348
1790943257645996500,5.32699658203125,1.3784343004226685,-1.1184847354888916,-2.9045891761779785
1790943257656026600,5.337026611328125,1.430774450302124,-1.147888422012329,-2.722266435623169
1790943257666057500,5.347057373046875,1.4646648168563843,-1.202958345413208,-2.5480198860168457
1790943257676087300,5.35708740234375,1.498384952545166,-1.2457473278045654,-2.397761106491089
1790943257686118700,5.36711865234375,1.525873064994812,-1.2170076370239258,-2.2493934631347656
1790943257696148500,5.3771484375,1.5203688144683838,-1.0476391315460205,-2.1166203022003174
1790943257706178300,5.38717822265625,1.4494671821594238,-0.8020690083503723,-1.940787434577942
1790943257716209400,5.39720947265625,1.3447648286819458,-0.565679132938385,-1.711390733718872
1790943257726239500,5.407239501953125,1.2411097288131714,-0.41707178950309753,-1.4531344175338745
1790943257736270300,5.417270263671875,1.1570936441421509,-0.2703723609447479,-1.188377857208252
1790943257746300400,5.427300537109375,1.1059141159057617,-0.15753263235092163,-0.9359815120697021
1790943257756331500,5.43733154296875,0.9887198805809021,-0.09275949746370316,-0.6706020832061768
1790943257766361600,5.447361572265625,0.8367774486541748,-0.09298267215490341,-0.4275214970111847
1790943257776392400,5.457392333984375,0.7340731620788574,-0.05444060638546944,-0.25485706329345703
1790943257786422500,5.467422607421875,0.6451755166053772,0.03590553626418114,-0.1362963169813156
1790943257796453400,5.477453369140625,0.5612390637397766,0.054972440004348755,-0.05636926740407944
1790943257806483500,5.4874833984375,0.409673273563385,-0.1657271832227707,-0.04929031804203987
1790943257816514600,5.4975146484375,0.1658981591463089,-0.29144543409347534,0.0019707391038537025
1790943257826544600,5.507544677734375,0.008463259786367416,-0.2855888605117798,0.08473885804414749
1790943257836574500,5.517574462890625,-0.1126842051744461,-0.2901703119277954,0.16270822286605835
1790943257846605600,5.52760546875,-0.2601895034313202,-0.3025446832180023,0.24789714813232422
1790943257856635600,5.5376357421875,-0.3599430024623871,-0.32396236062049866,0.2824218273162842
1790943257866666500,5.54766650390625,-0.39883953332901,-0.30164268612861633,0.3000088334083557
1790943257876696600,5.557696533203125,-0.4098255932331085,-0.2612079083919525,0.290162593126297
1790943257886727700,5.567727783203125,-0.42284658551216125,-0.21086163818836212,0.24111062288284302
1790943257896757500,5.577757568359375,-0.4459543228149414,-0.1404348760843277,0.19732505083084106
1790943257906788600,5.58778857421875,-0.47124236822128296,-0.1074332520365715,0.16995655000209808
1790943257916818400,5.597818359375,-0.5000026226043701,-0.18725191056728363,0.13788250088691711
1790943257926849500,5.607849609375,-0.5423567295074463,-0.2570914626121521,0.12574487924575806
1790943257936879400,5.61787939453125,-0.6031311750411987,-0.25314250588417053,0.1358393281698227
1790943257946910500,5.627910400390625,-0.6685807108879089,-0.1833501160144806,0.15317463874816895
1790943257956940300,5.637940185546875,-0.7234532833099365,-0.009039301425218582,0.11277448385953903
1790943257966970400,5.647970458984375,-0.7418559789657593,0.19259820878505707,0.015810389071702957
1790943257977001500,5.65800146484375,-0.729988157749176,0.38427016139030457,-0.05056357383728027
1790943257987031600,5.668031494140625,-0.6810757517814636,0.497844398021698,-0.03419738635420799
1790943257997062400,5.6780625,-0.5620774626731873,0.4965389370918274,-0.007513309828937054
1790943258007092500,5.688092529296875,-0.411805659532547,0.32014045119285583,0.06411533802747726
1790943258017123800,5.698123779296875,-0.2805139422416687,0.0643632784485817,0.14512336254119873
1790943258027154000,5.70815380859375,-0.18610543012619019,-0.0549471378326416,0.18310511112213135
1790943258037185000,5.71818505859375,-0.13197827339172363,-0.06815854460000992,0.21473786234855652
1790943258047215000,5.728215087890625,-0.07531312853097916,-0.03333132341504097,0.198541060090065
1790943258057246000,5.738245849609375,0.013792244717478752,-0.07652140408754349,0.15844076871871948
1790943258067276000,5.748276123046875,0.11284266412258148,-0.14893674850463867,0.10132129490375519
1790943258077307000,5.758306884765625,0.18087656795978546,-0.1574077308177948,0.05991073697805405
1790943258087337000,5.7683369140625,0.18491898477077484,-0.16781510412693024,0.04687989130616188
1790943258097367000,5.778366943359375,0.1497546136379242,-0.25390711426734924,0.016889501363039017
1790943258107398100,5.788398193359375,0.12662984430789948,-0.4056106209754944,0.026221483945846558
1790943258117427700,5.798427734375,0.06431534141302109,-0.5382525324821472,0.14626213908195496
1790943258127459000,5.808458984375,-0.1370454728603363,-0.52750164270401,0.32689768075942993
1790943258137489000,5.818489013671875,-0.3654107451438904,-0.14499926567077637,0.5333451628684998
1790943258147519700,5.828519775390625,-0.49266961216926575,0.017770741134881973,0.5729625821113586
1790943258157549800,5.8385498046875,-0.42309507727622986,0.17307324707508087,0.47466370463371277
1790943258167581000,5.848580810546875,-0.26039111614227295,0.4842771887779236,0.33671116828918457
1790943258177610800,5.85861083984375,-0.2201227843761444,0.8009123802185059,0.255909264087677
1790943258187641900,5.868641845703125,-0.24846281111240387,0.9399150013923645,0.2432861626148224
1790943258197672000,5.878671875,-0.33197739720344543,0.9342209100723267,0.2941128611564636
1790943258207702800,5.888702880859375,-0.45643118023872375,0.8892236351966858,0.29738694429397583
1790943258217732900,5.89873291015625,-0.5696722865104675,0.7318938970565796,0.20721577107906342
1790943258227763000,5.908762939453125,-0.6021623015403748,0.41883453726768494,0.09593265503644943
1790943258237794000,5.9187939453125,-0.5864784121513367,0.16333752870559692,0.07399299740791321
1790943258247824000,5.928823974609375,-0.6257725358009338,0.15147554874420166,0.11732529103755951
1790943258257855000,5.93885498046875,-0.7156822085380554,0.23246653378009796,0.22817350924015045
1790943258267885000,5.948885009765625,-0.836614727973938,0.1616823673248291,0.33428555727005005
1790943258277916000,5.958916015625,-0.9591513276100159,0.033192574977874756,0.3660312592983246
1790943258287946000,5.968946044921875,-1.0329903364181519,-0.08479984104633331,0.36262640357017517
1790943258297977000,5.97897705078125,-1.055673360824585,-0.17602668702602386,0.3752031624317169
1790943258308007000,5.9890068359375,-1.028849482536316,-0.04465801641345024,0.41114652156829834
1790943258318038000,5.9990380859375,-0.9792246222496033,0.16024932265281677,0.4405139982700348
1790943258328068000,6.009068115234375,-0.8975598216056824,0.23443806171417236,0.45211419463157654
1790943258338099000,6.019098876953125,-0.8048831820487976,0.1852542757987976,0.41857728362083435
1790943258348129000,6.02912890625,-0.7264940738677979,0.19007672369480133,0.39906376600265503
1790943258358158800,6.039158935546875,-0.6479012966156006,0.2757450342178345,0.47316303849220276
1790943258368190000,6.04918994140625,-0.5550872087478638,0.3142050802707672,0.4800337255001068
1790943258378219800,6.0592197265625,-0.4190199077129364,0.42403942346572876,0.374446839094162
1790943258388251000,6.0692509765625,-0.2734816074371338,0.5845822095870972,0.29222360253334045
1790943258398281000,6.079281005859375,-0.19887740910053253,0.6310021877288818,0.2521563470363617
1790943258408311800,6.089311767578125,-0.1517101675271988,0.5994794368743896,0.2111085057258606
1790943258418342000,6.099341796875,-0.12829671800136566,0.556123673915863,0.22943346202373505
1790943258428372700,6.109372802734375,-0.13553838431835175,0.48349982500076294,0.2789038121700287
1790943258438402800,6.11940283203125,-0.10912435501813889,0.5132734179496765,0.3061274290084839
1790943258448434000,6.129433837890625,-0.08642437309026718,0.6647923588752747,0.3769049346446991
1790943258458464000,6.139464111328125,-0.07581114023923874,0.8585591912269592,0.4264051020145416
1790943258468494800,6.149494873046875,-0.07382868230342865,0.9177338480949402,0.4422096312046051
1790943258478525000,6.15952490234375,-0.088866226375103,0.8155344724655151,0.3985596299171448
1790943258488555000,6.169554931640625,-0.08837220817804337,0.7505658864974976,0.362938791513443
1790943258498585900,6.1795859375,-0.12463993579149246,0.8278289437294006,0.4375200867652893
1790943258508616000,6.189615966796875,-0.18327368795871735,0.9233129024505615,0.5312311053276062
1790943258518647000,6.19964697265625,-0.19841988384723663,0.8808788657188416,0.5360514521598816
1790943258528676900,6.2096767578125,-0.143307626247406,0.7574282884597778,0.430782288312912
1790943258538708000,6.2197080078125,-0.07473495602607727,0.6299060583114624,0.3259493410587311
1790943258548738000,6.229738037109375,-0.05903935059905052,0.5400195717811584,0.364062637090683
1790943258558769000,6.239768798828125,-0.09914229810237885,0.41675329208374023,0.47663524746894836
1790943258568799000,6.249799072265625,-0.16399319469928741,0.34849274158477783,0.5259847044944763
1790943258578830000,6.259830078125,-0.1926136612892151,0.339292049407959,0.5090488791465759
1790943258588860200,6.269860107421875,-0.20763787627220154,0.3045753538608551,0.53908771276474
1790943258598891000,6.27989111328125,-0.2838330566883087,0.13231463730335236,0.6727014183998108
1790943258608921000,6.289921142578125,-0.41775330901145935,-0.05637113004922867,0.8556757569313049
1790943258618951000,6.299950927734375,-0.5277181267738342,-0.17337951064109802,0.9967122673988342
1790943258628981800,6.309981689453125,-0.6172347068786621,-0.23298558592796326,1.1607296466827393
1790943258639011800,6.32001171875,-0.7224234342575073,-0.35299721360206604,1.3562262058258057
1790943258649043000,6.33004296875,-0.8261075019836426,-0.3483550548553467,1.4892029762268066
1790943258659072800,6.34007275390625,-0.9031988382339478,-0.30875277519226074,1.655948519706726
1790943258669103900,6.350103759765625,-0.9853253960609436,-0.22756685316562653,1.8189747333526611
1790943258679134000,6.360134033203125,-1.0636547803878784,-0.14683258533477783,1.9302364587783813
1790943258689164800,6.370164794921875,-1.110908031463623,-0.025799639523029327,2.0228309631347656
1790943258699195000,6.38019482421875,-1.1539071798324585,0.22605790197849274,2.159177780151367
1790943258709226000,6.39022607421875,-1.218186378479004,0.5308473706245422,2.334545850753784
1790943258719255800,6.400255859375,-1.3015011548995972,0.6830403804779053,2.5077104568481445
1790943258729287000,6.410286865234375,-1.4311574697494507,0.6956802606582642,2.614656925201416
1790943258739317000,6.42031689453125,-1.5490516424179077,0.6707243323326111,2.6317968368530273
1790943258749347000,6.43034716796875,-1.6700717210769653,0.683817446231842,2.582265615463257
1790943258759378000,6.4403779296875,-1.7855466604232788,0.7532823085784912,2.513906240463257
1790943258769408000,6.450407958984375,-1.8527803421020508,0.873222291469574,2.491603374481201
1790943258779438800,6.46043896484375,-1.8702341318130493,1.0392781496047974,2.5744476318359375
1790943258789469000,6.470468994140625,-1.893039584159851,1.1288607120513916,2.7101855278015137
1790943258799500000,6.4805,-1.929275393486023,1.1278550624847412,2.833740472793579
1790943258809530000,6.490530029296875,-1.9682238101959229,1.0911329984664917,2.8791332244873047
1790943258819561000,6.50056103515625,-2.010679244995117,0.9834619760513306,2.8220577239990234
1790943258829591000,6.510591064453125,-2.0317234992980957,0.7872511744499207,2.594038486480713
1790943258839622100,6.5206220703125,-2.012901544570923,0.5394259095191956,2.1924197673797607
1790943258849652000,6.53065185546875,-1.9050630331039429,0.3523969352245331,1.7239842414855957
1790943258859683000,6.54068310546875,-1.771025538444519,0.3346421718597412,1.285811185836792
1790943258869713000,6.550712890625,-1.634814739227295,0.44936075806617737,0.9641870856285095
1790943258879743000,6.560742919921875,-1.5116262435913086,0.4968350827693939,0.8470559120178223
1790943258889773800,6.57077392578125,-1.3613064289093018,0.4557587504386902,0.9068260788917542
1790943258899804000,6.580803955078125,-1.1783549785614014,0.31317630410194397,1.0235662460327148
1790943258909834800,6.590834716796875,-0.9920349717140198,0.11204397678375244,1.0823278427124023
1790943258919864800,6.60086474609375,-0.8292092680931091,0.023026755079627037,1.0890754461288452
1790943258929896000,6.61089599609375,-0.6758407950401306,-0.005298625212162733,1.1515183448791504
1790943258939926000,6.620926025390625,-0.495746374130249,0.2262784093618393,1.1771528720855713
1790943258949956900,6.630956787109375,-0.30362460017204285,0.6768149733543396,1.184577226638794
1790943258959987000,6.640987060546875,-0.12510572373867035,1.1989412307739258,1.1844145059585571
1790943258970017800,6.651017822265625,0.02654372714459896,1.639808177947998,1.1558947563171387
1790943258980048000,6.6610478515625,0.08461608737707138,1.855976939201355,1.0926995277404785
1790943258990079000,6.671078857421875,0.08436574786901474,1.9549461603164673,1.0104856491088867
1790943259000109000,6.681109130859375,0.1047264114022255,1.9990237951278687,0.9094436764717102
1790943259010139000,6.691138916015625,0.1125185564160347,1.8813363313674927,0.83974289894104
1790943259020170000,6.701169921875,0.0380680225789547,1.565241813659668,0.8426132202148438
1790943259030200000,6.711199951171875,-0.1462687999010086,1.206095814704895,0.9364030957221985
1790943259040231000,6.72123095703125,-0.34983471035957336,0.9606837034225464,0.9795010685920715
1790943259050261000,6.731260986328125,-0.5098307728767395,0.8334681987762451,0.6993706226348877
1790943259060292000,6.7412919921875,-0.6295982003211975,0.7225680351257324,0.05691947415471077
1790943259070322000,6.751322021484375,-0.6077600121498108,0.6484996676445007,-0.5267141461372375
1790943259080353000,6.76135302734375,-0.5377814173698425,0.587796688079834,-0.8070706725120544
1790943259090383000,6.771383056640625,-0.4236420691013336,0.6076316237449646,-0.8090331554412842
1790943259100414000,6.7814140625,-0.27163389325141907,0.7635610103607178,-0.58309406042099
1790943259110443800,6.79144384765625,-0.15635524690151215,0.9701861143112183,-0.23827435076236725
1790943259120475100,6.80147509765625,-0.12290861457586288,1.12995183467865,0.04454243555665016
1790943259130505000,6.8115048828125,-0.15632756054401398,1.2654156684875488,0.16426004469394684
1790943259140534800,6.82153466796875,-0.1989775449037552,1.367774486541748,0.10278443247079849
1790943259150566000,6.83156591796875,-0.22572234272956848,1.4205093383789062,-0.05311807990074158
1790943259160596000,6.841595947265625,-0.24480095505714417,1.3534640073776245,-0.2637496292591095
1790943259170626800,6.851626708984375,-0.29127365350723267,1.1840068101882935,-0.5023193359375
1790943259180657000,6.861656982421875,-0.4064106345176697,0.8863005638122559,-0.6349793672561646
1790943259190688000,6.87168798828125,-0.5883551239967346,0.5424166917800903,-0.583771824836731
1790943259200717800,6.8817177734375,-0.6972754597663879,0.021639781072735786,-0.3529316782951355
1790943259210749000,6.8917490234375,-0.7859219908714294,-0.5398427248001099,-0.08623448759317398
1790943259220779000,6.901779052734375,-0.9053986072540283,-0.9535988569259644,0.03713831305503845
1790943259230809900,6.911809814453125,-0.9871728420257568,-1.0774132013320923,-0.010759969241917133
1790943259240840000,6.92183984375,-0.9351378679275513,-0.8186303973197937,-0.21827854216098785
1790943259250871000,6.93187109375,-0.7028819918632507,-0.11976448446512222,-0.5200847387313843
1790943259260900900,6.94190087890625,-0.3705383837223053,0.7787354588508606,-0.8177376985549927
1790943259270931000,6.951930908203125,-0.06933699548244476,1.3528081178665161,-1.1224180459976196
1790943259280962000,6.961962158203125,0.08229727298021317,1.1269831657409668,-1.347362995147705
1790943259290992000,6.9719921875,0.06918039917945862,0.3020418882369995,-1.3535710573196411
1790943259301023000,6.98202294921875,-0.12809538841247559,-0.6256396770477295,-1.1271405220031738
1790943259311053000,6.992052978515625,-0.3093322813510895,-0.9231845140457153,-0.7577486634254456
1790943259321084000,7.002083984375,-0.34295177459716797,-0.5925171375274658,-0.47096139192581177
1790943259331114000,7.012114013671875,-0.24659885466098785,-0.06199492886662483,-0.4375150203704834
1790943259341145000,7.02214501953125,-0.08350661396980286,0.4985767900943756,-0.562255859375
1790943259351175000,7.0321748046875,0.04892120510339737,0.820396900177002,-0.6819942593574524
1790943259361206000,7.0422060546875,0.03725149855017662,0.6250784993171692,-0.7408847808837891
1790943259371235800,7.05223583984375,0.07564202696084976,0.17365515232086182,-0.7923058867454529
1790943259381267000,7.062266845703125,0.12312059849500656,-0.09630656242370605,-1.0023325681686401
1790943259391296800,7.072296875,0.16711895167827606,0.0216581579297781,-1.3478223085403442
1790943259401326800,7.082326904296875,0.1844707727432251,0.4511597156524658,-1.6121336221694946
1790943259411358000,7.09235791015625,0.16516178846359253,1.0710484981536865,-1.5544756650924683
1790943259421388000,7.102387939453125,0.11949044466018677,1.493431806564331,-1.1631646156311035
1790943259431419000,7.1124189453125,0.07217486202716827,1.4721509218215942,-0.796794593334198
1790943259441449000,7.122448974609375,-0.01654542051255703,1.078108310699463,-0.646608293056488
1790943259451479800,7.132479736328125,-0.1430860459804535,0.6222363710403442,-0.617318868637085
1790943259461510000,7.142510009765625,-0.2559979557991028,0.41415828466415405,-0.6732980012893677
1790943259471541000,7.152541015625,-0.3533511459827423,0.41349250078201294,-0.8289278149604797
1790943259481571000,7.162571044921875,-0.48916304111480713,0.38050606846809387,-1.237927794456482
1790943259491602000,7.172601806640625,-0.5946311354637146,0.1844065934419632,-2.02199387550354
1790943259501632000,7.182632080078125,-0.5323984026908875,-0.019402725622057915,-2.856377363204956
1790943259511662800,7.192662841796875,-0.1410790979862213,0.20819634199142456,-3.0792322158813477
1790943259521693000,7.20269287109375,0.3895522952079773,0.856938362121582,-2.4198286533355713
1790943259531724000,7.21272412109375,0.6314647793769836,1.7727653980255127,-1.4080827236175537
1790943259541754000,7.222754150390625,0.44965583086013794,2.171206474304199,-0.6504566073417664
1790943259551784000,7.232783935546875,0.3809111416339874,1.812941312789917,-0.30519160628318787
1790943259561815000,7.24281494140625,0.41000428795814514,1.0030146837234497,-0.31027477979660034
1790943259571845000,7.25284521484375,0.3580758571624756,0.2947205901145935,-0.5573945641517639
1790943259581876000,7.2628759765625,0.3128918707370758,-0.18681515753269196,-1.0607008934020996
1790943259591905800,7.27290576171875,0.4035770297050476,-0.30874478816986084,-1.54440176486969
1790943259601937200,7.282937255859375,0.4953056275844574,0.07226327806711197,-1.4298211336135864
1790943259611967000,7.292967041015625,0.47133317589759827,0.5017296671867371,-0.7844130396842957
1790943259621997800,7.302997802734375,0.36268526315689087,0.4834843873977661,-0.197142094373703
1790943259632028000,7.31302783203125,0.22825101017951965,0.20504502952098846,0.04294693470001221
1790943259642058800,7.323058837890625,0.1547379195690155,0.07330324500799179,-0.011197260580956936
1790943259652088800,7.3330888671875,0.1739528924226761,0.22663447260856628,-0.21097669005393982
1790943259662120000,7.343119873046875,0.2317970097064972,0.3944770097732544,-0.48138847947120667
1790943259672150000,7.35314990234375,0.27706941962242126,0.40736323595046997,-0.7265521287918091
1790943259682180900,7.363180908203125,0.31842485070228577,0.3274412453174591,-0.8858877420425415
1790943259692211000,7.3732109375,0.355020135641098,0.22377876937389374,-0.9326333999633789
1790943259702241000,7.383240966796875,0.3772950768470764,0.15542501211166382,-0.8843521475791931
1790943259712272000,7.39327197265625,0.3438521921634674,0.07644736766815186,-0.82928866147995
1790943259722302000,7.403302001953125,0.29118096828460693,0.0578843392431736,-0.8317810893058777
1790943259732333000,7.4133330078125,0.2601700723171234,0.1524883359670639,-0.8875647187232971
1790943259742363000,7.42336279296875,0.21448779106140137,0.31844562292099,-0.9694103598594666
1790943259752394000,7.43339404296875,0.1877957284450531,0.48660773038864136,-1.0163730382919312
1790943259762424000,7.443424072265625,0.20991621911525726,0.5486764311790466,-0.9578090906143188
1790943259772455000,7.453454833984375,0.25602060556411743,0.5381843447685242,-0.8349990248680115
1790943259782485000,7.463485107421875,0.2846141457557678,0.4074268937110901,-0.7343980669975281
1790943259792516000,7.47351611328125,0.28525596857070923,0.11547679454088211,-0.6735973358154297
1790943259802546000,7.4835458984375,0.3135017156600952,-0.1112985610961914,-0.6706367135047913
1790943259812577000,7.493576904296875,0.3659183382987976,-0.22077737748622894,-0.7375443577766418
1790943259822607000,7.503607177734375,0.44235584139823914,-0.2373310625553131,-0.840583086013794
1790943259832638000,7.513637939453125,0.5546422004699707,-0.15516561269760132,-0.9347705841064453
1790943259842668000,7.52366796875,0.6394811868667603,0.019144665449857712,-1.004959225654602
1790943259852697900,7.53369775390625,0.6860840916633606,0.1450413465499878,-1.0521353483200073
1790943259862729000,7.54372900390625,0.7022939324378967,0.14425384998321533,-1.0472233295440674
1790943259872758800,7.5537587890625,0.6824051737785339,0.054906658828258514,-1.011818289756775
1790943259882790000,7.563789794921875,0.6381445527076721,-0.08519585430622101,-0.9558503031730652
1790943259892820000,7.573820068359375,0.5642569661140442,-0.2923208177089691,-0.8962756991386414
1790943259902850800,7.583850830078125,0.45704716444015503,-0.530718207359314,-0.8287959694862366
1790943259912881000,7.593880859375,0.31171101331710815,-0.7216540575027466,-0.7771644592285156
1790943259922912000,7.603912109375,0.12044332176446915,-0.916924238204956,-0.7233251929283142
1790943259932941800,7.61394189453125,-0.0806591585278511,-1.11284339427948,-0.6728575229644775
1790943259942973000,7.623972900390625,-0.26326999068260193,-1.2412046194076538,-0.6333093047142029
1790943259953003000,7.6340029296875,-0.40378129482269287,-1.2724517583847046,-0.6084604263305664
1790943259963033900,7.644033935546875,-0.47793087363243103,-1.2415294647216797,-0.6122176051139832
1790943259973064000,7.65406396484375,-0.4954696595668793,-1.136221170425415,-0.642711341381073
1790943259983094000,7.664093994140625,-0.4688071608543396,-0.9919707775115967,-0.6807149052619934
1790943259993124900,7.674124755859375,-0.411992609500885,-0.8310215473175049,-0.7271732091903687
1790943260003155000,7.684155029296875,-0.3586193919181824,-0.697253406047821,-0.7966271042823792
1790943260013186000,7.69418603515625,-0.33521926403045654,-0.6084510684013367,-0.8686618804931641
1790943260023215900,7.7042158203125,-0.2960415184497833,-0.4895840883255005,-0.9685410857200623
1790943260033246700,7.714246826171875,-0.21294236183166504,-0.2053544819355011,-1.168062448501587
1790943260043276800,7.72427685546875,-0.04321564733982086,0.12706181406974792,-1.4532082080841064
1790943260053307600,7.7343076171875,0.22851040959358215,0.3676280677318573,-1.6617927551269531
1790943260063337700,7.744337646484375,0.3627401292324066,0.23531104624271393,-1.932558298110962
1790943260073368800,7.754368896484375,0.4321380853652954,-0.18170508742332458,-2.368957996368408
1790943260083398700,7.764398681640625,0.5378884673118591,-0.7193357944488525,-2.8306493759155273
1790943260093429800,7.7744296875,0.6613020300865173,-1.0172806978225708,-3.011770248413086
1790943260103459600,7.78445947265625,0.8521577715873718,-1.1910066604614258,-2.861595392227173
1790943260113489700,7.79448974609375,0.8657337427139282,-0.7113087773323059,-2.2704343795776367
1790943260123520500,7.8045205078125,0.7822263240814209,-0.046248190104961395,-1.6800730228424072
1790943260133550600,7.814550537109375,0.7377499341964722,0.07335091382265091,-1.380037546157837
1790943260143581700,7.824581787109375,0.8180801868438721,-0.0979798287153244,-1.2836356163024902
1790943260153611800,7.83461181640625,0.8006396889686584,-0.36347702145576477,-1.332493782043457
1790943260163642600,7.844642578125,0.7580461502075195,-0.537664532661438,-1.3814187049865723
1790943260173672700,7.854672607421875,0.7356804013252258,-0.4277430772781372,-1.2825815677642822
1790943260183703600,7.86470361328125,0.7598632574081421,-0.24783030152320862,-1.0121170282363892
1790943260193733600,7.874733642578125,0.7811344265937805,-0.04807431995868683,-0.703621506690979
1790943260203764700,7.8847646484375,0.7754365801811218,0.06638967245817184,-0.4285129904747009
1790943260213794800,7.894794921875,0.7655666470527649,0.09015972167253494,-0.22718575596809387
1790943260223825700,7.90482568359375,0.7894008755683899,0.06860276311635971,-0.10467607527971268
1790943260233855700,7.914855712890625,0.8545748591423035,0.08787792176008224,-0.057009756565093994
1790943260243886600,7.924886474609375,0.9606951475143433,0.09744000434875488,-0.028076108545064926
1790943260253916700,7.934916748046875,1.0780603885650635,0.13618527352809906,-0.01260820310562849
1790943260263946800,7.94494677734375,1.1867845058441162,0.22183306515216827,-0.017006147652864456
1790943260273977900,7.954977783203125,1.2659519910812378,0.3475704789161682,-0.050099652260541916
1790943260284007700,7.965007568359375,1.3017661571502686,0.4543757438659668,-0.13727077841758728
1790943260294038800,7.975038818359375,1.272682547569275,0.511964738368988,-0.2296941727399826
1790943260304068900,7.98506884765625,1.2111936807632446,0.6041184067726135,-0.2826250493526459
1790943260314099700,7.995099609375,1.122771978378296,0.7214000225067139,-0.3465680778026581
1790943260324129500,8.005129638671875,1.043861985206604,0.8938090801239014,-0.4547770917415619
1790943260334161000,8.015160888671875,0.9734264016151428,0.9828401207923889,-0.5809147953987122
1790943260344190700,8.025190673828124,0.9114948511123657,1.0171451568603516,-0.72759610414505
1790943260354221600,8.0352216796875,0.8438926339149475,1.0599548816680908,-0.8558110594749451
1790943260364251600,8.045251708984376,0.7932946681976318,1.0195094347000122,-0.9174323678016663
1790943260374281700,8.05528173828125,0.7979970574378967,0.9866654872894287,-0.9608432054519653
1790943260384312600,8.0653125,0.9083200693130493,0.9833770394325256,-0.8989782333374023
1790943260394342700,8.0753427734375,1.0184500217437744,1.0697669982910156,-0.7864868640899658
1790943260404373800,8.085373779296875,1.0902653932571411,1.286257028579712,-0.685692310333252
1790943260414403600,8.095403564453125,1.1121991872787476,1.5454603433609009,-0.5696232318878174
1790943260424434700,8.1054345703125,1.1274948120117188,1.714247226715088,-0.4538170397281647
1790943260434464800,8.11546484375,1.1212882995605469,1.6569753885269165,-0.31530869007110596
1790943260444495600,8.12549560546875,1.0689947605133057,1.5292192697525024,-0.1882396787405014
1790943260454525700,8.135525634765624,0.9600618481636047,1.3545657396316528,-0.10756774246692657
1790943260464556800,8.145556884765625,0.7919654846191406,1.1682014465332031,0.004600344225764275
1790943260474586600,8.155586669921876,0.5692440271377563,1.0705819129943848,0.16029459238052368
1790943260484617700,8.16561767578125,0.3808325529098511,0.9418674111366272,0.26521915197372437
1790943260494647800,8.175647705078125,0.27297481894493103,0.8054139614105225,0.34213975071907043
1790943260504678700,8.1856787109375,0.2565809190273285,0.5735296010971069,0.446102112531662
1790943260514708700,8.195708740234375,0.31981343030929565,0.44891148805618286,0.4973194897174835
1790943260524738800,8.20573876953125,0.4254666268825531,0.26730653643608093,0.4042920768260956
1790943260534769700,8.215769775390624,0.5296785235404968,0.09893989562988281,0.3345305919647217
1790943260544799700,8.2257998046875,0.5670689940452576,-0.03526531159877777,0.3518179655075073
1790943260554830800,8.235830810546876,0.5097327828407288,-0.06136668846011162,0.39792099595069885
1790943260564860700,8.245860595703125,0.4273681044578552,-0.09079568088054657,0.4916858375072479
1790943260574891800,8.255891845703125,0.33883506059646606,-0.005539641249924898,0.6461052298545837
1790943260584921600,8.265921630859374,0.24097612500190735,0.011864915490150452,0.7280722856521606
1790943260594952700,8.27595263671875,0.1692468225955963,0.06791780143976212,0.8539125323295593
1790943260604982500,8.285982421875,0.12978330254554749,0.18507450819015503,0.9566375613212585
1790943260615013600,8.296013671875,0.11778069287538528,0.27366217970848083,1.0069228410720825
1790943260625043700,8.306043701171875,0.09014347195625305,0.3165976405143738,1.0847015380859375
1790943260635073500,8.316073486328126,0.026454510167241096,0.37047579884529114,1.202639102935791
1790943260645104600,8.326104736328125,-0.05176972225308418,0.48828738927841187,1.3332748413085938
1790943260655134700,8.336134765625,-0.11852078884840012,0.6250409483909607,1.460037350654602
1790943260665165600,8.34616552734375,-0.1793934553861618,0.6980344653129578,1.5538346767425537
1790943260675195600,8.356195556640625,-0.2517392933368683,0.7133932113647461,1.6213295459747314
1790943260685226800,8.366226806640626,-0.3468727469444275,0.7274442911148071,1.7024766206741333
1790943260695256800,8.3762568359375,-0.41613808274269104,0.7314374446868896,1.760703682899475
1790943260705287700,8.38628759765625,-0.4461063742637634,0.7047813534736633,1.7952607870101929
1790943260715317800,8.39631787109375,-0.44241470098495483,0.6482648253440857,1.8112329244613647
1790943260725348600,8.4063486328125,-0.43741700053215027,0.5444185733795166,1.8319698572158813
1790943260735378700,8.416378662109375,-0.44508931040763855,0.4623982608318329,1.862328052520752
1790943260745409800,8.426409912109374,-0.44820892810821533,0.3861714005470276,1.9075554609298706
1790943260755439900,8.43643994140625,-0.45556458830833435,0.3060062527656555,1.9530060291290283
1790943260765469700,8.4464697265625,-0.4865318238735199,0.23979182541370392,1.9958884716033936
1790943260775500800,8.456500732421874,-0.5266616940498352,0.16220727562904358,2.042362928390503
1790943260785531000,8.46653076171875,-0.4977077841758728,0.05387468263506889,2.1095879077911377
1790943260795561700,8.476561767578126,-0.47188764810562134,-0.038596395403146744,2.1453444957733154
1790943260805591600,8.486591552734374,-0.4231688380241394,-0.10961011797189713,2.1450798511505127
1790943260815623000,8.496622802734375,-0.3710063099861145,-0.15814729034900665,2.1532444953918457
1790943260825652500,8.506652587890626,-0.316987544298172,-0.18972226977348328,2.163022518157959
1790943260835683600,8.51668359375,-0.25625014305114746,-0.20613212883472443,2.184157371520996
1790943260845713700,8.526713623046875,-0.20399095118045807,-0.18663592636585236,2.182396650314331
1790943260855744500,8.53674462890625,-0.18432563543319702,-0.19152255356311798,2.118593454360962
1790943260865774600,8.546774658203125,-0.17835348844528198,-0.20970289409160614,2.045226573944092
1790943260875805700,8.5568056640625,-0.1745438426733017,-0.20001697540283203,2.0566389560699463
1790943260885835500,8.56683544921875,-0.194731667637825,-0.19793544709682465,2.0889506340026855
1790943260895866600,8.57686669921875,-0.22708961367607117,-0.19132894277572632,2.0675418376922607
1790943260905896700,8.586896728515624,-0.2560464143753052,-0.2525361180305481,2.0297091007232666
1790943260915926800,8.5969267578125,-0.2491975724697113,-0.3169739544391632,1.979625940322876
1790943260925957600,8.60695751953125,-0.22102266550064087,-0.368839293718338,1.898999810218811
1790943260935987700,8.61698779296875,-0.20637847483158112,-0.38996800780296326,1.7885552644729614
1790943260946018800,8.627018798828125,-0.177922323346138,-0.3550339937210083,1.670514702796936
1790943260956048600,8.637048583984376,-0.13240091502666473,-0.32617971301078796,1.5779391527175903
1790943260966079700,8.647079833984375,-0.08253642171621323,-0.3569168448448181,1.4893946647644043
1790943260976109800,8.65710986328125,-0.047743286937475204,-0.4114357531070709,1.382869005203247
1790943260986140700,8.667140625,-0.031191475689411163,-0.4266189634799957,1.2382985353469849
1790943260996170800,8.677170654296875,-0.030050843954086304,-0.3408063054084778,1.1245559453964233
1790943261006201900,8.687201904296876,-0.04939311742782593,-0.22647787630558014,1.0906422138214111
1790943261016231700,8.697231689453124,-0.04749481379985809,-0.19133080542087555,1.1011444330215454
1790943261026262800,8.7072626953125,-0.0476577989757061,-0.1201048344373703,1.0647238492965698
1790943261036292900,8.71729296875,-0.06010434776544571,-0.022598786279559135,0.9770954251289368
1790943261046322700,8.72732275390625,-0.0786423459649086,0.05291088670492172,0.8797845840454102
1790943261056353800,8.737353759765625,-0.06581949442625046,0.09280983358621597,0.793043315410614
1790943261066383600,8.747383544921876,-0.05242059752345085,0.12872283160686493,0.7617902755737305
1790943261076414500,8.75741455078125,-0.065789133310318,0.17986217141151428,0.7634720802307129
1790943261086444500,8.767444580078125,-0.11276250332593918,0.23975028097629547,0.7295897603034973
1790943261096475600,8.7774755859375,-0.16429626941680908,0.32594481110572815,0.6826763153076172
1790943261106505700,8.787505615234375,-0.19559426605701447,0.4310118556022644,0.635554313659668
1790943261116536600,8.79753662109375,-0.20992420613765717,0.49138543009757996,0.5553617477416992
1790943261126566700,8.807566650390624,-0.18582658469676971,0.5079686641693115,0.4265816807746887
1790943261136597800,8.81759765625,-0.13330106437206268,0.5655345320701599,0.29130348563194275
1790943261146627600,8.827627685546876,-0.0584728978574276,0.7094298601150513,0.1685386747121811
1790943261156658700,8.83765869140625,0.041361819952726364,0.7631975412368774,0.0646706074476242
1790943261166688800,8.847688720703125,0.12849965691566467,0.6539461016654968,-0.00899962056428194
1790943261176718600,8.857718505859374,0.16395963728427887,0.5022604465484619,-0.07505346834659576
1790943261186749700,8.867749755859375,0.1718844175338745,0.4969882071018219,-0.1238175481557846
1790943261196779800,8.87777978515625,0.17670020461082458,0.5415777564048767,-0.1511698067188263
1790943261206810600,8.887810546875,0.19257503747940063,0.6257288455963135,-0.17139917612075806
1790943261216840700,8.8978408203125,0.23592384159564972,0.6758860349655151,-0.2114800214767456
1790943261226871800,8.907871826171874,0.2660766839981079,0.6038757562637329,-0.2702557146549225
1790943261236902000,8.91790185546875,0.2610372006893158,0.470458060503006,-0.316797137260437
1790943261246932700,8.9279326171875,0.21617411077022552,0.34255653619766235,-0.32932063937187195
1790943261256962800,8.937962890625,0.18414907157421112,0.3202584385871887,-0.3214091956615448
1790943261266993700,8.94799365234375,0.1944030374288559,0.3860901892185211,-0.3551948368549347
1790943261277023700,8.958023681640626,0.24316924810409546,0.4991171360015869,-0.46942874789237976
1790943261287054800,8.968054931640625,0.3276385962963104,0.603864312171936,-0.6659183502197266
1790943261297085000,8.9780849609375,0.40425774455070496,0.7178547978401184,-0.8893303871154785
1790943261307114500,8.988114501953126,0.439857542514801,0.832275390625,-1.0755921602249146
1790943261317145600,8.9981455078125,0.442623496055603,0.9225671887397766,-1.2007631063461304
1790943261327175700,9.00817578125,0.44259658455848694,0.9411028027534485,-1.2536993026733398
1790943261337206500,9.01820654296875,0.4503439962863922,0.8449267148971558,-1.2421259880065918
1790943261347236600,9.028236572265625,0.45800459384918213,0.6953926086425781,-1.1825973987579346
1790943261357267700,9.038267822265626,0.4639729857444763,0.534820556640625,-1.082559585571289
1790943261367297500,9.048297607421874,0.4681645333766937,0.3779406249523163,-0.9473452568054199
1790943261377328600,9.05832861328125,0.4724428951740265,0.23692652583122253,-0.8003557920455933
1790943261387358700,9.068358642578126,0.48596855998039246,0.1832161545753479,-0.6584593653678894
1790943261397389600,9.0783896484375,0.4916592240333557,0.25679317116737366,-0.5190977454185486
1790943261407419600,9.088419677734375,0.4941790997982025,0.402314692735672,-0.39942222833633423
1790943261417450800,9.09845068359375,0.5132086873054504,0.5664181113243103,-0.333872526884079
1790943261427480600,9.10848046875,0.557766318321228,0.6849013566970825,-0.36286526918411255
1790943261437511700,9.11851171875,0.6289854049682617,0.6754655241966248,-0.5104967951774597
1790943261447541800,9.128541748046874,0.7119883894920349,0.5015914440155029,-0.7572991251945496
1790943261457571800,9.13857177734375,0.7768592834472656,0.21132609248161316,-1.0304512977600098
1790943261467602700,9.148602783203126,0.824066162109375,-0.057196445763111115,-1.26772940158844
1790943261477632800,9.1586328125,0.840639591217041,-0.21005868911743164,-1.4536737203598022
1790943261487663900,9.168663818359375,0.8379939794540405,-0.21408113837242126,-1.5669819116592407
1790943261497693700,9.178693603515624,0.8256944417953491,-0.07689424604177475,-1.6043931245803833
1790943261507724800,9.188724853515625,0.8212994337081909,0.13853231072425842,-1.6054493188858032
1790943261517755000,9.1987548828125,0.8110827207565308,0.3522874712944031,-1.5584672689437866
1790943261527785700,9.20878564453125,0.809268057346344,0.43297699093818665,-1.4449065923690796
1790943261537815800,9.21881591796875,0.759493350982666,0.35681164264678955,-1.345070719718933
1790943261547847000,9.228846923828126,0.6584591269493103,0.10356128215789795,-1.2666352987289429
1790943261557876500,9.23887646484375,0.5440390706062317,-0.1669442504644394,-1.1922855377197266
1790943261567906600,9.248906494140625,0.40234026312828064,-0.33756712079048157,-1.125381350517273
1790943261577937700,9.258937744140624,0.21396102011203766,-0.41775330901145935,-1.038571834564209
1790943261587967700,9.2689677734375,-0.026093119755387306,-0.47659316658973694,-0.9296805262565613
1790943261597998600,9.27899853515625,-0.21811582148075104,-0.4750956892967224,-0.8796314597129822
1790943261608028700,9.289028564453124,-0.3467819094657898,-0.4398282468318939,-0.8829960823059082
1790943261618059500,9.2990595703125,-0.42038291692733765,-0.5022522211074829,-0.9429515600204468
1790943261628089600,9.309089599609376,-0.4550769627094269,-0.6114572286605835,-1.009153962135315
1790943261638120700,9.31912060546875,-0.44511887431144714,-0.7523747086524963,-1.0859012603759766
1790943261648150800,9.32915087890625,-0.3256819546222687,-0.8891405463218689,-1.2203242778778076
1790943261658181600,9.339181640625,-0.22456839680671692,-1.1654731035232544,-1.3973630666732788
1790943261668211700,9.349211669921875,-0.11642594635486603,-1.4123347997665405,-1.5956047773361206
1790943261678242600,9.35924267578125,-0.055204931646585464,-1.5461032390594482,-1.766080379486084
1790943261688272600,9.369272705078124,-0.0660029873251915,-1.5983003377914429,-1.919783353805542
1790943261698302700,9.379302734375,-0.08951150625944138,-1.5272547006607056,-2.0563724040985107
1790943261708333800,9.389333740234376,-0.0971641018986702,-1.372127652168274,-2.150826930999756
1790943261718363600,9.39936376953125,-0.11163625121116638,-1.2350881099700928,-2.2078113555908203
1790943261728394800,9.409394775390625,-0.10493840277194977,-1.109107255935669,-2.286308526992798
1790943261738424800,9.4194248046875,-0.05780657380819321,-0.8776825666427612,-2.3580117225646973
1790943261748455700,9.42945556640625,0.012573582120239735,-0.5664951205253601,-2.3537962436676025
1790943261758485800,9.43948583984375,0.11023809015750885,-0.33176010847091675,-2.304630994796753
1790943261768516900,9.449516845703124,0.13504277169704437,-0.1756698340177536,-2.2157771587371826
1790943261778546700,9.459546630859375,0.1714085042476654,-0.10471842437982559,-2.071755886077881
1790943261788577800,9.469577880859376,0.25812849402427673,-0.03398513048887253,-1.8791844844818115
1790943261798607600,9.479607666015625,0.3856446444988251,0.14043860137462616,-1.6426560878753662
1790943261808638700,9.489638671875,0.5134454965591431,0.3786250650882721,-1.3376288414001465
1790943261818668500,9.49966845703125,0.5840011239051819,0.6060448884963989,-1.0421258211135864
1790943261828698600,9.50969873046875,0.5899927020072937,0.7304787039756775,-0.8747029900550842
1790943261838729700,9.519729736328125,0.5415173172950745,0.7698825597763062,-0.8429656028747559
1790943261848759600,9.529759521484374,0.5251551270484924,0.8186919093132019,-0.9096841812133789
1790943261858790700,9.539790771484375,0.5628236532211304,0.8783184885978699,-0.963555634021759
1790943261868820700,9.54982080078125,0.590874195098877,0.7999891042709351,-0.9466187357902527
1790943261878851600,9.5598515625,0.6088966131210327,0.7347062230110168,-0.8731328248977661
1790943261888881700,9.569881591796875,0.6298184394836426,0.7654625177383423,-0.7510700225830078
1790943261898912800,9.579912841796874,0.6215589046478271,0.8003054857254028,-0.6675713658332825
1790943261908942600,9.589942626953125,0.6161537170410156,0.8965142965316772,-0.7603724598884583
1790943261918973700,9.5999736328125,0.6240183115005493,0.6869615912437439,-0.850068211555481
1790943261929003800,9.610003662109374,0.6059266924858093,0.30151110887527466,-0.8017835021018982
1790943261939034600,9.62003466796875,0.5444816946983337,0.12765702605247498,-0.6417195796966553
1790943261949064700,9.630064697265626,0.46259641647338867,0.017012538388371468,-0.5110925436019897
1790943261959094800,9.6400947265625,0.4138866662979126,-0.08049377799034119,-0.3753991723060608
1790943261969125600,9.650125732421875,0.39851516485214233,-0.1896439641714096,-0.1472211480140686
1790943261979155700,9.66015576171875,0.3870864808559418,-0.30522969365119934,0.08413059264421463
1790943261989186800,9.670186767578125,0.3781214654445648,-0.35965776443481445,0.2456798106431961
1790943261999217000,9.680216796875,0.36090731620788574,-0.37948501110076904,0.41980233788490295
1790943262009247700,9.690247802734374,0.3205849528312683,-0.2883460521697998,0.5669875144958496
1790943262019278300,9.7002783203125,0.2739841341972351,-0.15730813145637512,0.7102813124656677
1790943262029309200,9.71030908203125,0.25175741314888,0.012618590146303177,0.8481712341308594
1790943262039339300,9.72033935546875,0.2459874004125595,0.16436924040317535,0.957512378692627
1790943262049370400,9.730370361328125,0.24559298157691956,0.27694985270500183,1.0495868921279907
1790943262059400400,9.740400390625,0.26650625467300415,0.3352791965007782,1.1299477815628052
1790943262069431300,9.750431396484375,0.2934238910675049,0.37443751096725464,1.235968828201294
1790943262079461400,9.76046142578125,0.3162223994731903,0.4802001714706421,1.34894859790802
1790943262089491500,9.770491455078124,0.28223782777786255,0.5944212675094604,1.5303384065628052
1790943262099522300,9.780522216796875,0.22984598577022552,0.6612128019332886,1.6809691190719604
1790943262109552400,9.790552490234376,0.20799580216407776,0.7367169260978699,1.7647128105163574
1790943262119583500,9.80058349609375,0.169852152466774,0.7906115651130676,1.8798617124557495
1790943262129613300,9.81061328125,0.1152469664812088,0.8270771503448486,2.020496129989624
1790943262139644400,9.82064453125,0.06777531653642654,0.9324331283569336,2.1370391845703125
1790943262149674500,9.830674560546875,-0.0111607750877738,1.0817760229110718,2.2836015224456787
1790943262159705300,9.840705322265626,-0.1149074137210846,1.2161860466003418,2.491461753845215
1790943262169735400,9.8507353515625,-0.22649812698364258,1.3158782720565796,2.668272018432617
1790943262179766500,9.8607666015625,-0.43731528520584106,1.3259868621826172,2.784104108810425
1790943262189796000,9.870796142578126,-0.5895034670829773,1.1737419366836548,2.933161973953247
1790943262199826200,9.880826171875,-0.584593653678894,1.034537672996521,2.9974844455718994
1790943262209857300,9.890857177734375,-0.4924520254135132,1.0329704284667969,2.922915458679199
1790943262219887400,9.900887451171876,-0.3781190812587738,1.0504127740859985,2.820796012878418
1790943262229918200,9.910918212890625,-0.24787637591362,0.9077972769737244,2.7805023193359375
1790943262239948300,9.9209482421875,-0.10170665383338928,0.6205572485923767,2.736374616622925
1790943262249979100,9.930979248046874,0.04789482057094574,0.33470529317855835,2.679312229156494
1790943262260009200,9.94100927734375,0.16722175478935242,0.14822594821453094,2.647068738937378
1790943262270040300,9.951040283203126,0.20196667313575745,0.037159353494644165,2.633330821990967
1790943262280070400,9.9610703125,0.1199415847659111,-0.032818932086229324,2.6242003440856934
1790943262290101200,9.971101318359375,0.03418886289000511,0.028979454189538956,2.581059694290161
1790943262300131300,9.98113134765625,-0.036256540566682816,0.10067255049943924,2.507794141769409
1790943262310162400,9.991162353515625,-0.06884004920721054,0.1238497719168663,2.4020450115203857
1790943262320192300,10.001192138671875,-0.016389358788728714,0.1584721952676773,2.2452194690704346
1790943262330222300,10.011222412109374,0.09183245152235031,0.14692287147045135,2.024989128112793
1790943262340253400,10.02125341796875,0.20307748019695282,0.15441487729549408,1.807922601699829
1790943262350283300,10.031283203125,0.30911150574684143,0.26734834909439087,1.6534477472305298
1790943262360314400,10.041314453125,0.39877480268478394,0.15162387490272522,1.600448727607727
1790943262370344400,10.051344482421875,0.4934360682964325,0.07772941887378693,1.5156813859939575
1790943262380375300,10.061375244140624,0.5548837184906006,0.25678572058677673,1.35672128200531
1790943262390405400,10.0714052734375,0.5670762062072754,0.44198647141456604,1.209019422531128
1790943262400436500,10.0814365234375,0.5620822310447693,0.49870699644088745,1.134290337562561
1790943262410466600,10.091466552734374,0.579727828502655,0.41797566413879395,1.1077409982681274
1790943262420497400,10.101497314453125,0.622403621673584,0.29837337136268616,1.0196439027786255
1790943262430527200,10.11152734375,0.6229764819145203,0.16177797317504883,0.8734659552574158
1790943262440557300,10.121557373046874,0.5054514408111572,0.07355650514364243,0.6683847308158875
1790943262450588200,10.131588134765625,0.3519116938114166,0.14341628551483154,0.3452546000480652
1790943262460618200,10.1416181640625,0.35354527831077576,0.29253679513931274,0.002794188680127263
1790943262470649300,10.1516494140625,0.38821589946746826,0.14727173745632172,-0.23791348934173584
1790943262480679200,10.16167919921875,0.3343161940574646,-0.3400643765926361,-0.3965822458267212
1790943262490710300,10.171710205078124,0.18710650503635406,-0.8216509819030762,-0.5698450803756714
1790943262500740400,10.181740234375,0.07033701241016388,-1.0229212045669556,-0.8070131540298462
1790943262510771200,10.191771240234376,0.03105405531823635,-1.0600475072860718,-1.0655925273895264
1790943262520801300,10.20180126953125,-0.005817675497382879,-1.0050021409988403,-1.2147178649902344
1790943262530832400,10.211832275390625,-0.03056137077510357,-0.8539335131645203,-1.1896729469299316
1790943262540862200,10.2218623046875,-0.021927936002612114,-0.5879103541374207,-1.0456465482711792
1790943262550893300,10.231893310546875,-0.035174764692783356,-0.2712426781654358,-0.8327459692955017
1790943262560923400,10.24192333984375,-0.069309301674366,0.03735829144716263,-0.6050171852111816
1790943262570953500,10.251953369140624,-0.07643085718154907,0.26463672518730164,-0.4138674736022949
1790943262580984300,10.261984375,-0.07407210022211075,0.2835747301578522,-0.3260851502418518
1790943262591014400,10.272014404296876,-0.03515532240271568,0.09016664326190948,-0.35412612557411194
1790943262601045200,10.282045166015624,0.03662485629320145,-0.04610677435994148,-0.46037960052490234
1790943262611075300,10.292075439453125,0.06967096030712128,-0.031790152192115784,-0.6017463207244873
1790943262621106400,10.3021064453125,0.08394123613834381,0.06747704744338989,-0.6968815922737122
1790943262631136500,10.312136474609375,0.09007369726896286,0.3007766008377075,-0.7060394287109375
1790943262641167400,10.32216748046875,0.08555325120687485,0.5603392124176025,-0.6137390732765198
1790943262651197400,10.332197509765624,0.048589907586574554,0.552379846572876,-0.5008860230445862
1790943262661228500,10.342228515625,-0.04800986871123314,0.22089509665966034,-0.4691762626171112
1790943262671258000,10.352258056640625,-0.19502781331539154,-0.22931121289730072,-0.5559228658676147
1790943262681289500,10.36228955078125,-0.3384172022342682,-0.5715921521186829,-0.6944628953933716
1790943262691319300,10.3723193359375,-0.4455417990684509,-0.6904218196868896,-0.7749907970428467
1790943262701349400,10.382349365234376,-0.5103322267532349,-0.5449213981628418,-0.7571704983711243
1790943262711380200,10.392380126953125,-0.4400287866592407,-0.22420834004878998,-0.6896423101425171
1790943262721410300,10.402410400390625,-0.32383665442466736,-0.13682043552398682,-0.7559952735900879
1790943262731441200,10.412441162109374,-0.22160695493221283,-0.26151230931282043,-0.9325724244117737
1790943262741471200,10.42247119140625,-0.18921546638011932,-0.2636960744857788,-1.1037583351135254
1790943262751502300,10.43250244140625,-0.2475496083498001,-0.05548083409667015,-1.2507588863372803
1790943262761532400,10.442532470703124,-0.2505826950073242,0.04602980986237526,-1.4002118110656738
1790943262771563300,10.452563232421875,-0.15862852334976196,-0.12055783718824387,-1.5699383020401
1790943262781593300,10.46259326171875,-0.0109474565833807,-0.30685955286026,-1.7475076913833618
1790943262791624200,10.472624267578125,0.10581564158201218,-0.5283189415931702,-1.9959734678268433
1790943262801654300,10.482654296875,0.1964467465877533,-0.7732807993888855,-2.3138158321380615
1790943262811685400,10.492685302734374,0.2899191677570343,-0.929785430431366,-2.6443119049072266
1790943262821715500,10.502715576171875,0.3747413754463196,-1.0516774654388428,-2.8092691898345947
1790943262831745300,10.512745361328125,0.43768545985221863,-0.9833666086196899,-2.729954957962036
1790943262841776400,10.5227763671875,0.43058574199676514,-0.7010611891746521,-2.4891040325164795
1790943262851806500,10.532806396484375,0.3429930508136749,-0.38970595598220825,-2.215623140335083
1790943262861837300,10.54283740234375,0.25496411323547363,-0.15859736502170563,-2.0204596519470215
1790943262871867400,10.552867431640625,0.18912199139595032,-0.024202806875109673,-1.9620932340621948
1790943262881898500,10.5628984375,0.16406376659870148,0.008822786621749401,-2.013582468032837
1790943262891928300,10.57292822265625,0.2046271711587906,-0.059312060475349426,-2.171283721923828
1790943262901959400,10.58295947265625,0.2904113233089447,-0.22336864471435547,-2.418121337890625
1790943262911989200,10.5929892578125,0.30734503269195557,-0.5191336870193481,-2.6489694118499756
1790943262922020400,10.603020263671874,0.35136815905570984,-0.8234589695930481,-2.8085391521453857
1790943262932050200,10.61305029296875,0.36744219064712524,-1.0785679817199707,-2.809757947921753
1790943262942080300,10.623080322265626,0.29625269770622253,-1.1949074268341064,-2.707744836807251
1790943262952111400,10.633111328125,0.16482196748256683,-1.2226396799087524,-2.5230205059051514
1790943262962141200,10.64314111328125,-0.03674736246466637,-1.3325831890106201,-2.236811876296997
1790943262972172300,10.65317236328125,-0.11881905794143677,-1.4998009204864502,-2.0171432495117188
1790943262982202400,10.663202392578125,-0.10120464861392975,-1.6482911109924316,-1.921420693397522
1790943262992233200,10.673233154296875,-0.12469745427370071,-1.6916459798812866,-1.8143572807312012
1790943263002263300,10.68326318359375,-0.1661764532327652,-1.5060982704162598,-1.5820766687393188
1790943263012294400,10.69329443359375,-0.10698024183511734,-1.1811566352844238,-1.3233870267868042
1790943263022324700,10.70332470703125,0.05809073522686958,-0.7757785320281982,-1.1624703407287598
1790943263032355800,10.71335595703125,0.20340745151042938,-0.42044761776924133,-1.126285433769226
1790943263042385700,10.7233857421875,0.2979576587677002,-0.050816308706998825,-1.1494389772415161
1790943263052416800,10.733416748046874,0.37898939847946167,0.3111099302768707,-1.203839898109436
1790943263062446600,10.743446533203125,0.5064999461174011,0.7207632660865784,-1.2195557355880737
1790943263072476700,10.7534765625,0.6572508215904236,1.1259373426437378,-1.190691351890564
1790943263082507500,10.763507568359374,0.8781288862228394,1.258932113647461,-1.0180153846740723
1790943263092537600,10.77353759765625,1.0158965587615967,1.03365957736969,-0.6690102815628052
1790943263102568700,10.783568603515626,1.0338513851165771,0.834810733795166,-0.36736947298049927
1790943263112598800,10.793598876953125,0.892730712890625,0.7797780632972717,-0.19955065846443176
1790943263122629600,10.803629638671875,0.6250393986701965,0.7263814210891724,-0.14326688647270203
1790943263132659700,10.81365966796875,0.41990405321121216,0.5987366437911987,-0.08941270411014557
1790943263142690600,10.823690673828125,0.36162319779396057,0.454397052526474,0.022596122696995735
1790943263152720600,10.833720703125,0.35859358310699463,0.2562349736690521,0.13535675406455994
1790943263162751700,10.843751708984374,0.38103336095809937,0.1342800408601761,0.22231829166412354
1790943263172781800,10.85378173828125,0.42670097947120667,0.06880036741495132,0.3060848116874695
1790943263182812700,10.863812744140626,0.4648188054561615,-0.01079831924289465,0.49134522676467896
1790943263192842800,10.8738427734375,0.4559344947338104,-0.0020421119406819344,0.6883448362350464
1790943263202872800,10.883872802734375,0.40545323491096497,0.04609532281756401,0.8773483037948608
1790943263212903700,10.893903564453124,0.3383639454841614,0.0976213663816452,1.0869507789611816
1790943263222933800,10.903933837890625,0.2796438932418823,0.19174759089946747,1.2717288732528687
1790943263232964900,10.91396484375,0.20707009732723236,0.28579846024513245,1.452419638633728
1790943263242994700,10.92399462890625,0.1178496703505516,0.3823798596858978,1.6656149625778198
1790943263253025800,10.93402587890625,0.02369813807308674,0.4895281493663788,1.8864160776138306
1790943263263056000,10.944055908203126,-0.0746486708521843,0.6449691653251648,2.0614805221557617
1790943263273086700,10.954086669921875,-0.17072619497776031,0.8085817694664001,2.241088390350342
1790943263283116500,10.964116455078125,-0.26761332154273987,0.9709696173667908,2.4217209815979004
1790943263293148000,10.97414794921875,-0.36808401346206665,1.108716607093811,2.578789472579956
1790943263303177500,10.984177490234375,-0.4519014060497284,1.1644327640533447,2.718660354614258
1790943263313207600,10.99420751953125,-0.5031885504722595,1.2311301231384277,2.848649024963379
1790943263323238700,11.00423876953125,-0.5344114899635315,1.269465446472168,2.965883493423462
1790943263333268700,11.014268798828125,-0.6031109094619751,1.26548433303833,3.117351531982422
1790943263343299600,11.024299560546876,-0.6951547861099243,1.338261365890503,3.245365619659424
1790943263353329700,11.03432958984375,-0.7780619263648987,1.4778202772140503,3.3615965843200684
1790943263363360800,11.04436083984375,-0.8506773114204407,1.3780910968780518,3.511996269226074
1790943263373390600,11.054390625,-0.8947606086730957,0.9237973093986511,3.5846893787384033
1790943263383421700,11.064421630859375,-0.8302119970321655,0.6191266179084778,3.414095878601074
1790943263393451800,11.07445166015625,-0.7309697866439819,0.5244946479797363,3.158818483352661
1790943263403482600,11.084482666015624,-0.6487169861793518,0.35553625226020813,2.9534239768981934
1790943263413512700,11.0945126953125,-0.5408310294151306,0.1753302812576294,2.802349805831909
1790943263423543800,11.104543701171876,-0.4356769025325775,0.03590340539813042,2.676912546157837
1790943263433573600,11.11457373046875,-0.3701341152191162,-0.012928581796586514,2.6095869541168213
1790943263443603700,11.124603759765625,-0.3082350492477417,-0.04011226445436478,2.5677688121795654
1790943263453634800,11.134634765625,-0.21667878329753876,-0.1957354098558426,2.5012261867523193
1790943263463665000,11.144664794921875,-0.07208910584449768,-0.26693156361579895,2.345120429992676
1790943263473695700,11.15469580078125,0.12322366237640381,-0.2760201394557953,2.11669921875
1790943263483725800,11.164725830078124,0.2995568811893463,-0.3067074716091156,1.9031620025634766
1790943263493756700,11.174756591796875,0.4340936541557312,-0.2682380974292755,1.72670578956604
1790943263503786800,11.184786865234376,0.5360383987426758,-0.07065872102975845,1.5559324026107788
1790943263513817900,11.19481787109375,0.5335190296173096,0.11088363826274872,1.4181993007659912
1790943263523847700,11.20484765625,0.4762307107448578,0.22769148647785187,1.3087340593338013
1790943263533878800,11.214878662109374,0.39102795720100403,0.28439682722091675,1.2232588529586792
1790943263543908600,11.22490869140625,0.30905982851982117,0.234519824385643,1.1441947221755981
1790943263553939500,11.234939453125,0.24425767362117767,0.1021018698811531,1.0497989654541016
1790943263563969500,11.244969482421874,0.17196963727474213,-0.08492980152368546,0.954656720161438
1790943263573999600,11.25499951171875,0.10792487114667892,-0.2986266314983368,0.8746734261512756
1790943263584030700,11.26503076171875,0.07151573151350021,-0.4702034592628479,0.8065710663795471
1790943263594060500,11.275060546875,0.05846836790442467,-0.5802178382873535,0.7292184829711914
1790943263604091600,11.285091552734375,0.05546698719263077,-0.6298295855522156,0.6045753955841064
1790943263614121700,11.295121826171876,0.04932893440127373,-0.7570496201515198,0.4270320236682892
1790943263624152600,11.305152587890625,0.024594824761152267,-0.8834954500198364,0.20903603732585907
1790943263634182700,11.3151826171875,0.02839835174381733,-0.882335364818573,-0.014135260134935379
1790943263644213800,11.3252138671875,0.06283515691757202,-0.7870998978614807,-0.20448070764541626
1790943263654243600,11.33524365234375,0.09601894021034241,-0.6840198636054993,-0.35144245624542236
1790943263664274700,11.345274658203126,0.09174536913633347,-0.617838442325592,-0.4719747304916382
1790943263674304800,11.3553046875,0.05096970871090889,-0.5497992038726807,-0.5852789282798767
1790943263684335600,11.365335693359375,-0.011136540211737156,-0.43253836035728455,-0.7177658677101135
1790943263694365700,11.37536572265625,-0.05818048119544983,-0.3049013018608093,-0.8822205662727356
1790943263704395800,11.385395751953125,-0.06261944025754929,-0.1766464114189148,-1.0482287406921387
1790943263714427000,11.395427001953125,-0.04296344518661499,-0.017183514311909676,-1.1915922164916992
1790943263724456700,11.405456787109374,-0.019765716046094894,0.1522132307291031,-1.2884594202041626
1790943263734487800,11.41548779296875,-0.0026991136837750673,0.2520431578159332,-1.3040798902511597
1790943263744518000,11.425517822265626,0.011999671347439289,0.24356898665428162,-1.2425118684768677
1790943263754548700,11.435548828125,0.03840997442603111,0.17937907576560974,-1.1511154174804688
1790943263764578600,11.44557861328125,0.06599605828523636,0.18151892721652985,-1.0597155094146729
1790943263774610000,11.45560986328125,0.08134332299232483,0.27162379026412964,-0.9795801639556885
1790943263784639500,11.465639404296875,0.0717594102025032,0.34024545550346375,-0.8977223038673401
1790943263794670600,11.475670654296875,0.0566672757267952,0.37521329522132874,-0.8187845945358276
1790943263804700700,11.48570068359375,0.04476507380604744,0.4218716025352478,-0.768088161945343
1790943263814731500,11.4957314453125,0.011486213654279709,0.4573100209236145,-0.7722357511520386
1790943263824761600,11.50576171875,-0.027834560722112656,0.4217075705528259,-0.8547125458717346
1790943263834791700,11.515791748046874,-0.07172878086566925,0.33561795949935913,-1.037899136543274
1790943263844822500,11.525822509765625,-0.1328728348016739,0.25068041682243347,-1.2867268323898315
1790943263854852600,11.5358525390625,-0.18501140177249908,0.1824800670146942,-1.546575665473938
1790943263864883700,11.5458837890625,-0.24732190370559692,0.15123505890369415,-1.7379932403564453
1790943263874913800,11.555913818359375,-0.3090774118900299,0.17017918825149536,-1.8000156879425049
1790943263884944600,11.565944580078124,-0.32346275448799133,0.13846972584724426,-1.708579421043396
1790943263894974700,11.575974609375,-0.3311350643634796,0.10464411973953247,-1.5755423307418823
1790943263905005600,11.586005615234376,-0.3475545048713684,0.053203035145998,-1.4620839357376099
1790943263915035600,11.59603564453125,-0.36673566699028015,-0.11490634828805923,-1.3809922933578491
1790943263925066800,11.606066650390625,-0.3830573558807373,-0.38601961731910706,-1.3505523204803467
1790943263935096800,11.616096923828126,-0.39062660932540894,-0.7210178375244141,-1.3960617780685425
1790943263945127700,11.626127685546875,-0.36442723870277405,-1.062716007232666,-1.524401068687439
1790943263955157800,11.63615771484375,-0.28412333130836487,-1.2787569761276245,-1.745764970779419
1790943263965187800,11.646187744140626,-0.17344501614570618,-1.2848681211471558,-2.0164954662323
1790943263975218700,11.65621875,-0.12858647108078003,-1.384225606918335,-2.2178750038146973
1790943263985248800,11.666248779296875,-0.09398641437292099,-1.4504121541976929,-2.323620319366455
1790943263995280000,11.67627978515625,-0.05969768390059471,-1.4370646476745605,-2.355191469192505
1790943264005309700,11.686309814453125,-0.050694335252046585,-1.4421541690826416,-2.3037216663360596
1790943264015340800,11.6963408203125,-0.05770457535982132,-1.4515937566757202,-2.2261078357696533
1790943264025369300,11.706369384765624,-0.08139313012361526,-1.541999340057373,-2.1927530765533447
1790943264035400400,11.716400390625,-0.09507165104150772,-1.78617525100708,-2.2419450283050537
1790943264045430500,11.726430419921876,-0.09603998064994812,-1.9717442989349365,-2.3258779048919678
1790943264055461400,11.73646142578125,-0.10779757052659988,-1.9612975120544434,-2.4018421173095703
1790943264065491500,11.746491455078125,-0.0748303011059761,-1.7758387327194214,-2.43679141998291
1790943264075522300,11.756522216796874,-0.011655324138700962,-1.5285263061523438,-2.4016027450561523
1790943264085552400,11.766552490234375,0.04374881088733673,-1.2790377140045166,-2.3223021030426025
1790943264095582200,11.776582275390625,0.08629201352596283,-1.0477075576782227,-2.236855983734131
1790943264105613600,11.786613525390624,0.10651152580976486,-0.8383532762527466,-2.1873843669891357
1790943264115643100,11.79664306640625,0.14381469786167145,-0.6633204221725464,-2.1467182636260986
1790943264125674200,11.80667431640625,0.21358925104141235,-0.5362794399261475,-2.079279899597168
1790943264135704300,11.816704345703124,0.2664223611354828,-0.3634522557258606,-2.003664493560791
1790943264145735200,11.826735107421875,0.26290032267570496,-0.12735848128795624,-1.9195442199707031
1790943264155765200,11.83676513671875,0.21861542761325836,0.061469484120607376,-1.8102400302886963
1790943264165796400,11.84679638671875,0.15102440118789673,0.19146104156970978,-1.6750303506851196
1790943264175826400,11.856826416015625,0.0686887800693512,0.28541335463523865,-1.5571696758270264
1790943264185857300,11.866857177734374,0.021869879215955734,0.4233302175998688,-1.489344596862793
1790943264195887400,11.876887451171875,0.0032288164366036654,0.5309048891067505,-1.3658030033111572
1790943264205918200,11.886918212890626,0.014461496844887733,0.5578060150146484,-1.132053256034851
1790943264215948300,11.8969482421875,0.026739202439785004,0.5363180041313171,-0.8998943567276001
1790943264225978400,11.906978271484375,0.03333745151758194,0.5313123464584351,-0.7651221752166748
1790943264236009500,11.917009521484376,-0.006627808790653944,0.5347331762313843,-0.6416359543800354
1790943264246039300,11.927039306640625,-0.055334363132715225,0.4960707426071167,-0.44595617055892944
1790943264256070400,11.9370703125,-0.060848169028759,0.49649712443351746,-0.16993418335914612
1790943264266100500,11.9471005859375,-0.01441116351634264,0.528998851776123,0.09841632097959518
1790943264276131300,11.95713134765625,0.041133586317300797,0.5420216917991638,0.33481499552726746
1790943264286161400,11.967161376953126,0.06724108755588531,0.5039012432098389,0.5705734491348267
1790943264296192500,11.977192626953125,0.07079427689313889,0.5119106769561768,0.799176037311554
1790943264306222300,11.987222412109375,0.08128207176923752,0.5222213864326477,1.0289593935012817
1790943264316253400,11.99725341796875,0.11036752164363861,0.5710914731025696,1.2239196300506592
1790943264326283500,12.007283447265625,0.16947877407073975,0.663046658039093,1.3622044324874878
1790943264336314400,12.017314453125,0.23758938908576965,0.717293381690979,1.4831743240356445
1790943264346344400,12.027344482421874,0.2769533097743988,0.7136847972869873,1.6357156038284302
1790943264356374300,12.037374267578125,0.2957957088947296,0.7121015787124634,1.7948129177093506
1790943264366405400,12.0474052734375,0.3072635531425476,0.7014808654785156,1.9425618648529053
1790943264376435200,12.057435302734374,0.30185893177986145,0.6520763039588928,2.091348171234131
1790943264386466300,12.06746630859375,0.2963389754295349,0.6049463748931885,2.24501371383667
1790943264396496400,12.077496337890626,0.29459327459335327,0.5952165126800537,2.414316177368164
1790943264406527200,12.08752734375,0.29217568039894104,0.6132591366767883,2.605546236038208
1790943264416557300,12.097557373046875,0.2904861569404602,0.6278884410858154,2.803863048553467
1790943264426588400,12.10758837890625,0.302534818649292,0.6321015357971191,2.956632614135742
1790943264436618200,12.1176181640625,0.3184205889701843,0.5896590352058411,3.044562578201294
1790943264446649300,12.1276494140625,0.31783390045166016,0.5163722634315491,3.082932949066162
1790943264456679400,12.137679443359374,0.21087495982646942,0.41514819860458374,3.09535813331604
1790943264466710300,12.147710205078125,0.06465861946344376,0.295960009098053,3.114830732345581
1790943264476740400,12.157740234375,0.01930711790919304,0.34251606464385986,3.1444451808929443
1790943264486770400,12.1677705078125,0.00914209894835949,0.4012387692928314,3.1578128337860107
1790943264496801300,12.17780126953125,-0.01757153682410717,0.3370768427848816,3.1534805297851562
1790943264506831400,12.187831298828126,-0.03873727470636368,0.23930738866329193,3.1106226444244385
1790943264516862500,12.197862548828125,-0.07499568164348602,0.17900118231773376,2.982940673828125
1790943264526892500,12.207892578125,-0.12130698561668396,0.09975562244653702,2.769451141357422
1790943264536923400,12.21792333984375,-0.17504557967185974,-0.04761305823922157,2.524916648864746
1790943264546953500,12.227953369140625,-0.25405624508857727,-0.20926214754581451,2.348442316055298
1790943264556984300,12.237984375,-0.324983149766922,-0.3174799680709839,2.2770192623138428
1790943264567014400,12.248014404296875,-0.37537363171577454,-0.37267929315567017,2.2564234733581543
1790943264577045500,12.25804541015625,-0.39822834730148315,-0.3712523877620697,2.1963107585906982
1790943264587075600,12.26807568359375,-0.3853077292442322,-0.3238055109977722,2.077641725540161
1790943264597106400,12.2781064453125,-0.34838300943374634,-0.3077905774116516,1.942448377609253
1790943264607136300,12.28813623046875,-0.3069263696670532,-0.32165685296058655,1.8364250659942627
1790943264617167400,12.29816748046875,-0.28064656257629395,-0.29691529273986816,1.766783356666565
1790943264627197200,12.308197265625,-0.24012711644172668,-0.1835290789604187,1.6968508958816528
1790943264637227300,12.318227294921876,-0.16783641278743744,-0.018690064549446106,1.6189502477645874
1790943264647258400,12.32825830078125,-0.07657280564308167,0.2138398438692093,1.5600241422653198
1790943264657288200,12.3382880859375,0.016773387789726257,0.42998653650283813,1.4991511106491089
1790943264667319300,12.3483193359375,0.09460267424583435,0.5745538473129272,1.410014033317566
1790943264677349400,12.358349365234375,0.12027501314878464,0.646298885345459,1.2568930387496948
1790943264687380200,12.368380126953125,0.11803556233644485,0.7524117231369019,1.0156571865081787
1790943264697410300,12.378410400390624,0.10050849616527557,0.8921182155609131,0.7118679881095886
1790943264707441400,12.38844140625,0.0709197148680687,0.9478485584259033,0.3683282136917114
1790943264717471500,12.398471435546876,0.07763540744781494,0.7057321071624756,-0.02977893501520157
1790943264727502300,12.40850244140625,0.14231640100479126,0.22633832693099976,-0.4454842507839203
1790943264737532400,12.418532470703125,0.2750166654586792,-0.29619571566581726,-0.7345693111419678
1790943264747563300,12.428563232421874,0.3398747444152832,-0.6034864187240601,-0.7384748458862305
1790943264757593300,12.43859326171875,0.33050522208213806,-0.6061692833900452,-0.5772955417633057
1790943264767624400,12.44862451171875,0.29838377237319946,-0.3654831647872925,-0.4576578438282013
1790943264777654500,12.458654541015624,0.28687918186187744,-0.025055551901459694,-0.4842036962509155
1790943264787684400,12.468684326171875,0.3030341863632202,0.22572340071201324,-0.6796885132789612
1790943264797715500,12.478715576171876,0.29698747396469116,0.30575644969940186,-0.9599118828773499
1790943264807745500,12.48874560546875,0.2787837088108063,0.2848530411720276,-1.2169228792190552
1790943264817776400,12.4987763671875,0.26718243956565857,0.1921292245388031,-1.4258718490600586
1790943264827806500,12.508806396484376,0.2761263847351074,0.05798553675413132,-1.609495759010315
1790943264837837600,12.518837646484375,0.3188325762748718,-0.07205528765916824,-1.7775238752365112
1790943264847867100,12.5288671875,0.3706582188606262,-0.1914013922214508,-1.8993523120880127
1790943264857898500,12.5388984375,0.4311058521270752,-0.29878270626068115,-1.9309337139129639
1790943264867928300,12.54892822265625,0.4831669330596924,-0.36386317014694214,-1.8687547445297241
