time,seconds_elapsed,z,y,x
1789038610498076700,0.07207666015625,0,0,0
1789038610508076500,0.08207666015625,-0.7212953567504883,0.05293232202529907,-0.4760171175003052
1789038610518076700,0.09207666015625,-1.214888572692871,0.1401854157447815,-0.9984402656555176
1789038610528076500,0.10207666015625,-1.253377914428711,0.39038968086242676,-1.3602917194366455
1789038610538076700,0.11207666015625,-0.903618335723877,0.5847960710525513,-1.548551082611084
1789038610548076500,0.12207666015625,-0.4736518859863281,-0.21598100662231445,-0.3904306888580322
1789038610558076700,0.13207666015625,-0.3770890235900879,-0.8501553535461426,0.8814475536346436
1789038610568076500,0.14207666015625,0.43447160720825195,-0.3504061996936798,1.0153393745422363
1789038610578076700,0.15207666015625,1.2053918838500977,-0.020508527755737305,1.2059326171875
1789038610588076500,0.16207666015625,2.1531319618225098,0.2563311457633972,0.5737601518630981
1789038610598076700,0.17207666015625,2.9712324142456055,0.7412824630737305,-0.3537569046020508
1789038610608076500,0.18207666015625,3.112325668334961,1.0235507488250732,-0.8510539531707764
1789038610618076700,0.19207666015625,2.466019630432129,1.1381242275238037,-1.172053337097168
1789038610628076500,0.20207666015625,1.5439691543579102,1.1644598245620728,-1.7632510662078857
1789038610638076700,0.21207666015625,0.3920621871948242,1.1469331979751587,-2.827749490737915
1789038610648076500,0.22207666015625,0.058907508850097656,1.4319614171981812,-3.532766819000244
1789038610658076700,0.23207666015625,-0.34397029876708984,1.193732738494873,-3.2256031036376953
1789038610668076500,0.24207666015625,-0.2567901611328125,-0.21995103359222412,-1.4674415588378906
1789038610678076700,0.25207666015625,-0.3637886047363281,-1.0368629693984985,0.0050506591796875
1789038610688076500,0.26207666015625,-0.38362884521484375,-0.4059295654296875,0.2541782855987549
1789038610698076700,0.27207666015625,-0.14925003051757812,0.2887284755706787,0.21139049530029297
1789038610708076500,0.28207666015625,0.10184764862060547,0.1072160005569458,0.6263232231140137
1789038610718076700,0.29207666015625,0.3951559066772461,-0.2223299741744995,1.3474276065826416
1789038610728076500,0.30207666015625,0.6049013137817383,-0.23192858695983887,1.7729099988937378
1789038610738076700,0.31207666015625,0.5746994018554688,-0.14402174949645996,1.8751988410949707
1789038610748076500,0.32207666015625,0.6773109436035156,0.003278493881225586,1.4661297798156738
1789038610758076700,0.33207666015625,1.3141584396362305,0.5921921730041504,0.6621344089508057
1789038610768076500,0.34207666015625,1.457498550415039,0.8143231868743896,0.5671365261077881
1789038610778076700,0.35207666015625,1.3798675537109375,0.5876166820526123,0.39151620864868164
1789038610788076500,0.36207666015625,0.8449010848999023,0.23246431350708008,0.3101387023925781
1789038610798076700,0.37207666015625,0.1905374526977539,0.15626072883605957,-0.08363127708435059
1789038610808076500,0.38207666015625,-0.4216775894165039,0.38158726692199707,-0.5270202159881592
1789038610818076700,0.39207666015625,-0.944061279296875,0.27306437492370605,-0.02402949333190918
1789038610828076500,0.40207666015625,-0.9757566452026367,0.0036067962646484375,0.11641812324523926
1789038610838076700,0.41207666015625,-0.6721582412719727,0.03373122215270996,-0.07462382316589355
1789038610848076500,0.42207666015625,-0.5908966064453125,0.03983807563781738,-0.03619575500488281
1789038610858076700,0.43207666015625,-0.09051513671875,-0.09111714363098145,-0.08168411254882812
1789038610868076500,0.44207666015625,0.12492084503173828,-0.25858187675476074,-0.010824918746948242
1789038610878076700,0.45207666015625,0.23836231231689453,-0.20412635803222656,-0.033429622650146484
1789038610888076500,0.46207666015625,0.3915557861328125,0.019896984100341797,-0.16045451164245605
1789038610898076700,0.47207666015625,0.7267074584960938,0.28448486328125,-0.3214092254638672
1789038610908076500,0.48207666015625,1.1629657745361328,0.30035877227783203,-0.31695127487182617
1789038610918076700,0.49207666015625,0.9431724548339844,-0.02828049659729004,-0.11338281631469727
1789038610928076500,0.50207666015625,0.4967050552368164,-0.3646245002746582,0.23633241653442383
1789038610938076700,0.51207666015625,0.012340545654296875,-0.6037962436676025,0.5560210943222046
1789038610948076500,0.52207666015625,-0.09818458557128906,-0.46301937103271484,0.8121662139892578
1789038610958076700,0.53207666015625,-0.14457988739013672,-0.08639121055603027,0.672778844833374
1789038610968076500,0.54207666015625,-0.11425590515136719,0.2261824607849121,0.49970054626464844
1789038610978076700,0.55207666015625,0.06599903106689453,0.23100996017456055,0.5846891403198242
1789038610988076500,0.56207666015625,0.23423099517822266,0.05950140953063965,0.8747421503067017
1789038610998076700,0.57207666015625,0.35541248321533203,-0.020596981048583984,1.017227292060852
1789038611008076500,0.58207666015625,0.43022823333740234,-0.17093110084533691,0.9906498193740845
1789038611018076700,0.59207666015625,0.19651126861572266,-0.3066215515136719,0.8409489393234253
1789038611028076500,0.60207666015625,-0.028771400451660156,-0.31404972076416016,0.739001452922821
1789038611038076700,0.61207666015625,-0.43195152282714844,-0.17974472045898438,0.8282045125961304
1789038611048076500,0.62207666015625,-0.4726858139038086,-0.03246784210205078,0.8652244210243225
1789038611058076700,0.63207666015625,-0.38358402252197266,0.07434487342834473,0.8706796169281006
1789038611068076500,0.64207666015625,-0.0957489013671875,0.062306880950927734,0.8999879360198975
1789038611078076700,0.65207666015625,0.17653751373291016,-0.036516427993774414,0.8595665693283081
1789038611088076500,0.66207666015625,0.2594642639160156,-0.11069226264953613,0.6401660442352295
1789038611098076700,0.67207666015625,0.26282405853271484,-0.125563383102417,0.23300492763519287
1789038611108076500,0.68207666015625,-0.050856590270996094,-0.12474167346954346,0.02912396565079689
1789038611118076700,0.69207666015625,-0.5214157104492188,-0.0893411636352539,0.04538769647479057
1789038611128076500,0.70207666015625,-0.7262496948242188,0.10364103317260742,-0.12094011902809143
1789038611138076700,0.71207666015625,-0.6240825653076172,0.3121267557144165,-0.2934207022190094
1789038611148076500,0.72207666015625,-0.15216827392578125,0.3878316879272461,-0.4348986744880676
1789038611158076700,0.73207666015625,0.3344583511352539,0.18874192237854004,-0.06468470394611359
1789038611168076500,0.74207666015625,0.5262651443481445,-0.22153258323669434,0.4862302839756012
1789038611178076700,0.75207666015625,0.5475654602050781,-0.36923253536224365,0.39278680086135864
1789038611188076500,0.76207666015625,0.520390510559082,-0.2599472999572754,0.0688256323337555
1789038611198076700,0.77207666015625,0.6928234100341797,-0.161696195602417,0.003954201936721802
1789038611208076500,0.78207666015625,1.18841552734375,-0.20883715152740479,0.1854425072669983
1789038611218076700,0.79207666015625,1.498641014099121,-0.2416074275970459,0.24181562662124634
1789038611228076500,0.80207666015625,1.6622047424316406,-0.29553377628326416,0.30799853801727295
1789038611238076700,0.81207666015625,1.8270111083984375,-0.3487515449523926,0.34228333830833435
1789038611248076500,0.82207666015625,1.8169221878051758,-0.3825066089630127,0.3811018466949463
1789038611258076700,0.83207666015625,1.4814701080322266,-0.31882309913635254,0.4041912257671356
1789038611268076500,0.84207666015625,1.0530815124511719,-0.22038155794143677,0.3063441514968872
1789038611278076700,0.85207666015625,0.6182737350463867,-0.09491896629333496,0.22728657722473145
1789038611288076500,0.86207666015625,0.4220552444458008,-0.02822136878967285,0.12863779067993164
1789038611298076700,0.87207666015625,0.38045310974121094,-0.02263665199279785,0.09069883823394775
1789038611308076500,0.88207666015625,0.2576627731323242,-0.08454334735870361,-0.02925848960876465
1789038611318076700,0.89207666015625,0.26030635833740234,-0.2026592493057251,-0.09359633922576904
1789038611328076500,0.90207666015625,0.3288583755493164,-0.2244691252708435,-0.259846568107605
1789038611338076700,0.91207666015625,0.23541259765625,-0.2011730670928955,-0.2723867893218994
1789038611348076500,0.92207666015625,0.14083480834960938,-0.14593899250030518,-0.08453905582427979
1789038611358076700,0.93207666015625,0.051972389221191406,-0.10043823719024658,0.06673669815063477
1789038611368076500,0.94207666015625,-0.20544052124023438,-0.057988882064819336,0.10762214660644531
1789038611378076700,0.95207666015625,-0.5305099487304688,-0.01914989948272705,0.12696778774261475
1789038611388076500,0.96207666015625,-0.6469173431396484,-0.016272664070129395,-0.04406940937042236
1789038611398076700,0.97207666015625,-0.5628061294555664,-0.05461418628692627,-0.19075632095336914
1789038611408076500,0.98207666015625,-0.4358091354370117,-0.12327814102172852,-0.16495072841644287
1789038611418076700,0.99207666015625,-0.3414945602416992,-0.08534348011016846,-0.014058828353881836
1789038611428076500,1.00207666015625,-0.20128726959228516,0.024888277053833008,0.1760932207107544
1789038611438076700,1.01207666015625,-0.06441783905029297,0.06942236423492432,0.22069001197814941
1789038611448076500,1.02207666015625,0.02479076385498047,0.023555517196655273,0.16598749160766602
1789038611458076700,1.03207666015625,-0.008787155151367188,-0.049114108085632324,0.026860594749450684
1789038611468076500,1.04207666015625,-0.05959320068359375,-0.1455228328704834,-0.0001589059829711914
1789038611478076700,1.05207666015625,-0.12927722930908203,-0.2311326265335083,0.020093560218811035
1789038611488076500,1.06207666015625,-0.19741058349609375,-0.1827939748764038,0.024654865264892578
1789038611498076700,1.07207666015625,-0.049495697021484375,-0.04700589179992676,0.04995989799499512
1789038611508076500,1.08207666015625,0.1356658935546875,0.09145486354827881,0.0823136568069458
1789038611518076700,1.09207666015625,0.31551265716552734,0.113533616065979,0.028197526931762695
1789038611528076500,1.10207666015625,0.23027420043945312,0.06012153625488281,0.01808619499206543
1789038611538076700,1.11207666015625,-0.004969596862792969,-0.007526874542236328,-0.09453141689300537
1789038611548076500,1.12207666015625,-0.24677085876464844,-0.027971386909484863,-0.12007105350494385
1789038611558076700,1.13207666015625,-0.42156410217285156,-0.00966346263885498,-0.040457725524902344
1789038611568076500,1.14207666015625,-0.5352573394775391,-0.01226663589477539,0.025442957878112793
1789038611578076700,1.15207666015625,-0.4308958053588867,0.010161042213439941,0.020239591598510742
1789038611588076500,1.16207666015625,-0.0758676528930664,0.0055474042892456055,0.14090955257415771
1789038611598076700,1.17207666015625,0.36536598205566406,0.0640939474105835,0.3372001647949219
1789038611608076500,1.18207666015625,0.7272987365722656,0.1875624656677246,0.382188081741333
1789038611618076700,1.19207666015625,0.8192958831787109,0.27274465560913086,0.30551958084106445
1789038611628076500,1.20207666015625,0.6724691390991211,0.23063862323760986,0.23984777927398682
1789038611638076700,1.21207666015625,0.5007209777832031,0.12439119815826416,0.23596227169036865
1789038611648076500,1.22207666015625,0.19160175323486328,0.04503822326660156,0.0960996150970459
1789038611658076700,1.23207666015625,-0.07433414459228516,0.042944908142089844,0.059090375900268555
1789038611668076500,1.24207666015625,-0.21752071380615234,0.08920061588287354,0.12026560306549072
1789038611678076700,1.25207666015625,-0.23100852966308594,0.17479753494262695,0.20598113536834717
1789038611688076500,1.26207666015625,-0.29691314697265625,0.24782586097717285,0.21455860137939453
1789038611698076700,1.27207666015625,-0.2969398498535156,0.20796000957489014,0.2769286632537842
1789038611708076500,1.28207666015625,-0.16683578491210938,0.12620604038238525,0.3080693483352661
1789038611718076700,1.29207666015625,0.1316213607788086,0.08045005798339844,0.2913932800292969
1789038611728076500,1.30207666015625,0.36963367462158203,0.12736713886260986,0.39779210090637207
1789038611738076700,1.31207666015625,0.3579235076904297,0.2373112440109253,0.6501154899597168
1789038611748076500,1.32207666015625,0.1750335693359375,0.43636059761047363,1.0039197206497192
1789038611758076700,1.33207666015625,-0.20043373107910156,0.4741206169128418,1.6179198026657104
1789038611768076500,1.34207666015625,-0.3058490753173828,0.6744725704193115,1.2786445617675781
1789038611778076700,1.35207666015625,-0.5004510879516602,0.7882052659988403,0.6717995405197144
1789038611788076500,1.36207666015625,-0.9389972686767578,0.5013115406036377,0.51790452003479
1789038611798076700,1.37207666015625,-0.5730600357055664,0.14335906505584717,0.6509786248207092
1789038611808076500,1.38207666015625,-0.5092077255249023,-0.024695634841918945,0.8166269659996033
1789038611818076700,1.39207666015625,-0.5372028350830078,-0.4016857147216797,0.36381298303604126
1789038611828076500,1.40207666015625,-0.26763439178466797,0.15025627613067627,0.5427737236022949
1789038611838076700,1.41207666015625,0.5482854843139648,0.6302669048309326,1.2668514251708984
1789038611848076500,1.42207666015625,0.7935142517089844,0.41132473945617676,2.4523110389709473
1789038611858076700,1.43207666015625,1.392350196838379,0.1598886251449585,3.513385772705078
1789038611868076500,1.44207666015625,4.08840274810791,-0.13258540630340576,3.6277832984924316
1789038611878076700,1.45207666015625,2.5232601165771484,-0.32877838611602783,2.571704626083374
1789038611888076500,1.46207666015625,1.9510917663574219,-0.06987619400024414,1.6450495719909668
1789038611898076700,1.47207666015625,1.3344078063964844,-0.21077454090118408,1.4517548084259033
1789038611908076500,1.48207666015625,0.5372161865234375,-0.8957831859588623,0.3249129354953766
1789038611918076700,1.49207666015625,0.9991931915283203,-1.6713263988494873,-0.7258358597755432
1789038611928076500,1.50207666015625,2.1881160736083984,-1.7931623458862305,-0.8941461443901062
1789038611938076700,1.51207666015625,2.922731399536133,-0.589235782623291,0.5860815048217773
1789038611948076500,1.52207666015625,2.476168632507324,-0.6387349367141724,2.2595133781433105
1789038611958076700,1.53207666015625,0.9803533554077148,-0.5542906522750854,2.462926149368286
1789038611968076500,1.54207666015625,-0.3579292297363281,-0.6613001823425293,1.0324946641921997
1789038611978076700,1.55207666015625,-1.3741216659545898,-1.2813851833343506,-0.28073662519454956
1789038611988076500,1.56207666015625,-1.5788993835449219,-1.3432437181472778,-1.4057105779647827
1789038611998076700,1.57207666015625,-1.0129737854003906,-1.657850742340088,-1.9092096090316772
1789038612008076500,1.58207666015625,0.3166465759277344,-2.1034367084503174,-2.2151601314544678
1789038612018076700,1.59207666015625,0.8088226318359375,-2.1487979888916016,-1.6454970836639404
1789038612028076500,1.60207666015625,-0.7515592575073242,-2.052170753479004,0.6991126537322998
1789038612038076700,1.61207666015625,-2.1543922424316406,-1.4511700868606567,1.4258533716201782
1789038612048076500,1.62207666015625,-2.874863624572754,-1.5456342697143555,0.3840380907058716
1789038612058076700,1.63207666015625,-2.4281740188598633,-2.3708455562591553,-0.7685763835906982
1789038612068076500,1.64207666015625,-1.2831401824951172,-3.108522653579712,-2.5515506267547607
1789038612078076700,1.65207666015625,-0.039824485778808594,-3.8489394187927246,-3.6695361137390137
1789038612088076500,1.66207666015625,0.7964544296264648,-4.551046371459961,-4.170172691345215
1789038612098076700,1.67207666015625,1.0531749725341797,-5.632383346557617,-3.4868712425231934
1789038612108076500,1.68207666015625,1.4778575897216797,-5.902275085449219,-2.6165359020233154
1789038612118076700,1.69207666015625,0.575566291809082,-5.559227466583252,-1.4028840065002441
1789038612128076500,1.70207666015625,-0.6846961975097656,-5.349588394165039,-1.0213336944580078
1789038612138076700,1.71207666015625,-1.0426921844482422,-5.447049617767334,-2.482954502105713
1789038612148076500,1.72207666015625,-0.767491340637207,-5.806746482849121,-5.193212509155273
1789038612158076700,1.73207666015625,-0.1920456886291504,-6.59153413772583,-6.79500675201416
1789038612168076500,1.74207666015625,-0.20540618896484375,-7.518002510070801,-6.966534614562988
1789038612178076700,1.75207666015625,-0.5571503639221191,-7.803616523742676,-5.991390228271484
1789038612188076500,1.76207666015625,-0.8344306945800781,-7.514064788818359,-3.8390278816223145
1789038612198076700,1.77207666015625,-0.6786665916442871,-7.1818318367004395,-0.9308948516845703
1789038612208076500,1.78207666015625,-0.02168750762939453,-6.572756767272949,1.0684309005737305
1789038612218076700,1.79207666015625,0.7757387161254883,-6.044527053833008,1.4186220169067383
1789038612228076500,1.80207666015625,0.8475208282470703,-5.612595081329346,1.2611403465270996
1789038612238076700,1.81207666015625,-0.23197507858276367,-4.9544525146484375,1.1072373390197754
1789038612248076500,1.82207666015625,-1.553375244140625,-4.019866943359375,1.4679994583129883
1789038612258076700,1.83207666015625,-3.000455379486084,-2.6797409057617188,2.1927971839904785
1789038612268076500,1.84207666015625,-3.308804988861084,-0.754503607749939,2.179417133331299
1789038612278076700,1.85207666015625,-2.9149532318115234,0.8946716785430908,1.7605018615722656
1789038612288076500,1.86207666015625,-3.1482930183410645,1.7093946933746338,2.057126045227051
1789038612298076700,1.87207666015625,-4.049310207366943,2.4047739505767822,3.0259437561035156
1789038612308076500,1.88207666015625,-5.0700154304504395,3.1664037704467773,3.573963165283203
1789038612318076700,1.89207666015625,-5.733571529388428,3.3491005897521973,3.5026583671569824
1789038612328076500,1.90207666015625,-5.469815731048584,2.8041725158691406,4.064218997955322
1789038612338076700,1.91207666015625,-3.670811653137207,2.169405698776245,5.12327241897583
1789038612348076500,1.92207666015625,-0.4953742027282715,2.3452963829040527,5.447630882263184
1789038612358076700,1.93207666015625,2.148360252380371,2.765761613845825,3.961663246154785
1789038612368076500,1.94207666015625,2.742440700531006,2.1550073623657227,1.9938397407531738
1789038612378076700,1.95207666015625,2.324252128601074,1.3229329586029053,0.1549844741821289
1789038612388076500,1.96207666015625,2.4043421745300293,0.6355276107788086,-0.9202485084533691
1789038612398076700,1.97207666015625,3.779971122741699,0.22819089889526367,-1.1444168090820312
1789038612408076500,1.98207666015625,4.740952491760254,0.2158350944519043,-0.4022040367126465
1789038612418076700,1.99207666015625,4.746191024780273,0.40032958984375,0.8272519111633301
1789038612428076500,2.00207666015625,3.7820253372192383,0.7914776802062988,2.205411911010742
1789038612438076700,2.01207666015625,2.7007150650024414,1.418116569519043,3.2042183876037598
1789038612448076500,2.02207666015625,2.104236602783203,2.1615891456604004,3.9098877906799316
1789038612458076700,2.03207666015625,1.7126893997192383,2.6056859493255615,3.809267044067383
1789038612468076500,2.04207666015625,0.7995810508728027,2.2782344818115234,3.207036018371582
1789038612478076700,2.05207666015625,-0.25940704345703125,1.869884967803955,2.6377477645874023
1789038612488076500,2.06207666015625,-1.4739539623260498,1.633225917816162,1.769209384918213
1789038612498076700,2.07207666015625,-2.1561522483825684,1.796095848083496,2.446727752685547
1789038612508076500,2.08207666015625,-2.3167271614074707,2.312434673309326,3.8589510917663574
1789038612518076700,2.09207666015625,-1.8560895919799805,2.835850715637207,4.905284404754639
1789038612528076500,2.10207666015625,-0.9997470378875732,2.667281150817871,5.646379470825195
1789038612538076700,2.11207666015625,-0.7497870922088623,2.0897765159606934,5.200918674468994
1789038612548076500,2.12207666015625,-0.4851524829864502,1.9134249687194824,4.884997844696045
1789038612558076700,2.13207666015625,0.4474654197692871,2.0207786560058594,5.880847454071045
1789038612568076500,2.14207666015625,1.8520002365112305,2.0922389030456543,6.204085826873779
1789038612578076700,2.15207666015625,0.252777099609375,2.3117446899414062,6.159646987915039
1789038612588076500,2.16207666015625,-1.4536190032958984,2.2595138549804688,5.22603702545166
1789038612598076700,2.17207666015625,-2.7528035640716553,2.137828826904297,5.4027180671691895
1789038612608076500,2.18207666015625,-2.9787747859954834,1.171678066253662,4.539139270782471
1789038612618076700,2.19207666015625,-2.785327434539795,0.7842698097229004,3.0038914680480957
1789038612628076500,2.20207666015625,-2.4496235847473145,1.0083212852478027,2.8438868522644043
1789038612638076700,2.21207666015625,-1.4660439491271973,1.1196637153625488,2.9519643783569336
1789038612648076500,2.22207666015625,-0.8149983286857605,-0.7904129028320312,2.5663042068481445
1789038612658076700,2.23207666015625,-0.37755441665649414,-2.1462955474853516,1.440432071685791
1789038612668076500,2.24207666015625,0.8789218664169312,-2.243375301361084,0.4396347999572754
1789038612688076500,2.26207666015625,4.51921272277832,-3.16920804977417,1.4833712577819824
1789038612698076700,2.27207666015625,5.116283416748047,-3.775754451751709,1.0171375274658203
1789038612708076500,2.28207666015625,4.773872375488281,-3.4458022117614746,-1.3610100746154785
1789038612718076700,2.29207666015625,2.729496717453003,-2.993838310241699,-2.832481861114502
1789038612728076500,2.30207666015625,0.254436731338501,-2.3438587188720703,-3.0372958183288574
1789038612738076700,2.31207666015625,-1.8815702199935913,-1.5006437301635742,-2.5282363891601562
1789038612748076500,2.32207666015625,-4.488176345825195,-1.009552001953125,-0.6401195526123047
1789038612758076700,2.33207666015625,-5.421200275421143,-0.6679749488830566,0.6295695304870605
1789038612768076500,2.34207666015625,-3.4742889404296875,-1.148393154144287,0.7177224159240723
1789038612778076700,2.35207666015625,-1.1040120124816895,-1.4083495140075684,1.0813159942626953
1789038612788076500,2.36207666015625,-0.41265732049942017,-1.1696510314941406,0.9439692497253418
1789038612798076700,2.37207666015625,-1.5073590278625488,-0.8046951293945312,0.5891819000244141
1789038612808076500,2.38207666015625,-1.9588922262191772,-0.601844310760498,0.9477934837341309
1789038612818076700,2.39207666015625,-1.2659566402435303,-0.27308082580566406,0.9809207916259766
1789038612828076500,2.40207666015625,-0.6593193411827087,0.03912830352783203,2.087965965270996
1789038612838076700,2.41207666015625,-0.6226869225502014,-0.3388218879699707,3.512880325317383
1789038612848076500,2.42207666015625,-0.5261499285697937,0.016184329986572266,5.397199630737305
1789038612858076700,2.43207666015625,-0.4957207441329956,0.47060108184814453,6.82795524597168
1789038612868076500,2.44207666015625,0.3858188986778259,0.47737908363342285,5.292562484741211
1789038612878076700,2.45207666015625,1.2623460292816162,-0.31917619705200195,1.6390743255615234
1789038612888076500,2.46207666015625,1.3771138191223145,0.1381547451019287,-1.8279638290405273
1789038612898076700,2.47207666015625,1.1817131042480469,-2.210014820098877,-7.26738166809082
1789038612908076500,2.48207666015625,1.7885022163391113,-3.0859432220458984,-6.2742600440979
1789038612918076700,2.49207666015625,1.06417977809906,-2.0445141792297363,-3.6166810989379883
1789038612928076500,2.50207666015625,-0.29324913024902344,-1.2990460395812988,-1.380174160003662
1789038612938076700,2.51207666015625,-1.5308552980422974,-0.12732291221618652,-1.6927037239074707
1789038612948076500,2.52207666015625,-0.9686218500137329,-0.7572982311248779,-4.709664344787598
1789038612958076700,2.53207666015625,0.11549603939056396,-1.5548052787780762,-5.04927396774292
1789038612968076500,2.54207666015625,-0.26604628562927246,-1.605778455734253,-2.923065185546875
1789038612978076700,2.55207666015625,-0.09606850147247314,-1.1363537311553955,-0.22832298278808594
1789038612988076500,2.56207666015625,-0.3373425006866455,-0.8514549732208252,0.2988319396972656
1789038612998076700,2.57207666015625,-1.2161939144134521,0.23798227310180664,0.8367757797241211
1789038613008076500,2.58207666015625,-1.3192681074142456,1.3192718029022217,2.1913299560546875
1789038613018076700,2.59207666015625,-0.34886670112609863,2.3117141723632812,2.8182382583618164
1789038613028076500,2.60207666015625,-0.48181962966918945,2.0235583782196045,2.4606637954711914
1789038613038076700,2.61207666015625,-0.547217607498169,1.892885684967041,2.341531753540039
1789038613048076500,2.62207666015625,-0.0892019271850586,1.1862684488296509,1.6964340209960938
1789038613058076700,2.63207666015625,0.18850183486938477,0.5123159885406494,-0.563084602355957
1789038613068076500,2.64207666015625,-0.17480504512786865,-0.022310853004455566,-2.705594062805176
1789038613078076700,2.65207666015625,-0.17851102352142334,-0.5446416139602661,-2.992076873779297
1789038613088076500,2.66207666015625,0.01540076732635498,-0.27000319957733154,-2.6263933181762695
1789038613098076700,2.67207666015625,-0.23616516590118408,0.2932557463645935,-1.7197999954223633
1789038613108076500,2.68207666015625,-1.0354089736938477,0.22885465621948242,-1.0169181823730469
1789038613118076700,2.69207666015625,-0.7332847118377686,0.2679593563079834,-1.7052898406982422
1789038613128076500,2.70207666015625,-1.6023756265640259,0.5493694543838501,-2.382889747619629
1789038613138076700,2.71207666015625,-1.4008023738861084,1.5810878276824951,-2.9762048721313477
1789038613148076500,2.72207666015625,1.4845434427261353,2.5795226097106934,-2.6747732162475586
1789038613158076700,2.73207666015625,2.892401933670044,3.0210142135620117,-2.8973464965820312
1789038613168076500,2.74207666015625,2.7443721294403076,2.3978261947631836,-3.9407753944396973
1789038613178076700,2.75207666015625,3.556887626647949,1.1000455617904663,-3.5705552101135254
1789038613188076500,2.76207666015625,5.461691856384277,1.0024429559707642,-3.493546485900879
1789038613198076700,2.77207666015625,4.779978275299072,-0.14892947673797607,-1.7551631927490234
1789038613208076500,2.78207666015625,2.0392024517059326,-1.7355396747589111,1.1423416137695312
1789038613218076700,2.79207666015625,-0.9976625442504883,-1.4910575151443481,1.5460138320922852
1789038613228076500,2.80207666015625,-3.2476091384887695,-1.3041832447052002,2.6194276809692383
1789038613238076700,2.81207666015625,-4.3903093338012695,-2.4539413452148438,3.7713003158569336
1789038613248076500,2.82207666015625,-2.835165500640869,-2.823179006576538,2.854158401489258
1789038613258076700,2.83207666015625,-0.12984347343444824,-2.8876113891601562,1.5352067947387695
1789038613268076500,2.84207666015625,1.2239584922790527,-3.0014827251434326,0.3039093017578125
1789038613278076700,2.85207666015625,0.8169927597045898,-2.942143678665161,0.253448486328125
1789038613288076500,2.86207666015625,-0.6715993881225586,-2.580646276473999,0.8984441757202148
1789038613298076700,2.87207666015625,-2.4146926403045654,-1.6813042163848877,1.6131000518798828
1789038613308076500,2.88207666015625,-1.2906763553619385,-0.6901955604553223,2.7073192596435547
1789038613318076700,2.89207666015625,0.17864489555358887,0.02849864959716797,3.3995981216430664
1789038613328076500,2.90207666015625,0.2770366668701172,-1.3019120693206787,2.306553840637207
1789038613338076700,2.91207666015625,-0.04487109184265137,-1.5078964233398438,1.3647851943969727
1789038613348076500,2.92207666015625,-0.525862455368042,-0.3634464740753174,0.07794475555419922
1789038613358076700,2.93207666015625,-1.328674554824829,0.5059247016906738,-0.1803579330444336
1789038613368076500,2.94207666015625,-0.3504631519317627,-0.884479284286499,0.25821685791015625
1789038613378076700,2.95207666015625,-0.2756345272064209,-0.6250431537628174,2.9941253662109375
1789038613388076500,2.96207666015625,1.5855834484100342,0.13176798820495605,0.20517539978027344
1789038613398076700,2.97207666015625,2.0832862854003906,1.3594098091125488,-0.3064718246459961
1789038613408076500,2.98207666015625,2.481444835662842,2.4041781425476074,0.22554779052734375
1789038613418076700,2.99207666015625,0.06850957870483398,2.32140851020813,-0.6884145736694336
1789038613428076500,3.00207666015625,-2.6287128925323486,3.136244297027588,-1.0617756843566895
1789038613438076700,3.01207666015625,-3.363182783126831,3.2995870113372803,-2.1226611137390137
1789038613448076500,3.02207666015625,-3.110283851623535,2.6969752311706543,-2.4482946395874023
1789038613458076700,3.03207666015625,-2.6993801593780518,2.58284330368042,-1.0806875228881836
1789038613468076500,3.04207666015625,-1.0618807077407837,2.0761947631835938,-0.38487911224365234
1789038613478076700,3.05207666015625,0.3763805627822876,0.9308013916015625,-0.13049983978271484
1789038613488076500,3.06207666015625,1.0949026346206665,-0.5966644287109375,-0.20141315460205078
1789038613498076700,3.07207666015625,0.9565009474754333,-2.470449447631836,-1.0662565231323242
1789038613508076500,3.08207666015625,0.7300230264663696,-4.418027400970459,-1.2927236557006836
1789038613518076700,3.09207666015625,0.952979326248169,-5.45335578918457,-0.8741521835327148
1789038613528076500,3.10207666015625,1.4579029083251953,-5.533390522003174,-0.0762939453125
1789038613538076700,3.11207666015625,1.2758338451385498,-5.0619587898254395,0.8316926956176758
1789038613548076500,3.12207666015625,0.37512993812561035,-3.3280463218688965,-0.09326553344726562
1789038613558076700,3.13207666015625,-0.6624265909194946,-1.9524517059326172,-3.3299074172973633
1789038613568076500,3.14207666015625,-1.864559531211853,-0.31835269927978516,-2.2261576652526855
1789038613578076700,3.15207666015625,-3.1353673934936523,0.5353198051452637,-1.1613550186157227
1789038613588076500,3.16207666015625,-2.411024570465088,0.4155542850494385,-0.5239896774291992
1789038613598076700,3.17207666015625,0.8854068517684937,-0.44947171211242676,1.073394775390625
1789038613608076500,3.18207666015625,2.089508056640625,-0.9547560214996338,1.5890436172485352
1789038613618076700,3.19207666015625,0.9040809869766235,-0.6215498447418213,0.21454524993896484
1789038613628076500,3.20207666015625,-0.19248417019844055,-0.19941496849060059,-0.37331295013427734
1789038613638076700,3.21207666015625,0.5846123695373535,-0.1690526008605957,-0.6409950256347656
1789038613648076500,3.22207666015625,2.484853506088257,-0.4220876693725586,-0.9691495895385742
1789038613658076700,3.23207666015625,2.992051124572754,0.02020430564880371,-0.38495635986328125
1789038613668076500,3.24207666015625,1.1551356315612793,1.9264345169067383,1.0811071395874023
1789038613678076700,3.25207666015625,-0.09617912769317627,3.858407497406006,1.0833349227905273
1789038613688076500,3.26207666015625,-1.1690583229064941,4.784216403961182,-0.013056755065917969
1789038613698076700,3.27207666015625,-1.183058261871338,3.805346965789795,-1.3261494636535645
1789038613708076500,3.28207666015625,-0.6573359966278076,2.51285719871521,-1.385328769683838
1789038613718076700,3.29207666015625,-0.5414959192276001,1.4325907230377197,-0.9364652633666992
1789038613728076500,3.30207666015625,-0.7038698196411133,0.8251171112060547,-0.3224611282348633
1789038613738076700,3.31207666015625,-0.35297513008117676,0.5742011070251465,0.3676948547363281
1789038613748076500,3.32207666015625,0.025390625,0.4425818920135498,0.20275402069091797
1789038613758076700,3.33207666015625,0.1764899492263794,0.21745061874389648,0.041851043701171875
1789038613768076500,3.34207666015625,-0.22012364864349365,-0.33962202072143555,0.524235725402832
1789038613778076700,3.35207666015625,-0.6680084466934204,-0.7607512474060059,0.9323329925537109
1789038613788076500,3.36207666015625,-1.1229822635650635,-0.9991726875305176,1.2475404739379883
1789038613798076700,3.37207666015625,-1.610151767730713,-1.1958379745483398,1.312678337097168
1789038613808076500,3.38207666015625,-1.5396196842193604,-0.8866772651672363,0.8379650115966797
1789038613818076700,3.39207666015625,-0.8251453638076782,-0.6245675086975098,0.050994873046875
1789038613828076500,3.40207666015625,-0.02406775951385498,2.6253480911254883,-1.0218610763549805
1789038613838076700,3.41207666015625,2.149915933609009,8.248978614807129,-2.188174247741699
1789038613848076500,3.42207666015625,3.371145009994507,9.908604621887207,-2.7864255905151367
1789038613858076700,3.43207666015625,2.812824249267578,5.278820991516113,-2.4584245681762695
1789038613868076500,3.44207666015625,-0.10928118228912354,-0.3563857078552246,-0.3014054298400879
1789038613878076700,3.45207666015625,-3.2471985816955566,-1.364680290222168,0.605504035949707
1789038613888076500,3.46207666015625,-3.42488431930542,0.7234640121459961,-0.5256433486938477
1789038613898076700,3.47207666015625,-2.008439064025879,1.6764817237854004,-0.15573501586914062
1789038613908076500,3.48207666015625,-1.8711695671081543,-0.4018583297729492,1.1164884567260742
1789038613918076700,3.49207666015625,-2.5007917881011963,-2.859619140625,2.24642276763916
1789038613928076500,3.50207666015625,-0.928770899772644,-2.0497546195983887,1.305154800415039
1789038613938076700,3.51207666015625,2.766056776046753,-0.8011975288391113,-0.8483290672302246
1789038613948076500,3.52207666015625,3.9552602767944336,0.5141558647155762,-2.651014804840088
1789038613958076700,3.53207666015625,3.007524013519287,0.9238157272338867,-2.1501550674438477
1789038613968076500,3.54207666015625,0.38506555557250977,-1.305696964263916,-1.100057601928711
1789038613978076700,3.55207666015625,-2.7169013023376465,-3.5910134315490723,0.23358583450317383
1789038613988076500,3.56207666015625,-4.615227699279785,-4.141721725463867,2.268655776977539
1789038613998076700,3.57207666015625,-3.146472692489624,-3.059337615966797,3.352430820465088
1789038614008076500,3.58207666015625,0.13602638244628906,-1.0911130905151367,2.247851848602295
1789038614018076700,3.59207666015625,2.403881549835205,1.6297938823699951,1.441502571105957
1789038614028076500,3.60207666015625,2.718783378601074,0.6935839653015137,0.11874103546142578
1789038614038076700,3.61207666015625,2.729088306427002,-0.9576206207275391,-1.9192757606506348
1789038614048076500,3.62207666015625,2.200613021850586,-2.2536377906799316,-1.288912296295166
1789038614058076700,3.63207666015625,0.28498125076293945,-3.948162078857422,0.305875301361084
1789038614068076500,3.64207666015625,-0.923818826675415,-5.523721218109131,-0.38301706314086914
1789038614078076700,3.65207666015625,-1.4226064682006836,-5.826130390167236,-1.5967779159545898
1789038614088076500,3.66207666015625,-0.702944278717041,-4.204401016235352,-0.9934353828430176
1789038614098076700,3.67207666015625,-0.15928614139556885,-1.9295964241027832,0.01523590087890625
1789038614108076500,3.68207666015625,0.3041670322418213,-1.231595516204834,0.25422143936157227
1789038614118076700,3.69207666015625,0.010016918182373047,-0.8667373657226562,0.3718233108520508
1789038614128076500,3.70207666015625,-0.40298938751220703,-0.8889155387878418,0.8658418655395508
1789038614138076700,3.71207666015625,-0.41072237491607666,-1.0747489929199219,-0.9084677696228027
1789038614148076500,3.72207666015625,-0.1237025260925293,-1.5447745323181152,-0.5447602272033691
1789038614158076700,3.73207666015625,0.08538758754730225,-1.356222152709961,0.27391719818115234
1789038614168076500,3.74207666015625,0.22504162788391113,1.0192923545837402,-0.6520700454711914
1789038614178076700,3.75207666015625,1.1729214191436768,1.171860694885254,-1.5189299583435059
1789038614188076500,3.76207666015625,-1.1719715595245361,2.4559996128082275,-1.5722107887268066
1789038614198076700,3.77207666015625,-1.8546570539474487,1.1458535194396973,1.3746380805969238
1789038614208076500,3.78207666015625,-0.9697723388671875,0.22391939163208008,1.4996285438537598
1789038614218076700,3.79207666015625,-0.04364430904388428,0.0734567642211914,0.6362690925598145
1789038614228076500,3.80207666015625,-0.08313775062561035,-0.5123023986816406,0.09463691711425781
1789038614238076700,3.81207666015625,-0.8004848957061768,-0.04237794876098633,-1.667038917541504
1789038614248076500,3.82207666015625,-1.2527130842208862,0.9453825950622559,-0.5889263153076172
1789038614258076700,3.83207666015625,-0.8923635482788086,1.0322742462158203,0.6357131004333496
1789038614268076500,3.84207666015625,-0.03901207447052002,0.5830535888671875,-0.15559673309326172
1789038614278076700,3.85207666015625,-0.63352370262146,0.28687620162963867,-0.012179374694824219
1789038614288076500,3.86207666015625,-0.8757951259613037,-0.4147953987121582,0.3165321350097656
1789038614298076700,3.87207666015625,-0.20788121223449707,-1.569352626800537,0.3150167465209961
1789038614308076500,3.88207666015625,2.6530699729919434,-0.679959774017334,-1.1231989860534668
1789038614318076700,3.89207666015625,3.2495899200439453,0.6592726707458496,-0.8389654159545898
1789038614328076500,3.90207666015625,0.6930190324783325,-0.364987850189209,-0.32256555557250977
1789038614338076700,3.91207666015625,-0.5790218114852905,-1.4649295806884766,-0.5665593147277832
1789038614348076500,3.92207666015625,-0.2962486743927002,-2.306295871734619,-1.205514907836914
1789038614358076700,3.93207666015625,0.8037349581718445,-2.728519916534424,-0.9391980171203613
1789038614368076500,3.94207666015625,1.7258436679840088,-3.836294174194336,0.8510599136352539
1789038614378076700,3.95207666015625,1.0893099308013916,-2.5122289657592773,1.560110092163086
1789038614388076500,3.96207666015625,-0.6203765869140625,-0.1695551872253418,1.018287181854248
1789038614398076700,3.97207666015625,-2.837836265563965,1.6636371612548828,-0.13892793655395508
1789038614408076500,3.98207666015625,-2.8030753135681152,1.8166937828063965,-1.6040258407592773
1789038614418076700,3.99207666015625,-0.9094607830047607,1.0701780319213867,-2.1497340202331543
1789038614428076500,4.00207666015625,0.08814263343811035,1.6135730743408203,-0.896761417388916
1789038614438076700,4.01207666015625,1.5562067031860352,2.9217000007629395,0.32620811462402344
1789038614448076500,4.02207666015625,1.2322897911071777,3.1792826652526855,0.7052488327026367
1789038614458076700,4.03207666015625,-0.29155516624450684,3.1907436847686768,1.1669483184814453
1789038614468076500,4.04207666015625,-1.6423485279083252,2.147049903869629,0.7086567878723145
1789038614478076700,4.05207666015625,-0.6037049293518066,0.2164449691772461,-0.5032591819763184
1789038614488076500,4.06207666015625,0.529233455657959,-0.812838077545166,-1.394552230834961
1789038614498076700,4.07207666015625,1.0637521743774414,-1.4930553436279297,-0.01239156723022461
1789038614508076500,4.08207666015625,0.33327221870422363,-1.0129342079162598,-0.9594416618347168
1789038614518076700,4.09207666015625,-0.08675861358642578,-0.39138269424438477,0.35773372650146484
1789038614528076500,4.10207666015625,0.07617568969726562,1.2869186401367188,0.5702519416809082
1789038614538076700,4.11207666015625,0.8644658327102661,1.5890822410583496,-0.5462613105773926
1789038614548076500,4.12207666015625,1.3528259992599487,0.8633780479431152,-0.39841794967651367
1789038614558076700,4.13207666015625,0.6395409107208252,0.40871715545654297,0.4463038444519043
1789038614568076500,4.14207666015625,-0.6194779872894287,-0.006441593170166016,0.6735391616821289
1789038614578076700,4.15207666015625,-1.3816635608673096,-0.2721595764160156,0.5203018188476562
1789038614588076500,4.16207666015625,-0.64872145652771,-0.17065668106079102,0.5698394775390625
1789038614598076700,4.17207666015625,-0.42902517318725586,-1.0192084312438965,0.17854595184326172
1789038614608076500,4.18207666015625,-0.5647842884063721,-2.423377513885498,1.0314569473266602
1789038614618076700,4.19207666015625,-0.14649367332458496,-2.424563407897949,0.8077030181884766
1789038614628076500,4.20207666015625,-0.11434006690979004,-1.6482152938842773,-0.5786056518554688
1789038614638076700,4.21207666015625,0.12430286407470703,-1.8421640396118164,-1.1338162422180176
1789038614648076500,4.22207666015625,0.22406363487243652,-2.0622363090515137,-1.648627758026123
1789038614658076700,4.23207666015625,-0.028717994689941406,-1.7448945045471191,-1.240283489227295
1789038614668076500,4.24207666015625,-0.11283397674560547,-0.09537649154663086,-0.5445952415466309
1789038614678076700,4.25207666015625,-0.2737722396850586,0.07443952560424805,-0.8346314430236816
1789038614688076500,4.26207666015625,-0.4629175662994385,-0.6162824630737305,0.22702455520629883
1789038614698076700,4.27207666015625,0.07649564743041992,-0.6467652320861816,0.5979561805725098
1789038614708076500,4.28207666015625,0.4774618148803711,-1.1487789154052734,0.6157255172729492
1789038614718076700,4.29207666015625,0.8127884864807129,-1.2583208084106445,0.43024444580078125
1789038614728076500,4.30207666015625,0.07538557052612305,0.10210847854614258,0.6647624969482422
1789038614738076700,4.31207666015625,-0.5650382041931152,0.9896969795227051,0.31381893157958984
1789038614748076500,4.32207666015625,-0.8466544151306152,1.4123945236206055,0.016525745391845703
1789038614758076700,4.33207666015625,-0.9765281677246094,1.122194766998291,-0.2793312072753906
1789038614768076500,4.34207666015625,-0.07189416885375977,0.22648859024047852,-1.3663740158081055
1789038614778076700,4.35207666015625,0.33495616912841797,0.3291449546813965,-1.8439807891845703
1789038614788076500,4.36207666015625,0.4183180332183838,0.8268442153930664,-1.046318531036377
1789038614798076700,4.37207666015625,0.3786466121673584,0.7265329360961914,-0.30388307571411133
1789038614808076500,4.38207666015625,0.09441637992858887,0.798588752746582,0.10040140151977539
1789038614818076700,4.39207666015625,-0.18770575523376465,0.24558353424072266,0.42237377166748047
1789038614828076500,4.40207666015625,-0.5887999534606934,0.1964397430419922,1.589381217956543
1789038614838076700,4.41207666015625,-0.758779764175415,0.2616901397705078,2.1369709968566895
1789038614848076500,4.42207666015625,-0.3768322467803955,0.5339503288269043,1.6781620979309082
1789038614858076700,4.43207666015625,-0.20506882667541504,1.0114946365356445,0.9114079475402832
1789038614868076500,4.44207666015625,0.37081480026245117,1.0525593757629395,0.1558074951171875
1789038614878076700,4.45207666015625,0.02567148208618164,2.3043947219848633,1.1120095252990723
1789038614888076500,4.46207666015625,0.04757881164550781,2.96677827835083,0.3566617965698242
1789038614898076700,4.47207666015625,0.15842008590698242,3.4267964363098145,-0.05042695999145508
1789038614908076500,4.48207666015625,-0.0424654483795166,3.4233856201171875,-0.2785024642944336
1789038614918076700,4.49207666015625,-0.015955686569213867,3.7636780738830566,-0.9277787208557129
1789038614928076500,4.50207666015625,0.4769260883331299,3.9140825271606445,-1.3321118354797363
1789038614938076700,4.51207666015625,0.3011927604675293,3.879420757293701,-0.05588483810424805
1789038614948076500,4.52207666015625,0.04813218116760254,3.5733604431152344,-0.05354738235473633
1789038614958076700,4.53207666015625,-0.24563336372375488,2.329336643218994,0.5066561698913574
1789038614968076500,4.54207666015625,-0.053978919982910156,0.1643085479736328,2.622138500213623
1789038614978076700,4.55207666015625,0.7452056407928467,-1.1971817016601562,3.293463706970215
1789038614988076500,4.56207666015625,1.0368149280548096,-2.091904640197754,1.680875301361084
1789038614998076700,4.57207666015625,1.106339931488037,-2.216008186340332,0.12301301956176758
1789038615008076500,4.58207666015625,0.3728199005126953,-2.856919288635254,-0.2740962505340576
1789038615018076700,4.59207666015625,-0.4535958766937256,-2.3622617721557617,-1.026148796081543
1789038615028076500,4.60207666015625,0.1121208667755127,-2.544327735900879,0.48424577713012695
1789038615038076700,4.61207666015625,1.2093980312347412,-4.108463287353516,2.8447728157043457
1789038615048076500,4.62207666015625,0.4878230094909668,-3.3442516326904297,1.4992122650146484
1789038615058076700,4.63207666015625,-0.4994046688079834,-2.6761980056762695,-0.1664443016052246
1789038615068076500,4.64207666015625,-0.34592199325561523,-2.5382080078125,-2.4328885078430176
1789038615078076700,4.65207666015625,-0.3638935089111328,-2.025570869445801,-2.9622533321380615
1789038615088076500,4.66207666015625,-0.01381063461303711,-1.708639144897461,-2.3801767826080322
1789038615098076700,4.67207666015625,1.6761925220489502,-3.8296890258789062,-2.846830129623413
1789038615108076500,4.68207666015625,1.0011682510375977,-2.2636938095092773,-2.2467708587646484
1789038615118076700,4.69207666015625,-0.8347620964050293,-0.006020545959472656,-1.8291738033294678
1789038615128076500,4.70207666015625,0.5157437324523926,-2.813131809234619,-3.1791293621063232
1789038615138076700,4.71207666015625,-0.21141791343688965,0.2674598693847656,-3.6538991928100586
1789038615148076500,4.72207666015625,-0.5763390064239502,-4.046554088592529,1.044219970703125
1789038615158076700,4.73207666015625,1.0980525016784668,-3.9414315223693848,2.6945905685424805
1789038615168076500,4.74207666015625,0.025203943252563477,-3.176004409790039,1.73341703414917
1789038615178076700,4.75207666015625,0.5498390197753906,-2.8071112632751465,0.5276622772216797
1789038615188076500,4.76207666015625,-0.14833474159240723,-2.0582494735717773,-2.3850369453430176
1789038615198076700,4.77207666015625,-1.4190998077392578,-0.9203319549560547,-3.0866003036499023
1789038615208076500,4.78207666015625,-0.8413844108581543,-1.9356865882873535,-1.5202691555023193
1789038615218076700,4.79207666015625,-0.21091628074645996,-2.3867359161376953,0.6858015060424805
1789038615228076500,4.80207666015625,0.18799567222595215,-1.6567120552062988,1.093153476715088
1789038615238076700,4.81207666015625,0.5278089046478271,-1.0973687171936035,0.06157827377319336
1789038615248076500,4.82207666015625,0.8105225563049316,-0.05670499801635742,-1.2766070365905762
1789038615258076700,4.83207666015625,0.08721470832824707,0.8994007110595703,-2.8762049674987793
1789038615268076500,4.84207666015625,-0.29651761054992676,0.4045400619506836,-4.352681636810303
1789038615278076700,4.85207666015625,0.3417980670928955,-1.1534099578857422,-4.2286810874938965
1789038615288076500,4.86207666015625,1.7417092323303223,-0.7761421203613281,-2.768623113632202
1789038615298076700,4.87207666015625,2.418531656265259,-1.3544344902038574,-2.1137301921844482
1789038615308076500,4.88207666015625,0.7772715091705322,-1.2993659973144531,-0.6590051651000977
1789038615318076700,4.89207666015625,0.8803822994232178,-1.9517173767089844,0.860537052154541
1789038615328076500,4.90207666015625,0.7020614147186279,0.2832465171813965,4.348430156707764
1789038615338076700,4.91207666015625,-0.7310199737548828,1.9286212921142578,9.845495223999023
1789038615348076500,4.92207666015625,-0.8408217430114746,3.880352258682251,9.248146057128906
1789038615358076700,4.93207666015625,-0.5430037975311279,5.824101448059082,6.050258636474609
1789038615368076500,4.94207666015625,-0.30471372604370117,6.408229827880859,1.4808664321899414
1789038615378076700,4.95207666015625,-0.443683385848999,7.109226226806641,-2.7803797721862793
1789038615388076500,4.96207666015625,0.0668647289276123,7.32086706161499,-3.5343782901763916
1789038615398076700,4.97207666015625,0.2869246006011963,5.843531131744385,-0.698575496673584
1789038615408076500,4.98207666015625,-0.609792947769165,4.898163318634033,0.739199161529541
1789038615418076700,4.99207666015625,-1.7245566844940186,4.283522129058838,0.9923324584960938
1789038615428076500,5.00207666015625,-1.237522840499878,3.867145299911499,0.7068400382995605
1789038615438076700,5.01207666015625,-0.35683536529541016,3.3553719520568848,0.5939898490905762
1789038615448076500,5.02207666015625,-0.09620785713195801,3.306821823120117,-0.3941383361816406
1789038615458076700,5.03207666015625,0.8476855754852295,3.060136318206787,-2.3164899349212646
1789038615468076500,5.04207666015625,0.5133657455444336,2.9909682273864746,-3.418109893798828
1789038615478076700,5.05207666015625,-0.17305493354797363,3.226449489593506,-2.7324414253234863
1789038615488076500,5.06207666015625,0.06228828430175781,3.378169059753418,-1.5235161781311035
1789038615498076700,5.07207666015625,0.5878987312316895,3.1367721557617188,-0.19713068008422852
1789038615508076500,5.08207666015625,0.7938151359558105,2.622675895690918,0.44703006744384766
1789038615518076700,5.09207666015625,0.06470179557800293,1.5212841033935547,2.499044895172119
1789038615528076500,5.10207666015625,-0.3344542980194092,1.7562484741210938,3.7477622032165527
1789038615538076700,5.11207666015625,-1.5186476707458496,-0.8683242797851562,3.160350799560547
1789038615548076500,5.12207666015625,0.06616449356079102,-0.8660030364990234,0.5241923332214355
1789038615558076700,5.13207666015625,1.1301699876785278,-2.2012948989868164,-0.3764328956604004
1789038615568076500,5.14207666015625,1.273439645767212,-4.312859535217285,-2.1493418216705322
1789038615578076700,5.15207666015625,0.6207342147827148,-4.573668479919434,-1.1437938213348389
1789038615588076500,5.16207666015625,0.9557449817657471,-4.849267959594727,-0.3302137851715088
1789038615598076700,5.17207666015625,1.3749501705169678,-5.361001014709473,0.11558127403259277
1789038615608076500,5.18207666015625,0.8977246284484863,-4.406766891479492,-0.12698101997375488
1789038615618076700,5.19207666015625,0.04952287673950195,-3.2825727462768555,-0.0855569839477539
1789038615628076500,5.20207666015625,-0.7946522235870361,-2.8743371963500977,-0.01464223861694336
1789038615638076700,5.21207666015625,-1.338697910308838,-2.856146812438965,-0.6536619663238525
1789038615648076500,5.22207666015625,-2.4445385932922363,-2.2569684982299805,-0.7208564281463623
1789038615658076700,5.23207666015625,-2.259479284286499,-2.8394460678100586,-0.9768884181976318
1789038615668076500,5.24207666015625,-0.6725192070007324,-2.060755729675293,-1.6723179817199707
1789038615678076700,5.25207666015625,0.3029060363769531,-1.0647554397583008,-1.4742982387542725
1789038615688076500,5.26207666015625,0.42492127418518066,-0.8954944610595703,-2.09128999710083
1789038615698076700,5.27207666015625,-0.09468221664428711,-0.9296283721923828,-1.8549790382385254
1789038615708076500,5.28207666015625,0.39161205291748047,-1.6514930725097656,-2.956181287765503
1789038615718076700,5.29207666015625,0.3231837749481201,-1.913193702697754,-1.5291627645492554
1789038615728076500,5.30207666015625,1.4316940307617188,-3.771500587463379,-3.2160463333129883
1789038615738076700,5.31207666015625,2.1317882537841797,-3.307476043701172,-3.813405990600586
1789038615748076500,5.32207666015625,1.4253290891647339,-1.0241928100585938,-1.9059369564056396
1789038615758076700,5.33207666015625,0.3741745948791504,-0.9572734832763672,-1.4828617572784424
1789038615768076500,5.34207666015625,0.033953189849853516,-0.4669923782348633,-0.9797143936157227
1789038615778076700,5.35207666015625,-0.05454373359680176,1.3064241409301758,0.16024184226989746
1789038615788076500,5.36207666015625,-0.568856954574585,2.4284162521362305,1.068159580230713
1789038615798076700,5.37207666015625,-1.4655864238739014,4.20352840423584,2.2535557746887207
1789038615808076500,5.38207666015625,-3.7613611221313477,6.314422130584717,3.0575568675994873
1789038615818076700,5.39207666015625,0.21440935134887695,3.3684911727905273,0.5677478313446045
1789038615828076500,5.40207666015625,3.6867451667785645,-0.13063716888427734,-1.5171931982040405
1789038615838076700,5.41207666015625,0.16436052322387695,-0.7733135223388672,1.668034553527832
1789038615848076500,5.42207666015625,-0.625434398651123,-0.7222824096679688,0.5736989974975586
1789038615858076700,5.43207666015625,-0.33962225914001465,-0.5138168334960938,0.8974342346191406
1789038615868076500,5.44207666015625,0.4108264446258545,0.5126857757568359,1.4528400897979736
1789038615878076700,5.45207666015625,-0.1465010643005371,1.493398666381836,1.7200453281402588
1789038615888076500,5.46207666015625,-1.2924730777740479,2.7550506591796875,1.7510290145874023
1789038615898076700,5.47207666015625,-1.9594600200653076,4.620766639709473,1.298140525817871
1789038615908076500,5.48207666015625,0.2766237258911133,4.022069931030273,1.9570775032043457
1789038615918076700,5.49207666015625,0.6905713081359863,1.3690476417541504,2.5569164752960205
1789038615928076500,5.50207666015625,-0.08893203735351562,0.7560615539550781,0.24731993675231934
1789038615938076700,5.51207666015625,0.21660161018371582,1.490065097808838,-1.41585373878479
1789038615948076500,5.52207666015625,0.4538555145263672,1.1316757202148438,-0.40574753284454346
1789038615958076700,5.53207666015625,0.8898580074310303,0.24828433990478516,2.3149564266204834
1789038615968076500,5.54207666015625,-2.190398693084717,0.21756649017333984,1.090576410293579
1789038615978076700,5.55207666015625,-0.803847074508667,-0.4247932434082031,-0.8399224877357483
1789038615988076500,5.56207666015625,1.240798830986023,-1.4065532684326172,-2.626833915710449
1789038615998076700,5.57207666015625,0.09573554992675781,-1.8354911804199219,-1.397912859916687
1789038616008076500,5.58207666015625,-0.12130546569824219,-0.3798828125,1.5359026193618774
1789038616018076700,5.59207666015625,0.09730792045593262,0.568450927734375,0.8473731875419617
1789038616028076500,5.60207666015625,0.39389991760253906,-0.5308399200439453,-0.29318001866340637
1789038616038076700,5.61207666015625,1.0217258930206299,-1.395207405090332,-1.9284358024597168
1789038616048076500,5.62207666015625,1.2240262031555176,-2.3061256408691406,-1.392813801765442
1789038616058076700,5.63207666015625,1.089035987854004,-2.656015396118164,-0.6560155153274536
1789038616068076500,5.64207666015625,0.39684057235717773,-2.4477882385253906,-0.24511146545410156
1789038616078076700,5.65207666015625,-0.24344635009765625,-1.5514755249023438,0.6279605627059937
1789038616088076500,5.66207666015625,-1.2060391902923584,-0.2796506881713867,0.9264078140258789
1789038616098076700,5.67207666015625,-1.2292296886444092,0.42233753204345703,0.7207608819007874
1789038616108076500,5.68207666015625,-0.4930739402770996,-0.1865100860595703,0.23353981971740723
1789038616118076700,5.69207666015625,0.13166332244873047,-0.7716264724731445,0.4762994050979614
1789038616128076500,5.70207666015625,-0.05631375312805176,-1.2183780670166016,0.3465224504470825
1789038616138076700,5.71207666015625,-0.5789108276367188,-0.4473838806152344,0.3917192220687866
1789038616148076500,5.72207666015625,-1.1405856609344482,0.08840274810791016,0.4782559871673584
1789038616158076700,5.73207666015625,-1.41587495803833,0.6320505142211914,0.3442889451980591
1789038616168076500,5.74207666015625,-0.9898512363433838,0.19704246520996094,0.1087425947189331
1789038616178076700,5.75207666015625,-0.4769589900970459,-0.2320709228515625,-0.1375594139099121
1789038616188076500,5.76207666015625,0.4161231517791748,-0.9446258544921875,-0.4481015205383301
1789038616198076700,5.77207666015625,0.7076129913330078,-0.7887191772460938,-0.3944716453552246
1789038616208076500,5.78207666015625,0.6332237720489502,0.5817556381225586,-0.04404807090759277
1789038616218076700,5.79207666015625,0.7104463577270508,1.7352705001831055,0.5923323631286621
1789038616228076500,5.80207666015625,0.8301827907562256,1.699690341949463,-0.14800810813903809
1789038616238076700,5.81207666015625,0.015170097351074219,1.5909099578857422,-0.8970634937286377
1789038616248076500,5.82207666015625,-1.1840457916259766,0.8509702682495117,-2.4217190742492676
1789038616258076700,5.83207666015625,-1.2727057933807373,0.3295450210571289,-1.317711591720581
1789038616268076500,5.84207666015625,-1.2601349353790283,1.9447531700134277,-0.4036586284637451
1789038616278076700,5.85207666015625,-1.0552732944488525,-0.669886589050293,-1.1459048986434937
1789038616288076500,5.86207666015625,-0.19594645500183105,-1.7309112548828125,-0.7938270568847656
1789038616298076700,5.87207666015625,0.21968364715576172,-1.1694822311401367,-0.6863551139831543
1789038616308076500,5.88207666015625,0.17696928977966309,-0.7424764633178711,-1.1841742992401123
1789038616318076700,5.89207666015625,-0.3396883010864258,-1.0245561599731445,-1.106368899345398
1789038616328076500,5.90207666015625,-0.5083341598510742,-2.6640357971191406,-1.0435640811920166
1789038616338076700,5.91207666015625,-0.37668800354003906,-2.889476776123047,-0.49228572845458984
1789038616348076500,5.92207666015625,-0.3333170413970947,0.038771629333496094,0.0648500919342041
1789038616358076700,5.93207666015625,-0.7637794017791748,0.9106817245483398,-0.9352929592132568
1789038616368076500,5.94207666015625,0.021160125732421875,0.7494258880615234,-0.7286022901535034
1789038616378076700,5.95207666015625,0.8618113994598389,0.05022430419921875,0.1394960880279541
1789038616388076500,5.96207666015625,0.6839962005615234,-0.6973361968994141,0.7163764834403992
1789038616398076700,5.97207666015625,0.12372446060180664,-0.4314718246459961,1.3489677906036377
1789038616408076500,5.98207666015625,0.044496774673461914,-0.9347362518310547,0.9669453501701355
1789038616418076700,5.99207666015625,0.057607412338256836,-0.5322504043579102,0.6887637972831726
1789038616428076500,6.00207666015625,0.1333174705505371,-0.3361330032348633,0.5236995220184326
1789038616438076700,6.01207666015625,0.2013707160949707,-0.0384368896484375,0.627807080745697
1789038616448076500,6.02207666015625,-0.012988805770874023,-0.09212017059326172,0.1794431209564209
1789038616458076700,6.03207666015625,-0.9684031009674072,-0.043402671813964844,-0.01615118980407715
1789038616468076500,6.04207666015625,-0.1420431137084961,-0.04101085662841797,0.32073211669921875
1789038616478076700,6.05207666015625,0.40805912017822266,-0.48302268981933594,-0.027120232582092285
1789038616488076500,6.06207666015625,0.3231184482574463,-0.4705238342285156,0.06528151035308838
1789038616498076700,6.07207666015625,0.536168098449707,-0.7531232833862305,0.22201502323150635
1789038616508076500,6.08207666015625,0.691133975982666,-0.6198186874389648,0.02458786964416504
1789038616518076700,6.09207666015625,-0.1178903579711914,-0.21955013275146484,-0.12936782836914062
1789038616528076500,6.10207666015625,-0.6195075511932373,0.25348377227783203,-0.20720815658569336
1789038616538076700,6.11207666015625,-0.4871656894683838,-0.9137563705444336,-0.643578827381134
1789038616548076500,6.12207666015625,-0.15112972259521484,-0.45351314544677734,-0.1698194146156311
1789038616558076700,6.13207666015625,-0.18323445320129395,-0.2298269271850586,-0.2316078543663025
1789038616568076500,6.14207666015625,0.0049533843994140625,-0.013575553894042969,-0.6870800256729126
1789038616578076700,6.15207666015625,0.11151313781738281,-0.3873758316040039,-0.9400923252105713
1789038616588076500,6.16207666015625,0.3333554267883301,-0.7150592803955078,-0.7430242896080017
1789038616598076700,6.17207666015625,0.36240410804748535,-0.6826076507568359,-0.1794583797454834
1789038616608076500,6.18207666015625,0.30510830879211426,-0.36289310455322266,-0.6996474266052246
1789038616618076700,6.19207666015625,-0.5088391304016113,0.08902359008789062,-1.4077231884002686
1789038616628076500,6.20207666015625,-0.15831398963928223,0.6305685043334961,-1.1655611991882324
1789038616638076700,6.21207666015625,0.20196533203125,0.8057594299316406,-1.3070693016052246
1789038616648076500,6.22207666015625,-0.19689106941223145,0.5528621673583984,-1.7474509477615356
1789038616658076700,6.23207666015625,-0.24047422409057617,0.25367069244384766,-1.5882567167282104
1789038616668076500,6.24207666015625,-0.4703218936920166,0.04568195343017578,-0.8431154489517212
1789038616678076700,6.25207666015625,-0.6640558242797852,0.7610044479370117,-0.07800671458244324
1789038616688076500,6.26207666015625,-3.8893911838531494,-0.24953079223632812,-0.5556972026824951
1789038616698076700,6.27207666015625,-0.19409656524658203,-0.3267087936401367,1.7094810009002686
1789038616708076500,6.28207666015625,2.639573335647583,0.02721405029296875,-0.4856177568435669
1789038616718076700,6.29207666015625,0.8065640926361084,-0.7474994659423828,-0.555390477180481
1789038616728076500,6.30207666015625,-1.0091850757598877,-0.9636898040771484,-0.5705645680427551
1789038616738076700,6.31207666015625,-1.5515079498291016,-0.6269550323486328,-0.6491127610206604
1789038616748076500,6.32207666015625,-1.3916552066802979,-0.08843517303466797,-0.12473130226135254
1789038616758076700,6.33207666015625,-1.1016523838043213,0.4541292190551758,0.3019276261329651
1789038616768076500,6.34207666015625,-0.5063419342041016,0.8486318588256836,1.3897173404693604
1789038616778076700,6.35207666015625,-0.08830118179321289,0.6872825622558594,1.7017792463302612
1789038616788076500,6.36207666015625,0.15718698501586914,0.3808937072753906,1.365911841392517
1789038616798076700,6.37207666015625,0.6129686832427979,0.7209253311157227,0.8171805143356323
1789038616808076500,6.38207666015625,1.0830237865447998,1.3965110778808594,0.6023874282836914
1789038616818076700,6.39207666015625,1.0954217910766602,1.5012445449829102,0.40674889087677
1789038616828076500,6.40207666015625,0.8778741359710693,1.322434425354004,0.27767038345336914
1789038616838076700,6.41207666015625,0.707796573638916,1.4390716552734375,0.22765129804611206
1789038616848076500,6.42207666015625,0.6665494441986084,1.790909767150879,0.45830926299095154
1789038616858076700,6.43207666015625,0.5016653537750244,2.2917327880859375,0.47598230838775635
1789038616868076500,6.44207666015625,0.36432838439941406,2.5146942138671875,0.22734147310256958
1789038616878076700,6.45207666015625,0.2734823226928711,2.665799140930176,0.18999077379703522
1789038616888076500,6.46207666015625,0.21730399131774902,2.519608497619629,0.10758086293935776
1789038616898076700,6.47207666015625,0.13108372688293457,1.7408885955810547,0.09886132180690765
1789038616908076500,6.48207666015625,-0.06885600090026855,0.7494525909423828,0.1733352243900299
1789038616918076700,6.49207666015625,-0.31659889221191406,-0.12281322479248047,0.45839229226112366
1789038616928076500,6.50207666015625,-0.46672940254211426,-1.361166000366211,-0.14950206875801086
1789038616938076700,6.51207666015625,-0.5730440616607666,-2.407719612121582,-0.4828656315803528
1789038616948076500,6.52207666015625,-0.5643184185028076,-2.6591148376464844,-0.4249000549316406
1789038616958076700,6.53207666015625,-1.0293447971343994,-1.487391471862793,-0.278044730424881
1789038616968076500,6.54207666015625,-0.8008506298065186,-1.575270652770996,-0.3812340795993805
1789038616978076700,6.55207666015625,-0.3568155765533447,-1.5004024505615234,-0.436870813369751
1789038616988076500,6.56207666015625,-0.533318281173706,-0.8359861373901367,-0.38788139820098877
1789038616998076700,6.57207666015625,-0.7526466846466064,-0.02746295928955078,-0.4711398482322693
1789038617008076500,6.58207666015625,-0.7898950576782227,0.13591861724853516,-0.681369423866272
1789038617018076700,6.59207666015625,-0.5849313735961914,0.6082649230957031,-0.8561285138130188
1789038617028076500,6.60207666015625,-0.41079211235046387,0.66510009765625,-0.7090504765510559
1789038617038076700,6.61207666015625,-0.17397475242614746,0.2597379684448242,-0.41367971897125244
1789038617048076500,6.62207666015625,0.0594484806060791,-0.3090953826904297,-0.48834872245788574
1789038617058076700,6.63207666015625,0.12082028388977051,-0.47005271911621094,-0.34333014488220215
1789038617068076500,6.64207666015625,-0.08813309669494629,-0.5712814331054688,-0.4977770149707794
1789038617078076700,6.65207666015625,-0.13495516777038574,-0.7595300674438477,-0.6534818410873413
1789038617088076500,6.66207666015625,-0.13376545906066895,-0.9991827011108398,-0.6216371655464172
1789038617098076700,6.67207666015625,-0.2864415645599365,-0.8479623794555664,-0.4468538761138916
1789038617108076500,6.68207666015625,-0.28852272033691406,-0.6454057693481445,-0.6146902441978455
1789038617118076700,6.69207666015625,-0.35190820693969727,-0.3242778778076172,-0.6826569437980652
1789038617128076500,6.70207666015625,-0.366896390914917,-0.22792530059814453,-0.9568231105804443
1789038617138076700,6.71207666015625,-0.21600866317749023,0.05789375305175781,-0.48640334606170654
1789038617148076500,6.72207666015625,-0.11713886260986328,0.5567703247070312,-0.2944325804710388
1789038617158076700,6.73207666015625,-0.12095165252685547,0.7016782760620117,-0.11107656359672546
1789038617168076500,6.74207666015625,0.009185314178466797,0.6525306701660156,0.02831314504146576
1789038617178076700,6.75207666015625,0.1059880256652832,0.851994514465332,0.12065547704696655
1789038617188076500,6.76207666015625,0.1414177417755127,0.9478311538696289,0.2299007922410965
1789038617198076700,6.77207666015625,0.021834611892700195,0.7606697082519531,0.13603217899799347
1789038617208076500,6.78207666015625,0.002544879913330078,0.45928478240966797,0.10114537179470062
1789038617218076700,6.79207666015625,0.03578758239746094,0.15860271453857422,0.006413131952285767
1789038617228076500,6.80207666015625,0.07837247848510742,0.09425735473632812,-0.049604788422584534
1789038617238076700,6.81207666015625,0.18929290771484375,0.1668844223022461,0.01791137456893921
1789038617248076500,6.82207666015625,0.28026628494262695,0.14084911346435547,0.035439133644104004
1789038617258076700,6.83207666015625,0.19002103805541992,-0.09226226806640625,0.13604559004306793
1789038617268076500,6.84207666015625,0.10707831382751465,-0.14076995849609375,-0.042848050594329834
1789038617278076700,6.85207666015625,0.11744332313537598,-0.32697105407714844,-0.1686531901359558
1789038617288076500,6.86207666015625,0.09810447692871094,-0.5131893157958984,-0.2611989974975586
1789038617298076700,6.87207666015625,0.11304473876953125,-0.5767383575439453,-0.3427899479866028
1789038617308076500,6.88207666015625,-0.0019004344940185547,-0.692744255065918,-0.5544646382331848
1789038617318076700,6.89207666015625,-0.13426637649536133,-0.6708555221557617,-0.6887692809104919
1789038617328076500,6.90207666015625,-0.12371110916137695,-0.3744239807128906,-0.7889539003372192
1789038617338076700,6.91207666015625,0.06734514236450195,-0.06055164337158203,-0.7986757755279541
1789038617348076500,6.92207666015625,0.26163220405578613,0.2583904266357422,-0.5983970165252686
1789038617358076700,6.93207666015625,0.2941017150878906,0.33426761627197266,-0.5544570684432983
1789038617368076500,6.94207666015625,0.08046650886535645,0.1596851348876953,-0.8073890805244446
1789038617378076700,6.95207666015625,-0.09162592887878418,-0.010334968566894531,-0.8165513277053833
1789038617388076500,6.96207666015625,-0.16215872764587402,-0.3578023910522461,-0.7300862073898315
1789038617398076700,6.97207666015625,-0.09359455108642578,-0.5738248825073242,-0.4671877324581146
1789038617408076500,6.98207666015625,0.06683969497680664,-0.5744199752807617,-0.09175197780132294
1789038617418076700,6.99207666015625,0.22944092750549316,-0.3027973175048828,0.40391936898231506
1789038617428076500,7.00207666015625,0.04841470718383789,0.05969715118408203,0.37195923924446106
1789038617438076700,7.01207666015625,0.002645730972290039,-0.07531261444091797,-0.12707169353961945
1789038617448076500,7.02207666015625,0.058477163314819336,-0.3572254180908203,-0.2557094395160675
1789038617458076700,7.03207666015625,0.09110784530639648,-0.3320884704589844,-0.13754211366176605
1789038617468076500,7.04207666015625,0.1370382308959961,-0.1393108367919922,0.6288653016090393
1789038617478076700,7.05207666015625,0.22515511512756348,0.0703878402709961,0.7586957812309265
1789038617488076500,7.06207666015625,0.15493464469909668,0.23160934448242188,0.5279988646507263
1789038617498076700,7.07207666015625,0.1214745044708252,0.08122825622558594,0.1306578814983368
1789038617508076500,7.08207666015625,0.009562969207763672,-0.026611328125,-0.19919481873512268
1789038617518076700,7.09207666015625,-0.10175108909606934,-0.00417327880859375,-0.35819011926651
1789038617528076500,7.10207666015625,-0.17853522300720215,0.05431652069091797,-0.3239581286907196
1789038617538076700,7.11207666015625,-0.08426284790039062,0.05537128448486328,-0.24257399141788483
1789038617548076500,7.12207666015625,0.1057894229888916,-0.02239704132080078,-0.143559992313385
1789038617558076700,7.13207666015625,0.15006017684936523,0.014209747314453125,-0.07120950520038605
1789038617568076500,7.14207666015625,0.14173579216003418,0.1926412582397461,-0.07891491055488586
1789038617578076700,7.15207666015625,0.1187429428100586,0.4094047546386719,-0.08311435580253601
1789038617588076500,7.16207666015625,-0.06435799598693848,0.5180826187133789,-0.058090753853321075
1789038617598076700,7.17207666015625,-0.14893603324890137,0.5976276397705078,0.03361067175865173
1789038617608076500,7.18207666015625,-0.20946002006530762,0.5080881118774414,0.004845485091209412
1789038617618076700,7.19207666015625,-0.11744809150695801,0.37148189544677734,-0.011836916208267212
1789038617628076500,7.20207666015625,0.015132904052734375,0.50067138671875,0.1225966066122055
1789038617638076700,7.21207666015625,0.15242218971252441,0.784886360168457,0.35945165157318115
1789038617648076500,7.22207666015625,0.08240389823913574,0.8326244354248047,0.5765249729156494
1789038617658076700,7.23207666015625,-0.0018477439880371094,0.5716476440429688,0.5298707485198975
1789038617668076500,7.24207666015625,0.0954291820526123,0.3729820251464844,0.030162721872329712
1789038617678076700,7.25207666015625,0.03954148292541504,-0.05735588073730469,-0.15505999326705933
1789038617688076500,7.26207666015625,0.15674972534179688,-0.7655258178710938,-0.27003899216651917
1789038617698076700,7.27207666015625,0.21775293350219727,-1.1793937683105469,-0.21705682575702667
1789038617708076500,7.28207666015625,0.11405658721923828,-0.9512853622436523,0.911585807800293
1789038617718076700,7.29207666015625,0.20744848251342773,-0.41140079498291016,1.116991639137268
1789038617728076500,7.30207666015625,0.14488840103149414,-0.1115102767944336,0.6433700323104858
1789038617738076700,7.31207666015625,0.1148078441619873,0.017442703247070312,0.4780384302139282
1789038617748076500,7.32207666015625,-0.040413618087768555,-0.09154987335205078,0.4198588728904724
1789038617758076700,7.33207666015625,-0.00392460823059082,0.05334949493408203,0.9040499329566956
1789038617768076500,7.34207666015625,0.32589125633239746,-0.17435836791992188,0.3780730962753296
1789038617778076700,7.35207666015625,0.07256412506103516,-0.6134023666381836,-0.22611817717552185
1789038617788076500,7.36207666015625,-0.13549566268920898,-0.6691560745239258,-0.4663259983062744
1789038617798076700,7.37207666015625,-0.34532999992370605,-0.6407308578491211,-0.6395438313484192
1789038617808076500,7.38207666015625,-0.4893343448638916,-0.5602235794067383,-0.7510253190994263
1789038617818076700,7.39207666015625,-0.671118974685669,-0.2687692642211914,-0.4925430417060852
1789038617828076500,7.40207666015625,-0.8278079032897949,0.14886188507080078,-0.037833474576473236
1789038617838076700,7.41207666015625,-0.8391721248626709,0.27591896057128906,0.21869368851184845
1789038617848076500,7.42207666015625,-0.7297971248626709,0.06662559509277344,-0.03427370637655258
1789038617858076700,7.43207666015625,-0.40767884254455566,-0.033904075622558594,-0.2881893217563629
1789038617868076500,7.44207666015625,0.058309078216552734,-0.06427001953125,0.015371143817901611
1789038617878076700,7.45207666015625,0.41641759872436523,-0.2507143020629883,0.6164374947547913
1789038617888076500,7.46207666015625,0.7195141315460205,-0.24708080291748047,0.7804498076438904
1789038617898076700,7.47207666015625,0.7368736267089844,-0.0350341796875,0.6566909551620483
1789038617908076500,7.48207666015625,0.7084219455718994,0.15947818756103516,0.33475375175476074
1789038617918076700,7.49207666015625,0.4445195198059082,0.17314434051513672,0.02846863865852356
1789038617928076500,7.50207666015625,0.2526211738586426,-0.018466949462890625,-0.27362555265426636
1789038617938076700,7.51207666015625,0.33685851097106934,-0.3484344482421875,-0.3174569606781006
1789038617948076500,7.52207666015625,0.7798800468444824,-0.5231046676635742,-0.41557735204696655
1789038617958076700,7.53207666015625,0.2686469554901123,-0.7505550384521484,-0.27422574162483215
1789038617968076500,7.54207666015625,-0.4374392032623291,-1.016256332397461,0.15774020552635193
1789038617978076700,7.55207666015625,-0.6818399429321289,-0.9705104827880859,0.23720186948776245
1789038617988076500,7.56207666015625,-0.8376383781433105,-0.7201356887817383,0.3455938994884491
1789038617998076700,7.57207666015625,-0.9146580696105957,-0.4677438735961914,0.5592859983444214
1789038618008076500,7.58207666015625,-0.8474936485290527,-0.000820159912109375,0.32523301243782043
1789038618018076700,7.59207666015625,-0.8313360214233398,0.3938140869140625,0.35513362288475037
1789038618028076500,7.60207666015625,-0.5644619464874268,0.6029167175292969,0.22289356589317322
1789038618038076700,7.61207666015625,-0.13196825981140137,0.7228298187255859,0.12050533294677734
1789038618048076500,7.62207666015625,0.06856918334960938,0.6286640167236328,-0.39869534969329834
1789038618058076700,7.63207666015625,0.25765156745910645,0.3511772155761719,-0.24372756481170654
1789038618068076500,7.64207666015625,0.5080020427703857,0.10994529724121094,0.1619545817375183
1789038618078076700,7.65207666015625,0.6876780986785889,-0.23657989501953125,-0.800347089767456
1789038618088076500,7.66207666015625,0.6171965599060059,-0.5960798263549805,-0.8394820690155029
1789038618098076700,7.67207666015625,0.7273421287536621,-0.7622385025024414,-0.5786538124084473
1789038618108076500,7.68207666015625,0.7916861772537231,-0.6238155364990234,-0.3096463084220886
1789038618118076700,7.69207666015625,0.7789324522018433,-0.2586498260498047,-0.6049534678459167
1789038618128076500,7.70207666015625,0.7922525405883789,-0.05596351623535156,-0.5171258449554443
1789038618138076700,7.71207666015625,0.5983388423919678,0.19846343994140625,-0.41942644119262695
1789038618148076500,7.72207666015625,0.2895045280456543,0.34667110443115234,-0.19138658046722412
1789038618158076700,7.73207666015625,-0.03493809700012207,0.3318023681640625,-0.024154633283615112
1789038618168076500,7.74207666015625,-0.30951738357543945,0.24267578125,0.06854614615440369
1789038618178076700,7.75207666015625,-0.49805712699890137,-0.008816719055175781,0.1892525851726532
1789038618188076500,7.76207666015625,-0.5566835403442383,-0.27457618713378906,0.19547736644744873
1789038618198076700,7.77207666015625,-0.5782070159912109,-0.4617938995361328,0.16921821236610413
1789038618208076500,7.78207666015625,-0.5016789436340332,-0.5086250305175781,0.12168285250663757
1789038618218076700,7.79207666015625,-0.39812445640563965,-0.5103530883789062,0.14104744791984558
1789038618228076500,7.80207666015625,-0.2508530616760254,-0.4146299362182617,0.1929023265838623
1789038618238076700,7.81207666015625,-0.03920555114746094,-0.2910127639770508,0.16233354806900024
1789038618248076500,7.82207666015625,0.13721084594726562,-0.14969921112060547,0.1512250006198883
1789038618258076700,7.83207666015625,0.29935288429260254,-0.0077991485595703125,0.03956639766693115
1789038618268076500,7.84207666015625,0.39813828468322754,0.10372734069824219,0.057919055223464966
1789038618278076700,7.85207666015625,0.4635190963745117,0.10460472106933594,0.16440173983573914
1789038618288076500,7.86207666015625,0.48479294776916504,0.06936454772949219,-0.005246669054031372
1789038618298076700,7.87207666015625,0.4325234889984131,0.07003211975097656,0.10508757829666138
1789038618308076500,7.88207666015625,0.3277873992919922,0.11047077178955078,0.037493884563446045
1789038618318076700,7.89207666015625,0.2166919708251953,0.04336738586425781,0.07016462087631226
1789038618328076500,7.90207666015625,0.11268448829650879,-0.07308197021484375,-0.017963409423828125
1789038618338076700,7.91207666015625,0.05411410331726074,-0.1779804229736328,-0.10291323065757751
1789038618348076500,7.92207666015625,-0.004751920700073242,-0.17722034454345703,0.03523057699203491
1789038618358076700,7.93207666015625,-0.04704546928405762,-0.28749847412109375,-0.24766111373901367
1789038618368076500,7.94207666015625,-0.12298893928527832,-0.26786231994628906,-0.19971072673797607
1789038618378076700,7.95207666015625,-0.2038731575012207,-0.394256591796875,-0.1617339849472046
1789038618388076500,7.96207666015625,-0.2414700984954834,-0.47974586486816406,-0.18383270502090454
1789038618398076700,7.97207666015625,-0.360079288482666,-0.4427642822265625,-0.29105502367019653
1789038618408076500,7.98207666015625,-0.42113280296325684,-0.49829769134521484,-0.280731737613678
1789038618418076700,7.99207666015625,-0.42046618461608887,-0.5014209747314453,-0.23497629165649414
1789038618428076500,8.00207666015625,-0.35727643966674805,-0.39251041412353516,-0.22185587882995605
1789038618438076700,8.01207666015625,-0.24312782287597656,-0.4062232971191406,-0.18996822834014893
1789038618448076500,8.02207666015625,-0.11908888816833496,-0.37822723388671875,-0.09963494539260864
1789038618458076700,8.03207666015625,-0.20943260192871094,-0.5317306518554688,0.12827026844024658
1789038618468076500,8.04207666015625,-0.31708240509033203,-0.4894876480102539,0.3295952081680298
1789038618478076700,8.05207666015625,-0.4045236110687256,-0.5869808197021484,0.572123110294342
1789038618488076500,8.06207666015625,-0.33932018280029297,-0.6603889465332031,0.8424076437950134
1789038618498076700,8.07207666015625,-0.39345502853393555,-0.7145528793334961,1.1322684288024902
1789038618508076500,8.08207666015625,-0.38828587532043457,-0.6057729721069336,1.3916504383087158
1789038618518076700,8.09207666015625,-0.3332674503326416,-0.43143749237060547,1.121405005455017
1789038618528076500,8.10207666015625,-0.053812265396118164,-0.31934547424316406,0.9733344316482544
1789038618538076700,8.11207666015625,0.20083403587341309,-0.3742532730102539,1.1191463470458984
1789038618548076500,8.12207666015625,0.43125152587890625,-0.6096878051757812,1.3656115531921387
1789038618558076700,8.13207666015625,0.19610381126403809,-0.3915262222290039,1.0953235626220703
1789038618568076500,8.14207666015625,-0.4034442901611328,-0.4851551055908203,0.7496645450592041
1789038618578076700,8.15207666015625,-0.5606203079223633,-0.8015966415405273,0.9243019819259644
1789038618588076500,8.16207666015625,-0.41148900985717773,-1.1851377487182617,1.3887524604797363
1789038618598076700,8.17207666015625,-0.5769853591918945,-2.147366523742676,1.0247535705566406
1789038618608076500,8.18207666015625,-0.32808899879455566,-2.478374481201172,0.49402689933776855
1789038618618076700,8.19207666015625,-0.473071813583374,-2.4072818756103516,-0.20909059047698975
1789038618628076500,8.20207666015625,-0.39270973205566406,-2.8592910766601562,0.12496793270111084
1789038618638076700,8.21207666015625,0.09350156784057617,-2.797182083129883,0.6710860729217529
1789038618648076500,8.22207666015625,0.3422524929046631,-2.3173398971557617,0.6110553741455078
1789038618658076700,8.23207666015625,0.22790312767028809,-1.1567440032958984,-0.008768796920776367
1789038618668076500,8.24207666015625,0.7018241882324219,0.16962051391601562,-0.7782599925994873
1789038618678076700,8.25207666015625,1.1402299404144287,1.1863017082214355,-1.354750156402588
1789038618688076500,8.26207666015625,2.0974490642547607,2.05092716217041,-1.5545117855072021
1789038618698076700,8.27207666015625,2.6072771549224854,2.521023750305176,-1.6572155952453613
1789038618708076500,8.28207666015625,2.734407663345337,2.452755928039551,-1.554262638092041
1789038618718076700,8.29207666015625,2.3301291465759277,2.076385021209717,-1.2350590229034424
1789038618728076500,8.30207666015625,1.7623896598815918,1.0529260635375977,-0.7850642204284668
1789038618738076700,8.31207666015625,1.5858068466186523,0.23424196243286133,-0.3330843448638916
1789038618748076500,8.32207666015625,1.6003608703613281,-0.3861207962036133,-0.12673497200012207
1789038618758076700,8.33207666015625,1.4076180458068848,-0.7500572204589844,0.2510058879852295
1789038618768076500,8.34207666015625,1.0591113567352295,-0.16800737380981445,0.127183198928833
1789038618778076700,8.35207666015625,0.20573091506958008,0.1455674171447754,-0.4032256603240967
1789038618788076500,8.36207666015625,0.0906672477722168,0.7599577903747559,-1.2804746627807617
1789038618798076700,8.37207666015625,-0.351043701171875,1.1288766860961914,-1.7896907329559326
1789038618808076500,8.38207666015625,-0.5664081573486328,1.3593168258666992,-2.445120096206665
1789038618818076700,8.39207666015625,-0.32532358169555664,1.5198755264282227,-3.287207841873169
1789038618828076500,8.40207666015625,-0.2705879211425781,1.3844976425170898,-3.066943645477295
1789038618838076700,8.41207666015625,-0.2312474250793457,1.0728497505187988,-3.1084601879119873
1789038618848076500,8.42207666015625,-0.20347881317138672,0.2625546455383301,-2.4908015727996826
1789038618858076700,8.43207666015625,-0.41898202896118164,-0.31228160858154297,-2.1885604858398438
1789038618868076500,8.44207666015625,-0.29227399826049805,-0.4928731918334961,-1.9618208408355713
1789038618878076700,8.45207666015625,0.09362220764160156,-0.4628596305847168,-2.2274274826049805
1789038618888076500,8.46207666015625,-0.2043018341064453,-0.28583621978759766,-2.498467206954956
1789038618898076700,8.47207666015625,-0.9215340614318848,-0.3089718818664551,-3.024296760559082
1789038618908076500,8.48207666015625,-1.1667146682739258,-0.22524356842041016,-2.7140421867370605
1789038618918076700,8.49207666015625,-0.7692475318908691,-0.36483287811279297,-2.1991512775421143
1789038618928076500,8.50207666015625,-0.3998851776123047,-0.555694580078125,-1.9812438488006592
1789038618938076700,8.51207666015625,-0.4825739860534668,-0.7519431114196777,-1.667121410369873
1789038618948076500,8.52207666015625,-0.8461666107177734,-0.9650282859802246,-1.3034331798553467
1789038618958076700,8.53207666015625,-1.1526427268981934,-0.946631908416748,-1.02940034866333
1789038618968076500,8.54207666015625,-1.1936979293823242,-0.9872732162475586,-1.0410256385803223
1789038618978076700,8.55207666015625,-1.0532431602478027,-0.9282999038696289,-0.7500715255737305
1789038618988076500,8.56207666015625,-0.9277410507202148,-0.8241686820983887,-0.619605302810669
1789038618998076700,8.57207666015625,-0.8913054466247559,-0.6977567672729492,-0.43442201614379883
1789038619008076500,8.58207666015625,-0.7814149856567383,-0.5407748222351074,-0.09550285339355469
1789038619018076700,8.59207666015625,-0.7762370109558105,-0.3678860664367676,0.19733190536499023
1789038619028076500,8.60207666015625,-0.680056095123291,-0.058214664459228516,0.2787821292877197
1789038619038076700,8.61207666015625,-0.5342411994934082,0.12343263626098633,0.31577563285827637
1789038619048076500,8.62207666015625,-0.1911487579345703,0.40863609313964844,0.2846989631652832
1789038619058076700,8.63207666015625,-0.014782905578613281,0.4605097770690918,0.14012527465820312
1789038619068076500,8.64207666015625,0.09253168106079102,0.37244129180908203,0.6123807430267334
1789038619078076700,8.65207666015625,-0.06255912780761719,0.46723461151123047,0.4422905445098877
1789038619088076500,8.66207666015625,-0.11151409149169922,0.5167636871337891,0.4427058696746826
1789038619098076700,8.67207666015625,-0.21876859664916992,0.2257828712463379,0.5973942279815674
1789038619108076500,8.68207666015625,-0.063812255859375,-0.044693946838378906,0.6461310386657715
1789038619118076700,8.69207666015625,0.024494171142578125,-0.19542312622070312,0.547947883605957
1789038619128076500,8.70207666015625,0.09326171875,-0.3493771553039551,0.6558189392089844
1789038619138076700,8.71207666015625,0.0685420036315918,-0.4698934555053711,0.680086612701416
1789038619148076500,8.72207666015625,0.04918098449707031,-0.5241880416870117,0.5873775482177734
1789038619158076700,8.73207666015625,0.045255184173583984,-0.5426778793334961,0.6405293941497803
1789038619168076500,8.74207666015625,0.29580211639404297,-0.6969189643859863,0.8012332916259766
1789038619178076700,8.75207666015625,0.4415626525878906,-0.6074132919311523,0.9679198265075684
1789038619188076500,8.76207666015625,0.4910144805908203,-0.0841217041015625,0.6752750873565674
1789038619198076700,8.77207666015625,0.1499180793762207,0.2642521858215332,0.9327883720397949
1789038619208076500,8.78207666015625,-0.2140665054321289,0.2957339286804199,1.0101876258850098
1789038619218076700,8.79207666015625,-0.46331214904785156,-0.024425506591796875,1.1455411911010742
1789038619228076500,8.80207666015625,-0.2540402412414551,-0.2626991271972656,1.4097564220428467
1789038619238076700,8.81207666015625,-0.22214460372924805,-0.7052125930786133,1.908031702041626
1789038619248076500,8.82207666015625,-0.12839746475219727,-0.3638744354248047,0.9133431911468506
1789038619258076700,8.83207666015625,-0.37578868865966797,-0.13359975814819336,0.717038631439209
1789038619268076500,8.84207666015625,-0.523043155670166,0.43756532669067383,-0.06332063674926758
1789038619278076700,8.85207666015625,-0.5895490646362305,0.29197072982788086,-0.13058829307556152
1789038619288076500,8.86207666015625,-0.19396305084228516,0.2877383232116699,-0.3119649887084961
1789038619298076700,8.87207666015625,0.29462671279907227,0.43763303756713867,-0.682265043258667
1789038619308076500,8.88207666015625,0.43673133850097656,-0.05106830596923828,-0.09709644317626953
1789038619318076700,8.89207666015625,0.23940801620483398,-0.03988075256347656,0.5065767765045166
1789038619328076500,8.90207666015625,-0.043227195739746094,-0.10566139221191406,0.2180328369140625
1789038619338076700,8.91207666015625,-0.26999998092651367,-0.009568214416503906,0.577338695526123
1789038619348076500,8.92207666015625,-0.4860982894897461,-0.026847362518310547,0.6123147010803223
1789038619358076700,8.93207666015625,-0.06088733673095703,0.2223949432373047,1.0203614234924316
1789038619368076500,8.94207666015625,0.5676374435424805,0.5004425048828125,1.6568455696105957
1789038619378076700,8.95207666015625,1.0440254211425781,0.7278761863708496,2.408012866973877
1789038619388076500,8.96207666015625,0.9013886451721191,0.46003007888793945,3.081162452697754
1789038619398076700,8.97207666015625,1.3600516319274902,0.678743839263916,1.8723211288452148
1789038619408076500,8.98207666015625,0.8353166580200195,0.657951831817627,2.0710701942443848
1789038619418076700,8.99207666015625,0.6744256019592285,0.604243278503418,1.3569626808166504
1789038619428076500,9.00207666015625,0.2152385711669922,0.2573580741882324,0.5360941886901855
1789038619438076700,9.01207666015625,-0.5052375793457031,0.11948347091674805,0.3951430320739746
1789038619448076500,9.02207666015625,-1.6512999534606934,-0.4472775459289551,0.9017457962036133
1789038619458076700,9.03207666015625,-1.6805543899536133,-0.8546977043151855,-0.13455581665039062
1789038619468076500,9.04207666015625,-0.8538188934326172,-0.9895339012145996,0.007648468017578125
1789038619478076700,9.05207666015625,0.25324201583862305,-0.5017194747924805,-0.5025577545166016
1789038619488076500,9.06207666015625,0.5110740661621094,-0.1423187255859375,-0.42677974700927734
1789038619498076700,9.07207666015625,0.17144775390625,0.3296198844909668,-0.3898172378540039
1789038619508076500,9.08207666015625,-0.23015642166137695,0.5108532905578613,0.037039756774902344
1789038619518076700,9.09207666015625,-0.7382297515869141,0.1451706886291504,-0.020566463470458984
1789038619528076500,9.10207666015625,-1.0160202980041504,0.032501220703125,-0.4553251266479492
1789038619538076700,9.11207666015625,-0.8421077728271484,-0.05264902114868164,-1.0838422775268555
1789038619548076500,9.12207666015625,-0.1931924819946289,-0.2624807357788086,-0.9737639427185059
1789038619558076700,9.13207666015625,0.42937469482421875,-0.31412792205810547,-1.0238831043243408
1789038619568076500,9.14207666015625,0.5444917678833008,-0.14996910095214844,-1.049516201019287
1789038619578076700,9.15207666015625,0.10184192657470703,-0.13517093658447266,-1.0206685066223145
1789038619588076500,9.16207666015625,-0.012674808502197266,0.055689334869384766,-1.050173282623291
1789038619598076700,9.17207666015625,-0.012215137481689453,0.4407157897949219,-1.4759550094604492
1789038619608076500,9.18207666015625,-0.15103578567504883,0.5202908515930176,-1.470533847808838
1789038619618076700,9.19207666015625,0.11726999282836914,0.8095850944519043,-1.9899406433105469
1789038619628076500,9.20207666015625,0.11132526397705078,0.9671344757080078,-1.6868796348571777
1789038619638076700,9.21207666015625,0.27623462677001953,1.0409598350524902,-1.7305293083190918
1789038619648076500,9.22207666015625,0.528172492980957,1.0469703674316406,-1.4603667259216309
1789038619658076700,9.23207666015625,0.7595181465148926,1.183032512664795,-1.2709710597991943
1789038619668076500,9.24207666015625,0.6415433883666992,1.2359042167663574,-1.0947728157043457
1789038619678076700,9.25207666015625,0.40076637268066406,1.5229673385620117,-1.2216954231262207
1789038619688076500,9.26207666015625,0.04895830154418945,1.4521198272705078,-1.150818109512329
1789038619698076700,9.27207666015625,0.1661539077758789,1.3001103401184082,-0.9422037601470947
1789038619708076500,9.28207666015625,0.4188961982727051,1.222311019897461,-0.7214360237121582
1789038619718076700,9.29207666015625,0.5918712615966797,1.106337547302246,-0.5888116359710693
1789038619728076500,9.30207666015625,0.5872316360473633,0.9923162460327148,-0.3638930320739746
1789038619738076700,9.31207666015625,0.5577855110168457,0.9203968048095703,-0.12493133544921875
1789038619748076500,9.32207666015625,0.3120408058166504,1.0472383499145508,0.13857078552246094
1789038619758076700,9.33207666015625,0.08452510833740234,1.237287998199463,0.22844409942626953
1789038619768076500,9.34207666015625,0.0699915885925293,1.408440113067627,0.3303055763244629
1789038619778076700,9.35207666015625,0.12410926818847656,1.5326647758483887,0.6753458976745605
1789038619788076500,9.36207666015625,0.3239145278930664,1.670842170715332,0.5044889450073242
1789038619798076700,9.37207666015625,0.7199082374572754,1.7959251403808594,0.5050654411315918
1789038619808076500,9.38207666015625,1.0757927894592285,1.7966117858886719,0.44024181365966797
1789038619818076700,9.39207666015625,1.2959842681884766,1.7244057655334473,0.794743537902832
1789038619828076500,9.40207666015625,1.2235984802246094,1.7064485549926758,1.223520278930664
1789038619838076700,9.41207666015625,1.2357254028320312,1.8754634857177734,1.0710110664367676
1789038619848076500,9.42207666015625,0.6790189743041992,1.964148998260498,0.7809357643127441
1789038619858076700,9.43207666015625,-0.2694110870361328,1.4451923370361328,1.8886504173278809
1789038619868076500,9.44207666015625,-0.5396227836608887,0.9904894828796387,2.0640029907226562
1789038619878076700,9.45207666015625,-1.0614252090454102,0.21172189712524414,2.2517199516296387
1789038619888076500,9.46207666015625,-1.3536176681518555,-0.6915011405944824,1.6828117370605469
1789038619898076700,9.47207666015625,-1.129652976989746,-0.964472770690918,0.5850214958190918
1789038619908076500,9.48207666015625,-0.2923250198364258,0.11065244674682617,-0.881572961807251
1789038619918076700,9.49207666015625,0.536747932434082,1.5652217864990234,-1.7663156986236572
1789038619928076500,9.50207666015625,0.8654084205627441,2.405520439147949,-1.4573049545288086
1789038619938076700,9.51207666015625,1.062112808227539,2.298290729522705,-0.4932103157043457
1789038619948076500,9.52207666015625,0.7677321434020996,1.9544429779052734,-0.42582106590270996
1789038619958076700,9.53207666015625,0.2129197120666504,1.422050952911377,-0.80810546875
1789038619968076500,9.54207666015625,0.2606382369995117,0.952817440032959,-0.5415530204772949
1789038619978076700,9.55207666015625,0.004729747772216797,0.7154941558837891,-0.8542332649230957
1789038619988076500,9.56207666015625,-0.7068243026733398,0.5393376350402832,-0.3712778091430664
1789038619998076700,9.57207666015625,-1.4458613395690918,0.3857994079589844,0.3412899971008301
1789038620008076500,9.58207666015625,-1.1602320671081543,0.10549736022949219,0.7298626899719238
1789038620018076700,9.59207666015625,-0.38674259185791016,-0.29930782318115234,0.9151802062988281
1789038620028076500,9.60207666015625,0.014744281768798828,-0.475862979888916,1.0654277801513672
1789038620038076700,9.61207666015625,-0.1864023208618164,-0.4161195755004883,0.9294312000274658
1789038620048076500,9.62207666015625,-0.9033093452453613,-0.21935701370239258,0.6292934417724609
1789038620058076700,9.63207666015625,-1.515195369720459,-0.1830306053161621,0.570289134979248
1789038620068076500,9.64207666015625,-1.8296480178833008,-0.24762296676635742,0.474215030670166
1789038620078076700,9.65207666015625,-1.7944059371948242,-0.2240157127380371,0.4648129940032959
1789038620088076500,9.66207666015625,-1.7892742156982422,-0.1042947769165039,0.5856389999389648
1789038620098076700,9.67207666015625,-1.7062740325927734,0.01293325424194336,0.8985371589660645
1789038620108076500,9.68207666015625,-1.6352753639221191,0.2272047996520996,1.05926513671875
1789038620118076700,9.69207666015625,-1.5250287055969238,0.3886384963989258,1.301940679550171
1789038620128076500,9.70207666015625,-1.195070743560791,0.6892275810241699,1.2073431015014648
1789038620138076700,9.71207666015625,-0.9428896903991699,0.8023614883422852,1.2313742637634277
1789038620148076500,9.72207666015625,-0.7353415489196777,0.8475565910339355,1.1119036674499512
1789038620158076700,9.73207666015625,-0.46138906478881836,0.906071662902832,0.9216923713684082
1789038620168076500,9.74207666015625,-0.3617687225341797,0.9104743003845215,0.9191756248474121
1789038620178076700,9.75207666015625,-0.5580220222473145,0.9418830871582031,0.7995705604553223
1789038620188076500,9.76207666015625,-0.8466277122497559,0.9893980026245117,0.792125940322876
1789038620198076700,9.77207666015625,-0.9262032508850098,0.9872279167175293,0.98046875
1789038620208076500,9.78207666015625,-1.125779628753662,1.0540552139282227,1.1165156364440918
1789038620218076700,9.79207666015625,-1.2663803100585938,1.1387338638305664,1.0478012561798096
1789038620228076500,9.80207666015625,-1.1910829544067383,1.286428451538086,0.953829288482666
1789038620238076700,9.81207666015625,-1.2231993675231934,1.3314809799194336,0.7884271144866943
1789038620248076500,9.82207666015625,-1.1921677589416504,1.1730403900146484,0.7538259029388428
1789038620258076700,9.83207666015625,-1.260383129119873,0.952517032623291,0.5087158679962158
1789038620268076500,9.84207666015625,-1.3174052238464355,0.7069320678710938,0.519089937210083
1789038620278076700,9.85207666015625,-1.2599425315856934,0.5460724830627441,0.7634115219116211
1789038620288076500,9.86207666015625,-1.3861989974975586,0.3078794479370117,0.7980325222015381
1789038620298076700,9.87207666015625,-1.5096745491027832,0.05727720260620117,1.1205105781555176
1789038620308076500,9.88207666015625,-1.397961139678955,-0.038738250732421875,1.2404203414916992
1789038620318076700,9.89207666015625,-1.221348762512207,0.020315170288085938,1.2304706573486328
1789038620328076500,9.90207666015625,-0.9836716651916504,0.44752073287963867,0.9859085083007812
1789038620338076700,9.91207666015625,-1.1643962860107422,0.8327169418334961,0.9207131862640381
1789038620348076500,9.92207666015625,-1.267263412475586,1.199758529663086,0.8084478378295898
1789038620358076700,9.93207666015625,-1.452944278717041,1.3733716011047363,0.629340410232544
1789038620368076500,9.94207666015625,-1.3810620307922363,1.3361129760742188,0.6766324043273926
1789038620378076700,9.95207666015625,-1.0672731399536133,1.1441774368286133,0.7030811309814453
1789038620388076500,9.96207666015625,-0.9460663795471191,0.9499187469482422,0.7255332469940186
1789038620398076700,9.97207666015625,-0.8785386085510254,0.7452902793884277,0.4828634262084961
1789038620408076500,9.98207666015625,-0.8440237045288086,0.4783496856689453,0.5234394073486328
1789038620418076700,9.99207666015625,-0.5373730659484863,0.12607479095458984,0.5587410926818848
1789038620428076500,10.00207666015625,-0.39510154724121094,-0.11969375610351562,0.2100210189819336
1789038620438076700,10.01207666015625,-0.3197464942932129,-0.31156349182128906,0.11907148361206055
1789038620448076500,10.02207666015625,-0.22064447402954102,-0.3765840530395508,-0.1231679916381836
1789038620458076700,10.03207666015625,-0.4982919692993164,-0.2694225311279297,-0.33459901809692383
1789038620468076500,10.04207666015625,-0.6397757530212402,-0.021715164184570312,-0.35338807106018066
1789038620478076700,10.05207666015625,-0.5205419063568115,0.3302125930786133,-0.5297784805297852
1789038620488076500,10.06207666015625,-0.5261397361755371,0.7376880645751953,-0.6203827857971191
1789038620498076700,10.07207666015625,-0.3907344341278076,1.1876201629638672,-0.6141300201416016
1789038620508076500,10.08207666015625,-0.10987377166748047,1.5387272834777832,-0.8168435096740723
1789038620518076700,10.09207666015625,-0.23973774909973145,1.6781749725341797,-1.0087366104125977
1789038620528076500,10.10207666015625,-0.10718178749084473,1.7840919494628906,-1.0240674018859863
1789038620538076700,10.11207666015625,0.08031105995178223,1.4695138931274414,-0.669597864151001
1789038620548076500,10.12207666015625,0.42375802993774414,1.075760841369629,-0.6220636367797852
1789038620558076700,10.13207666015625,0.6292157173156738,0.5940065383911133,-0.2793254852294922
1789038620568076500,10.14207666015625,0.6123678684234619,0.17284011840820312,-0.19112300872802734
1789038620578076700,10.15207666015625,0.8140256404876709,-0.24145793914794922,0.28501057624816895
1789038620588076500,10.16207666015625,1.1260266304016113,-0.5992717742919922,1.0077571868896484
1789038620598076700,10.17207666015625,1.1189355850219727,-0.8115730285644531,1.00838303565979
1789038620608076500,10.18207666015625,0.8309128284454346,-1.0109663009643555,1.6048791408538818
1789038620618076700,10.19207666015625,0.49235987663269043,-1.3378524780273438,2.458487033843994
1789038620628076500,10.20207666015625,0.22689580917358398,-1.4214353561401367,2.9626924991607666
1789038620638076700,10.21207666015625,0.08300447463989258,-1.3365497589111328,2.8670856952667236
1789038620648076500,10.22207666015625,-0.37459611892700195,-1.2492494583129883,2.876148223876953
1789038620658076700,10.23207666015625,-0.8541247844696045,-1.2334709167480469,2.8209426403045654
1789038620668076500,10.24207666015625,-0.9675633907318115,-1.189366340637207,2.8182828426361084
1789038620678076700,10.25207666015625,-0.7908315658569336,-1.0592479705810547,2.129241466522217
1789038620688076500,10.26207666015625,-0.7825086116790771,-0.8140726089477539,1.7715504169464111
1789038620698076700,10.27207666015625,-0.6225910186767578,-0.6008462905883789,1.3194479942321777
1789038620708076500,10.28207666015625,-0.47861146926879883,-0.3732137680053711,0.711723804473877
1789038620718076700,10.29207666015625,-0.6046640872955322,-0.34232425689697266,0.46862196922302246
1789038620728076500,10.30207666015625,-0.4113023281097412,-0.3975706100463867,0.622391939163208
1789038620738076700,10.31207666015625,0.06664752960205078,-0.4603404998779297,0.10056138038635254
1789038620748076500,10.32207666015625,0.33675718307495117,-0.514805793762207,-0.2558329105377197
1789038620758076700,10.33207666015625,0.29047656059265137,-0.17866897583007812,-0.96795654296875
1789038620768076500,10.34207666015625,0.3248419761657715,0.09575557708740234,-1.3259153366088867
1789038620778076700,10.35207666015625,0.6060502529144287,0.3532438278198242,-1.658360242843628
1789038620788076500,10.36207666015625,0.695087194442749,0.615211009979248,-1.8614096641540527
1789038620798076700,10.37207666015625,0.6346402168273926,0.643559455871582,-1.8271960020065308
1789038620808076500,10.38207666015625,0.40352392196655273,0.5574684143066406,-1.5353386402130127
1789038620818076700,10.39207666015625,0.43738865852355957,0.4843721389770508,-1.6356747150421143
1789038620828076500,10.40207666015625,0.3908863067626953,0.3706235885620117,-1.3339285850524902
1789038620838076700,10.41207666015625,0.2520792484283447,0.1709423065185547,-0.9448487758636475
1789038620848076500,10.42207666015625,-0.11693477630615234,-0.035744667053222656,-1.0639009475708008
1789038620858076700,10.43207666015625,-0.2452831268310547,-0.26456260681152344,-0.5105843544006348
1789038620868076500,10.44207666015625,-0.1194620132446289,-0.5770168304443359,-0.28670668601989746
1789038620878076700,10.45207666015625,-0.19938921928405762,-0.5745525360107422,-0.7150704860687256
1789038620888076500,10.46207666015625,-0.36111903190612793,-0.42711544036865234,-0.538902759552002
1789038620898076700,10.47207666015625,-0.6006155014038086,-0.2300872802734375,-0.7175605297088623
1789038620908076500,10.48207666015625,-0.34664130210876465,-0.1575918197631836,-0.6866137981414795
1789038620918076700,10.49207666015625,-0.33963942527770996,-0.11481285095214844,-0.5537729263305664
1789038620928076500,10.50207666015625,-0.6692547798156738,-0.2020578384399414,-0.1349337100982666
1789038620938076700,10.51207666015625,-0.7794334888458252,-0.3797273635864258,0.28712964057922363
1789038620948076500,10.52207666015625,-0.5039899349212646,-0.6091842651367188,0.7106890678405762
1789038620958076700,10.53207666015625,-0.2014176845550537,-0.7267923355102539,1.19411039352417
1789038620968076500,10.54207666015625,-0.10376167297363281,-0.8215312957763672,0.9730567932128906
1789038620978076700,10.55207666015625,-0.05752921104431152,-0.7731924057006836,0.6977195739746094
1789038620988076500,10.56207666015625,-0.030095338821411133,-0.6359195709228516,0.5588462352752686
1789038620998076700,10.57207666015625,-0.10595178604125977,-0.5303211212158203,0.3267550468444824
1789038621008076500,10.58207666015625,-0.5111730098724365,-0.48050403594970703,0.45296287536621094
1789038621018076700,10.59207666015625,-0.48021721839904785,-0.31640148162841797,0.8697509765625
1789038621028076500,10.60207666015625,-0.028862714767456055,-0.04717254638671875,1.0945324897766113
1789038621038076700,10.61207666015625,-0.008457183837890625,0.30335426330566406,0.9137446880340576
1789038621048076500,10.62207666015625,0.018860340118408203,0.6661925315856934,0.7668867111206055
1789038621058076700,10.63207666015625,-0.014980554580688477,0.9044003486633301,0.5460386276245117
1789038621068076500,10.64207666015625,0.019237518310546875,0.9479813575744629,0.4040055274963379
1789038621078076700,10.65207666015625,0.031909942626953125,0.7324886322021484,0.6975846290588379
1789038621088076500,10.66207666015625,0.049794912338256836,0.32279396057128906,1.0663914680480957
1789038621098076700,10.67207666015625,0.385831356048584,0.024011611938476562,1.0819129943847656
1789038621108076500,10.68207666015625,0.5348446369171143,-0.22360801696777344,0.8953533172607422
1789038621118076700,10.69207666015625,0.6602444648742676,-0.38585758209228516,0.7059674263000488
1789038621128076500,10.70207666015625,0.571401834487915,-0.48670196533203125,0.3917860984802246
1789038621138076700,10.71207666015625,0.39467954635620117,-0.5975284576416016,0.18892574310302734
1789038621148076500,10.72207666015625,0.41583919525146484,-0.7099704742431641,-0.009005069732666016
1789038621158076700,10.73207666015625,0.3042144775390625,-0.7828207015991211,-0.08825349807739258
1789038621168076500,10.74207666015625,0.10201287269592285,-0.7541799545288086,-0.2018752098083496
1789038621178076700,10.75207666015625,-0.011906623840332031,-0.7554693222045898,-0.1766529083251953
1789038621188076500,10.76207666015625,0.4425647258758545,-0.7155494689941406,0.06611204147338867
1789038621198076700,10.77207666015625,0.9221518039703369,-0.6142787933349609,0.21985483169555664
1789038621208076500,10.78207666015625,1.1136016845703125,-0.5069675445556641,0.31210899353027344
1789038621218076700,10.79207666015625,1.0903983116149902,-0.22997188568115234,0.18064451217651367
1789038621228076500,10.80207666015625,0.9568741321563721,0.02402210235595703,0.46249914169311523
1789038621238076700,10.81207666015625,1.0833992958068848,0.27924633026123047,0.5230026245117188
1789038621248076500,10.82207666015625,1.2361810207366943,0.2042989730834961,0.7965130805969238
1789038621258076700,10.83207666015625,1.6787978410720825,0.19717788696289062,0.9321169853210449
1789038621268076500,10.84207666015625,1.758520245552063,0.32775402069091797,0.807856559753418
1789038621278076700,10.85207666015625,1.6278009414672852,0.6262693405151367,0.5444588661193848
1789038621288076500,10.86207666015625,1.397626280784607,0.9037199020385742,0.3013286590576172
1789038621298076700,10.87207666015625,1.0948386192321777,1.0120658874511719,0.1386418342590332
1789038621308076500,10.88207666015625,0.8220078945159912,1.052206039428711,0.17400741577148438
1789038621318076700,10.89207666015625,0.6099293231964111,0.9681577682495117,0.32210683822631836
1789038621328076500,10.90207666015625,0.5226190090179443,0.7395153045654297,0.5641942024230957
1789038621338076700,10.91207666015625,0.6428937911987305,0.5736513137817383,0.6019315719604492
1789038621348076500,10.92207666015625,0.7285106182098389,0.4315519332885742,0.7617678642272949
1789038621358076700,10.93207666015625,0.823279857635498,0.39535045623779297,0.8975186347961426
1789038621368076500,10.94207666015625,0.8824639320373535,0.26194286346435547,1.006086826324463
1789038621378076700,10.95207666015625,1.171846866607666,0.23384857177734375,0.9857959747314453
1789038621388076500,10.96207666015625,1.2611337900161743,0.24897480010986328,0.7747430801391602
1789038621398076700,10.97207666015625,1.1822972297668457,0.19379901885986328,0.3751997947692871
1789038621408076500,10.98207666015625,1.0624549388885498,-0.02228832244873047,0.16753005981445312
1789038621418076700,10.99207666015625,1.010246992111206,-0.3812837600708008,0.3224649429321289
1789038621428076500,11.00207666015625,0.9170384407043457,-0.8886184692382812,0.471494197845459
1789038621438076700,11.01207666015625,0.779787540435791,-1.4792242050170898,0.4938039779663086
1789038621448076500,11.02207666015625,0.5486247539520264,-1.949737548828125,0.40419435501098633
1789038621458076700,11.03207666015625,0.34302473068237305,-1.9969053268432617,-0.08976602554321289
1789038621468076500,11.04207666015625,0.0784006118774414,-1.7375755310058594,-0.6972458362579346
1789038621478076700,11.05207666015625,0.01842331886291504,-1.3571500778198242,-1.2953414916992188
1789038621488076500,11.06207666015625,0.2787647247314453,-0.9543619155883789,-1.5507721900939941
1789038621498076700,11.07207666015625,0.6832659244537354,-0.5845441818237305,-0.9463934898376465
1789038621508076500,11.08207666015625,0.7214436531066895,-0.1576986312866211,-0.6298372745513916
1789038621518076700,11.09207666015625,0.556894063949585,0.41671180725097656,-0.16913270950317383
1789038621528076500,11.10207666015625,0.42290329933166504,0.9908256530761719,-0.13438868522644043
1789038621538076700,11.11207666015625,0.4237864017486572,1.322617530822754,-0.3495473861694336
1789038621548076500,11.12207666015625,0.33085131645202637,1.0424985885620117,-0.13939356803894043
1789038621558076700,11.13207666015625,0.2699286937713623,0.6602463722229004,-0.08118486404418945
1789038621568076500,11.14207666015625,0.4926309585571289,0.3366985321044922,0.16842222213745117
1789038621578076700,11.15207666015625,0.677696704864502,0.17941761016845703,0.2090003490447998
1789038621588076500,11.16207666015625,0.6588563919067383,-0.009552955627441406,0.4260385036468506
1789038621598076700,11.17207666015625,0.5901670455932617,-0.024288177490234375,0.5127696990966797
1789038621608076500,11.18207666015625,0.8078141212463379,-0.06576824188232422,0.6700694561004639
1789038621618076700,11.19207666015625,0.9779829978942871,0.1078481674194336,0.4967472553253174
1789038621628076500,11.20207666015625,1.0460960865020752,0.1842355728149414,0.41596531867980957
1789038621638076700,11.21207666015625,0.9918859004974365,0.2623167037963867,0.3988039493560791
1789038621648076500,11.22207666015625,0.8439745903015137,0.3324251174926758,0.4145941734313965
1789038621658076700,11.23207666015625,0.5960497856140137,0.2973928451538086,0.5301573276519775
1789038621668076500,11.24207666015625,0.4268648624420166,0.3133220672607422,0.4445939064025879
1789038621678076700,11.25207666015625,0.3498039245605469,0.3540964126586914,0.40739011764526367
1789038621688076500,11.26207666015625,0.36276912689208984,0.29953765869140625,0.3747062683105469
1789038621698076700,11.27207666015625,0.525780200958252,-0.03961944580078125,0.6110055446624756
1789038621708076500,11.28207666015625,0.7576613426208496,-0.15473270416259766,0.5785150527954102
1789038621718076700,11.29207666015625,0.8915243148803711,-0.005085945129394531,0.17441678047180176
1789038621728076500,11.30207666015625,0.8831274509429932,0.11120891571044922,-0.045941829681396484
1789038621738076700,11.31207666015625,0.8935258388519287,0.09727001190185547,-0.2554459571838379
1789038621748076500,11.32207666015625,0.91501784324646,-0.08295822143554688,-0.5035874843597412
1789038621758076700,11.33207666015625,0.8328030109405518,-0.2530784606933594,-0.6168613433837891
1789038621768076500,11.34207666015625,0.6536743640899658,-0.3858613967895508,-0.7241301536560059
1789038621778076700,11.35207666015625,0.5754709243774414,-0.46240234375,-0.7641241550445557
1789038621788076500,11.36207666015625,0.4497101306915283,-0.5399408340454102,-0.6273031234741211
1789038621798076700,11.37207666015625,0.46042823791503906,-0.4913616180419922,-0.5116376876831055
1789038621808076500,11.38207666015625,0.451824426651001,-0.33878040313720703,-0.7139053344726562
1789038621818076700,11.39207666015625,0.3460226058959961,-0.2842741012573242,-0.5191936492919922
1789038621828076500,11.40207666015625,0.35642218589782715,-0.2678823471069336,-0.3353850841522217
1789038621838076700,11.41207666015625,0.3149888515472412,-0.33762359619140625,-0.17750859260559082
1789038621848076500,11.42207666015625,0.2578904628753662,-0.3900165557861328,-0.04742002487182617
1789038621858076700,11.43207666015625,0.24379944801330566,-0.3748493194580078,0.17503094673156738
1789038621868076500,11.44207666015625,0.2076280117034912,-0.30368518829345703,0.20304274559020996
1789038621878076700,11.45207666015625,0.2944145202636719,-0.2992277145385742,0.2082972526550293
1789038621888076500,11.46207666015625,0.3342478275299072,-0.38939571380615234,0.18639874458312988
1789038621898076700,11.47207666015625,0.4199051856994629,-0.5230569839477539,0.2755873203277588
1789038621908076500,11.48207666015625,0.4364902973175049,-0.5919055938720703,0.3633899688720703
1789038621918076700,11.49207666015625,0.3564925193786621,-0.6050071716308594,0.48572587966918945
1789038621928076500,11.50207666015625,0.22933602333068848,-0.586085319519043,0.5825629234313965
1789038621938076700,11.51207666015625,0.12425923347473145,-0.5385227203369141,0.6836080551147461
1789038621948076500,11.52207666015625,0.1116786003112793,-0.5464811325073242,0.7119021415710449
1789038621958076700,11.53207666015625,0.09628748893737793,-0.5450010299682617,0.7821497917175293
1789038621968076500,11.54207666015625,0.1322324275970459,-0.6423740386962891,0.6919231414794922
1789038621978076700,11.55207666015625,0.15346980094909668,-0.6080999374389648,0.6047325134277344
1789038621988076500,11.56207666015625,0.21169066429138184,-0.5206756591796875,0.399569034576416
1789038621998076700,11.57207666015625,0.2412874698638916,-0.47221946716308594,0.25884294509887695
1789038622008076500,11.58207666015625,0.1774892807006836,-0.2611808776855469,0.1548151969909668
1789038622018076700,11.59207666015625,0.09227681159973145,0.025178909301757812,-0.010464668273925781
1789038622028076500,11.60207666015625,0.06487464904785156,0.2648439407348633,-0.10284900665283203
1789038622038076700,11.61207666015625,0.07555603981018066,0.32688379287719727,-0.11707305908203125
1789038622048076500,11.62207666015625,0.13029813766479492,0.3634529113769531,-0.1253952980041504
1789038622058076700,11.63207666015625,0.1901228427886963,0.2895841598510742,-0.19793939590454102
1789038622068076500,11.64207666015625,0.2805304527282715,0.27907752990722656,-0.11558055877685547
1789038622078076700,11.65207666015625,0.3232395648956299,0.21726608276367188,-0.1855635643005371
1789038622088076500,11.66207666015625,0.35000109672546387,0.17951011657714844,-0.18843936920166016
1789038622098076700,11.67207666015625,0.30397677421569824,0.07789993286132812,-0.28679513931274414
1789038622108076500,11.68207666015625,0.21133637428283691,-0.054412841796875,-0.33343029022216797
1789038622118076700,11.69207666015625,0.08962464332580566,-0.1815042495727539,-0.3112602233886719
1789038622128076500,11.70207666015625,0.013753414154052734,-0.2882070541381836,-0.27400732040405273
1789038622138076700,11.71207666015625,0.05914711952209473,-0.45651912689208984,-0.1631317138671875
1789038622148076500,11.72207666015625,0.1355724334716797,-0.6393718719482422,-0.048932552337646484
1789038622158076700,11.73207666015625,0.0897512435913086,-0.8024969100952148,0.12972688674926758
1789038622168076500,11.74207666015625,-0.04817843437194824,-0.9061079025268555,0.29108333587646484
1789038622178076700,11.75207666015625,-0.16148924827575684,-0.8248996734619141,0.35161876678466797
1789038622188076500,11.76207666015625,-0.22876715660095215,-0.6165180206298828,0.3991856575012207
1789038622198076700,11.77207666015625,-0.28723788261413574,-0.37345218658447266,0.39188385009765625
1789038622208076500,11.78207666015625,-0.3004627227783203,-0.15700626373291016,0.39636754989624023
1789038622218076700,11.79207666015625,-0.24586701393127441,-0.11952590942382812,0.5128130912780762
1789038622228076500,11.80207666015625,-0.27520084381103516,-0.24432754516601562,0.6621522903442383
1789038622238076700,11.81207666015625,-0.24422502517700195,-0.4575929641723633,0.9002385139465332
1789038622248076500,11.82207666015625,-0.2176520824432373,-0.750244140625,1.169102668762207
1789038622258076700,11.83207666015625,-0.2085285186767578,-1.1391868591308594,1.3753910064697266
1789038622268076500,11.84207666015625,-0.18596959114074707,-1.2539081573486328,1.500258445739746
1789038622278076700,11.85207666015625,-0.11374735832214355,-1.3150835037231445,1.4735965728759766
1789038622288076500,11.86207666015625,-0.07189822196960449,-0.8900413513183594,1.2806425094604492
1789038622298076700,11.87207666015625,-0.10549020767211914,-0.22908306121826172,0.9003634452819824
1789038622308076500,11.88207666015625,-0.041676998138427734,0.5373392105102539,0.5913257598876953
1789038622318076700,11.89207666015625,0.2430424690246582,1.1496152877807617,0.18816804885864258
1789038622328076500,11.90207666015625,0.5473601818084717,1.470141887664795,-0.24653339385986328
1789038622338076700,11.91207666015625,0.6558568477630615,1.5839943885803223,-0.5115318298339844
1789038622348076500,11.92207666015625,0.6454601287841797,1.6174993515014648,-0.6531414985656738
1789038622358076700,11.93207666015625,0.6170845031738281,1.5849742889404297,-0.6154160499572754
1789038622368076500,11.94207666015625,0.5234837532043457,1.5105853080749512,-0.21830224990844727
1789038622378076700,11.95207666015625,0.2945742607116699,1.7409634590148926,0.09867334365844727
1789038622388076500,11.96207666015625,0.02167487144470215,2.1881585121154785,0.1152811050415039
1789038622398076700,11.97207666015625,-0.21880745887756348,2.787966251373291,0.026334285736083984
1789038622408076500,11.98207666015625,-0.31580185890197754,3.2911343574523926,-0.32372093200683594
1789038622418076700,11.99207666015625,-0.3628835678100586,3.465730667114258,-0.38372087478637695
1789038622428076500,12.00207666015625,-0.39369797706604004,3.3479490280151367,-0.1742563247680664
1789038622438076700,12.01207666015625,-0.2804105281829834,3.047177314758301,-0.09003877639770508
1789038622448076500,12.02207666015625,-0.03820943832397461,2.400163173675537,0.10074615478515625
1789038622458076700,12.03207666015625,0.15669584274291992,1.5658149719238281,0.27568483352661133
1789038622468076500,12.04207666015625,0.15619850158691406,0.655980110168457,0.5996818542480469
1789038622478076700,12.05207666015625,0.13922929763793945,-0.24269533157348633,1.0951714515686035
1789038622488076500,12.06207666015625,0.11807680130004883,-1.1743135452270508,1.6512174606323242
1789038622498076700,12.07207666015625,0.18703079223632812,-1.8326563835144043,2.0337910652160645
1789038622508076500,12.08207666015625,0.27144932746887207,-2.2227444648742676,2.1948018074035645
1789038622518076700,12.09207666015625,0.05158638954162598,-2.3892955780029297,2.1967668533325195
1789038622528076500,12.10207666015625,-0.2572197914123535,-2.409055709838867,1.975593090057373
1789038622538076700,12.11207666015625,-0.2657036781311035,-2.387120246887207,1.4903712272644043
1789038622548076500,12.12207666015625,-0.14482378959655762,-2.185610294342041,0.8268208503723145
1789038622558076700,12.13207666015625,0.0037250518798828125,-1.8866195678710938,0.1126246452331543
1789038622568076500,12.14207666015625,0.1580181121826172,-1.6579999923706055,-0.4469337463378906
1789038622578076700,12.15207666015625,0.41233038902282715,-1.492382526397705,-0.9527039527893066
1789038622588076500,12.16207666015625,0.7468352317810059,-1.254082202911377,-1.3715009689331055
1789038622598076700,12.17207666015625,1.0079991817474365,-0.8604440689086914,-1.5245990753173828
1789038622608076500,12.18207666015625,1.1777665615081787,-0.41881513595581055,-1.6672916412353516
1789038622618076700,12.19207666015625,1.055532455444336,0.11257219314575195,-1.973520278930664
1789038622628076500,12.20207666015625,0.6646411418914795,0.6328797340393066,-1.9680700302124023
1789038622638076700,12.21207666015625,0.2263469696044922,1.1803312301635742,-1.7631134986877441
1789038622648076500,12.22207666015625,-0.09136772155761719,1.542801856994629,-1.5273852348327637
1789038622658076700,12.23207666015625,-0.20651745796203613,1.7700848579406738,-1.3453683853149414
1789038622668076500,12.24207666015625,-0.18876171112060547,1.8179259300231934,-1.077519416809082
1789038622678076700,12.25207666015625,-0.13031625747680664,1.9275074005126953,-0.9577198028564453
1789038622688076500,12.26207666015625,-0.16898703575134277,1.889394760131836,-0.5414896011352539
1789038622698076700,12.27207666015625,0.09555315971374512,1.5850043296813965,-0.24459028244018555
1789038622708076500,12.28207666015625,0.30237364768981934,1.0665335655212402,0.2288665771484375
1789038622718076700,12.29207666015625,0.30519986152648926,0.5023608207702637,0.4304666519165039
1789038622728076500,12.30207666015625,0.23680973052978516,0.03279256820678711,0.40222644805908203
1789038622738076700,12.31207666015625,-0.04399394989013672,-0.46567201614379883,0.40717601776123047
1789038622748076500,12.32207666015625,-0.14732837677001953,-0.5378265380859375,0.1541152000427246
1789038622758076700,12.33207666015625,-0.4087255001068115,-0.6631026268005371,0.5180420875549316
1789038622768076500,12.34207666015625,-0.482421875,-0.7541203498840332,0.4688549041748047
1789038622778076700,12.35207666015625,-0.44651079177856445,-0.7798724174499512,0.5059928894042969
1789038622788076500,12.36207666015625,-0.3795318603515625,-0.9400010108947754,0.6192188262939453
1789038622798076700,12.37207666015625,-0.3452625274658203,-0.912261962890625,0.44027233123779297
1789038622808076500,12.38207666015625,-0.4866163730621338,-0.9532637596130371,0.5630860328674316
1789038622818076700,12.39207666015625,-0.7572002410888672,-1.0837655067443848,0.5334548950195312
1789038622828076500,12.40207666015625,-0.8544192314147949,-1.1077604293823242,0.6728992462158203
1789038622838076700,12.41207666015625,-0.8900172710418701,-1.2035188674926758,0.49477386474609375
1789038622848076500,12.42207666015625,-0.9363725185394287,-1.3325371742248535,0.7651166915893555
1789038622858076700,12.43207666015625,-0.9150323867797852,-1.150832176208496,0.524409294128418
1789038622868076500,12.44207666015625,-0.7645587921142578,-0.8134961128234863,0.1306157112121582
1789038622878076700,12.45207666015625,-0.9892077445983887,-0.5896177291870117,-0.16417455673217773
1789038622888076500,12.46207666015625,-0.9317405223846436,-0.2258443832397461,-0.04541921615600586
1789038622898076700,12.47207666015625,-0.6696891784667969,0.13862180709838867,-0.11485052108764648
1789038622908076500,12.48207666015625,-0.5914733409881592,0.2270340919494629,0.20213890075683594
1789038622918076700,12.49207666015625,-0.47279834747314453,0.11439371109008789,0.7043838500976562
1789038622928076500,12.50207666015625,-0.20151329040527344,0.047826290130615234,0.4346961975097656
1789038622938076700,12.51207666015625,-0.0859525203704834,0.027660369873046875,0.7069029808044434
1789038622948076500,12.52207666015625,0.035584211349487305,-0.10016584396362305,1.260995864868164
1789038622958076700,12.53207666015625,0.1992053985595703,-0.24280691146850586,1.1263656616210938
1789038622968076500,12.54207666015625,0.3575594425201416,-0.15389537811279297,0.7933950424194336
1789038622978076700,12.55207666015625,0.38365864753723145,0.035714149475097656,0.931643009185791
