time,seconds_elapsed,z,y,x
1789038610501764000,0.07576416015625,-0.6600393652915955,0.2637408673763275,0.7049379348754883
1789038610519018000,0.09301806640625,-0.592233419418335,0.5673406720161438,0.5051851868629456
1789038610536272100,0.110272216796875,-0.3271180987358093,0.7047852277755737,0.1740964651107788
1789038610553526000,0.127526123046875,0.025350889191031456,0.18616104125976562,-0.21319180727005005
1789038610570780000,0.14477978515625,0.09865466505289078,-0.36361727118492126,-0.5253437161445618
1789038610588033800,0.16203369140625,-0.024740023538470268,-0.7863357067108154,-0.3750709891319275
1789038610605287700,0.17928759765625,-0.21471896767616272,-0.7338013052940369,0.20463970303535461
1789038610622541800,0.196541748046875,-0.33139413595199585,-0.3672824501991272,0.7715222239494324
1789038610639795700,0.213795654296875,-0.04917461425065994,0.23564109206199646,0.9395100474357605
1789038610657049600,0.231049560546875,0.582459568977356,-0.08200860023498535,0.8313869833946228
1789038610674303500,0.248303466796875,0.7699950337409973,-0.9140064120292664,0.4984656572341919
1789038610691557600,0.2655576171875,0.7015781998634338,-0.32879796624183655,0.21135921776294708
1789038610708811500,0.2828115234375,0.6979129910469055,0.7976366877555847,0.03237583488225937
1789038610726065400,0.3000654296875,0.5677987933158875,0.8098539710044861,-0.02260199747979641
1789038610743319300,0.3173193359375,0.2678641974925995,0.21914774179458618,0.10751219838857651
1789038610760573200,0.3345732421875,0.004581485874950886,-0.22495095431804657,0.31581708788871765
1789038610777827300,0.351827392578125,-0.1805105358362198,-0.3153589367866516,0.5803215503692627
1789038610795081200,0.369081298828125,-0.31001389026641846,-0.42531460523605347,0.6914989352226257
1789038610812335000,0.386335205078125,-0.2617555558681488,-0.5652026534080505,0.573602020740509
1789038610829589000,0.403589111328125,-0.2678641974925995,-0.6030762791633606,0.3194822669029236
1789038610846843000,0.4208427734375,-0.2678641974925995,-0.5432115197181702,0.06597339361906052
1789038610864097000,0.438096923828125,-0.22266021370887756,-0.5743656158447266,-0.12644900381565094
1789038610881351000,0.455350830078125,-0.18906265497207642,-0.7380773425102234,-0.1795942485332489
1789038610898604800,0.472604736328125,-0.13225223124027252,-0.9903645515441895,-0.13561198115348816
1789038610915859000,0.48985888671875,-0.04428769648075104,-1.1766782999038696,0.007941242307424545
1789038610933112800,0.50711279296875,-0.007024944759905338,-1.121700406074524,0.06352993845939636
1789038610950366700,0.52436669921875,0.013744457624852657,-1.2414299249649048,-0.011606430634856224
1789038610967620600,0.54162060546875,0.003359756199643016,-1.180343508720398,-0.05192350596189499
1789038610984874500,0.55887451171875,-0.09498947113752365,-0.9469931125640869,-0.09407317638397217
1789038611002128600,0.576128662109375,-0.17806708812713623,-0.901789128780365,-0.1337793916463852
1789038611019382500,0.593382568359375,-0.18295399844646454,-0.8639155030250549,-0.1185077652335167
1789038611036636400,0.610636474609375,-0.1798996776342392,-0.6928733587265015,-0.17531819641590118
1789038611053890300,0.627890380859375,-0.21716243028640747,-0.6733257174491882,-0.3384190797805786
1789038611071144400,0.64514453125,-0.2910770773887634,-0.8688024282455444,-0.411722868680954
1789038611088398300,0.6623984375,-0.3393353819847107,-0.892626166343689,-0.31520622968673706
1789038611105652200,0.67965234375,-0.28924447298049927,-0.6195695996284485,-0.23823726177215576
1789038611122906000,0.696906005859375,-0.2055560052394867,-0.29214608669281006,-0.40805765986442566
1789038611140160300,0.71416015625,-0.13713914155960083,0.20021092891693115,-0.638353705406189
1789038611157414100,0.7314140625,-0.08093958348035812,0.6327031850814819,-0.7654135823249817
1789038611174668000,0.74866796875,-0.07422006875276566,0.8092431426048279,-0.8087849617004395
1789038611191922000,0.765921875,-0.004581485874950886,0.9112575054168701,-0.7977893948554993
1789038611209175800,0.78317578125,0.026572618633508682,0.7451022863388062,-0.7446441650390625
1789038611226430000,0.800429931640625,-0.003359756199643016,0.6168206930160522,-0.6010909676551819
1789038611243683800,0.817683837890625,0.0021380267571657896,0.6314814686775208,-0.37262752652168274
1789038611260937700,0.834937744140625,0.003970621153712273,0.7261655330657959,-0.13255766034126282
1789038611278191600,0.852191650390625,-0.024740023538470268,0.7353284955024719,0.004276053514331579
1789038611295445800,0.86944580078125,-0.0772743970155716,0.4970912039279938,0.06414080411195755
1789038611312699600,0.88669970703125,-0.11942406743764877,0.2741255760192871,0.13744457066059113
1789038611329953500,0.90395361328125,-0.0974329337477684,0.17394374310970306,0.2205221801996231
1789038611347207400,0.92120751953125,-0.06383536756038666,0.13912445306777954,0.27550002932548523
1789038611364461300,0.93846142578125,-0.09987638890743256,0.12202023714780807,0.27916520833969116
1789038611381715500,0.955715576171875,-0.1487455666065216,0.1366809904575348,0.1997527778148651
1789038611398969300,0.97296923828125,-0.13164135813713074,0.07681624591350555,0.09712749719619751
1789038611416223200,0.99022314453125,-0.10842850059270859,-0.01908952370285988,0.027488915249705315
1789038611433477000,1.00747705078125,-0.11759147047996521,0.007788525894284248,-0.02871064469218254
1789038611450731300,1.024731201171875,-0.11453714966773987,0.12935061752796173,-0.04825831577181816
1789038611467985200,1.041985107421875,-0.06566796451807022,0.24297146499156952,-0.04459312930703163
1789038611485239000,1.059239013671875,-0.03451386094093323,0.23441936075687408,-0.043371398001909256
1789038611502493000,1.076492919921875,-0.05039634555578232,0.10735948383808136,-0.03787361457943916
1789038611519747000,1.0937470703125,-0.07910698652267456,-0.009926552884280682,0.013439024798572063
1789038611537001000,1.1110009765625,-0.06872228533029556,-0.02825249545276165,0.08063415437936783
1789038611554254800,1.1282548828125,-0.03023780696094036,-0.03802633285522461,0.0616973415017128
1789038611571508700,1.1455087890625,0.0015271619195118546,0.034666575491428375,-0.04764745384454727
1789038611588762600,1.1627626953125,0.06627883017063141,0.1769980639219284,-0.11911863088607788
1789038611606016800,1.180016845703125,0.06261363625526428,0.2130390852689743,-0.06291907280683517
1789038611623270700,1.197270751953125,-0.011911863461136818,0.13729186356067657,0.06230820715427399
1789038611640524500,1.214524658203125,-0.0821613147854805,0.015729768201708794,0.17653992772102356
1789038611657778700,1.23177880859375,-0.07910698652267456,-0.04230238497257233,0.21930044889450073
1789038611675032600,1.249032470703125,-0.09132428467273712,-0.13209950923919678,0.1185077652335167
1789038611692286500,1.266286376953125,-0.12370011955499649,-0.06368265300989151,-0.0030543238390237093
1789038611709540400,1.283540283203125,-0.1432477980852127,0.017562363296747208,-0.08796452730894089
1789038611726794200,1.300794189453125,-0.16035200655460358,0.007788525894284248,-0.07452550530433655
1789038611744048400,1.31804833984375,-0.27947062253952026,-0.2646571695804596,-0.025045456364750862
1789038611761302300,1.33530224609375,-0.5232056975364685,-0.8223767280578613,-0.03298669680953026
1789038611778556200,1.35255615234375,-0.6801979541778564,-0.8529199361801147,-0.1185077652335167
1789038611795810000,1.36981005859375,-0.6801979541778564,-0.5664243698120117,-0.3390299379825592
1789038611813064200,1.387064208984375,-0.5421425104141235,-0.6385064125061035,-0.4923570156097412
1789038611830318000,1.404318115234375,-0.33078327775001526,-0.7191405892372131,-0.40255987644195557
1789038611847572000,1.421572021484375,-0.4150826036930084,-0.7631227970123291,-0.19792018830776215
1789038611864825900,1.438825927734375,-0.7455604672431946,0.44211336970329285,-0.011606430634856224
1789038611882080000,1.456080078125,-0.6533198952674866,1.0517563819885254,0.1331685185432434
1789038611899334000,1.473333984375,-0.2684750556945801,0.5349648594856262,0.1490510106086731
1789038611916587800,1.490587890625,-0.016187917441129684,-0.3196350038051605,0.22785256803035736
1789038611933841700,1.507841552734375,0.1383608728647232,-0.6916516423225403,0.7086031436920166
1789038611951095600,1.525095458984375,-0.3130682110786438,-1.2176061868667603,1.1795798540115356
1789038611968349700,1.542349609375,-0.8115338683128357,-1.7179044485092163,1.2809834480285645
1789038611985603600,1.559603515625,-0.7296779751777649,-2.142455577850342,1.0769546031951904
1789038612002857500,1.576857421875,-0.3130682110786438,-2.4802637100219727,1.0305289030075073
1789038612020111400,1.594111328125,-0.061391908675432205,-3.2224643230438232,1.3335177898406982
1789038612037365500,1.611365478515625,-0.20738859474658966,-3.570657253265381,1.479514479637146
1789038612054619400,1.628619384765625,0.07849612087011337,-3.8217227458953857,1.2724313735961914
1789038612071873300,1.645873291015625,0.7058542370796204,-3.8516552448272705,1.227838158607483
1789038612089127200,1.663127197265625,1.4645483493804932,-4.102720737457275,1.5986331701278687
1789038612106381000,1.680381103515625,1.7259984016418457,-4.587136268615723,2.2339324951171875
1789038612123635200,1.69763525390625,1.6337578296661377,-4.700146198272705,2.7672173976898193
1789038612140889000,1.71488916015625,2.0686936378479004,-3.8431029319763184,2.9205446243286133
1789038612158143000,1.73214306640625,3.568366527557373,-2.760650634765625,2.9547529220581055
1789038612175396900,1.74939697265625,5.203651428222656,-1.9384266138076782,3.009119987487793
1789038612192651000,1.766651123046875,6.042979717254639,-1.2664754390716553,3.00056791305542
1789038612209905000,1.78390478515625,6.063749313354492,-0.3520108163356781,2.874729633331299
1789038612227158800,1.80115869140625,6.010603904724121,0.2893971800804138,2.6334381103515625
1789038612244412700,1.81841259765625,5.946463108062744,0.485484778881073,2.18261981010437
1789038612270293800,1.844293701171875,5.1963210105896,-0.28787001967430115,0.8399390578269958
1789038612287547600,1.861547607421875,4.884780406951904,-0.5267181396484375,0.13927717506885529
1789038612304801500,1.878801513671875,4.513374328613281,-0.3825540542602539,-0.6994401812553406
1789038612322055700,1.8960556640625,4.06805419921875,0.12202023714780807,-1.8081597089767456
1789038612339309600,1.9133095703125,3.4125959873199463,0.7976366877555847,-2.7922627925872803
1789038612356563500,1.9305634765625,2.8438808917999268,1.106734275817871,-2.9718570709228516
1789038612373817300,1.9478173828125,2.810894250869751,1.2661700248718262,-2.7177374362945557
1789038612391071200,1.9650712890625,3.237888813018799,0.9894482493400574,-2.5662429332733154
1789038612408325400,1.982325439453125,3.6257879734039307,0.34498587250709534,-2.0476186275482178
1789038612425579300,1.999579345703125,3.5298821926116943,-0.5664243698120117,-1.212566614151001
1789038612442833200,2.016833251953125,2.986823320388794,-1.7643301486968994,-0.4923570156097412
1789038612460087000,2.034087158203125,2.3338088989257812,-3.121671676635742,0.1692095398902893
1789038612477341200,2.051341064453125,1.9868377447128296,-3.7514734268188477,0.5797106623649597
1789038612494595000,2.068594970703125,2.0528111457824707,-3.5804312229156494,0.40255987644195557
1789038612511849000,2.085848876953125,1.8542799949645996,-3.3018767833709717,-0.10934479534626007
1789038612529102800,2.103102783203125,1.3264929056167603,-3.3770132064819336,-0.32070401310920715
1789038612546357000,2.12035693359375,0.9288198947906494,-4.1314311027526855,-0.2254091054201126
1789038612563611000,2.13761083984375,0.46395179629325867,-4.323853492736816,0.1337793916463852
1789038612580864800,2.15486474609375,-0.016187917441129684,-3.285994291305542,0.22235478460788727
1789038612598118700,2.17211865234375,-0.4175260663032532,-1.5053235292434692,-0.3964512348175049
1789038612615372800,2.189372802734375,-0.6783653497695923,-0.09422589093446732,-1.0610721111297607
1789038612632626700,2.206626708984375,-0.7467821836471558,0.669965922832489,-1.599854826927185
1789038612649880600,2.223880615234375,-0.8940005898475647,1.208748698234558,-1.9327762126922607
1789038612667134500,2.241134521484375,-0.9392045736312866,1.5386157035827637,-2.1025965213775635
1789038612684388400,2.258388427734375,-1.1084141731262207,0.5844448804855347,-1.5754202604293823
1789038612701642500,2.275642578125,-1.2629629373550415,-0.5597048401832581,-0.47464191913604736
1789038612718896400,2.292896484375,-0.8206968307495117,-1.5291472673416138,0.3176496922969818
1789038612736150300,2.310150390625,-0.5287034511566162,-1.5780164003372192,0.43371400237083435
1789038612753404200,2.327404052734375,-0.6417134404182434,-1.254868984222412,-0.14721840620040894
1789038612770658300,2.344658203125,-0.898276686668396,-1.5975641012191772,-0.4214966893196106
1789038612787912200,2.361912109375,-1.0662645101547241,-1.5731295347213745,-0.19303326308727264
1789038612805166000,2.379166015625,-1.1731657981872559,-0.8352048993110657,-0.10018182545900345
1789038612822420000,2.396419921875,-1.4340050220489502,-0.3110828995704651,-0.026878049597144127
1789038612839674000,2.413674072265625,-2.0436480045318604,-0.9634864926338196,0.28466299176216125
1789038612856928000,2.430927978515625,-3.1218245029449463,-2.416733741760254,0.6194168925285339
1789038612874182000,2.448181884765625,-3.873188018798828,-3.414886951446533,0.8662062287330627
1789038612891435800,2.465435791015625,-3.3961026668548584,-2.6103780269622803,0.9914335608482361
1789038612908689700,2.482689697265625,-1.9911137819290161,-0.6537780165672302,0.8093958497047424
1789038612925943800,2.49994384765625,-1.5854995250701904,0.10613775253295898,0.7867938280105591
1789038612943197700,2.51719775390625,-1.784030556678772,-0.6287325620651245,0.554665207862854
1789038612960451600,2.53445166015625,-1.4376702308654785,-1.03129243850708,0.29077163338661194
1789038612977705500,2.55170556640625,-1.3289363384246826,-0.4955640435218811,-0.16004657745361328
1789038612994959600,2.568959716796875,-1.0094540119171143,0.11468986421823502,-0.49113526940345764
1789038613012213500,2.586213623046875,-0.9141591191291809,0.08292489498853683,-0.7965676784515381
1789038613029467400,2.60346728515625,-0.9056070446968079,-0.23044873774051666,-0.9407317638397217
1789038613046721300,2.62072119140625,-0.9428697824478149,0.21059563755989075,-1.2663227319717407
1789038613063975200,2.63797509765625,-0.8200859427452087,0.37430739402770996,-1.433088779449463
1789038613081229000,2.65522900390625,-0.5867356061935425,0.031001387163996696,-1.4092650413513184
1789038613098483200,2.672483154296875,-0.49144071340560913,-0.4173733592033386,-1.2357794046401978
1789038613115737000,2.689737060546875,-0.43890634179115295,-0.6757691502571106,-1.1044435501098633
1789038613132991000,2.706990966796875,-0.20922118425369263,-0.7722858190536499,-1.0403027534484863
1789038613150244900,2.724244873046875,0.1432477980852127,-0.984866738319397,-0.6860011219978333
1789038613167499000,2.7414990234375,0.7834340929985046,-1.2689188718795776,-0.07330377399921417
1789038613184753000,2.7587529296875,1.388801097869873,-1.4723368883132935,0.7519745230674744
1789038613202006800,2.7760068359375,1.5409064292907715,-2.0544910430908203,1.6267329454421997
1789038613219260700,2.7932607421875,1.497534990310669,-2.165668249130249,1.507614254951477
1789038613236514600,2.8105146484375,1.3826924562454224,-1.4986040592193604,0.6530144214630127
1789038613253768700,2.827768798828125,1.1377356052398682,-0.5071704983711243,-0.09896009415388107
1789038613271022600,2.845022705078125,1.0063997507095337,-0.15836669504642487,0.0513126403093338
1789038613288276500,2.8622763671875,1.0290017127990723,0.08231402933597565,0.3182605504989624
1789038613305530600,2.879530517578125,0.9025527238845825,0.228921577334404,0.18081597983837128
1789038613322784500,2.896784423828125,0.49021899700164795,0.4964803457260132,0.2675587832927704
1789038613340038400,2.914038330078125,0.24220788478851318,0.8892664313316345,0.4520399272441864
1789038613357292300,2.931292236328125,0.18784092366695404,1.6901100873947144,0.5137372612953186
1789038613374546400,2.94854638671875,0.17134757339954376,0.5123628377914429,0.646905779838562
1789038613391800300,2.96580029296875,0.2000582218170166,0.10186170041561127,0.8625410795211792
1789038613409054200,2.98305419921875,0.7235693335533142,-0.3312414288520813,0.8210022449493408
1789038613426308000,3.00030810546875,0.9935715794563293,0.7371610999107361,0.5216785073280334
1789038613443562200,3.017562255859375,1.0308343172073364,1.6760601997375488,0.05192350596189499
1789038613460816100,3.034816162109375,1.2977821826934814,2.1311545372009277,-0.4838049113750458
1789038613478070000,3.052070068359375,1.2709041833877563,1.9979859590530396,-0.8808670043945312
1789038613495324200,3.06932421875,0.9721912741661072,1.4524837732315063,-1.053741693496704
1789038613512578000,3.086578125,0.6404917240142822,0.4757109582424164,-1.0128138065338135
1789038613529832000,3.10383203125,0.08093958348035812,0.2735147178173065,-0.5760455131530762
1789038613547085800,3.1210859375,-0.6136136651039124,0.6382009983062744,-0.1081230640411377
1789038613564340000,3.138340087890625,-0.8237511515617371,2.0040946006774902,0.0513126403093338
1789038613581593900,3.15559375,-1.2605195045471191,2.638172149658203,-0.21319180727005005
1789038613598847700,3.17284765625,-1.4920371770858765,2.0266966819763184,-0.10567960888147354
1789038613616101600,3.1901015625,-1.3851358890533447,1.448818564414978,0.040317077189683914
1789038613633355800,3.207355712890625,-0.879339873790741,0.9253074526786804,-0.3738492429256439
1789038613650609700,3.224609619140625,-0.2965748608112335,-0.03558287397027016,-0.48502662777900696
1789038613667863600,3.241863525390625,0.03756818547844887,-0.42042768001556396,-0.4043924808502197
1789038613685117700,3.25911767578125,0.3295615613460541,-0.7820596098899841,-0.6243038177490234
1789038613702371600,3.27637158203125,1.0674861669540405,-0.9549343585968018,-0.9272927641868591
1789038613719625500,3.29362548828125,1.8102977275848389,-1.1962260007858276,-1.045189619064331
1789038613736879600,3.310879638671875,2.107177972793579,-1.1290308237075806,-1.025641918182373
1789038613754133500,3.328133544921875,2.036317825317383,-1.154076337814331,-0.5845975875854492
1789038613771387400,3.345387451171875,1.673464059829712,-0.6824886798858643,-0.026878049597144127
1789038613788641500,3.3626416015625,1.0858120918273926,-0.058795735239982605,0.3182605504989624
1789038613805895400,3.3798955078125,0.5030471682548523,0.6858484148979187,0.3237583339214325
1789038613823149300,3.3971494140625,0.2721402645111084,0.8672752976417542,0.24923282861709595
1789038613840403200,3.4144033203125,0.18661919236183167,-0.5590940117835999,0.06414080411195755
1789038613857657300,3.4316572265625,0.022296564653515816,-1.680641770362854,0.31093016266822815
1789038613874911200,3.4489111328125,0.08032871782779694,-1.5987858772277832,0.18814635276794434
1789038613892165000,3.4661650390625,0.7803797721862793,-0.5236638188362122,-0.0360410213470459
1789038613909419300,3.483419189453125,1.352149248123169,1.0596976280212402,0.0513126403093338
1789038613926673200,3.500673095703125,0.9019418358802795,1.3968950510025024,-0.6352993845939636
1789038613943927300,3.51792724609375,0.37232208251953125,-0.7252492308616638,-0.9859357476234436
1789038613961181200,3.53518115234375,0.5134318470954895,-1.510210394859314,-1.0720677375793457
1789038613978435000,3.55243505859375,0.8109229803085327,-0.6262891292572021,-1.3842196464538574
1789038613995689200,3.569689208984375,0.6557633280754089,0.7640390992164612,-1.8515311479568481
1789038614012943000,3.586943115234375,-0.05406153202056885,0.6259836554527283,-1.3506220579147339
1789038614030197000,3.604197021484375,-0.6056724190711975,0.3523162603378296,-0.24801109731197357
1789038614047451100,3.621451171875,-0.1279761642217636,-0.016646064817905426,0.720820426940918
1789038614064705000,3.638705078125,-0.03940077871084213,0.31871870160102844,1.036637544631958
1789038614081959000,3.655958984375,0.2000582218170166,0.35964664816856384,0.7837395071983337
1789038614099213000,3.673213134765625,0.3283398151397705,0.4427242577075958,0.7812960743904114
1789038614116467000,3.690467041015625,0.5934551358222961,0.494647741317749,0.9138537049293518
1789038614133720800,3.707720947265625,0.8744529485702515,0.5813905596733093,0.8637627959251404
1789038614150975000,3.72497509765625,1.3387101888656616,0.1360701322555542,0.8784235715866089
1789038614168228900,3.742228759765625,0.8011491298675537,-0.7466294765472412,0.6395754218101501
1789038614185483000,3.75948291015625,0.14080433547496796,-0.7411317229270935,0.5009090900421143
1789038614202737000,3.77673681640625,-0.2208276242017746,-0.3006981909275055,0.07391463965177536
1789038614219991000,3.793990966796875,-0.3399462401866913,0.22220206260681152,0.28588470816612244
1789038614237245000,3.811244873046875,-0.34727662801742554,0.39996370673179626,0.7031053900718689
1789038614254498800,3.828498779296875,-0.19639302790164948,0.49281516671180725,0.07391463965177536
1789038614271753000,3.8457529296875,-0.16646064817905426,0.39446592330932617,-0.5925388336181641
1789038614289006800,3.8630068359375,-0.3998109996318817,0.8801034092903137,-1.0519092082977295
1789038614306261000,3.880260986328125,-0.5140427350997925,0.523969292640686,-0.7012727856636047
1789038614323515000,3.897514892578125,-0.06811141967773438,-0.7649554014205933,0.13439024984836578
1789038614340768800,3.914768798828125,-0.15057817101478577,-0.8993456959724426,0.5925388336181641
1789038614358023000,3.93202294921875,0.5073232054710388,-1.5657991170883179,0.328645259141922
1789038614375276800,3.94927685546875,0.9221003651618958,-1.5346450805664062,0.5711585879325867
1789038614392531000,3.966531005859375,0.4517345130443573,-0.9421061873435974,0.6939423680305481
1789038614409784800,3.983784912109375,0.33750277757644653,-0.1718057245016098,0.003665188793092966
1789038614427038700,4.001038818359375,0.4211912751197815,-0.4185950756072998,-0.30054548382759094
1789038614444292900,4.01829296875,0.14508038759231567,-1.068555235862732,-0.004276053514331579
1789038614461546800,4.035546630859375,-0.08765909820795059,-1.0502293109893799,0.4886918365955353
1789038614478801000,4.05280078125,0.2684750556945801,-0.9359975457191467,0.31459537148475647
1789038614496054800,4.0700546875,0.989295482635498,-1.346498727798462,0.2309068888425827
1789038614513309000,4.087308837890625,0.7431169748306274,-1.3904809951782227,0.38728827238082886
1789038614530562800,4.104562744140625,0.21960589289665222,-1.0386228561401367,0.5051851868629456
1789038614547817000,4.12181689453125,0.6618719696998596,-1.874896764755249,0.5882627964019775
1789038614565070800,4.13907080078125,0.7009673118591309,-1.939037561416626,0.46914416551589966
1789038614582324700,4.15632470703125,0.61117023229599,-0.9616538882255554,0.4196641147136688
1789038614599579000,4.173578857421875,0.7632755637168884,-0.549930989742279,0.4453204274177551
1789038614616832800,4.190832763671875,0.45539969205856323,-0.37583455443382263,0.3042106628417969
1789038614634086700,4.208086669921875,0.33567020297050476,-0.06551524996757507,0.38667741417884827
1789038614651340800,4.2253408203125,0.4938841760158539,0.10980294644832611,0.47586366534233093
1789038614668594700,4.2425947265625,0.4816668927669525,0.18371757864952087,0.05864302068948746
1789038614685848800,4.259848876953125,0.4627300798892975,-0.3568977415561676,-0.31642794609069824
1789038614703102700,4.277102783203125,0.35216355323791504,-0.13881902396678925,-0.49968740344047546
1789038614720356600,4.294356689453125,0.30024003982543945,0.2893971800804138,-0.38850998878479004
1789038614737610800,4.31161083984375,0.12003492563962936,0.31383177638053894,-0.26511532068252563
1789038614754864600,4.32886474609375,0.03695731982588768,0.43172869086265564,-0.27000224590301514
1789038614772118500,4.346118408203125,0.3808741867542267,0.7023417949676514,-0.471587598323822
1789038614789372700,4.36337255859375,0.7510582208633423,0.7524327039718628,-0.573602020740509
1789038614806626600,4.38062646484375,0.8194751143455505,0.5936078429222107,-0.48930269479751587
1789038614823880700,4.397880615234375,0.8713986277580261,0.4543306827545166,-0.3176496922969818
1789038614841134600,4.415134521484375,0.7492256760597229,0.044440411031246185,-0.27916520833969116
1789038614858388500,4.432388427734375,0.6502655744552612,-0.16447533667087555,-0.1795942485332489
1789038614875642600,4.449642578125,0.592233419418335,-0.44180795550346375,-0.050090912729501724
1789038614892896500,4.466896484375,0.4920515716075897,-0.5969675779342651,-0.001221729558892548
1789038614910150400,4.484150390625,0.7101303339004517,-0.40637779235839844,0.1795942485332489
1789038614927404500,4.501404541015625,1.0772600173950195,-0.1724165827035904,0.5106829404830933
1789038614944658400,4.518658447265625,1.2800670862197876,-0.4228711426258087,0.720820426940918
1789038614961912600,4.53591259765625,1.5225805044174194,-1.5089887380599976,0.6530144214630127
1789038614979166500,4.55316650390625,1.0149518251419067,-0.7936660647392273,0.8026763200759888
1789038614996420400,4.57042041015625,0.47983428835868835,-0.1815795600414276,0.860708475112915
1789038615013674200,4.58767431640625,0.12186752259731293,-0.33857181668281555,0.7831286191940308
1789038615030928400,4.604928466796875,-0.06811141967773438,-0.8718567490577698,0.370184063911438
1789038615048182300,4.622182373046875,-0.6453786492347717,-1.5389211177825928,-0.1081230640411377
1789038615065436200,4.639436279296875,-0.898276686668396,-1.0838267803192139,-0.36651885509490967
1789038615082690300,4.656690185546875,-0.8915571570396423,-0.10949750989675522,-0.5534434914588928
1789038615099944200,4.673944091796875,-0.7272345423698425,0.6693550944328308,-0.5302306413650513
1789038615117198000,4.691197998046875,-0.6783653497695923,0.6210967898368835,-0.3170388340950012
1789038615134452000,4.708451904296875,-0.3992001414299011,0.874605655670166,-0.19303326308727264
1789038615151706000,4.7257060546875,-0.35155269503593445,0.6107120513916016,-0.4880809485912323
1789038615168960000,4.7429599609375,-0.61117023229599,1.4549272060394287,-0.4050033390522003
1789038615186214100,4.760214111328125,-0.8762855529785156,1.9222387075424194,-0.360410213470459
1789038615203468000,4.777468017578125,-0.6380482912063599,0.19471314549446106,-0.7092140316963196
1789038615220722000,4.794721923828125,-1.0228930711746216,0.641866147518158,-0.4404335021972656
1789038615237975800,4.811975830078125,-1.1658353805541992,0.42073312401771545,-0.49418962001800537
1789038615255230000,4.82922998046875,-0.6716458201408386,0.6003273725509644,-0.5601630210876465
1789038615272483800,4.84648388671875,0.008857538923621178,1.1177297830581665,-0.7006618976593018
1789038615289737700,4.86373779296875,0.32162031531333923,1.5728241205215454,-0.6847794055938721
1789038615306991900,4.880991943359375,0.5794052481651306,2.006538152694702,-0.5094612240791321
1789038615324245800,4.898245849609375,0.7260127663612366,2.011425018310547,-0.4214966893196106
1789038615341499600,4.915499755859375,0.324063777923584,1.2655590772628784,-0.5668824911117554
1789038615358753800,4.93275390625,0.05955931544303894,0.5429060459136963,-0.5253437161445618
1789038615376007700,4.950007568359375,0.25442516803741455,-0.07406735420227051,-0.07024945318698883
1789038615393261600,4.967261474609375,0.757777750492096,-0.7179188132286072,0.4202749729156494
1789038615410515700,4.984515625,1.0149518251419067,-0.378888875246048,0.8185588121414185
1789038615427769600,5.00176953125,1.2263110876083374,-0.11194097250699997,0.6774490475654602
1789038615445023500,5.0190234375,1.1224640607833862,-0.25610506534576416,0.4172206521034241
1789038615462277600,5.036277587890625,1.0247256755828857,-0.5053378939628601,0.4269944727420807
1789038615479531500,5.053531494140625,1.1688897609710693,0.028557928279042244,0.6860011219978333
1789038615496785400,5.070785400390625,1.471267819404602,0.27290382981300354,0.7348703145980835
1789038615514039600,5.08803955078125,1.7186681032180786,-0.016035201027989388,0.38667741417884827
1789038615531293400,5.10529345703125,1.5128066539764404,-0.2542724609375,-0.0818558782339096
1789038615548547300,5.12254736328125,1.1236857175827026,-0.49312058091163635,-0.6169734001159668
1789038615565801200,5.13980126953125,0.7095194458961487,-0.5713112950325012,-0.4422661066055298
1789038615583055400,5.157055419921875,0.7241802215576172,-0.949436604976654,0.02626718580722809
1789038615600309200,5.174309326171875,0.7651081085205078,-1.491884469985962,0.38240134716033936
1789038615617563100,5.191563232421875,0.7754928469657898,-1.300683856010437,0.33719736337661743
1789038615634817000,5.208817138671875,0.7137954831123352,-0.4021017551422119,0.18753549456596375
1789038615652071000,5.22607080078125,0.8298597931861877,0.9772309064865112,-0.05925388261675835
1789038615669325000,5.243324951171875,0.9324851036071777,1.3034327030181885,-0.40255987644195557
1789038615686579000,5.260578857421875,1.0876446962356567,1.4665336608886719,-0.5510000586509705
1789038615703832800,5.277832763671875,0.9392045736312866,1.595426082611084,-0.8026763200759888
1789038615721087000,5.2950869140625,0.5128209590911865,1.7493640184402466,-0.7348703145980835
1789038615738340900,5.3123408203125,0.11453714966773987,0.8257364630699158,-0.5473348498344421
1789038615755594800,5.3295947265625,0.26358816027641296,0.45616328716278076,-0.16859868168830872
1789038615772848600,5.3468486328125,0.3326158821582794,0.19593487679958344,-0.004886918235570192
1789038615790102800,5.364102783203125,-0.14996729791164398,0.37003132700920105,0.14721840620040894
1789038615807356700,5.381356689453125,-0.21777328848838806,2.078620195388794,-0.4324922561645508
1789038615824610600,5.398610595703125,0.3448331654071808,0.33826637268066406,-0.5241219997406006
1789038615841864700,5.41586474609375,0.19761475920677185,0.29794928431510925,-0.10079269111156464
1789038615859118600,5.43311865234375,0.18661919236183167,0.33399030566215515,-0.19792018830776215
1789038615876372500,5.45037255859375,0.33750277757644653,0.19898919761180878,0.034208428114652634
1789038615893626600,5.467626708984375,0.6123919486999512,0.310166597366333,-0.45448338985443115
1789038615910880500,5.484880615234375,0.9868520498275757,0.06582067906856537,-1.1068869829177856
1789038615928134700,5.502134765625,0.888502836227417,0.027947064489126205,-0.943786084651947
1789038615945388500,5.519388427734375,1.9330816268920898,-0.17852523922920227,-0.6401863098144531
1789038615962642400,5.536642333984375,2.079078197479248,0.4292852282524109,-0.09896009415388107
1789038615979896300,5.553896240234375,2.296546220779419,0.651639997959137,-0.4056142270565033
1789038615997150500,5.571150390625,2.724151372909546,-0.08017600327730179,-0.4581485986709595
1789038616014404400,5.588404296875,2.559828758239746,0.03894263133406639,-0.6811142563819885
1789038616031658500,5.605658447265625,2.472475290298462,-0.2689332067966461,-0.6517927050590515
1789038616048912400,5.622912353515625,2.4932446479797363,-0.949436604976654,-0.37629270553588867
1789038616066166300,5.640166259765625,2.361297845840454,-1.2286018133163452,0.16065743565559387
1789038616083420400,5.65742041015625,2.165821075439453,-1.0331250429153442,0.41844236850738525
1789038616100674300,5.67467431640625,1.9104795455932617,-0.847422182559967,0.185092031955719
1789038616117928200,5.69192822265625,1.6704097986221313,-0.7680097222328186,0.1337793916463852
1789038616135182300,5.709182373046875,1.3820815086364746,-0.8174898028373718,0.22907429933547974
1789038616152436200,5.726436279296875,1.0607666969299316,-0.6989820003509521,0.06963858753442764
1789038616169690400,5.7436904296875,0.712573766708374,-0.388051837682724,-0.39889469742774963
1789038616186944300,5.7609443359375,0.37293294072151184,-0.25243985652923584,-0.6933315396308899
1789038616204198100,5.7781982421875,0.007635809946805239,-0.3611738085746765,-0.5112938284873962
1789038616221452300,5.795452392578125,-0.406530499458313,-0.5309942364692688,-0.04886918142437935
1789038616238706200,5.8127060546875,-0.8115338683128357,-0.8852958083152771,0.41416633129119873
1789038616255960300,5.829960205078125,-0.5451968312263489,-0.8663589954376221,0.13683371245861053
1789038616273214200,5.847214111328125,-0.582459568977356,-0.014202605932950974,-0.23823726177215576
1789038616290468000,5.864468017578125,-0.5323686599731445,0.4134027361869812,-0.43432486057281494
1789038616307722200,5.88172216796875,-0.5708531141281128,0.4225656986236572,-0.30482152104377747
1789038616324976000,5.89897607421875,-0.5152644515037537,0.3987419903278351,-0.25411975383758545
1789038616342230000,5.91622998046875,-0.24831652641296387,0.0798705667257309,-0.2419024556875229
1789038616359484200,5.933484130859375,-0.20861032605171204,0.11346813291311264,-0.32192572951316833
1789038616376738000,5.950738037109375,-0.06627883017063141,0.05238165333867073,-0.13194678723812103
1789038616393992200,5.9679921875,0.012522728182375431,0.1262962967157364,0.12095122784376144
1789038616411246000,5.98524609375,-0.05345066636800766,0.2948949635028839,0.13683371245861053
1789038616428500000,6.0025,-0.09315688163042068,0.2851211428642273,0.07147117704153061
1789038616445754000,6.019754150390625,-0.2556469142436981,0.20143266022205353,0.043371398001909256
1789038616463008000,6.037008056640625,-0.28496840596199036,0.559399425983429,-0.22235478460788727
1789038616480262000,6.054261962890625,-0.4358520209789276,0.6259836554527283,-0.21135921776294708
1789038616497516000,6.07151611328125,-0.5482511520385742,0.46227192878723145,-0.09040798991918564
1789038616514770000,6.08877001953125,-0.5647444725036621,0.1727220118045807,0.12095122784376144
1789038616532024000,6.106024169921875,-0.7535017132759094,0.14217877388000488,0.30115634202957153
1789038616549278000,6.12327783203125,-1.018617033958435,0.09392046183347702,0.36285367608070374
1789038616566531800,6.14053173828125,-1.183550477027893,0.07742711156606674,0.3811796307563782
1789038616583786000,6.157785888671875,-1.0772600173950195,-0.1773035079240799,0.389120876789093
1789038616601040000,6.175039794921875,-1.1603376865386963,-0.2952004075050354,0.4886918365955353
1789038616618293800,6.192293701171875,-1.4914263486862183,-0.18829907476902008,0.5888736248016357
1789038616635548000,6.2095478515625,-1.5470150709152222,-0.4045451879501343,0.5626064538955688
1789038616652801800,6.2268017578125,-1.4450006484985352,-0.6006327867507935,0.5131264328956604
1789038616670056000,6.244055908203125,-1.0858120918273926,-0.5939132571220398,0.30115634202957153
1789038616687309800,6.261309814453125,-0.4828886091709137,0.6534726023674011,-0.5797106623649597
1789038616704563700,6.278563720703125,0.04550942778587341,0.6601921319961548,-1.1325433254241943
1789038616721817900,6.29581787109375,0.057726722210645676,-0.08872810751199722,-0.10079269111156464
1789038616739071700,6.31307177734375,0.0461202897131443,-0.0642935186624527,0.33108872175216675
1789038616756325600,6.33032568359375,0.18845178186893463,-0.09544762223958969,0.32009315490722656
1789038616773579800,6.347579833984375,0.4987711012363434,-0.2799287736415863,0.03787361457943916
1789038616790833700,6.364833740234375,0.5690205693244934,-0.1815795600414276,-0.14721840620040894
1789038616808087800,6.382087890625,0.5732966065406799,-0.2341139316558838,-0.18570289015769958
1789038616825341700,6.399341796875,0.5665770769119263,-0.17913609743118286,-0.14294235408306122
1789038616842595600,6.416595703125,0.5024362802505493,-0.08567378669977188,-0.05803215503692627
1789038616859849700,6.433849609375,0.2831358313560486,-0.0019853105768561363,0.0824667438864708
1789038616877103600,6.451103515625,0.06383536756038666,-0.027030766010284424,0.16249002516269684
1789038616894357500,6.468357421875,-0.12186752259731293,-0.11316270381212234,0.22235478460788727
1789038616911611600,6.485611572265625,-0.2000582218170166,-0.06979130208492279,0.318871408700943
1789038616928865500,6.502865478515625,-0.11759147047996521,0.0902552679181099,0.4159989058971405
1789038616946119700,6.52011962890625,0.0015271619195118546,0.060322895646095276,0.3903425931930542
1789038616963373600,6.53737353515625,0.11698060482740402,0.11407899856567383,0.1588248461484909
1789038616980627500,6.55462744140625,0.0668896958231926,-0.26221370697021484,0.04764745384454727
1789038616997881300,6.57188134765625,-0.10415244847536087,-0.3159697949886322,0.05253437161445618
1789038617015135500,6.589135498046875,-0.15668681263923645,-0.2805396616458893,0.049480047076940536
1789038617032389400,6.606389404296875,-0.048563748598098755,-0.16997312009334564,0.059864748269319534
1789038617049643500,6.6236435546875,0.021685699000954628,-0.07712167501449585,0.08857539296150208
1789038617066897400,6.6408974609375,-0.010690134018659592,0.013286309316754341,0.06597339361906052
1789038617084151300,6.6581513671875,-0.051618073135614395,0.0334448479115963,0.01893680728971958
1789038617101405400,6.675405517578125,-0.13469567894935608,0.0487164668738842,0.039706211537122726
1789038617118659300,6.692659423828125,-0.13591741025447845,0.031001387163996696,0.07880155742168427
1789038617135913200,6.709913330078125,-0.0772743970155716,0.04260781779885292,0.03481929376721382
1789038617153167400,6.72716748046875,-0.03756818547844887,0.06704241037368774,-0.000610864779446274
1789038617170421200,6.744421142578125,-0.03940077871084213,0.11652245372533798,-0.03176496922969818
1789038617187675400,6.76167529296875,-0.021685699000954628,0.11652245372533798,-0.01893680728971958
1789038617204929300,6.77892919921875,-0.029016077518463135,0.13545925915241241,0.013439024798572063
1789038617222183200,6.79618310546875,-0.04428769648075104,0.1104138121008873,0.017104214057326317
1789038617239437300,6.813437255859375,-0.07910698652267456,0.04505127668380737,0.037262752652168274
1789038617256691200,6.830691162109375,-0.10476330667734146,-0.05940660089254379,0.1081230640411377
1789038617273945000,6.847945068359375,-0.0565049909055233,-0.08689551800489426,0.1081230640411377
1789038617291199200,6.86519921875,-0.025961752980947495,-0.0642935186624527,0.07513637095689774
1789038617308453000,6.882453125,-0.019853105768561363,-0.09239330142736435,0.07147117704153061
1789038617325707300,6.899707275390625,-0.047952886670827866,-0.03130681812763214,0.05742128938436508
1789038617342961200,6.916961181640625,-0.04062250629067421,0.12690715491771698,0.023212861269712448
1789038617360215300,6.93421533203125,-0.013744457624852657,0.19898919761180878,-0.009773836471140385
1789038617377469200,6.95146923828125,0.023518294095993042,0.2032652497291565,-0.015271619893610477
1789038617394723000,6.96872314453125,0.03451386094093323,0.2747364342212677,0.043982263654470444
1789038617411977200,6.985977294921875,0.03145953640341759,0.3254382014274597,0.06963858753442764
1789038617429231000,7.003231201171875,0.08765909820795059,0.3248273432254791,0.021991131827235222
1789038617446485000,7.020485107421875,0.11026109009981155,0.2893971800804138,0.014049889519810677
1789038617463739100,7.0377392578125,0.09132428467273712,0.2594648003578186,0.08857539296150208
1789038617480993000,7.054992919921875,0.07116574794054031,0.2331976294517517,0.07513637095689774
1789038617498247200,7.0722470703125,0.054672397673130035,0.12263110280036926,0.0256563201546669
1789038617515501000,7.0895009765625,0.04428769648075104,0.0010690133785828948,-0.009162971749901772
1789038617532755200,7.106755126953125,0.08765909820795059,0.028557928279042244,-0.026878049597144127
1789038617550009000,7.124009033203125,0.14691297709941864,0.11163553595542908,-0.04764745384454727
1789038617567263000,7.141262939453125,0.16523891687393188,0.1256854236125946,-0.03848448023200035
1789038617584517000,7.15851708984375,0.1493564397096634,0.14950916171073914,-0.014660755172371864
1789038617601771000,7.17577099609375,0.15302163362503052,0.16966769099235535,-0.020769402384757996
1789038617619025000,7.19302490234375,0.18173226714134216,0.17944152653217316,-0.039706211537122726
1789038617636279000,7.210279052734375,0.1444695144891739,0.13301581144332886,-0.029932374134659767
1789038617653533000,7.227532958984375,0.05406153202056885,-0.01359174121171236,-0.04764745384454727
1789038617670787000,7.244787109375,0.06750056147575378,-0.09239330142736435,-0.08674279600381851
1789038617688041000,7.262041015625,0.1591302752494812,-0.2188423126935959,-0.13255766034126282
1789038617705294800,7.279294921875,0.18234314024448395,-0.3306305706501007,-0.1496618688106537
1789038617722549000,7.296549072265625,0.006414080038666725,-0.35811948776245117,-0.14477495849132538
1789038617739803000,7.313802978515625,-0.024740023538470268,-0.33429574966430664,-0.10995566099882126
1789038617757057000,7.33105712890625,-0.08155044913291931,-0.3422369956970215,-0.09896009415388107
1789038617774311000,7.348310791015625,-0.1328630894422531,-0.0795651376247406,-0.008552107028663158
1789038617791564800,7.365564697265625,-0.11148282140493393,-0.14859285950660706,0.020158538594841957
1789038617808819000,7.38281884765625,-0.11636973917484283,-0.09666935354471207,0.03481929376721382
1789038617826072800,7.40007275390625,-0.14996729791164398,-0.06001746281981468,-0.01893680728971958
1789038617843327000,7.417326904296875,-0.2263254076242447,-0.058795735239982605,-0.06841685622930527
1789038617860580900,7.434580810546875,-0.12003492563962936,-0.08139773458242416,-0.023823726922273636
1789038617877834800,7.451834716796875,-0.057726722210645676,0.13973531126976013,0.12461641430854797
1789038617895089000,7.4690888671875,-0.09315688163042068,0.45127636194229126,0.2968802750110626
1789038617912342800,7.4863427734375,-0.09071341902017593,0.567951500415802,0.3897317349910736
1789038617929597000,7.503596923828125,0.014966187067329884,0.5190823674201965,0.37201663851737976
1789038617946850800,7.520850830078125,0.08460476994514465,0.41157013177871704,0.38240134716033936
1789038617964104700,7.538104736328125,0.0668896958231926,0.2753472924232483,0.3549124300479889
1789038617981358800,7.55535888671875,-0.0461202897131443,0.24480405449867249,0.20830489695072174
1789038617998612700,7.57261279296875,-0.11453714966773987,0.0591011680662632,0.04459312930703163
1789038618015866600,7.58986669921875,-0.07238747924566269,-0.17302745580673218,-0.12217295914888382
1789038618033120800,7.607120849609375,-0.060781046748161316,-0.29275694489479065,-0.22968515753746033
1789038618050374700,7.624374755859375,-0.08277218043804169,-0.24694208800792694,-0.24251331388950348
1789038618067628800,7.64162890625,-0.10109812021255493,-0.1821904182434082,-0.20830489695072174
1789038618084882700,7.658882568359375,-0.05283980444073677,-0.12171480804681778,-0.10751219838857651
1789038618102136800,7.67613671875,-0.06872228533029556,-0.022754713892936707,0.0256563201546669
1789038618119390700,7.693390625,-0.09560033679008484,0.06765327602624893,0.1386663019657135
1789038618136644900,7.710644775390625,-0.07788526266813278,0.04932733252644539,0.18814635276794434
1789038618153898800,7.727898681640625,-0.05711585655808449,-0.014813470654189587,0.17165300250053406
1789038618171152600,7.745152587890625,-0.02718348242342472,-0.08689551800489426,0.10384701192378998
1789038618188406800,7.76240673828125,-0.04245510324835777,-0.12965604662895203,0.011606430634856224
1789038618205660700,7.77966064453125,-0.06566796451807022,-0.16325360536575317,-0.07574722915887833
1789038618222914800,7.796914794921875,-0.10598503798246384,-0.19624030590057373,-0.1386663019657135
1789038618240168700,7.814168701171875,-0.1591302752494812,-0.2133445292711258,-0.17653992772102356
1789038618257422600,7.831422607421875,-0.19883649051189423,-0.21639885008335114,-0.17531819641590118
1789038618274676700,7.8486767578125,-0.2257145345211029,-0.23716825246810913,-0.1588248461484909
1789038618291930600,7.8659306640625,-0.22937972843647003,-0.2585485279560089,-0.13255766034126282
1789038618309184800,7.883184814453125,-0.23548837006092072,-0.264046311378479,-0.10445787757635117
1789038618326438700,7.900438720703125,-0.23487751185894012,-0.2390008419752121,-0.08491020649671555
1789038618343692800,7.91769287109375,-0.23243404924869537,-0.18952079117298126,-0.08491020649671555
1789038618360946700,7.93494677734375,-0.24037529528141022,-0.18524473905563354,-0.09590577334165573
1789038618378200600,7.95220068359375,-0.2617555558681488,-0.20540328323841095,-0.09957095980644226
1789038618395454700,7.969454833984375,-0.27458372712135315,-0.20418155193328857,-0.11606431007385254
1789038618412708600,7.98670849609375,-0.26908594369888306,-0.17547090351581573,-0.17715078592300415
1789038618429962800,8.003962646484375,-0.2684750556945801,-0.0850629210472107,-0.24740023910999298
1789038618447216600,8.021216552734375,-0.291687935590744,-0.07834340631961823,-0.2926042377948761
1789038618464470500,8.038470458984374,-0.32100942730903625,-0.08689551800489426,-0.30543237924575806
1789038618481724700,8.055724609375,-0.3387245237827301,-0.09666935354471207,-0.2809978127479553
1789038618498978600,8.072978515625,-0.39248061180114746,-0.10155627131462097,-0.2315177470445633
1789038618516232700,8.090232666015625,-0.49082985520362854,-0.0795651376247406,-0.28527384996414185
1789038618533486600,8.107486572265625,-0.5293143391609192,-0.13393209874629974,-0.35735589265823364
1789038618550740500,8.124740478515625,-0.6490437984466553,-0.17974695563316345,-0.38789913058280945
1789038618567994600,8.14199462890625,-0.7608320713043213,-0.09422589093446732,-0.5210676789283752
1789038618585248500,8.15924853515625,-0.9025527238845825,-0.12843431532382965,-0.6817250847816467
1789038618602502700,8.176502685546875,-1.0558797121047974,-0.2964221239089966,-0.8625410795211792
1789038618619756500,8.193756591796875,-1.0986403226852417,-0.15531237423419952,-0.9260709881782532
1789038618637010700,8.2110107421875,-1.2299761772155762,-0.11743875592947006,-0.9566142559051514
1789038618654264600,8.2282646484375,-1.4413354396820068,-0.009315688163042068,-0.9309579133987427
1789038618671518700,8.245518798828124,-1.535408616065979,0.27229297161102295,-0.9596685767173767
1789038618688772600,8.262772705078126,-1.4553853273391724,0.30833399295806885,-0.9822705388069153
1789038618706026500,8.280026611328125,-1.2134828567504883,0.051159925758838654,-0.8680388331413269
1789038618723280600,8.29728076171875,-1.0204496383666992,-0.2750418782234192,-0.7531962990760803
1789038618740534500,8.314534423828125,-1.0045671463012695,-0.490677148103714,-0.5748237371444702
1789038618757788700,8.33178857421875,-1.0491602420806885,-0.7215840220451355,-0.24495677649974823
1789038618775042600,8.34904248046875,-0.9935715794563293,-0.7276926636695862,0.07391463965177536
1789038618792296400,8.36629638671875,-0.7809906005859375,-0.4137081801891327,0.31154105067253113
1789038618809550600,8.383550537109375,-0.6661480665206909,-0.15470150113105774,0.4673115611076355
1789038618826804500,8.400804443359375,-0.5702422857284546,-0.1461493968963623,0.5711585879325867
1789038618844058600,8.41805859375,-0.5067123174667358,-0.15225805342197418,0.5821541547775269
1789038618861312500,8.4353125,-0.4786125421524048,-0.0948367565870285,0.481361448764801
1789038618878566700,8.452566650390626,-0.3643808364868164,-0.08384118974208832,0.3634645342826843
1789038618895820500,8.469820556640625,-0.1640172004699707,0.056657709181308746,0.25045454502105713
1789038618913074700,8.48707470703125,0.0027488914784044027,0.3217730224132538,0.10201441496610641
1789038618930328600,8.50432861328125,0.09132428467273712,0.29245150089263916,0.018325943499803543
1789038618947582500,8.52158251953125,0.26908594369888306,0.2490801066160202,-0.15515965223312378
1789038618964836600,8.538836669921874,0.3601047992706299,0.3669770061969757,-0.318871408700943
1789038618982090500,8.556090576171876,0.3955349326133728,0.3987419903278351,-0.4172206521034241
1789038618999344600,8.5733447265625,0.40347617864608765,0.36025750637054443,-0.5100721120834351
1789038619016598500,8.5905986328125,0.37720900774002075,0.3761399984359741,-0.5632173418998718
1789038619033852700,8.607852783203125,0.3491092324256897,0.4390590488910675,-0.5491674542427063
1789038619051106600,8.6251064453125,0.32589635252952576,0.5062541961669922,-0.45875945687294006
1789038619068360700,8.642360595703124,0.2788597643375397,0.559399425983429,-0.33658650517463684
1789038619085614600,8.659614501953126,0.2629773020744324,0.5306887626647949,-0.2761108875274658
1789038619102868700,8.67686865234375,0.21716243028640747,0.5111411213874817,-0.23457208275794983
1789038619120122600,8.69412255859375,0.1383608728647232,0.4231765866279602,-0.23762640357017517
1789038619137376500,8.71137646484375,0.035124726593494415,0.3016144931316376,-0.28588470816612244
1789038619154630700,8.728630615234374,-0.0308486707508564,0.26618432998657227,-0.3292561173439026
1789038619171884500,8.745884521484374,-0.15057817101478577,0.3254382014274597,-0.3426951467990875
1789038619189138700,8.763138671875,-0.20677772164344788,0.2594648003578186,-0.37201663851737976
1789038619206392600,8.780392578125,-0.2306014597415924,0.21609342098236084,-0.37201663851737976
1789038619223646700,8.797646728515625,-0.28924447298049927,0.20387612283229828,-0.430659681558609
1789038619240900600,8.814900634765625,-0.4413498044013977,0.12873975932598114,-0.47525280714035034
1789038619258154500,8.832154541015624,-0.374765545129776,0.02672533318400383,-0.5815432667732239
1789038619275408600,8.84940869140625,-0.24526220560073853,0.12018764764070511,-0.6829468011856079
1789038619292662500,8.86666259765625,-0.1951712965965271,0.26679518818855286,-0.6542361974716187
1789038619309916700,8.883916748046875,-0.2525925934314728,0.35537058115005493,-0.5540543794631958
1789038619327170600,8.901170654296875,-0.32589635252952576,0.23136503994464874,-0.6096430420875549
1789038619344424700,8.9184248046875,-0.374765545129776,0.1818849891424179,-0.6713404059410095
1789038619361678600,8.9356787109375,-0.37110036611557007,0.16905683279037476,-0.6939423680305481
1789038619378932500,8.952932373046876,-0.47983428835868835,0.12935061752796173,-0.536339282989502
1789038619396186600,8.9701865234375,-0.6520981788635254,0.0639880821108818,-0.3549124300479889
1789038619413440500,8.9874404296875,-0.6447677612304688,-0.06490438431501389,-0.2779434621334076
1789038619430694700,9.004694580078125,-0.6435460448265076,-0.11194097250699997,-0.22235478460788727
1789038619447948500,9.021948486328125,-0.7082977294921875,-0.07345648854970932,-0.2516762912273407
1789038619465202700,9.03920263671875,-0.8268054723739624,0.0591011680662632,-0.32620179653167725
1789038619482456600,9.05645654296875,-0.7999274134635925,-0.3367392122745514,-0.3915643095970154
1789038619499710700,9.073710693359375,-0.6313287615776062,-0.4137081801891327,-0.46364638209342957
1789038619516964600,9.090964599609375,-0.5476402640342712,-0.3196350038051605,-0.5271763205528259
1789038619534218800,9.10821875,-0.47922343015670776,-0.1302669197320938,-0.5613847374916077
1789038619551472600,9.12547265625,-0.4004218578338623,-0.16569706797599792,-0.5259546041488647
1789038619568726500,9.1427265625,-0.3295615613460541,-0.26710063219070435,-0.42455101013183594
1789038619585980700,9.159980712890626,-0.2458730787038803,-0.31719154119491577,-0.4166097939014435
1789038619603234600,9.177234619140625,-0.1340848207473755,-0.21578797698020935,-0.3909534513950348
1789038619620488700,9.19448876953125,-0.029016077518463135,-0.1455385386943817,-0.3787361681461334
1789038619637742600,9.21174267578125,0.06566796451807022,-0.12110394239425659,-0.3298669755458832
1789038619654996700,9.228996826171874,0.16768237948417664,-0.1052214577794075,-0.22418737411499023
1789038619672250600,9.246250732421874,0.26542073488235474,-0.03252854943275452,-0.10873392969369888
1789038619689504800,9.2635048828125,0.37293294072151184,0.0383317656815052,-0.08979712426662445
1789038619706758700,9.280758544921875,0.4364628791809082,0.0206166859716177,-0.06841685622930527
1789038619724012800,9.2980126953125,0.4663952589035034,-0.0154243353754282,-0.006108647678047419
1789038619741266700,9.3152666015625,0.48655378818511963,-0.052687086164951324,0.07086031138896942
1789038619758520800,9.332520751953124,0.49632763862609863,-0.020311253145337105,0.10323614627122879
1789038619775774700,9.349774658203126,0.48044514656066895,0.0102319847792387,0.12217295914888382
1789038619793028600,9.367028564453125,0.448069304227829,0.027336198836565018,0.16859868168830872
1789038619810282800,9.38428271484375,0.41263917088508606,0.003512472379952669,0.30054548382759094
1789038619827536600,9.40153662109375,0.31490078568458557,-0.09544762223958969,0.472198486328125
1789038619844790800,9.418790771484375,0.23365578055381775,-0.10277800261974335,0.6517927050590515
1789038619862044700,9.436044677734374,0.041844237595796585,-0.06673697382211685,0.657290518283844
1789038619879298800,9.453298828125,-0.15546508133411407,0.0639880821108818,0.565049946308136
1789038619896552700,9.470552734375,-0.1640172004699707,0.09758564829826355,0.4563159942626953
1789038619913806800,9.487806884765625,0.10842850059270859,-0.0019853105768561363,0.5503891706466675
1789038619931060700,9.505060791015625,0.33200499415397644,-0.1003345400094986,0.6896663308143616
1789038619948315000,9.52231494140625,0.34666576981544495,-0.19562944769859314,0.7550288438796997
1789038619965568800,9.53956884765625,0.43463030457496643,-0.07406735420227051,0.7916807532310486
1789038619982823000,9.556822998046876,0.5201513767242432,-0.06062832847237587,0.7825177907943726
1789038620000076800,9.574076904296875,0.4877755343914032,0.1207985132932663,0.7147117853164673
1789038620017330700,9.59133056640625,0.49021899700164795,0.2948949635028839,0.832608699798584
1789038620034584800,9.608584716796875,0.508544921875,0.2790125012397766,0.943175196647644
1789038620051838700,9.625838623046874,0.5293143391609192,0.2649625837802887,0.8442151546478271
1789038620069092900,9.6430927734375,0.5061014890670776,0.25213444232940674,0.648127555847168
1789038620086346800,9.6603466796875,0.5036579966545105,0.19471314549446106,0.5119046568870544
1789038620103601000,9.677600830078125,0.509155809879303,0.2338084876537323,0.42332929372787476
1789038620120854800,9.694854736328125,0.5195404887199402,0.31810784339904785,0.38850998878479004
1789038620138109000,9.71210888671875,0.5262600183486938,0.36025750637054443,0.4001164436340332
1789038620155362800,9.72936279296875,0.5158752799034119,0.3199404180049896,0.3402516841888428
1789038620172617000,9.746616943359374,0.5030471682548523,0.22098033130168915,0.23518294095993042
1789038620189870800,9.763870849609376,0.5054906010627747,0.1824958473443985,0.15271618962287903
1789038620207125000,9.781125,0.5097666382789612,0.2533561587333679,0.19303326308727264
1789038620224379000,9.79837890625,0.536644697189331,0.38102689385414124,0.22846342623233795
1789038620241632800,9.8156328125,0.6026180982589722,0.45799586176872253,0.20158538222312927
1789038620258887000,9.832886962890624,0.6588176488876343,0.5392408967018127,0.16554436087608337
1789038620276140800,9.850140869140626,0.6728675365447998,0.5539016127586365,0.15577052533626556
1789038620293395000,9.86739501953125,0.629496157169342,0.5129737257957458,0.13622283935546875
1789038620310648800,9.88464892578125,0.49082985520362854,0.4964803457260132,0.10506874322891235
1789038620327903000,9.901903076171875,0.383928507566452,0.3162752389907837,0.13500112295150757
1789038620345156900,9.919156982421875,0.3442223072052002,0.2136499583721161,0.19303326308727264
1789038620362411000,9.936410888671874,0.37293294072151184,0.1928805559873581,0.22418737411499023
1789038620379665000,9.953664794921876,0.38698282837867737,0.26740604639053345,0.28466299176216125
1789038620396919000,9.9709189453125,0.3961458206176758,0.3400989770889282,0.3439168632030487
1789038620414173000,9.9881728515625,0.383928507566452,0.4225656986236572,0.3995055556297302
1789038620431427000,10.005427001953125,0.34055712819099426,0.4494437575340271,0.4098902642726898
1789038620448681000,10.022680908203125,0.28924447298049927,0.4433351159095764,0.32192572951316833
1789038620465935000,10.03993505859375,0.22266021370887756,0.44577857851982117,0.17592905461788177
1789038620483189000,10.05718896484375,0.16218459606170654,0.4812087416648865,0.15149445831775665
1789038620500443100,10.074443115234375,0.15241076052188873,0.5978838801383972,0.16859868168830872
1789038620517697000,10.091697021484375,0.1805105358362198,0.8660535216331482,0.18753549456596375
1789038620534951000,10.108950927734375,0.19822561740875244,1.2111921310424805,0.21319180727005005
1789038620552205000,10.126205078125,0.14752385020256042,1.4152209758758545,0.27550002932548523
1789038620569459000,10.143458984375,0.0974329337477684,1.5599958896636963,0.31520622968673706
1789038620586713000,10.160713134765626,-0.0027488914784044027,1.5453351736068726,0.3127627670764923
1789038620603967200,10.17796728515625,-0.05039634555578232,1.3138173818588257,0.26389357447624207
1789038620621221000,10.19522119140625,-0.13958260416984558,1.1275036334991455,0.1893680840730667
1789038620638475300,10.212475341796875,-0.19089524447917938,0.7573196291923523,0.16859868168830872
1789038620655729200,10.229729248046874,-0.17073670029640198,0.48792824149131775,0.14660754799842834
1789038620672983300,10.2469833984375,-0.1585194170475006,0.281455934047699,0.09590577334165573
1789038620690237200,10.2642373046875,-0.12370011955499649,0.16905683279037476,0.07574722915887833
1789038620707491300,10.2814912109375,-0.11392628401517868,0.07620538026094437,0.0665842592716217
1789038620724745200,10.2987451171875,-0.14019346237182617,0.031001387163996696,0.01954767294228077
1789038620741999400,10.315999267578125,-0.17318016290664673,-0.03191768378019333,0.02932151034474373
1789038620759253200,10.333253173828124,-0.1029307171702385,-0.1510363221168518,0.015271619893610477
1789038620776507400,10.35050732421875,-0.0015271619195118546,-0.1455385386943817,0.03909534588456154
1789038620793761300,10.36776123046875,0.08826996386051178,-0.12354740500450134,0.12156209349632263
1789038620811015200,10.38501513671875,0.16584978997707367,-0.0013744457392022014,0.14721840620040894
1789038620828269300,10.402269287109375,0.25442516803741455,0.09941824525594711,0.13744457066059113
1789038620845523200,10.419523193359375,0.29474225640296936,0.22036947309970856,0.08552107214927673
1789038620862777300,10.43677734375,0.2831358313560486,0.3168860971927643,-0.0030543238390237093
1789038620880031200,10.45403125,0.24770566821098328,0.42623090744018555,-0.03909534588456154
1789038620897285400,10.471285400390625,0.2098320573568344,0.476321816444397,-0.1185077652335167
1789038620914539300,10.488539306640625,0.18295399844646454,0.5648971796035767,-0.20647229254245758
1789038620931793400,10.50579345703125,0.11087195575237274,0.6461422443389893,-0.3225366175174713
1789038620949047300,10.52304736328125,-0.014966187067329884,0.7035635113716125,-0.389120876789093
1789038620966301400,10.540301513671874,-0.1432477980852127,0.6504182815551758,-0.3640754222869873
1789038620983555300,10.557555419921876,-0.17623448371887207,0.6015490889549255,-0.3292561173439026
1789038621000809500,10.5748095703125,-0.17134757339954376,0.6302597522735596,-0.34086254239082336
1789038621018063400,10.5920634765625,-0.1847866028547287,0.6730202436447144,-0.4453204274177551
1789038621035317500,10.6093173828125,-0.19639302790164948,0.6052142977714539,-0.4575377106666565
1789038621052571400,10.6265712890625,-0.1029307171702385,0.4793761372566223,-0.4776962697505951
1789038621069825500,10.643825439453124,0.047952886670827866,0.4738783538341522,-0.5143481492996216
1789038621087079700,10.66107958984375,0.11148282140493393,0.5532907843589783,-0.526565432548523
1789038621104333600,10.67833349609375,0.10048725455999374,0.495258629322052,-0.4575377106666565
1789038621121587700,10.695587646484375,0.08460476994514465,0.3889681398868561,-0.379347026348114
1789038621138841600,10.712841552734375,0.03756818547844887,0.3559814393520355,-0.33536475896835327
1789038621156095500,10.730095458984374,-0.038789913058280945,0.3407098352909088,-0.3078758418560028
1789038621173349600,10.747349609375,-0.10965022444725037,0.2796233594417572,-0.3585776388645172
1789038621190603500,10.764603515625,-0.1597411334514618,0.2484692484140396,-0.38728827238082886
1789038621207857700,10.781857666015625,-0.14508038759231567,0.14889828860759735,-0.3194822669029236
1789038621225111600,10.799111572265625,-0.06444623321294785,0.03222311660647392,-0.2412915825843811
1789038621242365700,10.81636572265625,-0.026572618633508682,0.001679878099821508,-0.12522727251052856
1789038621259619600,10.83361962890625,-0.010079269297420979,-0.036804601550102234,-0.02932151034474373
1789038621276873700,10.850873779296874,0.04306596517562866,-0.01908952370285988,0.028099779039621353
1789038621294127600,10.868127685546876,0.0766635313630104,-0.10277800261974335,0.1185077652335167
1789038621311381800,10.8853818359375,0.07971785217523575,-0.24572035670280457,0.22174391150474548
1789038621328635600,10.9026357421875,0.07055488228797913,-0.378888875246048,0.2571740746498108
1789038621345889800,10.919889892578125,0.09376774728298187,-0.38011062145233154,0.26511532068252563
1789038621363144000,10.93714404296875,0.07055488228797913,-0.5187768936157227,0.2009745091199875
1789038621380397800,10.954397705078126,-0.0027488914784044027,-0.7209731340408325,0.08429934084415436
1789038621397652000,10.97165185546875,-0.0870482325553894,-0.9030108451843262,0.01588248461484909
1789038621414905900,10.98890576171875,-0.16218459606170654,-1.0428988933563232,-0.027488915249705315
1789038621432160000,11.006159912109375,-0.2788597643375397,-1.1681262254714966,-0.04825831577181816
1789038621449414000,11.023413818359375,-0.4370737373828888,-1.1711804866790771,0.04276053607463837
1789038621466667800,11.040667724609374,-0.5702422857284546,-0.9567669630050659,0.2669478952884674
1789038621483922000,11.057921875,-0.5677987933158875,-0.5780308246612549,0.5094612240791321
1789038621501176000,11.075176025390626,-0.4059196412563324,-0.5389354228973389,0.6224712133407593
1789038621518430000,11.092429931640625,-0.18112140893936157,-0.6910407543182373,0.5216785073280334
1789038621535684000,11.10968408203125,-0.0009162971982732415,-0.70753413438797,0.35796675086021423
1789038621552938000,11.12693798828125,0.07483093440532684,-0.7588467597961426,0.22479823231697083
1789038621570192100,11.144192138671874,0.09071341902017593,-0.7588467597961426,0.20952661335468292
1789038621587446000,11.161446044921876,0.09560033679008484,-0.7020363211631775,0.2816086709499359
1789038621604700200,11.1787001953125,0.03695731982588768,-0.6097957491874695,0.2626718580722809
1789038621621954000,11.1959541015625,-0.07116574794054031,-0.6226239204406738,0.2315177470445633
1789038621639208200,11.213208251953125,-0.18295399844646454,-0.7179188132286072,0.2528980076313019
1789038621656462000,11.230462158203125,-0.2525925934314728,-0.6776017546653748,0.31520622968673706
1789038621673716200,11.24771630859375,-0.2525925934314728,-0.5334376692771912,0.34697118401527405
1789038621690970000,11.26497021484375,-0.2110537886619568,-0.4405862092971802,0.33047783374786377
1789038621708224300,11.282224365234375,-0.19822561740875244,-0.49373146891593933,0.2816086709499359
1789038621725478100,11.29947802734375,-0.16157373785972595,-0.5542070865631104,0.22479823231697083
1789038621742732300,11.316732177734375,-0.17318016290664673,-0.5774199366569519,0.18203771114349365
1789038621759986400,11.333986328125,-0.22937972843647003,-0.5401571989059448,0.1545487940311432
1789038621777240300,11.351240234375,-0.31062474846839905,-0.4503600597381592,0.13255766034126282
1789038621794494500,11.368494384765626,-0.3539961278438568,-0.3153589367866516,0.13744457066059113
1789038621811748400,11.385748291015625,-0.31673339009284973,-0.19135339558124542,0.16798780858516693
1789038621829002500,11.40300244140625,-0.2922987937927246,-0.13942988216876984,0.17043127119541168
1789038621846256400,11.42025634765625,-0.25503605604171753,-0.14492766559123993,0.17287473380565643
1789038621863510500,11.437510498046874,-0.21960589289665222,-0.12293653935194016,0.18753549456596375
1789038621880764400,11.454764404296874,-0.1945604383945465,-0.07406735420227051,0.2162461280822754
1789038621898018600,11.4720185546875,-0.19700388610363007,-0.0435241162776947,0.24984370172023773
1789038621915272400,11.4892724609375,-0.21960589289665222,-0.0025961752980947495,0.277332603931427
1789038621932526600,11.506526611328125,-0.22876885533332825,0.05543597787618637,0.29443681240081787
1789038621949780500,11.523780517578125,-0.21166464686393738,0.09819651395082474,0.3023780584335327
1789038621967034600,11.54103466796875,-0.22449280321598053,0.1104138121008873,0.3078758418560028
1789038621984288500,11.55828857421875,-0.2861901521682739,0.0847574844956398,0.30054548382759094
1789038622001542700,11.575542724609376,-0.3222311735153198,0.03894263133406639,0.2816086709499359
1789038622018796800,11.592796875,-0.31612253189086914,0.03588830679655075,0.21991132199764252
1789038622036050700,11.61005078125,-0.2733619809150696,0.01511890348047018,0.14233149588108063
1789038622053304800,11.627304931640625,-0.23793183267116547,-0.0013744457392022014,0.09346231073141098
1789038622070558700,11.644558837890624,-0.189673513174057,-0.0154243353754282,0.07880155742168427
1789038622087812900,11.661812744140626,-0.15179990231990814,-0.023976443335413933,0.06841685622930527
1789038622105066800,11.679066650390626,-0.14263692498207092,-0.0386371985077858,0.06352993845939636
1789038622122321000,11.69632080078125,-0.16829325258731842,-0.02519817277789116,0.06963858753442764
1789038622139574800,11.71357470703125,-0.19883649051189423,0.02367101050913334,0.09285144507884979
1789038622156829000,11.730828857421875,-0.2367101013660431,-0.0062613640911877155,0.1178968995809555
1789038622174082800,11.748082763671874,-0.2922987937927246,-0.06307178735733032,0.09468404203653336
1789038622191337000,11.7653369140625,-0.33567020297050476,-0.0948367565870285,0.05803215503692627
1789038622208590800,11.7825908203125,-0.34055712819099426,-0.1363755613565445,0.02871064469218254
1789038622225845000,11.799844970703125,-0.3326158821582794,-0.17547090351581573,0.01954767294228077
1789038622243099100,11.81709912109375,-0.33322674036026,-0.17852523922920227,0.033597562462091446
1789038622260353000,11.83435302734375,-0.3277289569377899,-0.21639885008335114,0.015271619893610477
1789038622277607200,11.851607177734374,-0.3283398151397705,-0.2548833191394806,-0.06780599057674408
1789038622294861000,11.868861083984376,-0.3399462401866913,-0.2903134822845459,-0.2009745091199875
1789038622312115200,11.886115234375,-0.3539961278438568,-0.3000873327255249,-0.35674503445625305
1789038622329369000,11.903369140625,-0.36193737387657166,-0.28787001967430115,-0.4172206521034241
1789038622346623200,11.920623291015625,-0.3857611119747162,-0.25060728192329407,-0.41233372688293457
1789038622363877000,11.937877197265625,-0.4401280879974365,-0.2133445292711258,-0.36224281787872314
1789038622381131300,11.95513134765625,-0.476779967546463,-0.19685117900371552,-0.2938259541988373
1789038622398385400,11.972385498046876,-0.44318240880966187,-0.14431680738925934,-0.23457208275794983
1789038622415639300,11.989639404296875,-0.3759872615337372,0.01206457894295454,-0.15515965223312378
1789038622432893400,12.0068935546875,-0.35094180703163147,0.1623373180627823,-0.10934479534626007
1789038622450147300,12.024147216796875,-0.314289927482605,0.2130390852689743,-0.06414080411195755
1789038622467401500,12.0414013671875,-0.32589635252952576,0.228921577334404,0.039706211537122726
1789038622484655400,12.0586552734375,-0.4108065664768219,0.291229784488678,0.16065743565559387
1789038622501909500,12.075909423828126,-0.5305360555648804,0.27779075503349304,0.25900667905807495
1789038622519163400,12.093163330078125,-0.6594285368919373,0.057268574833869934,0.2816086709499359
1789038622536417500,12.11041748046875,-0.7186824083328247,-0.18585561215877533,0.19914191961288452
1789038622553671400,12.12767138671875,-0.674700140953064,-0.44791659712791443,0.11484257876873016
1789038622570925600,12.144925537109375,-0.6374374032020569,-0.633008599281311,0.10873392969369888
1789038622588179500,12.162179443359374,-0.6178897023200989,-0.6940951347351074,0.18203771114349365
1789038622605433600,12.17943359375,-0.5604684352874756,-0.6110175251960754,0.26450446248054504
1789038622622687700,12.196687744140625,-0.4059196412563324,-0.3611738085746765,0.31520622968673706
1789038622639941600,12.213941650390625,-0.24404047429561615,-0.1363755613565445,0.31031930446624756
1789038622657195800,12.23119580078125,-0.15118902921676636,-0.052076224237680435,0.29077163338661194
1789038622674449700,12.24844970703125,-0.09865466505289078,-0.0013744457392022014,0.29993459582328796
1789038622691703800,12.265703857421874,0.01740964688360691,0.00045814859913662076,0.25473061203956604
1789038622708957700,12.282957763671876,0.08032871782779694,0.034666575491428375,0.24862197041511536
1789038622726211800,12.3002119140625,0.07299833744764328,0.018784092739224434,0.22907429933547974
1789038622743465700,12.3174658203125,0.014966187067329884,-0.007483093533664942,0.1740964651107788
1789038622760720000,12.334719970703125,-0.0412333719432354,-0.005039634648710489,0.06536252796649933
1789038622777973800,12.351973876953124,-0.13530655205249786,0.06154462695121765,-0.012217295356094837
1789038622795228000,12.369227783203126,-0.2770271897315979,0.06704241037368774,-0.05497783049941063
1789038622812482000,12.38648193359375,-0.40408703684806824,0.060933761298656464,-0.10934479534626007
1789038622829736000,12.40373583984375,-0.4981602132320404,0.10980294644832611,-0.19730933010578156
1789038622846990000,12.420989990234375,-0.5024362802505493,0.10735948383808136,-0.29016077518463135
1789038622864244000,12.438243896484375,-0.46028661727905273,0.13423752784729004,-0.3750709891319275
1789038622881498000,12.455498046875,-0.44379326701164246,0.2539670467376709,-0.40805765986442566
1789038622898752000,12.472751953125,-0.40714138746261597,0.23564109206199646,-0.5076286196708679
1789038622916006100,12.490006103515626,-0.43829548358917236,0.23625195026397705,-0.5540543794631958
1789038622933260300,12.50726025390625,-0.4584540128707886,0.249690979719162,-0.574212908744812
1789038622950514200,12.52451416015625,-0.49510589241981506,0.145843967795372,-0.6047561168670654
1789038622967768300,12.541768310546875,-0.47555822134017944,-0.04535670951008797,-0.6499601006507874
1789038622985022200,12.559022216796874,-0.45906487107276917,-0.18952079117298126,-0.6621774435043335
1789038623002276400,12.5762763671875,-0.4401280879974365,-0.17058399319648743,-0.6322450637817383
1789038623019530200,12.5935302734375,-0.4511236250400543,-0.16081015765666962,-0.6139190793037415
1789038623036784400,12.610784423828125,-0.518318772315979,-0.08384118974208832,-0.5503891706466675
1789038623054038300,12.628038330078125,-0.5549706816673279,0.09392046183347702,-0.44348782300949097
1789038623071292400,12.64529248046875,-0.4975493550300598,0.05543597787618637,-0.45326167345046997
1789038623088546600,12.662546630859374,-0.4981602132320404,-0.005039634648710489,-0.4105011224746704
1789038623105800400,12.679800537109376,-0.5042688846588135,0.009621120058000088,-0.3659079968929291
1789038623123054600,12.6970546875,-0.526870846748352,-0.006872228812426329,-0.3970620930194855
1789038623140308500,12.71430859375,-0.5500837564468384,0.004123337101191282,-0.3958403766155243
1789038623157562600,12.731562744140625,-0.5708531141281128,0.006566796451807022,-0.4159989058971405
1789038623174816500,12.74881640625,-0.5690205693244934,0.013286309316754341,-0.4563159942626953
1789038623192070700,12.766070556640624,-0.5800161361694336,0.011453714221715927,-0.46547895669937134
1789038623209324500,12.783324462890626,-0.6478220820426941,0.008399390615522861,-0.4563159942626953
1789038623226578700,12.80057861328125,-0.6368265151977539,-0.011148282326757908,-0.49480047821998596
1789038623243832600,12.81783251953125,-0.5073232054710388,-0.08078686892986298,-0.5338957905769348
1789038623261086700,12.835086669921875,-0.4321868419647217,-0.14859285950660706,-0.5442805290222168
1789038623278340900,12.8523408203125,-0.3900371491909027,-0.18035782873630524,-0.5980366468429565
1789038623295594800,12.8695947265625,-0.3808741867542267,-0.15470150113105774,-0.6212494969367981
1789038623312849000,12.886848876953126,-0.36804601550102234,-0.11255183815956116,-0.5485565662384033
1789038623330102800,12.904102783203125,-0.33750277757644653,0.016340631991624832,-0.4740310609340668
1789038623347357000,12.92135693359375,-0.3442223072052002,-0.0038179049734026194,-0.45509424805641174
1789038623364610800,12.93861083984375,-0.33078327775001526,-0.0019853105768561363,-0.40378162264823914
1789038623381865000,12.955864990234375,-0.29046618938446045,-0.08384118974208832,-0.38179048895835876
1789038623399118800,12.973118896484374,-0.25870123505592346,-0.18280129134655,-0.3176496922969818
1789038623416373000,12.990373046875,-0.23976442217826843,-0.23228132724761963,-0.2932150959968567
1789038623433627100,13.007627197265625,-0.20861032605171204,-0.26160284876823425,-0.2461785078048706
1789038623450881000,13.024881103515625,-0.1792888194322586,-0.22556181252002716,-0.18753549456596375
1789038623468135200,13.04213525390625,-0.1737910360097885,-0.20662501454353333,-0.16737695038318634
1789038623485389000,13.05938916015625,-0.16829325258731842,-0.08323032408952713,-0.11667517572641373
1789038623502643200,13.076643310546874,-0.1640172004699707,0.053603384643793106,-0.026878049597144127
1789038623519897000,13.09389697265625,-0.12553271651268005,0.16539163887500763,0.023823726922273636
1789038623537151200,13.111151123046875,-0.07360920310020447,0.2802342176437378,0.05192350596189499
1789038623554405000,13.128405029296875,-0.07055488228797913,0.2893971800804138,0.04764745384454727
1789038623571659300,13.1456591796875,-0.08399390429258347,0.2997818887233734,0.03298669680953026
1789038623588913200,13.1629130859375,-0.10537417232990265,0.18310672044754028,-0.000610864779446274
1789038623606167300,13.180167236328124,-0.10476330667734146,0.14278964698314667,-0.03909534588456154
1789038623623421400,13.19742138671875,-0.10476330667734146,0.14278964698314667,-0.05742128938436508
1789038623640675300,13.21467529296875,-0.09010255336761475,0.14889828860759735,-0.06414080411195755
1789038623657929500,13.231929443359375,-0.0766635313630104,0.2386954128742218,-0.056810423731803894
1789038623675183400,13.249183349609375,-0.06627883017063141,0.3352120518684387,-0.018325943499803543
1789038623692437500,13.2664375,-0.00946840364485979,0.2955058515071869,0.028099779039621353
1789038623709691400,13.28369140625,0.03634645417332649,0.2435823380947113,0.06108647957444191
1789038623726945500,13.300945556640626,0.05589412897825241,0.15012001991271973,0.10995566099882126
1789038623744199700,13.31819970703125,0.054672397673130035,0.09147699922323227,0.17043127119541168
1789038623761453600,13.33545361328125,0.035124726593494415,0.15317434072494507,0.26450446248054504
1789038623778707700,13.352707763671875,0.06444623321294785,0.14034618437290192,0.29138249158859253
1789038623795961600,13.369961669921874,0.08155044913291931,0.10919208079576492,0.3488037884235382
1789038623813215700,13.3872158203125,0.09132428467273712,0.10369429737329483,0.3787361681461334
1789038623830469600,13.4044697265625,0.12003492563962936,0.1000291109085083,0.39278605580329895
1789038623847723800,13.421723876953125,0.1340848207473755,0.09941824525594711,0.3970620930194855
1789038623864977700,13.438977783203125,0.13530655205249786,0.05482511222362518,0.38301220536231995
1789038623882231800,13.456231689453125,0.1383608728647232,0.00045814859913662076,0.36835145950317383
1789038623899485700,13.473485595703124,0.14996729791164398,-0.023976443335413933,0.3695732057094574
1789038623916739800,13.49073974609375,0.1695149689912796,-0.03436114266514778,0.4056142270565033
1789038623933994000,13.507993896484376,0.20127993822097778,0.01511890348047018,0.4355465769767761
1789038623951248000,13.525247802734375,0.2367101013660431,0.060933761298656464,0.4569268524646759
1789038623968502000,13.542501953125,0.2678641974925995,0.04566214233636856,0.4459312856197357
1789038623985756000,13.559755859375,0.28496840596199036,-0.012980876490473747,0.4514290690422058
1789038624003010000,13.577010009765624,0.28435754776000977,-0.06612611562013626,0.46486809849739075
1789038624020264000,13.594263916015626,0.2984074354171753,-0.07834340631961823,0.46608981490135193
1789038624037518000,13.61151806640625,0.2929096519947052,-0.06795870512723923,0.47036588191986084
1789038624054772000,13.62877197265625,0.2965748608112335,-0.055741410702466965,0.5064069032669067
1789038624072026000,13.646026123046875,0.31612253189086914,0.03955349326133728,0.5161807537078857
1789038624089280000,13.663280029296875,0.324063777923584,0.10125083476305008,0.5161807537078857
1789038624106534100,13.6805341796875,0.32650721073150635,0.09575305134057999,0.48502662777900696
1789038624123788000,13.6977880859375,0.33139413595199585,0.09086613357067108,0.4728093445301056
1789038624141042200,13.715042236328125,0.3387245237827301,0.16416990756988525,0.44409868121147156
1789038624158296300,13.73229638671875,0.36254823207855225,0.228921577334404,0.42394015192985535
1789038624175550200,13.74955029296875,0.39370235800743103,0.1818849891424179,0.39339691400527954
1789038624192804400,13.766804443359375,0.41325002908706665,0.14889828860759735,0.3591884970664978
1789038624210058200,13.784058349609374,0.4303542375564575,0.13240493834018707,0.3249800503253937
1789038624227312400,13.8013125,0.4572322964668274,0.11774418503046036,0.268169641494751
1789038624244566300,13.818566162109375,0.4780016839504242,0.12202023714780807,0.2364046722650528
1789038624261820400,13.8358203125,0.5024362802505493,0.11591159552335739,0.27000224590301514
1789038624279074300,13.85307421875,0.5439751148223877,0.1464548259973526,0.2528980076313019
1789038624296328400,13.870328369140625,0.601396381855011,0.14462223649024963,0.2632827162742615
1789038624313582600,13.88758251953125,0.6447677612304688,0.11774418503046036,0.28405213356018066
1789038624330836500,13.90483642578125,0.6527090072631836,0.10858121514320374,0.30604326725006104
1789038624348090600,13.922090576171875,0.6777544617652893,0.06643154472112656,0.360410213470459
1789038624365344500,13.939344482421875,0.7388409376144409,0.08414662629365921,0.3402516841888428
1789038624382598700,13.9565986328125,0.7480039000511169,0.028557928279042244,0.3029889166355133
1789038624399852500,13.9738525390625,0.694247841835022,-0.017256930470466614,0.2614501118659973
1789038624417106700,13.991106689453124,0.6594285368919373,-0.0850629210472107,0.30970844626426697
1789038624434360800,14.00836083984375,0.6765327453613281,-0.10338886082172394,0.33597561717033386
1789038624451614700,14.02561474609375,0.6777544617652893,-0.0013744457392022014,0.33658650517463684
1789038624468868600,14.04286865234375,0.7009673118591309,0.18493930995464325,0.39339691400527954
1789038624486122800,14.060122802734375,0.7528908252716064,0.3584249019622803,0.37629270553588867
1789038624503377000,14.077376953125,0.7486147880554199,0.48853909969329834,0.4196641147136688
1789038624520630800,14.094630859375,0.7235693335533142,0.3529271185398102,0.4373791813850403
1789038624537885000,14.111885009765626,0.7040216326713562,0.19043709337711334,0.4166097939014435
1789038624555138800,14.129138916015625,0.7168498039245605,0.09880737960338593,0.36224281787872314
1789038624572393000,14.14639306640625,0.7620537877082825,0.0798705667257309,0.29138249158859253
1789038624589646800,14.163646728515625,0.7461713552474976,-0.10399972647428513,0.19425499439239502
1789038624606901000,14.18090087890625,0.6979129910469055,-0.14248420298099518,0.12767073512077332
1789038624624155100,14.198155029296874,0.6325504779815674,-0.1418733447790146,0.14233149588108063
1789038624641409000,14.215408935546876,0.6227766275405884,-0.06490438431501389,0.16798780858516693
1789038624658663200,14.2326630859375,0.5708531141281128,0.009621120058000088,0.15210533142089844
1789038624675917000,14.2499169921875,0.5079340934753418,0.09575305134057999,0.1081230640411377
1789038624693171200,14.267171142578125,0.4517345130443573,0.1611155867576599,0.10995566099882126
1789038624710425000,14.284425048828124,0.40836310386657715,0.10063996911048889,0.12767073512077332
1789038624727679200,14.30167919921875,0.37171122431755066,0.09208786487579346,0.1233946830034256
1789038624744933400,14.318933349609376,0.39248061180114746,-0.0386371985077858,0.12461641430854797
1789038624762187300,14.336187255859375,0.44990190863609314,-0.09666935354471207,0.10873392969369888
1789038624779441400,14.35344140625,0.4877755343914032,0.02672533318400383,0.15760311484336853
1789038624796695300,14.3706953125,0.48655378818511963,-0.10338886082172394,0.23823726177215576
1789038624813949400,14.387949462890624,0.4773908257484436,-0.10338886082172394,0.2009745091199875
1789038624831203600,14.40520361328125,0.4413498044013977,-0.14981459081172943,0.1844811588525772
1789038624848457500,14.42245751953125,0.37781986594200134,-0.15836669504642487,0.09162971377372742
1789038624865711600,14.439711669921875,0.34116798639297485,-0.14492766559123993,0.07880155742168427
1789038624882965500,14.456965576171875,0.2880227565765381,-0.13271036744117737,0.06963858753442764
1789038624900219600,14.4742197265625,0.24465134739875793,-0.04657844081521034,-0.013439024798572063
1789038624917473500,14.4914736328125,0.21960589289665222,0.007788525894284248,-0.013439024798572063
1789038624934727700,14.508727783203126,0.22204934060573578,0.02367101050913334,0.006719512399286032
1789038624951981800,14.52598193359375,0.21349723637104034,0.009621120058000088,-0.025045456364750862
1789038624969235700,14.543235595703125,0.1695149689912796,-0.08384118974208832,-0.12767073512077332
1789038624986489900,14.56048974609375,0.1127045527100563,-0.14309507608413696,-0.15271618962287903
1789038625003743700,14.57774365234375,0.022907428443431854,-0.15836669504642487,-0.056810423731803894
1789038625020998000,14.594997802734374,-0.011300998739898205,-0.20601414144039154,0.04153880476951599
1789038625038252000,14.612251953125,-0.0204639695584774,-0.31230461597442627,0.047036588191986084
1789038625055506000,14.629505859375,-0.02718348242342472,-0.3355174660682678,-0.0360410213470459
1789038625072760000,14.646760009765625,-0.05833758786320686,-0.3526217043399811,-0.09101885557174683
1789038625090014000,14.664013916015625,-0.07910698652267456,-0.3324631452560425,-0.08429934084415436
1789038625107268000,14.68126806640625,-0.10537417232990265,-0.22006404399871826,-0.046425722539424896
1789038625124522000,14.69852197265625,-0.07971785217523575,-0.29886558651924133,0.007330377586185932
1789038625141776100,14.715776123046876,-0.08277218043804169,-0.35934120416641235,-0.006719512399286032
1789038625159030300,14.7330302734375,-0.041844237595796585,-0.2591593861579895,-0.09529490768909454
1789038625176284200,14.7502841796875,-0.007024944759905338,-0.2854265570640564,-0.22357651591300964
1789038625193538300,14.767538330078125,0.026572618633508682,-0.3061959743499756,-0.25534147024154663
1789038625210792200,14.784792236328125,0.04001164436340332,-0.23472478985786438,-0.13744457066059113
1789038625228046300,14.80204638671875,0.035735588520765305,-0.23594652116298676,0.023823726922273636
1789038625245300200,14.81930029296875,0.022907428443431854,-0.28298309445381165,0.12583814561367035
1789038625262554400,14.836554443359375,-0.006414080038666725,-0.29764387011528015,0.07757982611656189
1789038625279808500,14.85380859375,-0.0021380267571657896,-0.3092502951622009,-0.06719512492418289
1789038625297062400,14.8710625,0.04734202101826668,-0.2689332067966461,-0.16676609218120575
1789038625314316500,14.888316650390625,0.07483093440532684,-0.13454297184944153,-0.2003636509180069
1789038625331570400,14.9055703125,0.019853105768561363,0.03222311660647392,-0.2364046722650528
1789038625348824600,14.922824462890626,-0.07544180005788803,0.17944152653217316,-0.2559523284435272
1789038625366078700,14.94007861328125,-0.1646280586719513,0.29733842611312866,-0.23335035145282745
1789038625383332600,14.95733251953125,-0.15668681263923645,0.33948808908462524,-0.16187916696071625
1789038625400586800,14.974586669921875,-0.08338304609060287,0.3761399984359741,-0.1588248461484909
1789038625417840600,14.991840576171874,-0.0308486707508564,0.35964664816856384,-0.20402882993221283
1789038625435094800,15.0090947265625,-0.0204639695584774,0.2643517255783081,-0.20647229254245758
1789038625452349000,15.026348876953126,-0.03940077871084213,0.18310672044754028,-0.13683371245861053
1789038625469602800,15.043602783203125,-0.04978547990322113,0.16844595968723297,-0.05558869615197182
1789038625486857000,15.06085693359375,-0.04550942778587341,0.22464552521705627,-0.014049889519810677
1789038625504110800,15.07811083984375,-0.029016077518463135,0.27107125520706177,-0.012217295356094837
1789038625521365000,15.095364990234375,-0.01740964688360691,0.25579962134361267,-0.01588248461484909
1789038625538619100,15.112619140625,-0.022296564653515816,0.19654574990272522,-0.010995565913617611
1789038625555873000,15.129873046875,-0.061391908675432205,0.14889828860759735,-0.026878049597144127
1789038625573127200,15.147127197265625,-0.10720676928758621,0.16355904936790466,-0.07269290834665298
1789038625590381000,15.164381103515625,-0.13103049993515015,0.15745039284229279,-0.10384701192378998
1789038625607635200,15.18163525390625,-0.1029307171702385,0.13729186356067657,-0.13439024984836578
1789038625624889000,15.19888916015625,-0.07360920310020447,0.11224640160799026,-0.15577052533626556
1789038625642143200,15.216143310546874,-0.0717766135931015,0.14706569910049438,-0.15271618962287903
1789038625659397400,15.2333974609375,-0.11942406743764877,0.21975859999656677,-0.1337793916463852
1789038625676651300,15.2506513671875,-0.19272783398628235,0.268627792596817,-0.12095122784376144
1789038625693905400,15.267905517578125,-0.2715294063091278,0.3052796721458435,-0.1539379209280014
1789038625711159300,15.2851591796875,-0.32100942730903625,0.38102689385414124,-0.21380266547203064
1789038625728413400,15.302413330078124,-0.3900371491909027,0.39446592330932617,-0.2528980076313019
1789038625745667600,15.31966748046875,-0.48655378818511963,0.3663661479949951,-0.2571740746498108
1789038625762921500,15.33692138671875,-0.5451968312263489,0.30894485116004944,-0.2718348205089569
1789038625780175600,15.354175537109375,-0.5671879649162292,0.23075416684150696,-0.3243691921234131
1789038625797429500,15.371429443359375,-0.5653553605079651,0.15928299725055695,-0.39217519760131836
1789038625814683600,15.38868359375,-0.602007269859314,0.03405570983886719,-0.48502662777900696
1789038625831937500,15.4059375,-0.722347617149353,-0.04718930274248123,-0.5137372612953186
1789038625849191700,15.423191650390624,-0.8536835312843323,-0.12965604662895203,-0.5033525824546814
1789038625866445800,15.44044580078125,-0.8549052476882935,0.007177661173045635,-0.4471530318260193
1789038625883699700,15.45769970703125,-0.8060360550880432,0.06337722390890121,-0.45326167345046997
1789038625900953900,15.474953857421875,-0.7363975048065186,0.10797034949064255,-0.42821621894836426
1789038625918208000,15.4922080078125,-0.694247841835022,0.05971203371882439,-0.40866854786872864
1789038625935462000,15.5094619140625,-0.6893609166145325,0.10919208079576492,-0.39767298102378845
1789038625952716000,15.526716064453124,-0.776714563369751,0.04993819445371628,-0.38789913058280945
1789038625969970000,15.543969970703126,-0.8921679854393005,-0.04230238497257233,-0.3750709891319275
1789038625987224000,15.56122412109375,-0.9599739909172058,-0.07651081681251526,-0.34697118401527405
1789038626004478000,15.57847802734375,-0.9178243279457092,-0.15409064292907715,-0.31459537148475647
1789038626021732000,15.595732177734375,-0.7547234296798706,-0.191964253783226,-0.27000224590301514
1789038626038986200,15.612986328125,-0.68386310338974,-0.19379685819149017,-0.25045454502105713
1789038626056240000,15.630240234375,-0.6973021626472473,-0.22678354382514954,-0.3023780584335327
1789038626073494300,15.647494384765626,-0.7541125416755676,-0.23655737936496735,-0.33169957995414734
1789038626090748200,15.664748046875,-0.7999274134635925,-0.09605848789215088,-0.3543015718460083
1789038626108002300,15.682002197265625,-0.7785471677780151,-0.07345648854970932,-0.32559093832969666
1789038626125256400,15.69925634765625,-0.757777750492096,-0.09239330142736435,-0.3335321843624115
1789038626142510300,15.71651025390625,-0.6490437984466553,-0.11499529331922531,-0.3488037884235382
1789038626159764500,15.733764404296876,-0.6814196705818176,-0.15225805342197418,-0.401949018239975
1789038626177018400,15.751018310546876,-0.6979129910469055,-0.1510363221168518,-0.430659681558609
1789038626194272500,15.7682724609375,-0.8078686594963074,-0.04474584385752678,-0.3811796307563782
1789038626211526700,15.785526611328125,-0.8665117025375366,-0.07773254066705704,-0.328645259141922
1789038626228780500,15.802780517578125,-0.8255837559700012,-0.12965604662895203,-0.2608392536640167
1789038626246034700,15.82003466796875,-0.6630937457084656,-0.1718057245016098,-0.2406807243824005
1789038626263288600,15.83728857421875,-0.6673697829246521,-0.2133445292711258,-0.20891575515270233
1789038626280542700,15.854542724609376,-0.6582068204879761,-0.21945317089557648,-0.21441353857517242
1789038626297796600,15.871796630859375,-0.6252201199531555,-0.13759729266166687,-0.18264856934547424
1789038626315050800,15.88905078125,-0.5543597936630249,-0.2341139316558838,-0.22785256803035736
1789038626332305000,15.906304931640625,-0.46883872151374817,-0.29397866129875183,-0.3090975880622864
1789038626349558800,15.923558837890624,-0.43279770016670227,-0.20357069373130798,-0.3738492429256439
1789038626366813000,15.94081298828125,-0.41325002908706665,-0.24694208800792694,-0.3249800503253937
1789038626384066800,15.95806689453125,-0.4932733178138733,-0.13209950923919678,-0.2730565667152405
1789038626401321000,15.975321044921875,-0.44990190863609314,-0.10827577859163284,-0.2968802750110626
1789038626418575000,15.9925751953125,-0.34116798639297485,-0.04474584385752678,-0.24434591829776764
1789038626435829000,16.0098291015625,-0.38759371638298035,0.11224640160799026,-0.15821397304534912
1789038626453083100,16.027083251953126,-0.36804601550102234,0.310166597366333,-0.14049890637397766
1789038626470337000,16.0443369140625,-0.2910770773887634,0.26618432998657227,-0.05803215503692627
1789038626487591200,16.061591064453125,-0.25809037685394287,0.20631958544254303,-0.09407317638397217
1789038626504845300,16.07884521484375,-0.3271180987358093,0.32360562682151794,-0.06108647957444191
1789038626522099200,16.09609912109375,-0.37293294072151184,0.2997818887233734,0.03298669680953026
1789038626539353300,16.113353271484375,-0.34238970279693604,0.22525638341903687,0.06902772188186646
1789038626556607200,16.130607177734376,-0.33322674036026,0.17088942229747772,0.06291907280683517
1789038626573861400,16.147861328125,-0.29596397280693054,0.10980294644832611,0.1178968995809555
1789038626591115500,16.165115478515624,-0.21716243028640747,0.11896591633558273,0.14294235408306122
1789038626608369400,16.182369384765625,-0.12492185086011887,0.18860450387001038,0.10079269111156464
1789038626625623600,16.19962353515625,-0.05222893878817558,0.1617264449596405,0.10873392969369888
1789038626642877400,16.21687744140625,-0.029626941308379173,0.20509785413742065,0.1496618688106537
1789038626660131600,16.234131591796874,-0.010079269297420979,0.19471314549446106,0.1698204129934311
1789038626677385500,16.251385498046876,-0.010690134018659592,0.24052800238132477,0.21502439677715302
1789038626694639600,16.2686396484375,-0.023518294095993042,0.25763222575187683,0.2816086709499359
1789038626711893500,16.2858935546875,-0.023518294095993042,0.30894485116004944,0.34636032581329346
1789038626729147600,16.303147705078125,0.019853105768561363,0.25152358412742615,0.3652971386909485
1789038626746401800,16.32040185546875,0.05345066636800766,0.1818849891424179,0.328645259141922
1789038626763655700,16.33765576171875,0.11148282140493393,0.11652245372533798,0.2779434621334076
1789038626780909800,16.354909912109374,0.17134757339954376,0.09086613357067108,0.28527384996414185
1789038626798163700,16.372163818359375,0.24831652641296387,0.07864884287118912,0.3243691921234131
1789038626815417900,16.38941796875,0.26480987668037415,0.07376192510128021,0.3805687427520752
1789038626832671700,16.406671630859375,0.2770271897315979,0.06337722390890121,0.4153880476951599
1789038626849926000,16.42392578125,0.29535311460494995,0.011453714221715927,0.4068359434604645
1789038626867180000,16.441179931640626,0.314289927482605,-0.01359174121171236,0.3536907136440277
1789038626884434000,16.458433837890624,0.3539961278438568,-0.03802633285522461,0.33231043815612793
1789038626901688000,16.47568798828125,0.4010327160358429,0.002290742937475443,0.3329212963581085
1789038626918942000,16.49294189453125,0.4248564541339874,0.04321868345141411,0.3176496922969818
1789038626936196000,16.510196044921877,0.44318240880966187,0.10369429737329483,0.32192572951316833
1789038626953450200,16.5274501953125,0.457843154668808,0.1721111536026001,0.34086254239082336
1789038626970704100,16.5447041015625,0.4572322964668274,0.20143266022205353,0.3549124300479889
1789038626987958300,16.561958251953126,0.4523453712463379,0.17821979522705078,0.3543015718460083
1789038627005212200,16.579212158203124,0.47983428835868835,0.20509785413742065,0.35796675086021423
1789038627022466300,16.59646630859375,0.5213730931282043,0.30772313475608826,0.39767298102378845
1789038627039720200,16.61372021484375,0.5940660238265991,0.33276858925819397,0.3915643095970154
1789038627056974300,16.630974365234376,0.6734784245491028,0.33765551447868347,0.3481929302215576
1789038627074228500,16.648228515625,0.6918043494224548,0.25213444232940674,0.3915643095970154
1789038627091482400,16.665482421875,0.6954695582389832,0.19532401859760284,0.3903425931930542
1789038627117363500,16.691363525390624,0.6533198952674866,0.15928299725055695,0.35735589265823364
1789038627134617600,16.70861767578125,0.6948586702346802,0.12996147572994232,0.43860089778900146
1789038627151871500,16.72587158203125,0.7730493545532227,0.08536835014820099,0.46425724029541016
1789038627169125600,16.743125732421873,0.8213077187538147,-0.020922118797898293,0.4221075773239136
1789038627186379800,16.7603798828125,0.8402445316314697,0.04016435891389847,0.3585776388645172
1789038627203633700,16.777633544921876,0.8549052476882935,0.11285726726055145,0.3946186602115631
1789038627220887800,16.7948876953125,0.879339873790741,0.13729186356067657,0.3329212963581085
1789038627238141700,16.8121416015625,0.8396336436271667,0.21609342098236084,0.29504770040512085
1789038627255395800,16.829395751953125,0.7412844300270081,0.07742711156606674,0.2559523284435272
1789038627272649700,16.846649658203123,0.6172788739204407,-0.005039634648710489,0.15638138353824615
1789038627289903900,16.86390380859375,0.5745183229446411,-0.06612611562013626,0.07024945318698883
1789038627307158000,16.881157958984375,0.6282744407653809,-0.10277800261974335,0.027488915249705315
1789038627324412000,16.898411865234376,0.6777544617652893,-0.029474224895238876,0.01954767294228077
1789038627341666000,16.915666015625,0.6924152374267578,-0.04780016839504242,0.08796452730894089
1789038627358920000,16.932919921875,0.732121467590332,-0.05146535858511925,0.11911863088607788
1789038627376174000,16.950174072265625,0.8347467184066772,0.007788525894284248,0.15027274191379547
1789038627393428200,16.96742822265625,0.9013310074806213,0.030390523374080658,0.16249002516269684
1789038627410682000,16.98468212890625,0.9025527238845825,0.08903354406356812,0.19364413619041443
1789038627427936300,17.001936279296874,0.8378010392189026,0.015729768201708794,0.2254091054201126
1789038627445190100,17.019190185546876,0.7382301092147827,-0.0795651376247406,0.16065743565559387
1789038627462444300,17.0364443359375,0.6673697829246521,-0.04841103404760361,0.08368847519159317
1789038627479698400,17.053698486328123,0.5360338687896729,-0.02825249545276165,0.12461641430854797
1789038627496952300,17.070952392578125,0.4981602132320404,0.05604684352874756,0.2205221801996231
1789038627514206500,17.08820654296875,0.6429351568222046,0.10063996911048889,0.14782927930355072
1789038627531460400,17.10546044921875,0.7296779751777649,0.18371757864952087,-0.007330377586185932
1789038627548714500,17.122714599609374,0.7211259007453918,0.06154462695121765,-0.023212861269712448
1789038627565968600,17.13996875,0.6673697829246521,-0.13209950923919678,-0.03176496922969818
1789038627583222500,17.157222412109373,0.5329795479774475,-0.2952004075050354,-0.09407317638397217
1789038627600476700,17.1744765625,0.4059196412563324,-0.36911505460739136,-0.14660754799842834
1789038627617730600,17.19173046875,0.3546070158481598,-0.3672824501991272,-0.13622283935546875
1789038627634984700,17.208984619140626,0.2831358313560486,-0.32330018281936646,-0.053145237267017365
1789038627652238800,17.22623876953125,0.32100942730903625,-0.3019199073314667,0.03848448023200035
1789038627669492700,17.24349267578125,0.3277289569377899,-0.3153589367866516,0.039706211537122726
1789038627686746600,17.26074658203125,0.3552178740501404,-0.2133445292711258,0.02932151034474373
1789038627704000800,17.278000732421877,0.37659814953804016,-0.20479241013526917,0.07941242307424545
1789038627721255000,17.2952548828125,0.2263254076242447,-0.18035782873630524,0.20647229254245758
1789038627738508800,17.3125087890625,0.02779434807598591,-0.14798198640346527,0.32192572951316833
1789038627755763000,17.329762939453126,-0.0821613147854805,-0.19074252247810364,0.27488914132118225
1789038627773016800,17.347016845703124,-0.12614357471466064,-0.2078467458486557,0.19181154668331146
1789038627790271000,17.36427099609375,-0.10965022444725037,-0.23472478985786438,0.13133592903614044
1789038627807525000,17.381525146484375,-0.0772743970155716,-0.28176137804985046,0.1178968995809555
1789038627824779000,17.398779052734376,-0.0717766135931015,-0.25793763995170593,0.12400554865598679
1789038627842033200,17.416033203125,-0.11575887352228165,-0.22067490220069885,0.10201441496610641
1789038627859287000,17.433287109375,-0.17867794632911682,-0.1980729103088379,0.08124501258134842
1789038627876541200,17.450541259765625,-0.22999058663845062,-0.18585561215877533,0.06352993845939636
1789038627893795300,17.46779541015625,-0.22876885533332825,-0.191964253783226,0.031154103577136993
1789038627911049200,17.48504931640625,-0.17806708812713623,-0.14859285950660706,-0.017104214057326317
1789038627928303400,17.502303466796874,-0.11942406743764877,-0.0691804364323616,-0.040317077189683914
1789038627945557500,17.5195576171875,-0.09132428467273712,-0.020922118797898293,-0.04581485688686371
1789038627962811400,17.536811279296874,-0.07788526266813278,0.003512472379952669,-0.07452550530433655
1789038627980065500,17.5540654296875,-0.044898562133312225,-0.025809036567807198,-0.12767073512077332
1789038627997319400,17.5713193359375,-0.03390299528837204,-0.07223475724458694,-0.1905898153781891
1789038628014573600,17.588573486328126,-0.07360920310020447,-0.0746782198548317,-0.22418737411499023
1789038628031827500,17.605827392578124,-0.11392628401517868,-0.016035201027989388,-0.19669845700263977
1789038628049081600,17.62308154296875,-0.10903936624526978,0.13729186356067657,-0.16737695038318634
1789038628066335700,17.640335693359376,-0.057726722210645676,0.3058905303478241,-0.17226386070251465
1789038628083589600,17.657589599609373,0.032070402055978775,0.41095927357673645,-0.22846342623233795
1789038628100843800,17.67484375,0.019242240116000175,0.4134027361869812,-0.3274235129356384
1789038628118098000,17.692097900390625,-0.1029307171702385,0.4079049527645111,-0.4105011224746704
1789038628135351800,17.709351806640626,-0.2415970265865326,0.4402807950973511,-0.3646862804889679
1789038628152606000,17.72660595703125,-0.3594939112663269,0.567951500415802,-0.24312418699264526
1789038628169859800,17.74385986328125,-0.4413498044013977,0.6754637360572815,-0.1026252806186676
1789038628187114000,17.761114013671875,-0.4517345130443573,0.7121156454086304,-0.06597339361906052
1789038628204368000,17.778367919921877,-0.44440412521362305,0.6467530727386475,-0.11423171311616898
1789038628221622000,17.7956220703125,-0.425467312335968,0.54962557554245,-0.23396120965480804
1789038628238876000,17.8128759765625,-0.40225446224212646,0.3773617148399353,-0.30970844626426697
1789038628256130000,17.830130126953126,-0.40347617864608765,0.2338084876537323,-0.28588470816612244
1789038628273384200,17.84738427734375,-0.43463030457496643,0.26251915097236633,-0.23029601573944092
1789038628290638000,17.86463818359375,-0.5170970559120178,0.26251915097236633,-0.25900667905807495
1789038628307892200,17.881892333984375,-0.6252201199531555,0.19104796648025513,-0.37262752652168274
1789038628325146000,17.89914599609375,-0.6918043494224548,0.16294817626476288,-0.45387253165245056
1789038628342400300,17.916400146484374,-0.7620537877082825,0.10797034949064255,-0.46425724029541016
1789038628359654400,17.933654296875,-0.7284562587738037,0.0847574844956398,-0.3964512348175049
1789038628376908300,17.950908203125,-0.6893609166145325,0.09941824525594711,-0.3243691921234131
1789038628394162400,17.968162353515623,-0.6795870661735535,0.0743727833032608,-0.3494146466255188
1789038628411416300,17.985416259765625,-0.7192932963371277,0.010842849500477314,-0.4318813979625702
1789038628428670500,18.00267041015625,-0.8121446967124939,-0.08200860023498535,-0.5332849621772766
1789038628445924600,18.019924560546876,-0.8707877397537231,-0.22556181252002716,-0.5815432667732239
1789038628463178500,18.037178466796874,-0.9196569323539734,-0.3269653618335724,-0.5864301919937134
1789038628480432600,18.0544326171875,-0.8946114778518677,-0.26099199056625366,-0.5619956254959106
1789038628497686500,18.0716865234375,-0.8475748896598816,-0.25243985652923584,-0.5790998339653015
1789038628514940700,18.088940673828127,-0.7913753390312195,-0.15775582194328308,-0.5748237371444702
1789038628532194800,18.10619482421875,-0.785877525806427,-0.10216713696718216,-0.5827649831771851
1789038628549448700,18.12344873046875,-0.7437278628349304,0.028557928279042244,-0.5803215503692627
1789038628566702800,18.140702880859376,-0.7425061464309692,0.034666575491428375,-0.5632173418998718
1789038628583956700,18.157956787109374,-0.6960803866386414,-0.02825249545276165,-0.5937605500221252
1789038628601211000,18.1752109375,-0.6667588949203491,-0.10888664424419403,-0.6371319890022278
1789038628618464800,18.19246484375,-0.7174606919288635,-0.15775582194328308,-0.6505709886550903
1789038628635719000,18.209718994140626,-0.7308996915817261,-0.2438877671957016,-0.6517927050590515
1789038628652973000,18.22697314453125,-0.7003564834594727,-0.2341139316558838,-0.5968148708343506
1789038628670227000,18.24422705078125,-0.6692023873329163,-0.22067490220069885,-0.544891357421875
1789038628687481000,18.261481201171875,-0.6997455954551697,-0.12171480804681778,-0.45326167345046997
1789038628704735000,18.27873486328125,-0.6313287615776062,-0.007483093533664942,-0.41416633129119873
1789038628721989000,18.295989013671875,-0.6288852691650391,-0.1614210158586502,-0.37262752652168274
1789038628739243300,18.3132431640625,-0.581848680973053,-0.29275694489479065,-0.44409868121147156
1789038628756497200,18.3304970703125,-0.5513054728507996,-0.3324631452560425,-0.4770853817462921
1789038628773751300,18.347751220703124,-0.5794052481651306,-0.2591593861579895,-0.45509424805641174
1789038628791005200,18.365005126953125,-0.5977311730384827,-0.1669187992811203,-0.3799578845500946
1789038628808259300,18.38225927734375,-0.5244274139404297,-0.13271036744117737,-0.3249800503253937
1789038628825513500,18.399513427734377,-0.4663952589035034,-0.05329795181751251,-0.29626941680908203
1789038628842767400,18.416767333984374,-0.4266890585422516,-0.016035201027989388,-0.19181154668331146
1789038628860021500,18.434021484375,-0.49999281764030457,0.03588830679655075,-0.031154103577136993
1789038628877275400,18.451275390625,-0.5030471682548523,0.03894263133406639,-0.021991131827235222
1789038628894529500,18.468529541015624,-0.3087921440601349,-0.014813470654189587,-0.004886918235570192
1789038628911783700,18.48578369140625,-0.26419901847839355,0.02306014485657215,0.08307760953903198
1789038628929037600,18.50303759765625,-0.2507599890232086,0.10858121514320374,0.1130099818110466
1789038628946291700,18.520291748046876,-0.23243404924869537,0.1513417512178421,0.13988803327083588
1789038628963545600,18.537545654296874,-0.20250166952610016,0.145843967795372,0.143553227186203
1789038628980799700,18.5547998046875,-0.17256930470466614,0.11224640160799026,0.12522727251052856
1789038628998053600,18.5720537109375,-0.15485422313213348,0.08048143237829208,0.15149445831775665
1789038629015307800,18.589307861328123,-0.1585194170475006,0.04932733252644539,0.2156352698802948
1789038629032562000,18.60656201171875,-0.16157373785972595,0.019394956529140472,0.24923282861709595
1789038629049815800,18.62381591796875,-0.1340848207473755,0.04505127668380737,0.28038692474365234
1789038629067070000,18.641070068359376,-0.10598503798246384,0.10613775253295898,0.33108872175216675
1789038629084323800,18.65832373046875,-0.08460476994514465,0.16844595968723297,0.39217519760131836
1789038629101578000,18.675577880859375,-0.05100720748305321,0.20509785413742065,0.4770853817462921
1789038629118832000,18.69283203125,0.006414080038666725,0.24174973368644714,0.5271763205528259
1789038629136086000,18.7100859375,0.07605266571044922,0.2130390852689743,0.5619956254959106
1789038629153340200,18.727340087890624,0.12125665694475174,0.16661337018013,0.5564978122711182
1789038629170594000,18.744593994140626,0.1542433500289917,0.15317434072494507,0.5406153202056885
1789038629187848200,18.76184814453125,0.19211697578430176,0.10858121514320374,0.5393936038017273
1789038629205102000,18.77910205078125,0.2110537886619568,0.05971203371882439,0.5283980369567871
1789038629222356200,18.796356201171875,0.20738859474658966,0.008399390615522861,0.5296197533607483
1789038629239610400,18.8136103515625,0.23487751185894012,-0.025809036567807198,0.5112938284873962
1789038629256864300,18.8308642578125,0.3197877109050751,-0.036804601550102234,0.5009090900421143
1789038629274118400,18.848118408203124,0.3845393657684326,-0.01908952370285988,0.5247328281402588
1789038629291372300,18.865372314453126,0.45478883385658264,0.05482511222362518,0.5418370366096497
1789038629308626400,18.88262646484375,0.5305360555648804,0.18066325783729553,0.5564978122711182
1789038629325880300,18.89988037109375,0.5787943601608276,0.26129740476608276,0.5925388336181641
1789038629343134500,18.917134521484375,0.6050615906715393,0.2680169343948364,0.6163625717163086
1789038629360388600,18.934388671875,0.6575959324836731,0.24541492760181427,0.6933315396308899
1789038629377642500,18.951642578125,0.9153808951377869,-0.22067490220069885,0.9266818761825562
1789038629394896600,18.968896728515624,1.166446328163147,0.1824958473443985,0.10690133273601532
1789038629412150500,18.986150634765625,0.9013310074806213,0.5392408967018127,0.5852084755897522
1789038629429404700,19.00340478515625,0.8072578310966492,0.539851725101471,0.9370665550231934
1789038629446658600,19.020658447265625,0.7944296598434448,0.4079049527645111,0.7354812026023865
1789038629463912700,19.03791259765625,0.8610138893127441,0.03527744114398956,0.4831940531730652
1789038629481166800,19.055166748046876,0.7822123765945435,0.07009673118591309,0.2412915825843811
1789038629498420700,19.072420654296874,0.6319395899772644,-0.2860374450683594,0.24495677649974823
1789038629515675000,19.0896748046875,0.6178897023200989,-0.43631017208099365,0.3274235129356384
1789038629532928800,19.1069287109375,0.7840449213981628,-0.24572035670280457,0.2669478952884674
1789038629550183000,19.124182861328126,0.9556979537010193,0.16539163887500763,0.12950333952903748
1789038629567437000,19.14143701171875,1.1236857175827026,0.3529271185398102,0.11178825795650482
1789038629584691000,19.15869091796875,1.10230553150177,0.28267768025398254,0.13561198115348816
1789038629601945000,19.175945068359376,0.9489784240722656,0.3065013885498047,0.11728604137897491
1789038629619199000,19.193198974609373,0.8347467184066772,0.15439607203006744,0.08857539296150208
1789038629636453000,19.210453125,0.7040216326713562,-0.009926552884280682,0.09162971377372742
1789038629653707000,19.22770703125,0.6221657991409302,-0.16569706797599792,0.11606431007385254
1789038629670961200,19.244961181640626,0.6588176488876343,-0.13881902396678925,0.13561198115348816
1789038629688215300,19.26221533203125,0.7638863921165466,0.002290742937475443,0.15821397304534912
1789038629705469200,19.27946923828125,0.9227112531661987,0.07742711156606674,0.2406807243824005
1789038629722723300,19.296723388671875,0.9599739909172058,0.04321868345141411,0.24556763470172882
1789038629739977200,19.313977294921877,0.8481857180595398,-0.014813470654189587,0.17531819641590118
1789038629757231400,19.3312314453125,0.7437278628349304,-0.08017600327730179,0.1185077652335167
1789038629774485500,19.348485595703124,0.6343830823898315,-0.1718057245016098,0.13072505593299866
1789038629791739400,19.365739501953126,0.664926290512085,-0.20906847715377808,0.1490510106086731
1789038629808993500,19.38299365234375,0.6777544617652893,-0.16264274716377258,0.10567960888147354
1789038629826247400,19.400247314453125,0.536644697189331,-0.06123919412493706,0.09896009415388107
1789038629843501600,19.41750146484375,0.476779967546463,-0.12354740500450134,0.09712749719619751
1789038629860755500,19.43475537109375,0.45051276683807373,-0.13515383005142212,0.07819069176912308
1789038629878009600,19.452009521484374,0.42424559593200684,-0.1821904182434082,0.05925388261675835
1789038629895263700,19.469263671875,0.42302384972572327,-0.2793179154396057,0.024434590712189674
1789038629912517600,19.486517578125,0.41874781250953674,-0.2805396616458893,-0.009773836471140385
1789038629929771800,19.503771728515623,0.36254823207855225,-0.20601414144039154,-0.015271619893610477
1789038629947025700,19.521025634765625,0.2507599890232086,-0.15592323243618011,0.008552107028663158
1789038629964279800,19.53827978515625,0.23732095956802368,-0.13515383005142212,0.014049889519810677
1789038629981534000,19.555533935546876,0.14996729791164398,-0.10583232343196869,-0.01282816007733345
1789038629998787800,19.572787841796874,0.07910698652267456,-0.12904518842697144,-0.010995565913617611
1789038630016041700,19.590041748046875,0.0925460159778595,-0.1669187992811203,0.010995565913617611
1789038630033296000,19.6072958984375,0.10965022444725037,-0.21700970828533173,0.013439024798572063
1789038630050550000,19.624550048828127,0.0870482325553894,-0.21212279796600342,0.000610864779446274
1789038630067804000,19.641803955078124,0.035735588520765305,-0.15470150113105774,-0.020769402384757996
1789038630085058000,19.65905810546875,-0.06017018109560013,-0.10399972647428513,-0.0054977829568088055
1789038630102312000,19.67631201171875,-0.1328630894422531,-0.0746782198548317,0.02260199747979641
1789038630119566000,19.693566162109374,-0.17073670029640198,-0.05818486958742142,0.020158538594841957
1789038630136820200,19.7108203125,-0.17623448371887207,0.014508038759231567,-0.034208428114652634
1789038630154074000,19.72807421875,-0.18173226714134216,0.08597921580076218,-0.10629047453403473
1789038630171328300,19.745328369140626,-0.2000582218170166,0.09941824525594711,-0.1533270627260208
1789038630188582400,19.76258251953125,-0.2367101013660431,0.0694858655333519,-0.19364413619041443
1789038630205836300,19.779836181640626,-0.24220788478851318,0.03222311660647392,-0.21502439677715302
1789038630223090200,19.797090087890624,-0.22327107191085815,0.07559451460838318,-0.19608759880065918
1789038630240344300,19.81434423828125,-0.2208276242017746,0.15745039284229279,-0.15577052533626556
1789038630257598500,19.831598388671875,-0.21410810947418213,0.1928805559873581,-0.1185077652335167
1789038630274852400,19.848852294921876,-0.1750127524137497,0.22220206260681152,-0.12156209349632263
1789038630292106500,19.8661064453125,-0.1383608728647232,0.20693044364452362,-0.14538581669330597
1789038630309360400,19.8833603515625,-0.1432477980852127,0.13912445306777954,-0.143553227186203
1789038630326614500,19.900614501953125,-0.1847866028547287,0.14462223649024963,-0.12400554865598679
1789038630343868700,19.91786865234375,-0.2257145345211029,0.2539670467376709,-0.1178968995809555
1789038630361122600,19.93512255859375,-0.24526220560073853,0.393244206905365,-0.10934479534626007
1789038630378376700,19.952376708984374,-0.25320345163345337,0.42134398221969604,-0.11239911615848541
1789038630395630600,19.969630615234376,-0.25931209325790405,0.4042397737503052,-0.14599667489528656
1789038630412884700,19.986884765625,-0.2977965772151947,0.4653262495994568,-0.23029601573944092
1789038630430138600,20.004138671875,-0.3894262909889221,0.46654796600341797,-0.33719736337661743
1789038630447392800,20.021392822265625,-0.48472121357917786,0.3510945439338684,-0.41416633129119873
1789038630464647000,20.03864697265625,-0.5983420610427856,0.37491825222969055,-0.4318813979625702
1789038630481900800,20.05590087890625,-0.7370083332061768,0.46227192878723145,-0.44898560643196106
1789038630499155000,20.073155029296874,-0.8720094561576843,0.44150251150131226,-0.41233372688293457
1789038630516408800,20.090408935546876,-0.962417483329773,0.2680169343948364,-0.35613417625427246
1789038630533663000,20.1076630859375,-1.0442733764648438,0.20570871233940125,-0.4147771894931793
1789038630550917000,20.124917236328123,-0.9746347665786743,0.14950916171073914,-0.5180133581161499
1789038630568171000,20.1421708984375,-0.878728985786438,-0.011759147047996521,-0.49418962001800537
1789038630585425200,20.159425048828126,-0.8176425099372864,-0.2176205813884735,-0.4379900395870209
1789038630602679000,20.176678955078124,-0.859792172908783,-0.22739441692829132,-0.44898560643196106
1789038630619933200,20.19393310546875,-0.7626646757125854,-0.09361502528190613,-0.45020735263824463
1789038630637187000,20.21118701171875,-0.5897899270057678,-0.05757400393486023,-0.3610210716724396
1789038630654441200,20.228441162109377,-0.47983428835868835,-0.09544762223958969,-0.3066541254520416
1789038630671695400,20.2456953125,-0.5158752799034119,-0.21700970828533173,-0.42332929372787476
1789038630688949200,20.26294921875,-0.6520981788635254,-0.31291547417640686,-0.5626064538955688
1789038630706203400,20.280203369140626,-0.8414662480354309,-0.30253079533576965,-0.6194168925285339
1789038630723457300,20.297457275390624,-0.9404263496398926,-0.2750418782234192,-0.5888736248016357
1789038630740711400,20.31471142578125,-1.053436279296875,-0.27137666940689087,-0.5681042671203613
1789038630757965600,20.331965576171875,-1.017395257949829,-0.17058399319648743,-0.5180133581161499
1789038630775219500,20.349219482421876,-0.926376461982727,-0.24694208800792694,-0.40805765986442566
1789038630792473600,20.3664736328125,-0.9227112531661987,-0.42959064245224,-0.40317076444625854
1789038630809727500,20.3837275390625,-0.8994984030723572,-0.5181660652160645,-0.3689623177051544
1789038630826981600,20.400981689453126,-0.8249728679656982,-0.5273290276527405,-0.27855435013771057
1789038630844235500,20.418235595703123,-0.8439096808433533,-0.42164942622184753,-0.08063415437936783
1789038630861489700,20.43548974609375,-0.8823941946029663,-0.3159697949886322,0.06475166976451874
1789038630878743600,20.45274365234375,-0.7541125416755676,-0.1724165827035904,0.15577052533626556
1789038630895997700,20.469997802734376,-0.582459568977356,-0.07834340631961823,0.16065743565559387
1789038630913251800,20.487251953125,-0.5122101306915283,-0.014202605932950974,0.14049890637397766
1789038630930505700,20.504505615234375,-0.5555815100669861,0.002901607658714056,0.11484257876873016
1789038630947759900,20.521759765625,-0.5934551358222961,0.02000582218170166,0.06780599057674408
1789038630965013800,20.539013671875,-0.5610793232917786,-0.05085449293255806,-0.013439024798572063
1789038630982268000,20.556267822265625,-0.4889972507953644,-0.13393209874629974,-0.03848448023200035
1789038630999521800,20.573521728515626,-0.4260781705379486,-0.20051635801792145,-0.039706211537122726
1789038631016776000,20.59077587890625,-0.4120282828807831,-0.1876882016658783,-0.07024945318698883
1789038631034030000,20.608030029296874,-0.3546070158481598,-0.14309507608413696,-0.07574722915887833
1789038631051284000,20.625283935546875,-0.29413139820098877,-0.09422589093446732,-0.0769689604640007
1789038631068538000,20.6425380859375,-0.2782489061355591,0.13240493834018707,-0.0409279391169548
1789038631085792000,20.6597919921875,-0.21288637816905975,0.2808450758457184,-0.011606430634856224
1789038631103046100,20.677046142578124,-0.12003492563962936,0.39568766951560974,0.0360410213470459
1789038631120300300,20.69430029296875,-0.01802051067352295,0.3578140437602997,0.04764745384454727
1789038631137554200,20.71155419921875,0.019853105768561363,0.29672756791114807,0.04886918142437935
1789038631154808300,20.728808349609373,0.035124726593494415,0.14401137828826904,0.07757982611656189
1789038631172062200,20.746062255859375,0.035124726593494415,0.1311832070350647,0.050090912729501724
1789038631189316400,20.76331640625,0.08155044913291931,0.1623373180627823,0.06291907280683517
1789038631206570200,20.7805703125,0.1334739476442337,0.23014330863952637,0.1844811588525772
1789038631223824400,20.797824462890624,0.1750127524137497,0.32421648502349854,0.2816086709499359
1789038631241078500,20.81507861328125,0.21166464686393738,0.29856017231941223,0.30054548382759094
1789038631258332400,20.83233251953125,0.21899501979351044,0.2124282270669937,0.25534147024154663
1789038631275586600,20.849586669921877,0.19700388610363007,0.1568395346403122,0.21441353857517242
1789038631292840400,20.86684033203125,0.20922118425369263,0.0792597085237503,0.23884813487529755
1789038631310094600,20.884094482421876,0.23915356397628784,-0.008093958720564842,0.2669478952884674
1789038631327348500,20.901348388671874,0.2660316228866577,-0.0386371985077858,0.25045454502105713
1789038631344602600,20.9186025390625,0.2837466895580292,-0.045967575162649155,0.23457208275794983
1789038631361856800,20.935856689453125,0.3197877109050751,-0.010537417605519295,0.28405213356018066
1789038631379110700,20.953110595703127,0.36254823207855225,0.0639880821108818,0.35674503445625305
1789038631396364500,20.970364501953124,0.40897396206855774,0.06704241037368774,0.4618137776851654
1789038631413618700,20.98761865234375,0.4529562294483185,0.034666575491428375,0.48930269479751587
1789038631430872800,21.004872802734376,0.5482511520385742,-0.0013744457392022014,0.4831940531730652
1789038631448126700,21.022126708984374,0.6441569328308105,0.05971203371882439,0.4935787320137024
1789038631465380900,21.039380859375,0.6960803866386414,0.14523309469223022,0.573602020740509
1789038631482634800,21.056634765625,0.7699950337409973,0.08414662629365921,0.5876519083976746
1789038631499889000,21.073888916015626,0.8738420605659485,0.041386090219020844,0.4978547990322113
1789038631517142800,21.091142822265624,0.9465349912643433,0.07498364895582199,0.46364638209342957
1789038631534397000,21.10839697265625,0.9563088417053223,0.12446369975805283,0.5369501113891602
1789038631551651000,21.125651123046875,0.9740238785743713,0.02367101050913334,0.4984656572341919
1789038631568905000,21.142905029296877,0.9447023868560791,0.002290742937475443,0.42394015192985535
1789038631586159000,21.1601591796875,0.9532544612884521,-0.052076224237680435,0.4159989058971405
1789038631603413000,21.1774130859375,1.0063997507095337,-0.05696314200758934,0.4312705397605896
1789038631620667100,21.194667236328126,1.010064959526062,0.007788525894284248,0.43310311436653137
1789038631637921000,21.211921142578124,0.906828761100769,0.024281874299049377,0.40378162264823914
1789038631655175200,21.229175048828125,0.7681624889373779,-0.08750637620687485,0.3384190797805786
1789038631672429300,21.24642919921875,0.6417134404182434,-0.15347976982593536,0.2718348205089569
1789038631689683200,21.26368310546875,0.5879573225975037,-0.2084576040506363,0.2467893660068512
1789038631706937300,21.280937255859374,0.5647444725036621,-0.2701549530029297,0.1692095398902893
