time,seconds_elapsed,z,y,x
1789038610501764000,0.07576416015625,-0.6597339510917664,0.26022839546203613,0.6982184648513794
1789038610519018000,0.09301806640625,-0.5919279456138611,0.56382817029953,0.4984656572341919
1789038610536272100,0.110272216796875,-0.32681265473365784,0.7012727856636047,0.16737695038318634
1789038610553526000,0.127526123046875,0.0256563201546669,0.18264856934547424,-0.21991132199764252
1789038610570780000,0.14477978515625,0.09896009415388107,-0.36712974309921265,-0.5320632457733154
1789038610588033800,0.16203369140625,-0.024434590712189674,-0.7898481488227844,-0.38179048895835876
1789038610605287700,0.17928759765625,-0.21441353857517242,-0.7373138070106506,0.19792018830776215
1789038610622541800,0.196541748046875,-0.33108872175216675,-0.3707949221134186,0.7648026943206787
1789038610639795700,0.213795654296875,-0.04886918142437935,0.23212862014770508,0.9327905178070068
1789038610657049600,0.231049560546875,0.5827649831771851,-0.08552107214927673,0.8246674537658691
1789038610674303500,0.248303466796875,0.7703005075454712,-0.9175189137458801,0.4917461574077606
1789038610691557600,0.2655576171875,0.7018836140632629,-0.33231043815612793,0.20463970303535461
1789038610708811500,0.2828115234375,0.6982184648513794,0.794124186038971,0.0256563201546669
1789038610726065400,0.3000654296875,0.5681042671203613,0.8063415288925171,-0.02932151034474373
1789038610743319300,0.3173193359375,0.268169641494751,0.2156352698802948,0.10079269111156464
1789038610760573200,0.3345732421875,0.004886918235570192,-0.22846342623233795,0.3090975880622864
1789038610777827300,0.351827392578125,-0.1802051067352295,-0.318871408700943,0.573602020740509
1789038610795081200,0.369081298828125,-0.30970844626426697,-0.42882707715034485,0.6847794055938721
1789038610812335000,0.386335205078125,-0.2614501118659973,-0.5687150955200195,0.5668824911117554
1789038610829589000,0.403589111328125,-0.2675587832927704,-0.6065887212753296,0.3127627670764923
1789038610846843000,0.4208427734375,-0.2675587832927704,-0.5467239618301392,0.05925388261675835
1789038610864097000,0.438096923828125,-0.22235478460788727,-0.5778780579566956,-0.1331685185432434
1789038610881351000,0.455350830078125,-0.18875721096992493,-0.7415898442268372,-0.18631376326084137
1789038610898604800,0.472604736328125,-0.13194678723812103,-0.9938769936561584,-0.14233149588108063
1789038610915859000,0.48985888671875,-0.043982263654470444,-1.1801908016204834,0.001221729558892548
1789038610933112800,0.50711279296875,-0.006719512399286032,-1.1252129077911377,0.056810423731803894
1789038610950366700,0.52436669921875,0.014049889519810677,-1.2449424266815186,-0.018325943499803543
1789038610967620600,0.54162060546875,0.003665188793092966,-1.1838558912277222,-0.05864302068948746
1789038610984874500,0.55887451171875,-0.09468404203653336,-0.9505056142807007,-0.10079269111156464
1789038611002128600,0.576128662109375,-0.17776164412498474,-0.9053016304969788,-0.14049890637397766
1789038611019382500,0.593382568359375,-0.18264856934547424,-0.8674280047416687,-0.12522727251052856
1789038611036636400,0.610636474609375,-0.1795942485332489,-0.6963858604431152,-0.18203771114349365
1789038611053890300,0.627890380859375,-0.21685700118541718,-0.6768381595611572,-0.3451386094093323
1789038611071144400,0.64514453125,-0.29077163338661194,-0.8723149299621582,-0.41844236850738525
1789038611088398300,0.6623984375,-0.3390299379825592,-0.896138608455658,-0.32192572951316833
1789038611105652200,0.67965234375,-0.2889390289783478,-0.6230821013450623,-0.24495677649974823
1789038611122906000,0.696906005859375,-0.2052505612373352,-0.29565855860710144,-0.4147771894931793
1789038611140160300,0.71416015625,-0.13683371245861053,0.19669845700263977,-0.6450732350349426
1789038611157414100,0.7314140625,-0.08063415437936783,0.6291907429695129,-0.7721330523490906
1789038611174668000,0.74866796875,-0.07391463965177536,0.8057306408882141,-0.8155044913291931
1789038611191922000,0.765921875,-0.004276053514331579,0.9077450633049011,-0.8045089244842529
1789038611209175800,0.78317578125,0.026878049597144127,0.7415898442268372,-0.7513636946678162
1789038611226430000,0.800429931640625,-0.0030543238390237093,0.6133082509040833,-0.6078104376792908
1789038611243683800,0.817683837890625,0.002443459117785096,0.627968966960907,-0.379347026348114
1789038611260937700,0.834937744140625,0.004276053514331579,0.7226530313491821,-0.13927717506885529
1789038611278191600,0.852191650390625,-0.024434590712189674,0.7318159937858582,-0.002443459117785096
1789038611295445800,0.86944580078125,-0.0769689604640007,0.4935787320137024,0.05742128938436508
1789038611312699600,0.88669970703125,-0.11911863088607788,0.2706131041049957,0.13072505593299866
1789038611329953500,0.90395361328125,-0.09712749719619751,0.17043127119541168,0.21380266547203064
1789038611347207400,0.92120751953125,-0.06352993845939636,0.13561198115348816,0.26878049969673157
1789038611364461300,0.93846142578125,-0.09957095980644226,0.1185077652335167,0.2724456787109375
1789038611381715500,0.955715576171875,-0.1484401375055313,0.1331685185432434,0.19303326308727264
1789038611398969300,0.97296923828125,-0.13133592903614044,0.07330377399921417,0.09040798991918564
1789038611416223200,0.99022314453125,-0.1081230640411377,-0.02260199747979641,0.020769402384757996
1789038611433477000,1.00747705078125,-0.11728604137897491,0.004276053514331579,-0.03543015569448471
1789038611450731300,1.024731201171875,-0.11423171311616898,0.12583814561367035,-0.05497783049941063
1789038611467985200,1.041985107421875,-0.06536252796649933,0.23945899307727814,-0.0513126403093338
1789038611485239000,1.059239013671875,-0.034208428114652634,0.2309068888425827,-0.050090912729501724
1789038611502493000,1.076492919921875,-0.050090912729501724,0.10384701192378998,-0.04459312930703163
1789038611519747000,1.0937470703125,-0.07880155742168427,-0.013439024798572063,0.006719512399286032
1789038611537001000,1.1110009765625,-0.06841685622930527,-0.03176496922969818,0.07391463965177536
1789038611554254800,1.1282548828125,-0.029932374134659767,-0.04153880476951599,0.05497783049941063
1789038611571508700,1.1455087890625,0.001832594396546483,0.031154103577136993,-0.05436696484684944
1789038611588762600,1.1627626953125,0.0665842592716217,0.17348559200763702,-0.12583814561367035
1789038611606016800,1.180016845703125,0.06291907280683517,0.20952661335468292,-0.06963858753442764
1789038611623270700,1.197270751953125,-0.011606430634856224,0.1337793916463852,0.05558869615197182
1789038611640524500,1.214524658203125,-0.0818558782339096,0.012217295356094837,0.1698204129934311
1789038611657778700,1.23177880859375,-0.07880155742168427,-0.04581485688686371,0.21258094906806946
1789038611675032600,1.249032470703125,-0.09101885557174683,-0.13561198115348816,0.11178825795650482
1789038611692286500,1.266286376953125,-0.1233946830034256,-0.06719512492418289,-0.009773836471140385
1789038611709540400,1.283540283203125,-0.14294235408306122,0.014049889519810677,-0.09468404203653336
1789038611726794200,1.300794189453125,-0.16004657745361328,0.004276053514331579,-0.08124501258134842
1789038611744048400,1.31804833984375,-0.27916520833969116,-0.268169641494751,-0.03176496922969818
1789038611761302300,1.33530224609375,-0.5229002237319946,-0.8258891701698303,-0.039706211537122726
1789038611778556200,1.35255615234375,-0.6798924803733826,-0.8564324378967285,-0.12522727251052856
1789038611795810000,1.36981005859375,-0.6798924803733826,-0.5699368119239807,-0.34574946761131287
1789038611813064200,1.387064208984375,-0.5418370366096497,-0.6420188546180725,-0.4990765154361725
1789038611830318000,1.404318115234375,-0.33047783374786377,-0.7226530313491821,-0.40927940607070923
1789038611847572000,1.421572021484375,-0.4147771894931793,-0.7666352987289429,-0.20463970303535461
1789038611864825900,1.438825927734375,-0.7452550530433655,0.43860089778900146,-0.018325943499803543
1789038611882080000,1.456080078125,-0.6530144214630127,1.0482439994812012,0.12644900381565094
1789038611899334000,1.473333984375,-0.268169641494751,0.5314523577690125,0.14233149588108063
1789038611916587800,1.490587890625,-0.01588248461484909,-0.3231474757194519,0.2211330533027649
1789038611933841700,1.507841552734375,0.1386663019657135,-0.695164144039154,0.7018836140632629
1789038611951095600,1.525095458984375,-0.3127627670764923,-1.221118688583374,1.1728603839874268
1789038611968349700,1.542349609375,-0.8112284541130066,-1.72141695022583,1.2742639780044556
1789038611985603600,1.559603515625,-0.7293725609779358,-2.145967960357666,1.0702351331710815
1789038612002857500,1.576857421875,-0.3127627670764923,-2.483776092529297,1.0238093137741089
1789038612020111400,1.594111328125,-0.06108647957444191,-3.2259769439697266,1.3267983198165894
1789038612037365500,1.611365478515625,-0.20708316564559937,-3.574169874191284,1.472795009613037
1789038612054619400,1.628619384765625,0.07880155742168427,-3.825235366821289,1.265711784362793
1789038612071873300,1.645873291015625,0.7061597108840942,-3.8551676273345947,1.221118688583374
1789038612089127200,1.663127197265625,1.4648537635803223,-4.1062331199646,1.5919135808944702
1789038612106381000,1.680381103515625,1.7263038158416748,-4.590648651123047,2.227212905883789
1789038612123635200,1.69763525390625,1.6340632438659668,-4.703658580780029,2.760498046875
1789038612140889000,1.71488916015625,2.0689990520477295,-3.8466155529022217,2.913825035095215
1789038612158143000,1.73214306640625,3.568671941757202,-2.764163017272949,2.948033332824707
1789038612175396900,1.74939697265625,5.2039570808410645,-1.941939115524292,3.0024003982543945
1789038612192651000,1.766651123046875,6.043285369873047,-1.2699878215789795,2.9938483238220215
1789038612209905000,1.78390478515625,6.064054489135742,-0.3555232882499695,2.8680100440979004
1789038612227158800,1.80115869140625,6.010909557342529,0.28588470816612244,2.626718521118164
1789038612244412700,1.81841259765625,5.946768760681152,0.4819723069667816,2.175900459289551
1789038612270293800,1.844293701171875,5.196626663208008,-0.29138249158859253,0.833219587802887
1789038612287547600,1.861547607421875,4.885085582733154,-0.5302306413650513,0.13255766034126282
1789038612304801500,1.878801513671875,4.5136799812316895,-0.3860665261745453,-0.7061597108840942
1789038612322055700,1.8960556640625,4.068359375,0.1185077652335167,-1.814879298210144
1789038612339309600,1.9133095703125,3.4129016399383545,0.794124186038971,-2.7989823818206787
1789038612356563500,1.9305634765625,2.844186305999756,1.1032217741012573,-2.97857666015625
1789038612373817300,1.9478173828125,2.81119966506958,1.2626575231552124,-2.724457025527954
1789038612391071200,1.9650712890625,3.238194227218628,0.9859357476234436,-2.572962522506714
1789038612408325400,1.982325439453125,3.6260933876037598,0.34147340059280396,-2.054338216781616
1789038612425579300,1.999579345703125,3.5301876068115234,-0.5699368119239807,-1.2192860841751099
1789038612442833200,2.016833251953125,2.987128734588623,-1.7678426504135132,-0.4990765154361725
1789038612460087000,2.034087158203125,2.3341143131256104,-3.1251842975616455,0.16249002516269684
1789038612477341200,2.051341064453125,1.9871431589126587,-3.754985809326172,0.5729911923408508
1789038612494595000,2.068594970703125,2.0531165599823,-3.5839436054229736,0.3958403766155243
1789038612511849000,2.085848876953125,1.8545855283737183,-3.305389404296875,-0.11606431007385254
1789038612529102800,2.103102783203125,1.3267983198165894,-3.380525588989258,-0.3274235129356384
1789038612546357000,2.12035693359375,0.9291253089904785,-4.13494348526001,-0.23212862014770508
1789038612563611000,2.13761083984375,0.46425724029541016,-4.327365875244141,0.12705987691879272
1789038612580864800,2.15486474609375,-0.01588248461484909,-3.2895069122314453,0.2156352698802948
1789038612598118700,2.17211865234375,-0.4172206521034241,-1.508836030960083,-0.40317076444625854
1789038612615372800,2.189372802734375,-0.6780598759651184,-0.0977383628487587,-1.0677915811538696
1789038612632626700,2.206626708984375,-0.7464767694473267,0.66645348072052,-1.6065744161605835
1789038612649880600,2.223880615234375,-0.8936951756477356,1.2052361965179443,-1.9394956827163696
1789038612667134500,2.241134521484375,-0.9388991594314575,1.53510320186615,-2.109316110610962
1789038612684388400,2.258388427734375,-1.1081087589263916,0.5809323787689209,-1.5821397304534912
1789038612701642500,2.275642578125,-1.2626575231552124,-0.5632173418998718,-0.481361448764801
1789038612718896400,2.292896484375,-0.8203914165496826,-1.5326597690582275,0.31093016266822815
1789038612736150300,2.310150390625,-0.5283980369567871,-1.581528902053833,0.4269944727420807
1789038612753404200,2.327404052734375,-0.6414080262184143,-1.2583814859390259,-0.1539379209280014
1789038612770658300,2.344658203125,-0.8979712128639221,-1.601076602935791,-0.42821621894836426
1789038612787912200,2.361912109375,-1.065959095954895,-1.5766420364379883,-0.1997527778148651
1789038612805166000,2.379166015625,-1.1728603839874268,-0.8387173414230347,-0.10690133273601532
1789038612822420000,2.396419921875,-1.433699607849121,-0.31459537148475647,-0.033597562462091446
1789038612839674000,2.413674072265625,-2.0433425903320312,-0.9669989347457886,0.2779434621334076
1789038612856928000,2.430927978515625,-3.121519088745117,-2.4202463626861572,0.6126973628997803
1789038612874182000,2.448181884765625,-3.872882604598999,-3.4183993339538574,0.8594867587089539
1789038612891435800,2.465435791015625,-3.3957972526550293,-2.6138904094696045,0.9847140312194824
1789038612908689700,2.482689697265625,-1.990808367729187,-0.657290518283844,0.8026763200759888
1789038612925943800,2.49994384765625,-1.5851941108703613,0.1026252806186676,0.7800742983818054
1789038612943197700,2.51719775390625,-1.7837251424789429,-0.6322450637817383,0.5479456782341003
1789038612960451600,2.53445166015625,-1.4373648166656494,-1.0348049402236938,0.28405213356018066
1789038612977705500,2.55170556640625,-1.3286309242248535,-0.4990765154361725,-0.16676609218120575
1789038612994959600,2.568959716796875,-1.0091485977172852,0.11117739230394363,-0.4978547990322113
1789038613012213500,2.586213623046875,-0.9138537049293518,0.07941242307424545,-0.8032872080802917
1789038613029467400,2.60346728515625,-0.9053016304969788,-0.23396120965480804,-0.9474512934684753
1789038613046721300,2.62072119140625,-0.9425643682479858,0.20708316564559937,-1.2730422019958496
1789038613063975200,2.63797509765625,-0.8197805285453796,0.3707949221134186,-1.4398082494735718
1789038613081229000,2.65522900390625,-0.5864301919937134,0.027488915249705315,-1.4159845113754272
1789038613098483200,2.672483154296875,-0.49113526940345764,-0.42088583111763,-1.2424989938735962
1789038613115737000,2.689737060546875,-0.43860089778900146,-0.6792816519737244,-1.1111630201339722
1789038613132991000,2.706990966796875,-0.20891575515270233,-0.7757982611656189,-1.0470222234725952
1789038613150244900,2.724244873046875,0.143553227186203,-0.9883792400360107,-0.6927206516265869
1789038613167499000,2.7414990234375,0.7837395071983337,-1.2724313735961914,-0.08002328872680664
1789038613184753000,2.7587529296875,1.3891065120697021,-1.4758492708206177,0.7452550530433655
1789038613202006800,2.7760068359375,1.5412118434906006,-2.0580034255981445,1.6200133562088013
1789038613219260700,2.7932607421875,1.497840404510498,-2.1691808700561523,1.5008947849273682
1789038613236514600,2.8105146484375,1.3829978704452515,-1.5021164417266846,0.6462949514389038
1789038613253768700,2.827768798828125,1.1380411386489868,-0.5106829404830933,-0.10567960888147354
1789038613271022600,2.845022705078125,1.0067051649093628,-0.16187916696071625,0.04459312930703163
1789038613288276500,2.8622763671875,1.0293071269989014,0.07880155742168427,0.31154105067253113
1789038613305530600,2.879530517578125,0.9028581380844116,0.2254091054201126,0.1740964651107788
1789038613322784500,2.896784423828125,0.49052441120147705,0.4929678738117218,0.2608392536640167
1789038613340038400,2.914038330078125,0.24251331388950348,0.8857539296150208,0.4453204274177551
1789038613357292300,2.931292236328125,0.18814635276794434,1.6865977048873901,0.5070177912712097
1789038613374546400,2.94854638671875,0.17165300250053406,0.5088503360748291,0.6401863098144531
1789038613391800300,2.96580029296875,0.2003636509180069,0.09834922850131989,0.8558215498924255
1789038613409054200,2.98305419921875,0.7238747477531433,-0.3347539007663727,0.8142827749252319
1789038613426308000,3.00030810546875,0.9938769936561584,0.7336485981941223,0.5149590373039246
1789038613443562200,3.017562255859375,1.0311397314071655,1.6725478172302246,0.04520399495959282
1789038613460816100,3.034816162109375,1.2980875968933105,2.1276419162750244,-0.49052441120147705
1789038613478070000,3.052070068359375,1.2712095975875854,1.9944734573364258,-0.8875865340232849
1789038613495324200,3.06932421875,0.972496747970581,1.4489712715148926,-1.0604612827301025
1789038613512578000,3.086578125,0.6407971382141113,0.472198486328125,-1.0195332765579224
1789038613529832000,3.10383203125,0.08124501258134842,0.27000224590301514,-0.5827649831771851
1789038613547085800,3.1210859375,-0.6133082509040833,0.6346884965896606,-0.11484257876873016
1789038613564340000,3.138340087890625,-0.823445737361908,2.000582218170166,0.04459312930703163
1789038613581593900,3.15559375,-1.26021409034729,2.634659767150879,-0.21991132199764252
1789038613598847700,3.17284765625,-1.4917317628860474,2.023184061050415,-0.11239911615848541
1789038613616101600,3.1901015625,-1.3848304748535156,1.4453060626983643,0.033597562462091446
1789038613633355800,3.207355712890625,-0.8790343999862671,0.9217949509620667,-0.3805687427520752
1789038613650609700,3.224609619140625,-0.29626941680908203,-0.03909534588456154,-0.4917461574077606
1789038613667863600,3.241863525390625,0.03787361457943916,-0.42394015192985535,-0.4111120104789734
1789038613685117700,3.25911767578125,0.3298669755458832,-0.7855721116065979,-0.6310232877731323
1789038613702371600,3.27637158203125,1.0677915811538696,-0.9584468603134155,-0.934012234210968
1789038613719625500,3.29362548828125,1.8106032609939575,-1.1997383832931519,-1.0519092082977295
1789038613736879600,3.310879638671875,2.107483386993408,-1.1325433254241943,-1.0323615074157715
1789038613754133500,3.328133544921875,2.036623239517212,-1.1575887203216553,-0.5913171172142029
1789038613771387400,3.345387451171875,1.673769474029541,-0.6860011219978333,-0.033597562462091446
1789038613788641500,3.3626416015625,1.0861176252365112,-0.06230820715427399,0.31154105067253113
1789038613805895400,3.3798955078125,0.5033525824546814,0.6823359727859497,0.3170388340950012
1789038613823149300,3.3971494140625,0.2724456787109375,0.8637627959251404,0.24251331388950348
1789038613840403200,3.4144033203125,0.18692462146282196,-0.5626064538955688,0.05742128938436508
1789038613857657300,3.4316572265625,0.02260199747979641,-1.6841541528701782,0.3042106628417969
1789038613874911200,3.4489111328125,0.08063415437936783,-1.6022982597351074,0.18142683804035187
1789038613892165000,3.4661650390625,0.7806851863861084,-0.5271763205528259,-0.04276053607463837
1789038613909419300,3.483419189453125,1.352454662322998,1.056185245513916,0.04459312930703163
1789038613926673200,3.500673095703125,0.9022472500801086,1.3933825492858887,-0.6420188546180725
1789038613943927300,3.51792724609375,0.37262752652168274,-0.7287616729736328,-0.9926552772521973
1789038613961181200,3.53518115234375,0.5137372612953186,-1.5137228965759277,-1.0787872076034546
1789038613978435000,3.55243505859375,0.8112284541130066,-0.6298015713691711,-1.3909391164779663
1789038613995689200,3.569689208984375,0.6560688018798828,0.7605266571044922,-1.858250617980957
1789038614012943000,3.586943115234375,-0.053756099194288254,0.6224712133407593,-1.3573415279388428
1789038614030197000,3.604197021484375,-0.6053670048713684,0.3488037884235382,-0.25473061203956604
1789038614047451100,3.621451171875,-0.12767073512077332,-0.020158538594841957,0.7141009569168091
1789038614064705000,3.638705078125,-0.03909534588456154,0.31520622968673706,1.0299180746078491
1789038614081959000,3.655958984375,0.2003636509180069,0.35613417625427246,0.7770199775695801
1789038614099213000,3.673213134765625,0.328645259141922,0.43921178579330444,0.7745765447616577
1789038614116467000,3.690467041015625,0.5937605500221252,0.49113526940345764,0.9071341753005981
1789038614133720800,3.707720947265625,0.8747583627700806,0.5778780579566956,0.8570432662963867
1789038614150975000,3.72497509765625,1.3390156030654907,0.13255766034126282,0.8717040419578552
1789038614168228900,3.742228759765625,0.8014546036720276,-0.750141978263855,0.6328558921813965
1789038614185483000,3.75948291015625,0.14110976457595825,-0.7446441650390625,0.49418962001800537
1789038614202737000,3.77673681640625,-0.2205221801996231,-0.3042106628417969,0.06719512492418289
1789038614219991000,3.793990966796875,-0.3396408259868622,0.21868959069252014,0.27916520833969116
1789038614237245000,3.811244873046875,-0.34697118401527405,0.3964512348175049,0.6963858604431152
1789038614254498800,3.828498779296875,-0.19608759880065918,0.48930269479751587,0.06719512492418289
1789038614271753000,3.8457529296875,-0.16615521907806396,0.3909534513950348,-0.5992583632469177
1789038614289006800,3.8630068359375,-0.3995055556297302,0.8765909671783447,-1.0586286783218384
1789038614306261000,3.880260986328125,-0.5137372612953186,0.5204567909240723,-0.7079922556877136
1789038614323515000,3.897514892578125,-0.06780599057674408,-0.768467903137207,0.12767073512077332
1789038614340768800,3.914768798828125,-0.15027274191379547,-0.9028581380844116,0.5858193039894104
1789038614358023000,3.93202294921875,0.5076286196708679,-1.5693116188049316,0.32192572951316833
1789038614375276800,3.94927685546875,0.9224058389663696,-1.5381574630737305,0.564439058303833
1789038614392531000,3.966531005859375,0.4520399272441864,-0.9456186890602112,0.6872228980064392
1789038614409784800,3.983784912109375,0.337808221578598,-0.17531819641590118,-0.0030543238390237093
1789038614427038700,4.001038818359375,0.4214966893196106,-0.4221075773239136,-0.3072649836540222
1789038614444292900,4.01829296875,0.14538581669330597,-1.0720677375793457,-0.010995565913617611
1789038614461546800,4.035546630859375,-0.0873536616563797,-1.053741693496704,0.4819723069667816
1789038614478801000,4.05280078125,0.26878049969673157,-0.9395100474357605,0.3078758418560028
1789038614496054800,4.0700546875,0.9896009564399719,-1.3500111103057861,0.22418737411499023
1789038614513309000,4.087308837890625,0.7434224486351013,-1.3939933776855469,0.3805687427520752
1789038614530562800,4.104562744140625,0.21991132199764252,-1.0421353578567505,0.4984656572341919
1789038614547817000,4.12181689453125,0.6621774435043335,-1.8784091472625732,0.5815432667732239
1789038614565070800,4.13907080078125,0.7012727856636047,-1.9425499439239502,0.462424635887146
1789038614582324700,4.15632470703125,0.6114756464958191,-0.9651663303375244,0.41294458508491516
1789038614599579000,4.173578857421875,0.7635809779167175,-0.5534434914588928,0.43860089778900146
1789038614616832800,4.190832763671875,0.4557051360607147,-0.379347026348114,0.2974911332130432
1789038614634086700,4.208086669921875,0.33597561717033386,-0.06902772188186646,0.3799578845500946
1789038614651340800,4.2253408203125,0.49418962001800537,0.10629047453403473,0.46914416551589966
1789038614668594700,4.2425947265625,0.4819723069667816,0.1802051067352295,0.05192350596189499
1789038614685848800,4.259848876953125,0.4630354940891266,-0.360410213470459,-0.3231474757194519
1789038614703102700,4.277102783203125,0.35246896743774414,-0.14233149588108063,-0.5064069032669067
1789038614720356600,4.294356689453125,0.30054548382759094,0.28588470816612244,-0.3952295184135437
1789038614737610800,4.31161083984375,0.12034036219120026,0.31031930446624756,-0.2718348205089569
1789038614754864600,4.32886474609375,0.037262752652168274,0.42821621894836426,-0.2767217457294464
1789038614772118500,4.346118408203125,0.3811796307563782,0.6988292932510376,-0.4783071279525757
1789038614789372700,4.36337255859375,0.7513636946678162,0.748920202255249,-0.5803215503692627
1789038614806626600,4.38062646484375,0.8197805285453796,0.5900954008102417,-0.49602219462394714
1789038614823880700,4.397880615234375,0.8717040419578552,0.4508182108402252,-0.3243691921234131
1789038614841134600,4.415134521484375,0.749531090259552,0.0409279391169548,-0.28588470816612244
1789038614858388500,4.432388427734375,0.6505709886550903,-0.16798780858516693,-0.18631376326084137
1789038614875642600,4.449642578125,0.5925388336181641,-0.4453204274177551,-0.056810423731803894
1789038614892896500,4.466896484375,0.4923570156097412,-0.6004800796508789,-0.007941242307424545
1789038614910150400,4.484150390625,0.7104357481002808,-0.4098902642726898,0.17287473380565643
1789038614927404500,4.501404541015625,1.0775654315948486,-0.17592905461788177,0.5039634704589844
1789038614944658400,4.518658447265625,1.2803726196289062,-0.4263836145401001,0.7141009569168091
1789038614961912600,4.53591259765625,1.5228859186172485,-1.5125012397766113,0.6462949514389038
1789038614979166500,4.55316650390625,1.0152572393417358,-0.7971785664558411,0.7959567904472351
1789038614996420400,4.57042041015625,0.48013970255851746,-0.185092031955719,0.8539889454841614
1789038615013674200,4.58767431640625,0.12217295914888382,-0.34208428859710693,0.7764091491699219
1789038615030928400,4.604928466796875,-0.06780599057674408,-0.8753692507743835,0.3634645342826843
1789038615048182300,4.622182373046875,-0.6450732350349426,-1.5424336194992065,-0.11484257876873016
1789038615065436200,4.639436279296875,-0.8979712128639221,-1.0873392820358276,-0.37323838472366333
1789038615082690300,4.656690185546875,-0.8912517428398132,-0.1130099818110466,-0.5601630210876465
1789038615099944200,4.673944091796875,-0.7269290685653687,0.665842592716217,-0.5369501113891602
1789038615117198000,4.691197998046875,-0.6780598759651184,0.6175842881202698,-0.3237583339214325
1789038615134452000,4.708451904296875,-0.39889469742774963,0.8710931539535522,-0.1997527778148651
1789038615151706000,4.7257060546875,-0.35124725103378296,0.6071996092796326,-0.49480047821998596
1789038615168960000,4.7429599609375,-0.6108647584915161,1.451414704322815,-0.411722868680954
1789038615186214100,4.760214111328125,-0.8759800791740417,1.9187263250350952,-0.36712974309921265
1789038615203468000,4.777468017578125,-0.637742817401886,0.19120067358016968,-0.7159335017204285
1789038615220722000,4.794721923828125,-1.0225876569747925,0.638353705406189,-0.4471530318260193
1789038615237975800,4.811975830078125,-1.1655299663543701,0.4172206521034241,-0.5009090900421143
1789038615255230000,4.82922998046875,-0.6713404059410095,0.5968148708343506,-0.5668824911117554
1789038615272483800,4.84648388671875,0.009162971749901772,1.1142174005508423,-0.7073814272880554
1789038615289737700,4.86373779296875,0.32192572951316833,1.5693116188049316,-0.6914989352226257
1789038615306991900,4.880991943359375,0.5797106623649597,2.003025531768799,-0.5161807537078857
1789038615324245800,4.898245849609375,0.7263182401657104,2.0079126358032227,-0.42821621894836426
1789038615341499600,4.915499755859375,0.3243691921234131,1.2620465755462646,-0.573602020740509
1789038615358753800,4.93275390625,0.059864748269319534,0.5393936038017273,-0.5320632457733154
1789038615376007700,4.950007568359375,0.25473061203956604,-0.07757982611656189,-0.0769689604640007
1789038615393261600,4.967261474609375,0.758083164691925,-0.721431314945221,0.41355544328689575
1789038615410515700,4.984515625,1.0152572393417358,-0.38240134716033936,0.8118392825126648
1789038615427769600,5.00176953125,1.2266165018081665,-0.11545344442129135,0.6707295179367065
1789038615445023500,5.0190234375,1.1227694749832153,-0.25961753726005554,0.4105011224746704
1789038615462277600,5.036277587890625,1.0250310897827148,-0.5088503360748291,0.4202749729156494
1789038615479531500,5.053531494140625,1.1691951751708984,0.025045456364750862,0.6792816519737244
1789038615496785400,5.070785400390625,1.4715732336044312,0.26939135789871216,0.7281508445739746
1789038615514039600,5.08803955078125,1.7189735174179077,-0.01954767294228077,0.3799578845500946
1789038615531293400,5.10529345703125,1.5131120681762695,-0.2577849328517914,-0.08857539296150208
1789038615548547300,5.12254736328125,1.1239912509918213,-0.49663305282592773,-0.6236929297447205
1789038615565801200,5.13980126953125,0.7098248600959778,-0.5748237371444702,-0.44898560643196106
1789038615583055400,5.157055419921875,0.7244856357574463,-0.952949047088623,0.01954767294228077
1789038615600309200,5.174309326171875,0.7654135823249817,-1.4953969717025757,0.3756818473339081
1789038615617563100,5.191563232421875,0.7757982611656189,-1.3041963577270508,0.33047783374786377
1789038615634817000,5.208817138671875,0.7141009569168091,-0.4056142270565033,0.18081597983837128
1789038615652071000,5.22607080078125,0.8301652073860168,0.9737184643745422,-0.06597339361906052
1789038615669325000,5.243324951171875,0.9327905178070068,1.2999202013015747,-0.40927940607070923
1789038615686579000,5.260578857421875,1.0879502296447754,1.463021159172058,-0.5577195286750793
1789038615703832800,5.277832763671875,0.9395100474357605,1.5919135808944702,-0.8093958497047424
1789038615721087000,5.2950869140625,0.5131264328956604,1.7458515167236328,-0.7415898442268372
1789038615738340900,5.3123408203125,0.11484257876873016,0.8222240209579468,-0.5540543794631958
1789038615755594800,5.3295947265625,0.26389357447624207,0.4526508152484894,-0.17531819641590118
1789038615772848600,5.3468486328125,0.3329212963581085,0.19242240488529205,-0.011606430634856224
1789038615790102800,5.364102783203125,-0.1496618688106537,0.36651885509490967,0.14049890637397766
1789038615807356700,5.381356689453125,-0.21746785938739777,2.0751075744628906,-0.43921178579330444
1789038615824610600,5.398610595703125,0.3451386094093323,0.3347539007663727,-0.5308414697647095
1789038615841864700,5.41586474609375,0.19792018830776215,0.29443681240081787,-0.10751219838857651
1789038615859118600,5.43311865234375,0.18692462146282196,0.33047783374786377,-0.20463970303535461
1789038615876372500,5.45037255859375,0.337808221578598,0.1954767256975174,0.027488915249705315
1789038615893626600,5.467626708984375,0.6126973628997803,0.3066541254520416,-0.4612029194831848
1789038615910880500,5.484880615234375,0.9871574640274048,0.06230820715427399,-1.1136064529418945
1789038615928134700,5.502134765625,0.8888082504272461,0.024434590712189674,-0.9505056142807007
1789038615945388500,5.519388427734375,1.933387041091919,-0.18203771114349365,-0.646905779838562
1789038615962642400,5.536642333984375,2.079383611679077,0.4257727563381195,-0.10567960888147354
1789038615979896300,5.553896240234375,2.296851634979248,0.648127555847168,-0.41233372688293457
1789038615997150500,5.571150390625,2.724457025527954,-0.08368847519159317,-0.46486809849739075
1789038616014404400,5.588404296875,2.560134172439575,0.03543015569448471,-0.6878337264060974
1789038616031658500,5.605658447265625,2.472780704498291,-0.2724456787109375,-0.6585122346878052
1789038616048912400,5.622912353515625,2.4935500621795654,-0.952949047088623,-0.38301220536231995
1789038616066166300,5.640166259765625,2.361603260040283,-1.232114315032959,0.1539379209280014
1789038616083420400,5.65742041015625,2.1661264896392822,-1.036637544631958,0.411722868680954
1789038616100674300,5.67467431640625,1.9107850790023804,-0.850934624671936,0.17837251722812653
1789038616117928200,5.69192822265625,1.6707152128219604,-0.7715222239494324,0.12705987691879272
1789038616135182300,5.709182373046875,1.3823870420455933,-0.8210022449493408,0.22235478460788727
1789038616152436200,5.726436279296875,1.0610721111297607,-0.7024945020675659,0.06291907280683517
1789038616169690400,5.7436904296875,0.7128791809082031,-0.3915643095970154,-0.4056142270565033
1789038616186944300,5.7609443359375,0.37323838472366333,-0.2559523284435272,-0.7000510096549988
1789038616204198100,5.7781982421875,0.007941242307424545,-0.3646862804889679,-0.5180133581161499
1789038616221452300,5.795452392578125,-0.4062250852584839,-0.5345066785812378,-0.05558869615197182
1789038616238706200,5.8127060546875,-0.8112284541130066,-0.8888082504272461,0.40744680166244507
1789038616255960300,5.829960205078125,-0.544891357421875,-0.8698714375495911,0.13011419773101807
1789038616273214200,5.847214111328125,-0.5821541547775269,-0.017715077847242355,-0.24495677649974823
1789038616290468000,5.864468017578125,-0.5320632457733154,0.4098902642726898,-0.4410443603992462
1789038616307722200,5.88172216796875,-0.5705476999282837,0.41905322670936584,-0.31154105067253113
1789038616324976000,5.89897607421875,-0.5149590373039246,0.3952295184135437,-0.2608392536640167
1789038616342230000,5.91622998046875,-0.24801109731197357,0.07635809481143951,-0.24862197041511536
1789038616359484200,5.933484130859375,-0.20830489695072174,0.10995566099882126,-0.328645259141922
1789038616376738000,5.950738037109375,-0.06597339361906052,0.04886918142437935,-0.1386663019657135
1789038616393992200,5.9679921875,0.01282816007733345,0.12278381735086441,0.11423171311616898
1789038616411246000,5.98524609375,-0.053145237267017365,0.29138249158859253,0.13011419773101807
1789038616428500000,6.0025,-0.09285144507884979,0.2816086709499359,0.06475166976451874
1789038616445754000,6.019754150390625,-0.25534147024154663,0.19792018830776215,0.036651886999607086
1789038616463008000,6.037008056640625,-0.28466299176216125,0.5558869242668152,-0.22907429933547974
1789038616480262000,6.054261962890625,-0.4355465769767761,0.6224712133407593,-0.21807873249053955
1789038616497516000,6.07151611328125,-0.5479456782341003,0.45875945687294006,-0.09712749719619751
1789038616514770000,6.08877001953125,-0.564439058303833,0.1692095398902893,0.11423171311616898
1789038616532024000,6.106024169921875,-0.7531962990760803,0.1386663019657135,0.29443681240081787
1789038616549278000,6.12327783203125,-1.018311619758606,0.09040798991918564,0.35613417625427246
1789038616566531800,6.14053173828125,-1.183245062828064,0.07391463965177536,0.3744601011276245
1789038616583786000,6.157785888671875,-1.0769546031951904,-0.18081597983837128,0.38240134716033936
1789038616601040000,6.175039794921875,-1.1600322723388672,-0.2987128794193268,0.4819723069667816
1789038616618293800,6.192293701171875,-1.4911209344863892,-0.19181154668331146,0.5821541547775269
1789038616635548000,6.2095478515625,-1.546709656715393,-0.40805765986442566,0.5558869242668152
1789038616652801800,6.2268017578125,-1.444695234298706,-0.6041452884674072,0.5064069032669067
1789038616670056000,6.244055908203125,-1.0855066776275635,-0.5974257588386536,0.29443681240081787
1789038616687309800,6.261309814453125,-0.4825831651687622,0.6499601006507874,-0.5864301919937134
1789038616704563700,6.278563720703125,0.04581485688686371,0.656679630279541,-1.1392627954483032
1789038616721817900,6.29581787109375,0.05803215503692627,-0.0922405794262886,-0.10751219838857651
1789038616739071700,6.31307177734375,0.046425722539424896,-0.06780599057674408,0.3243691921234131
1789038616756325600,6.33032568359375,0.18875721096992493,-0.09896009415388107,0.3133736252784729
1789038616773579800,6.347579833984375,0.4990765154361725,-0.2834412455558777,0.031154103577136993
1789038616790833700,6.364833740234375,0.5693259835243225,-0.185092031955719,-0.1539379209280014
1789038616808087800,6.382087890625,0.573602020740509,-0.23762640357017517,-0.19242240488529205
1789038616825341700,6.399341796875,0.5668824911117554,-0.18264856934547424,-0.1496618688106537
1789038616842595600,6.416595703125,0.5027416944503784,-0.08918625861406326,-0.06475166976451874
1789038616859849700,6.433849609375,0.2834412455558777,-0.0054977829568088055,0.07574722915887833
1789038616877103600,6.451103515625,0.06414080411195755,-0.030543239787220955,0.15577052533626556
1789038616894357500,6.468357421875,-0.12156209349632263,-0.11667517572641373,0.2156352698802948
1789038616911611600,6.485611572265625,-0.1997527778148651,-0.07330377399921417,0.3121519088745117
1789038616928865500,6.502865478515625,-0.11728604137897491,0.08674279600381851,0.40927940607070923
1789038616946119700,6.52011962890625,0.001832594396546483,0.056810423731803894,0.3836230933666229
1789038616963373600,6.53737353515625,0.11728604137897491,0.11056652665138245,0.15210533142089844
1789038616980627500,6.55462744140625,0.06719512492418289,-0.2657261788845062,0.0409279391169548
1789038616997881300,6.57188134765625,-0.10384701192378998,-0.3194822669029236,0.04581485688686371
1789038617015135500,6.589135498046875,-0.15638138353824615,-0.28405213356018066,0.04276053607463837
1789038617032389400,6.606389404296875,-0.04825831577181816,-0.17348559200763702,0.053145237267017365
1789038617049643500,6.6236435546875,0.021991131827235222,-0.08063415437936783,0.0818558782339096
1789038617066897400,6.6408974609375,-0.010384701192378998,0.009773836471140385,0.05925388261675835
1789038617084151300,6.6581513671875,-0.0513126403093338,0.029932374134659767,0.012217295356094837
1789038617101405400,6.675405517578125,-0.13439024984836578,0.04520399495959282,0.03298669680953026
1789038617118659300,6.692659423828125,-0.13561198115348816,0.027488915249705315,0.0720820426940918
1789038617135913200,6.709913330078125,-0.0769689604640007,0.03909534588456154,0.028099779039621353
1789038617153167400,6.72716748046875,-0.037262752652168274,0.06352993845939636,-0.007330377586185932
1789038617170421200,6.744421142578125,-0.03909534588456154,0.1130099818110466,-0.03848448023200035
1789038617187675400,6.76167529296875,-0.021380268037319183,0.1130099818110466,-0.0256563201546669
1789038617204929300,6.77892919921875,-0.02871064469218254,0.13194678723812103,0.006719512399286032
1789038617222183200,6.79618310546875,-0.043982263654470444,0.10690133273601532,0.010384701192378998
1789038617239437300,6.813437255859375,-0.07880155742168427,0.04153880476951599,0.030543239787220955
1789038617256691200,6.830691162109375,-0.10445787757635117,-0.06291907280683517,0.10140355676412582
1789038617273945000,6.847945068359375,-0.056199558079242706,-0.09040798991918564,0.10140355676412582
1789038617291199200,6.86519921875,-0.0256563201546669,-0.06780599057674408,0.06841685622930527
1789038617308453000,6.882453125,-0.01954767294228077,-0.09590577334165573,0.06475166976451874
1789038617325707300,6.899707275390625,-0.04764745384454727,-0.03481929376721382,0.05070177838206291
1789038617342961200,6.916961181640625,-0.040317077189683914,0.1233946830034256,0.01649334840476513
1789038617360215300,6.93421533203125,-0.013439024798572063,0.1954767256975174,-0.01649334840476513
1789038617377469200,6.95146923828125,0.023823726922273636,0.1997527778148651,-0.021991131827235222
1789038617394723000,6.96872314453125,0.03481929376721382,0.2712239623069763,0.037262752652168274
1789038617411977200,6.985977294921875,0.03176496922969818,0.32192572951316833,0.06291907280683517
1789038617429231000,7.003231201171875,0.08796452730894089,0.32131487131118774,0.015271619893610477
1789038617446485000,7.020485107421875,0.11056652665138245,0.28588470816612244,0.007330377586185932
1789038617463739100,7.0377392578125,0.09162971377372742,0.2559523284435272,0.0818558782339096
1789038617480993000,7.054992919921875,0.07147117704153061,0.22968515753746033,0.06841685622930527
1789038617498247200,7.0722470703125,0.05497783049941063,0.11911863088607788,0.01893680728971958
1789038617515501000,7.0895009765625,0.04459312930703163,-0.002443459117785096,-0.01588248461484909
1789038617532755200,7.106755126953125,0.08796452730894089,0.025045456364750862,-0.033597562462091446
1789038617550009000,7.124009033203125,0.14721840620040894,0.1081230640411377,-0.05436696484684944
1789038617567263000,7.141262939453125,0.16554436087608337,0.12217295914888382,-0.04520399495959282
1789038617584517000,7.15851708984375,0.1496618688106537,0.14599667489528656,-0.021380268037319183
1789038617601771000,7.17577099609375,0.1533270627260208,0.16615521907806396,-0.027488915249705315
1789038617619025000,7.19302490234375,0.18203771114349365,0.17592905461788177,-0.046425722539424896
1789038617636279000,7.210279052734375,0.14477495849132538,0.12950333952903748,-0.036651886999607086
1789038617653533000,7.227532958984375,0.05436696484684944,-0.017104214057326317,-0.05436696484684944
1789038617670787000,7.244787109375,0.06780599057674408,-0.09590577334165573,-0.09346231073141098
1789038617688041000,7.262041015625,0.1594357043504715,-0.22235478460788727,-0.13927717506885529
1789038617705294800,7.279294921875,0.18264856934547424,-0.3341430425643921,-0.15638138353824615
1789038617722549000,7.296549072265625,0.006719512399286032,-0.36163195967674255,-0.15149445831775665
1789038617739803000,7.313802978515625,-0.024434590712189674,-0.337808221578598,-0.11667517572641373
1789038617757057000,7.33105712890625,-0.08124501258134842,-0.34574946761131287,-0.10567960888147354
1789038617774311000,7.348310791015625,-0.13255766034126282,-0.08307760953903198,-0.015271619893610477
1789038617791564800,7.365564697265625,-0.11117739230394363,-0.15210533142089844,0.013439024798572063
1789038617808819000,7.38281884765625,-0.11606431007385254,-0.10018182545900345,0.028099779039621353
1789038617826072800,7.40007275390625,-0.1496618688106537,-0.06352993845939636,-0.0256563201546669
1789038617843327000,7.417326904296875,-0.2260199636220932,-0.06230820715427399,-0.07513637095689774
1789038617860580900,7.434580810546875,-0.11972949653863907,-0.08491020649671555,-0.030543239787220955
1789038617877834800,7.451834716796875,-0.05742128938436508,0.13622283935546875,0.1178968995809555
1789038617895089000,7.4690888671875,-0.09285144507884979,0.4477638900279999,0.29016077518463135
1789038617912342800,7.4863427734375,-0.09040798991918564,0.564439058303833,0.38301220536231995
1789038617929597000,7.503596923828125,0.015271619893610477,0.5155698657035828,0.3652971386909485
1789038617946850800,7.520850830078125,0.08491020649671555,0.40805765986442566,0.3756818473339081
1789038617964104700,7.538104736328125,0.06719512492418289,0.2718348205089569,0.3481929302215576
1789038617981358800,7.55535888671875,-0.04581485688686371,0.2412915825843811,0.20158538222312927
1789038617998612700,7.57261279296875,-0.11423171311616898,0.05558869615197182,0.03787361457943916
1789038618015866600,7.58986669921875,-0.0720820426940918,-0.17653992772102356,-0.1288924664258957
1789038618033120800,7.607120849609375,-0.06047561392188072,-0.29626941680908203,-0.2364046722650528
1789038618050374700,7.624374755859375,-0.0824667438864708,-0.25045454502105713,-0.24923282861709595
1789038618067628800,7.64162890625,-0.10079269111156464,-0.18570289015769958,-0.21502439677715302
1789038618084882700,7.658882568359375,-0.05253437161445618,-0.12522727251052856,-0.11423171311616898
1789038618102136800,7.67613671875,-0.06841685622930527,-0.02626718580722809,0.01893680728971958
1789038618119390700,7.693390625,-0.09529490768909454,0.06414080411195755,0.13194678723812103
1789038618136644900,7.710644775390625,-0.07757982611656189,0.04581485688686371,0.18142683804035187
1789038618153898800,7.727898681640625,-0.056810423731803894,-0.018325943499803543,0.1649334877729416
1789038618171152600,7.745152587890625,-0.026878049597144127,-0.09040798991918564,0.09712749719619751
1789038618188406800,7.76240673828125,-0.04214967042207718,-0.1331685185432434,0.004886918235570192
1789038618205660700,7.77966064453125,-0.06536252796649933,-0.16676609218120575,-0.0824667438864708
1789038618222914800,7.796914794921875,-0.10567960888147354,-0.1997527778148651,-0.14538581669330597
1789038618240168700,7.814168701171875,-0.1588248461484909,-0.21685700118541718,-0.18325942754745483
1789038618257422600,7.831422607421875,-0.19853104650974274,-0.21991132199764252,-0.18203771114349365
1789038618274676700,7.8486767578125,-0.2254091054201126,-0.2406807243824005,-0.16554436087608337
1789038618291930600,7.8659306640625,-0.22907429933547974,-0.2620609998703003,-0.13927717506885529
1789038618309184800,7.883184814453125,-0.23518294095993042,-0.2675587832927704,-0.11117739230394363
1789038618326438700,7.900438720703125,-0.23457208275794983,-0.24251331388950348,-0.09162971377372742
1789038618343692800,7.91769287109375,-0.23212862014770508,-0.19303326308727264,-0.09162971377372742
1789038618360946700,7.93494677734375,-0.24006985127925873,-0.18875721096992493,-0.1026252806186676
1789038618378200600,7.95220068359375,-0.2614501118659973,-0.20891575515270233,-0.10629047453403473
1789038618395454700,7.969454833984375,-0.27427828311920166,-0.20769402384757996,-0.12278381735086441
1789038618412708600,7.98670849609375,-0.26878049969673157,-0.17898337543010712,-0.18387030065059662
1789038618429962800,8.003962646484375,-0.268169641494751,-0.08857539296150208,-0.25411975383758545
1789038618447216600,8.021216552734375,-0.29138249158859253,-0.0818558782339096,-0.2993237376213074
1789038618464470500,8.038470458984374,-0.32070401310920715,-0.09040798991918564,-0.3121519088745117
1789038618481724700,8.055724609375,-0.3384190797805786,-0.10018182545900345,-0.2877173125743866
1789038618498978600,8.072978515625,-0.39217519760131836,-0.10506874322891235,-0.23823726177215576
1789038618516232700,8.090232666015625,-0.49052441120147705,-0.08307760953903198,-0.2919933497905731
1789038618533486600,8.107486572265625,-0.5290089249610901,-0.13744457066059113,-0.3640754222869873
1789038618550740500,8.124740478515625,-0.6487383842468262,-0.18325942754745483,-0.3946186602115631
1789038618567994600,8.14199462890625,-0.7605266571044922,-0.0977383628487587,-0.5277871489524841
1789038618585248500,8.15924853515625,-0.9022472500801086,-0.13194678723812103,-0.6884446144104004
1789038618602502700,8.176502685546875,-1.0555742979049683,-0.29993459582328796,-0.8692606091499329
1789038618619756500,8.193756591796875,-1.0983349084854126,-0.1588248461484909,-0.9327905178070068
1789038618637010700,8.2110107421875,-1.229670763015747,-0.12095122784376144,-0.963333785533905
1789038618654264600,8.2282646484375,-1.4410300254821777,-0.01282816007733345,-0.9376774430274963
1789038618671518700,8.245518798828124,-1.53510320186615,0.26878049969673157,-0.9663881063461304
1789038618688772600,8.262772705078126,-1.4550799131393433,0.30482152104377747,-0.988990068435669
1789038618706026500,8.280026611328125,-1.2131774425506592,0.04764745384454727,-0.8747583627700806
1789038618723280600,8.29728076171875,-1.0201442241668701,-0.27855435013771057,-0.7599157691001892
1789038618740534500,8.314534423828125,-1.0042617321014404,-0.49418962001800537,-0.5815432667732239
1789038618757788700,8.33178857421875,-1.0488548278808594,-0.7250964641571045,-0.2516762912273407
1789038618775042600,8.34904248046875,-0.9932661056518555,-0.7312051653862,0.06719512492418289
1789038618792296400,8.36629638671875,-0.7806851863861084,-0.4172206521034241,0.30482152104377747
1789038618809550600,8.383550537109375,-0.665842592716217,-0.15821397304534912,0.46059203147888184
1789038618826804500,8.400804443359375,-0.5699368119239807,-0.1496618688106537,0.564439058303833
1789038618844058600,8.41805859375,-0.5064069032669067,-0.15577052533626556,0.5754346251487732
1789038618861312500,8.4353125,-0.4783071279525757,-0.09834922850131989,0.47464191913604736
1789038618878566700,8.452566650390626,-0.3640754222869873,-0.0873536616563797,0.35674503445625305
1789038618895820500,8.469820556640625,-0.1637117564678192,0.053145237267017365,0.24373504519462585
1789038618913074700,8.48707470703125,0.0030543238390237093,0.3182605504989624,0.09529490768909454
1789038618930328600,8.50432861328125,0.09162971377372742,0.2889390289783478,0.011606430634856224
1789038618947582500,8.52158251953125,0.26939135789871216,0.24556763470172882,-0.16187916696071625
1789038618964836600,8.538836669921874,0.360410213470459,0.3634645342826843,-0.32559093832969666
1789038618982090500,8.556090576171876,0.3958403766155243,0.3952295184135437,-0.42394015192985535
1789038618999344600,8.5733447265625,0.40378162264823914,0.35674503445625305,-0.516791582107544
1789038619016598500,8.5905986328125,0.37751442193984985,0.37262752652168274,-0.5699368119239807
1789038619033852700,8.607852783203125,0.3494146466255188,0.4355465769767761,-0.5558869242668152
1789038619051106600,8.6251064453125,0.32620179653167725,0.5027416944503784,-0.46547895669937134
1789038619068360700,8.642360595703124,0.27916520833969116,0.5558869242668152,-0.3433060050010681
1789038619085614600,8.659614501953126,0.2632827162742615,0.5271763205528259,-0.2828303873538971
1789038619102868700,8.67686865234375,0.21746785938739777,0.5076286196708679,-0.2412915825843811
1789038619120122600,8.69412255859375,0.1386663019657135,0.4196641147136688,-0.24434591829776764
1789038619137376500,8.71137646484375,0.03543015569448471,0.2981020212173462,-0.2926042377948761
1789038619154630700,8.728630615234374,-0.030543239787220955,0.2626718580722809,-0.33597561717033386
1789038619171884500,8.745884521484374,-0.15027274191379547,0.32192572951316833,-0.3494146466255188
1789038619189138700,8.763138671875,-0.20647229254245758,0.2559523284435272,-0.3787361681461334
1789038619206392600,8.780392578125,-0.23029601573944092,0.21258094906806946,-0.3787361681461334
1789038619223646700,8.797646728515625,-0.2889390289783478,0.2003636509180069,-0.4373791813850403
1789038619240900600,8.814900634765625,-0.4410443603992462,0.12522727251052856,-0.4819723069667816
1789038619258154500,8.832154541015624,-0.3744601011276245,0.023212861269712448,-0.5882627964019775
1789038619275408600,8.84940869140625,-0.24495677649974823,0.11667517572641373,-0.6896663308143616
1789038619292662500,8.86666259765625,-0.1948658674955368,0.2632827162742615,-0.6609556674957275
1789038619309916700,8.883916748046875,-0.2522871494293213,0.35185810923576355,-0.5607738494873047
1789038619327170600,8.901170654296875,-0.32559093832969666,0.22785256803035736,-0.6163625717163086
1789038619344424700,8.9184248046875,-0.3744601011276245,0.17837251722812653,-0.6780598759651184
1789038619361678600,8.9356787109375,-0.3707949221134186,0.16554436087608337,-0.7006618976593018
1789038619378932500,8.952932373046876,-0.47952884435653687,0.12583814561367035,-0.5430588126182556
1789038619396186600,8.9701865234375,-0.6517927050590515,0.06047561392188072,-0.36163195967674255
1789038619413440500,8.9874404296875,-0.6444623470306396,-0.06841685622930527,-0.28466299176216125
1789038619430694700,9.004694580078125,-0.6432406306266785,-0.11545344442129135,-0.22907429933547974
1789038619447948500,9.021948486328125,-0.7079922556877136,-0.0769689604640007,-0.258395791053772
1789038619465202700,9.03920263671875,-0.8265000581741333,0.05558869615197182,-0.3329212963581085
1789038619482456600,9.05645654296875,-0.7996219992637634,-0.3402516841888428,-0.39828383922576904
1789038619499710700,9.073710693359375,-0.6310232877731323,-0.4172206521034241,-0.47036588191986084
1789038619516964600,9.090964599609375,-0.5473348498344421,-0.3231474757194519,-0.5338957905769348
1789038619534218800,9.10821875,-0.4789179861545563,-0.1337793916463852,-0.5681042671203613
1789038619551472600,9.12547265625,-0.4001164436340332,-0.1692095398902893,-0.5326740741729736
1789038619568726500,9.1427265625,-0.3292561173439026,-0.2706131041049957,-0.4312705397605896
1789038619585980700,9.159980712890626,-0.24556763470172882,-0.32070401310920715,-0.42332929372787476
1789038619603234600,9.177234619140625,-0.1337793916463852,-0.21930044889450073,-0.39767298102378845
1789038619620488700,9.19448876953125,-0.02871064469218254,-0.1490510106086731,-0.3854556679725647
1789038619637742600,9.21174267578125,0.06597339361906052,-0.12461641430854797,-0.33658650517463684
1789038619654996700,9.228996826171874,0.16798780858516693,-0.10873392969369888,-0.2309068888425827
1789038619672250600,9.246250732421874,0.2657261788845062,-0.0360410213470459,-0.11545344442129135
1789038619689504800,9.2635048828125,0.37323838472366333,0.03481929376721382,-0.09651663154363632
1789038619706758700,9.280758544921875,0.4367683231830597,0.017104214057326317,-0.07513637095689774
1789038619724012800,9.2980126953125,0.4667007029056549,-0.01893680728971958,-0.01282816007733345
1789038619741266700,9.3152666015625,0.4868592321872711,-0.056199558079242706,0.06414080411195755
1789038619758520800,9.332520751953124,0.49663305282592773,-0.023823726922273636,0.09651663154363632
1789038619775774700,9.349774658203126,0.48075059056282043,0.006719512399286032,0.11545344442129135
1789038619793028600,9.367028564453125,0.44837474822998047,0.023823726922273636,0.16187916696071625
1789038619810282800,9.38428271484375,0.41294458508491516,0,0.2938259541988373
1789038619827536600,9.40153662109375,0.31520622968673706,-0.09896009415388107,0.46547895669937134
1789038619844790800,9.418790771484375,0.23396120965480804,-0.10629047453403473,0.6450732350349426
1789038619862044700,9.436044677734374,0.04214967042207718,-0.07024945318698883,0.6505709886550903
1789038619879298800,9.453298828125,-0.15515965223312378,0.06047561392188072,0.5583304166793823
1789038619896552700,9.470552734375,-0.1637117564678192,0.09407317638397217,0.44959646463394165
1789038619913806800,9.487806884765625,0.10873392969369888,-0.0054977829568088055,0.5436696410179138
1789038619931060700,9.505060791015625,0.33231043815612793,-0.10384701192378998,0.6829468011856079
1789038619948315000,9.52231494140625,0.34697118401527405,-0.19914191961288452,0.7483093738555908
1789038619965568800,9.53956884765625,0.43493571877479553,-0.07757982611656189,0.7849612236022949
1789038619982823000,9.556822998046876,0.5204567909240723,-0.06414080411195755,0.7757982611656189
1789038620000076800,9.574076904296875,0.4880809485912323,0.11728604137897491,0.7079922556877136
1789038620017330700,9.59133056640625,0.49052441120147705,0.29138249158859253,0.8258891701698303
1789038620034584800,9.608584716796875,0.5088503360748291,0.27550002932548523,0.9364557266235352
1789038620051838700,9.625838623046874,0.5296197533607483,0.2614501118659973,0.8374956250190735
1789038620069092900,9.6430927734375,0.5064069032669067,0.24862197041511536,0.6414080262184143
1789038620086346800,9.6603466796875,0.5039634704589844,0.19120067358016968,0.5051851868629456
1789038620103601000,9.677600830078125,0.5094612240791321,0.23029601573944092,0.4166097939014435
1789038620120854800,9.694854736328125,0.5198459029197693,0.31459537148475647,0.38179048895835876
1789038620138109000,9.71210888671875,0.526565432548523,0.35674503445625305,0.39339691400527954
1789038620155362800,9.72936279296875,0.5161807537078857,0.31642794609069824,0.3335321843624115
1789038620172617000,9.746616943359374,0.5033525824546814,0.21746785938739777,0.22846342623233795
1789038620189870800,9.763870849609376,0.5057960152626038,0.17898337543010712,0.14599667489528656
1789038620207125000,9.781125,0.5100721120834351,0.24984370172023773,0.18631376326084137
1789038620224379000,9.79837890625,0.5369501113891602,0.37751442193984985,0.22174391150474548
1789038620241632800,9.8156328125,0.6029235124588013,0.45448338985443115,0.1948658674955368
1789038620258887000,9.832886962890624,0.6591231226921082,0.535728394985199,0.1588248461484909
1789038620276140800,9.850140869140626,0.6731730103492737,0.5503891706466675,0.1490510106086731
1789038620293395000,9.86739501953125,0.6298015713691711,0.5094612240791321,0.12950333952903748
1789038620310648800,9.88464892578125,0.49113526940345764,0.4929678738117218,0.09834922850131989
1789038620327903000,9.901903076171875,0.3842339515686035,0.3127627670764923,0.1282816082239151
1789038620345156900,9.919156982421875,0.3445277214050293,0.2101374864578247,0.18631376326084137
1789038620362411000,9.936410888671874,0.37323838472366333,0.1893680840730667,0.21746785938739777
1789038620379665000,9.953664794921876,0.38728827238082886,0.26389357447624207,0.2779434621334076
1789038620396919000,9.9709189453125,0.3964512348175049,0.33658650517463684,0.33719736337661743
1789038620414173000,9.9881728515625,0.3842339515686035,0.41905322670936584,0.39278605580329895
1789038620431427000,10.005427001953125,0.34086254239082336,0.4459312856197357,0.40317076444625854
1789038620448681000,10.022680908203125,0.28954991698265076,0.43982264399528503,0.31520622968673706
1789038620465935000,10.03993505859375,0.22296564280986786,0.4422661066055298,0.1692095398902893
1789038620483189000,10.05718896484375,0.16249002516269684,0.4776962697505951,0.14477495849132538
1789038620500443100,10.074443115234375,0.15271618962287903,0.5943714380264282,0.16187916696071625
1789038620517697000,10.091697021484375,0.18081597983837128,0.8625410795211792,0.18081597983837128
1789038620534951000,10.108950927734375,0.19853104650974274,1.2076796293258667,0.20647229254245758
1789038620552205000,10.126205078125,0.14782927930355072,1.4117084741592407,0.26878049969673157
1789038620569459000,10.143458984375,0.0977383628487587,1.556483507156372,0.3084867000579834
1789038620586713000,10.160713134765626,-0.002443459117785096,1.5418226718902588,0.30604326725006104
1789038620603967200,10.17796728515625,-0.050090912729501724,1.3103049993515015,0.2571740746498108
1789038620621221000,10.19522119140625,-0.13927717506885529,1.1239912509918213,0.18264856934547424
1789038620638475300,10.212475341796875,-0.1905898153781891,0.7538071274757385,0.16187916696071625
1789038620655729200,10.229729248046874,-0.17043127119541168,0.48441576957702637,0.13988803327083588
1789038620672983300,10.2469833984375,-0.15821397304534912,0.2779434621334076,0.08918625861406326
1789038620690237200,10.2642373046875,-0.1233946830034256,0.16554436087608337,0.06902772188186646
1789038620707491300,10.2814912109375,-0.11362084746360779,0.07269290834665298,0.059864748269319534
1789038620724745200,10.2987451171875,-0.13988803327083588,0.027488915249705315,0.01282816007733345
1789038620741999400,10.315999267578125,-0.17287473380565643,-0.03543015569448471,0.02260199747979641
1789038620759253200,10.333253173828124,-0.1026252806186676,-0.1545487940311432,0.008552107028663158
1789038620776507400,10.35050732421875,-0.001221729558892548,-0.1490510106086731,0.03237583488225937
1789038620793761300,10.36776123046875,0.08857539296150208,-0.12705987691879272,0.11484257876873016
1789038620811015200,10.38501513671875,0.16615521907806396,-0.004886918235570192,0.14049890637397766
1789038620828269300,10.402269287109375,0.25473061203956604,0.09590577334165573,0.13072505593299866
1789038620845523200,10.419523193359375,0.29504770040512085,0.21685700118541718,0.07880155742168427
1789038620862777300,10.43677734375,0.2834412455558777,0.3133736252784729,-0.009773836471140385
1789038620880031200,10.45403125,0.24801109731197357,0.42271843552589417,-0.04581485688686371
1789038620897285400,10.471285400390625,0.2101374864578247,0.4728093445301056,-0.12522727251052856
1789038620914539300,10.488539306640625,0.18325942754745483,0.5613847374916077,-0.21319180727005005
1789038620931793400,10.50579345703125,0.11117739230394363,0.6426297426223755,-0.3292561173439026
1789038620949047300,10.52304736328125,-0.014660755172371864,0.7000510096549988,-0.3958403766155243
1789038620966301400,10.540301513671874,-0.14294235408306122,0.646905779838562,-0.3707949221134186
1789038620983555300,10.557555419921876,-0.17592905461788177,0.5980366468429565,-0.33597561717033386
1789038621000809500,10.5748095703125,-0.17104214429855347,0.6267472505569458,-0.347582072019577
1789038621018063400,10.5920634765625,-0.1844811588525772,0.6695078015327454,-0.4520399272441864
1789038621035317500,10.6093173828125,-0.19608759880065918,0.6017017960548401,-0.46425724029541016
1789038621052571400,10.6265712890625,-0.1026252806186676,0.47586366534233093,-0.48441576957702637
1789038621069825500,10.643825439453124,0.04825831577181816,0.47036588191986084,-0.5210676789283752
1789038621087079700,10.66107958984375,0.11178825795650482,0.5497782826423645,-0.5332849621772766
1789038621104333600,10.67833349609375,0.10079269111156464,0.4917461574077606,-0.46425724029541016
1789038621121587700,10.695587646484375,0.08491020649671555,0.3854556679725647,-0.3860665261745453
1789038621138841600,10.712841552734375,0.03787361457943916,0.35246896743774414,-0.34208428859710693
1789038621156095500,10.730095458984374,-0.03848448023200035,0.33719736337661743,-0.31459537148475647
1789038621173349600,10.747349609375,-0.10934479534626007,0.2761108875274658,-0.3652971386909485
1789038621190603500,10.764603515625,-0.1594357043504715,0.24495677649974823,-0.39400777220726013
1789038621207857700,10.781857666015625,-0.14477495849132538,0.14538581669330597,-0.32620179653167725
1789038621225111600,10.799111572265625,-0.06414080411195755,0.02871064469218254,-0.24801109731197357
1789038621242365700,10.81636572265625,-0.02626718580722809,-0.001832594396546483,-0.13194678723812103
1789038621259619600,10.83361962890625,-0.009773836471140385,-0.040317077189683914,-0.0360410213470459
1789038621276873700,10.850873779296874,0.043371398001909256,-0.02260199747979641,0.021380268037319183
1789038621294127600,10.868127685546876,0.0769689604640007,-0.10629047453403473,0.11178825795650482
1789038621311381800,10.8853818359375,0.08002328872680664,-0.24923282861709595,0.21502439677715302
1789038621328635600,10.9026357421875,0.07086031138896942,-0.38240134716033936,0.25045454502105713
1789038621345889800,10.919889892578125,0.09407317638397217,-0.3836230933666229,0.258395791053772
1789038621363144000,10.93714404296875,0.07086031138896942,-0.5222893953323364,0.19425499439239502
1789038621380397800,10.954397705078126,-0.002443459117785096,-0.7244856357574463,0.07757982611656189
1789038621397652000,10.97165185546875,-0.08674279600381851,-0.9065233469009399,0.009162971749901772
1789038621414905900,10.98890576171875,-0.16187916696071625,-1.046411395072937,-0.034208428114652634
1789038621432160000,11.006159912109375,-0.27855435013771057,-1.1716386079788208,-0.05497783049941063
1789038621449414000,11.023413818359375,-0.4367683231830597,-1.174692988395691,0.0360410213470459
1789038621466667800,11.040667724609374,-0.5699368119239807,-0.9602794051170349,0.26022839546203613
1789038621483922000,11.057921875,-0.5674933791160583,-0.5815432667732239,0.5027416944503784
1789038621501176000,11.075176025390626,-0.4056142270565033,-0.5424479246139526,0.6157516837120056
1789038621518430000,11.092429931640625,-0.18081597983837128,-0.6945532560348511,0.5149590373039246
1789038621535684000,11.10968408203125,-0.000610864779446274,-0.711046576499939,0.35124725103378296
1789038621552938000,11.12693798828125,0.07513637095689774,-0.7623592615127563,0.21807873249053955
1789038621570192100,11.144192138671874,0.09101885557174683,-0.7623592615127563,0.20280711352825165
1789038621587446000,11.161446044921876,0.09590577334165573,-0.7055488228797913,0.27488914132118225
1789038621604700200,11.1787001953125,0.037262752652168274,-0.6133082509040833,0.2559523284435272
1789038621621954000,11.1959541015625,-0.07086031138896942,-0.6261364221572876,0.22479823231697083
1789038621639208200,11.213208251953125,-0.18264856934547424,-0.721431314945221,0.2461785078048706
1789038621656462000,11.230462158203125,-0.2522871494293213,-0.6811142563819885,0.3084867000579834
1789038621673716200,11.24771630859375,-0.2522871494293213,-0.5369501113891602,0.3402516841888428
1789038621690970000,11.26497021484375,-0.2107483446598053,-0.44409868121147156,0.3237583339214325
1789038621708224300,11.282224365234375,-0.19792018830776215,-0.4972439408302307,0.27488914132118225
1789038621725478100,11.29947802734375,-0.16126830875873566,-0.5577195286750793,0.21807873249053955
1789038621742732300,11.316732177734375,-0.17287473380565643,-0.5809323787689209,0.17531819641590118
1789038621759986400,11.333986328125,-0.22907429933547974,-0.5436696410179138,0.14782927930355072
1789038621777240300,11.351240234375,-0.31031930446624756,-0.45387253165245056,0.12583814561367035
1789038621794494500,11.368494384765626,-0.3536907136440277,-0.318871408700943,0.13072505593299866
1789038621811748400,11.385748291015625,-0.31642794609069824,-0.1948658674955368,0.16126830875873566
1789038621829002500,11.40300244140625,-0.2919933497905731,-0.14294235408306122,0.1637117564678192
1789038621846256400,11.42025634765625,-0.25473061203956604,-0.1484401375055313,0.16615521907806396
1789038621863510500,11.437510498046874,-0.21930044889450073,-0.12644900381565094,0.18081597983837128
1789038621880764400,11.454764404296874,-0.19425499439239502,-0.07757982611656189,0.20952661335468292
1789038621898018600,11.4720185546875,-0.19669845700263977,-0.047036588191986084,0.24312418699264526
1789038621915272400,11.4892724609375,-0.21930044889450073,-0.006108647678047419,0.2706131041049957
1789038621932526600,11.506526611328125,-0.22846342623233795,0.05192350596189499,0.2877173125743866
1789038621949780500,11.523780517578125,-0.21135921776294708,0.09468404203653336,0.29565855860710144
1789038621967034600,11.54103466796875,-0.22418737411499023,0.10690133273601532,0.30115634202957153
1789038621984288500,11.55828857421875,-0.28588470816612244,0.08124501258134842,0.2938259541988373
1789038622001542700,11.575542724609376,-0.32192572951316833,0.03543015569448471,0.27488914132118225
1789038622018796800,11.592796875,-0.31581708788871765,0.03237583488225937,0.21319180727005005
1789038622036050700,11.61005078125,-0.2730565667152405,0.011606430634856224,0.13561198115348816
1789038622053304800,11.627304931640625,-0.23762640357017517,-0.004886918235570192,0.08674279600381851
1789038622070558700,11.644558837890624,-0.1893680840730667,-0.01893680728971958,0.0720820426940918
1789038622087812900,11.661812744140626,-0.15149445831775665,-0.027488915249705315,0.0616973415017128
1789038622105066800,11.679066650390626,-0.14233149588108063,-0.04214967042207718,0.056810423731803894
1789038622122321000,11.69632080078125,-0.16798780858516693,-0.02871064469218254,0.06291907280683517
1789038622139574800,11.71357470703125,-0.19853104650974274,0.020158538594841957,0.08613193035125732
1789038622156829000,11.730828857421875,-0.2364046722650528,-0.009773836471140385,0.11117739230394363
1789038622174082800,11.748082763671874,-0.2919933497905731,-0.0665842592716217,0.08796452730894089
1789038622191337000,11.7653369140625,-0.33536475896835327,-0.09834922850131989,0.0513126403093338
1789038622208590800,11.7825908203125,-0.3402516841888428,-0.13988803327083588,0.021991131827235222
1789038622225845000,11.799844970703125,-0.33231043815612793,-0.17898337543010712,0.01282816007733345
1789038622243099100,11.81709912109375,-0.3329212963581085,-0.18203771114349365,0.026878049597144127
1789038622260353000,11.83435302734375,-0.3274235129356384,-0.21991132199764252,0.008552107028663158
1789038622277607200,11.851607177734374,-0.3280344009399414,-0.258395791053772,-0.07452550530433655
1789038622294861000,11.868861083984376,-0.3396408259868622,-0.2938259541988373,-0.20769402384757996
1789038622312115200,11.886115234375,-0.3536907136440277,-0.3035998046398163,-0.3634645342826843
1789038622329369000,11.903369140625,-0.36163195967674255,-0.29138249158859253,-0.42394015192985535
1789038622346623200,11.920623291015625,-0.3854556679725647,-0.25411975383758545,-0.41905322670936584
1789038622363877000,11.937877197265625,-0.43982264399528503,-0.21685700118541718,-0.3689623177051544
1789038622381131300,11.95513134765625,-0.4764745235443115,-0.2003636509180069,-0.30054548382759094
1789038622398385400,11.972385498046876,-0.4428769648075104,-0.14782927930355072,-0.2412915825843811
1789038622415639300,11.989639404296875,-0.3756818473339081,0.008552107028663158,-0.16187916696071625
1789038622432893400,12.0068935546875,-0.35063639283180237,0.1588248461484909,-0.11606431007385254
1789038622450147300,12.024147216796875,-0.3139844834804535,0.20952661335468292,-0.07086031138896942
1789038622467401500,12.0414013671875,-0.32559093832969666,0.2254091054201126,0.03298669680953026
1789038622484655400,12.0586552734375,-0.4105011224746704,0.2877173125743866,0.1539379209280014
1789038622501909500,12.075909423828126,-0.5302306413650513,0.27427828311920166,0.2522871494293213
1789038622519163400,12.093163330078125,-0.6591231226921082,0.053756099194288254,0.27488914132118225
1789038622536417500,12.11041748046875,-0.7183769941329956,-0.1893680840730667,0.19242240488529205
1789038622553671400,12.12767138671875,-0.6743947267532349,-0.4514290690422058,0.1081230640411377
1789038622570925600,12.144925537109375,-0.6371319890022278,-0.6365211009979248,0.10201441496610641
1789038622588179500,12.162179443359374,-0.6175842881202698,-0.6976075768470764,0.17531819641590118
1789038622605433600,12.17943359375,-0.5601630210876465,-0.6145299673080444,0.2577849328517914
1789038622622687700,12.196687744140625,-0.4056142270565033,-0.3646862804889679,0.3084867000579834
1789038622639941600,12.213941650390625,-0.24373504519462585,-0.13988803327083588,0.3035998046398163
1789038622657195800,12.23119580078125,-0.15088360011577606,-0.05558869615197182,0.28405213356018066
1789038622674449700,12.24844970703125,-0.09834922850131989,-0.004886918235570192,0.2932150959968567
1789038622691703800,12.265703857421874,0.017715077847242355,-0.0030543238390237093,0.24801109731197357
1789038622708957700,12.282957763671876,0.08063415437936783,0.031154103577136993,0.2419024556875229
1789038622726211800,12.3002119140625,0.07330377399921417,0.015271619893610477,0.22235478460788727
1789038622743465700,12.3174658203125,0.015271619893610477,-0.010995565913617611,0.16737695038318634
1789038622760720000,12.334719970703125,-0.0409279391169548,-0.008552107028663158,0.05864302068948746
1789038622777973800,12.351973876953124,-0.13500112295150757,0.05803215503692627,-0.01893680728971958
1789038622795228000,12.369227783203126,-0.2767217457294464,0.06352993845939636,-0.0616973415017128
1789038622812482000,12.38648193359375,-0.40378162264823914,0.05742128938436508,-0.11606431007385254
1789038622829736000,12.40373583984375,-0.4978547990322113,0.10629047453403473,-0.20402882993221283
1789038622846990000,12.420989990234375,-0.5021308660507202,0.10384701192378998,-0.2968802750110626
1789038622864244000,12.438243896484375,-0.45998117327690125,0.13072505593299866,-0.38179048895835876
1789038622881498000,12.455498046875,-0.44348782300949097,0.25045454502105713,-0.4147771894931793
1789038622898752000,12.472751953125,-0.4068359434604645,0.23212862014770508,-0.5143481492996216
1789038622916006100,12.490006103515626,-0.4379900395870209,0.23273947834968567,-0.5607738494873047
1789038622933260300,12.50726025390625,-0.4581485986709595,0.2461785078048706,-0.5809323787689209
1789038622950514200,12.52451416015625,-0.49480047821998596,0.14233149588108063,-0.6114756464958191
1789038622967768300,12.541768310546875,-0.47525280714035034,-0.04886918142437935,-0.656679630279541
1789038622985022200,12.559022216796874,-0.45875945687294006,-0.19303326308727264,-0.6688969135284424
1789038623002276400,12.5762763671875,-0.43982264399528503,-0.1740964651107788,-0.6389645338058472
1789038623019530200,12.5935302734375,-0.4508182108402252,-0.164322629570961,-0.6206386089324951
1789038623036784400,12.610784423828125,-0.5180133581161499,-0.0873536616563797,-0.5571087002754211
1789038623054038300,12.628038330078125,-0.554665207862854,0.09040798991918564,-0.45020735263824463
1789038623071292400,12.64529248046875,-0.4972439408302307,0.05192350596189499,-0.45998117327690125
1789038623088546600,12.662546630859374,-0.4978547990322113,-0.008552107028663158,-0.4172206521034241
1789038623105800400,12.679800537109376,-0.5039634704589844,0.006108647678047419,-0.37262752652168274
1789038623123054600,12.6970546875,-0.526565432548523,-0.010384701192378998,-0.40378162264823914
1789038623140308500,12.71430859375,-0.5497782826423645,0.000610864779446274,-0.40255987644195557
1789038623157562600,12.731562744140625,-0.5705476999282837,0.0030543238390237093,-0.42271843552589417
1789038623174816500,12.74881640625,-0.5687150955200195,0.009773836471140385,-0.4630354940891266
1789038623192070700,12.766070556640624,-0.5797106623649597,0.007941242307424545,-0.472198486328125
1789038623209324500,12.783324462890626,-0.647516667842865,0.004886918235570192,-0.4630354940891266
1789038623226578700,12.80057861328125,-0.6365211009979248,-0.014660755172371864,-0.5015199780464172
1789038623243832600,12.81783251953125,-0.5070177912712097,-0.08429934084415436,-0.5406153202056885
1789038623261086700,12.835086669921875,-0.4318813979625702,-0.15210533142089844,-0.5510000586509705
1789038623278340900,12.8523408203125,-0.3897317349910736,-0.18387030065059662,-0.6047561168670654
1789038623295594800,12.8695947265625,-0.3805687427520752,-0.15821397304534912,-0.627968966960907
1789038623312849000,12.886848876953126,-0.36774060130119324,-0.11606431007385254,-0.555276095867157
1789038623330102800,12.904102783203125,-0.33719736337661743,0.01282816007733345,-0.48075059056282043
1789038623347357000,12.92135693359375,-0.3439168632030487,-0.007330377586185932,-0.4618137776851654
1789038623364610800,12.93861083984375,-0.33047783374786377,-0.0054977829568088055,-0.4105011224746704
1789038623381865000,12.955864990234375,-0.29016077518463135,-0.0873536616563797,-0.38850998878479004
1789038623399118800,12.973118896484374,-0.258395791053772,-0.18631376326084137,-0.3243691921234131
1789038623416373000,12.990373046875,-0.23945899307727814,-0.235793799161911,-0.29993459582328796
1789038623433627100,13.007627197265625,-0.20830489695072174,-0.26511532068252563,-0.2528980076313019
1789038623450881000,13.024881103515625,-0.17898337543010712,-0.22907429933547974,-0.19425499439239502
1789038623468135200,13.04213525390625,-0.17348559200763702,-0.2101374864578247,-0.1740964651107788
1789038623485389000,13.05938916015625,-0.16798780858516693,-0.08674279600381851,-0.1233946830034256
1789038623502643200,13.076643310546874,-0.1637117564678192,0.050090912729501724,-0.033597562462091446
1789038623519897000,13.09389697265625,-0.12522727251052856,0.16187916696071625,0.017104214057326317
1789038623537151200,13.111151123046875,-0.07330377399921417,0.2767217457294464,0.04520399495959282
1789038623554405000,13.128405029296875,-0.07024945318698883,0.28588470816612244,0.0409279391169548
1789038623571659300,13.1456591796875,-0.08368847519159317,0.29626941680908203,0.02626718580722809
1789038623588913200,13.1629130859375,-0.10506874322891235,0.1795942485332489,-0.007330377586185932
1789038623606167300,13.180167236328124,-0.10445787757635117,0.13927717506885529,-0.04581485688686371
1789038623623421400,13.19742138671875,-0.10445787757635117,0.13927717506885529,-0.06414080411195755
1789038623640675300,13.21467529296875,-0.08979712426662445,0.14538581669330597,-0.07086031138896942
1789038623657929500,13.231929443359375,-0.07635809481143951,0.23518294095993042,-0.06352993845939636
1789038623675183400,13.249183349609375,-0.06597339361906052,0.33169957995414734,-0.025045456364750862
1789038623692437500,13.2664375,-0.009162971749901772,0.2919933497905731,0.021380268037319183
1789038623709691400,13.28369140625,0.036651886999607086,0.24006985127925873,0.05436696484684944
1789038623726945500,13.300945556640626,0.056199558079242706,0.14660754799842834,0.10323614627122879
1789038623744199700,13.31819970703125,0.05497783049941063,0.08796452730894089,0.1637117564678192
1789038623761453600,13.33545361328125,0.03543015569448471,0.1496618688106537,0.2577849328517914
1789038623778707700,13.352707763671875,0.06475166976451874,0.13683371245861053,0.28466299176216125
1789038623795961600,13.369961669921874,0.0818558782339096,0.10567960888147354,0.34208428859710693
1789038623813215700,13.3872158203125,0.09162971377372742,0.10018182545900345,0.37201663851737976
1789038623830469600,13.4044697265625,0.12034036219120026,0.09651663154363632,0.3860665261745453
1789038623847723800,13.421723876953125,0.13439024984836578,0.09590577334165573,0.3903425931930542
1789038623864977700,13.438977783203125,0.13561198115348816,0.0513126403093338,0.37629270553588867
1789038623882231800,13.456231689453125,0.1386663019657135,-0.0030543238390237093,0.36163195967674255
1789038623899485700,13.473485595703124,0.15027274191379547,-0.027488915249705315,0.36285367608070374
1789038623916739800,13.49073974609375,0.1698204129934311,-0.03787361457943916,0.39889469742774963
1789038623933994000,13.507993896484376,0.20158538222312927,0.011606430634856224,0.42882707715034485
1789038623951248000,13.525247802734375,0.2370155304670334,0.05742128938436508,0.45020735263824463
1789038623968502000,13.542501953125,0.268169641494751,0.04214967042207718,0.43921178579330444
1789038623985756000,13.559755859375,0.28527384996414185,-0.01649334840476513,0.44470956921577454
1789038624003010000,13.577010009765624,0.28466299176216125,-0.06963858753442764,0.4581485986709595
1789038624020264000,13.594263916015626,0.2987128794193268,-0.0818558782339096,0.45937031507492065
1789038624037518000,13.61151806640625,0.2932150959968567,-0.07147117704153061,0.46364638209342957
1789038624054772000,13.62877197265625,0.2968802750110626,-0.05925388261675835,0.49968740344047546
1789038624072026000,13.646026123046875,0.31642794609069824,0.0360410213470459,0.5094612240791321
1789038624089280000,13.663280029296875,0.3243691921234131,0.0977383628487587,0.5094612240791321
1789038624106534100,13.6805341796875,0.32681265473365784,0.0922405794262886,0.4783071279525757
1789038624123788000,13.6977880859375,0.33169957995414734,0.0873536616563797,0.46608981490135193
1789038624141042200,13.715042236328125,0.3390299379825592,0.16065743565559387,0.4373791813850403
1789038624158296300,13.73229638671875,0.36285367608070374,0.2254091054201126,0.4172206521034241
1789038624175550200,13.74955029296875,0.39400777220726013,0.17837251722812653,0.38667741417884827
1789038624192804400,13.766804443359375,0.41355544328689575,0.14538581669330597,0.35246896743774414
1789038624210058200,13.784058349609374,0.430659681558609,0.1288924664258957,0.3182605504989624
1789038624227312400,13.8013125,0.4575377106666565,0.11423171311616898,0.2614501118659973
1789038624244566300,13.818566162109375,0.4783071279525757,0.1185077652335167,0.22968515753746033
1789038624261820400,13.8358203125,0.5027416944503784,0.11239911615848541,0.2632827162742615
1789038624279074300,13.85307421875,0.5442805290222168,0.14294235408306122,0.2461785078048706
1789038624296328400,13.870328369140625,0.6017017960548401,0.14110976457595825,0.2565632164478302
1789038624313582600,13.88758251953125,0.6450732350349426,0.11423171311616898,0.277332603931427
1789038624330836500,13.90483642578125,0.6530144214630127,0.10506874322891235,0.2993237376213074
1789038624348090600,13.922090576171875,0.6780598759651184,0.06291907280683517,0.3536907136440277
1789038624365344500,13.939344482421875,0.7391464114189148,0.08063415437936783,0.3335321843624115
1789038624382598700,13.9565986328125,0.7483093738555908,0.025045456364750862,0.29626941680908203
1789038624399852500,13.9738525390625,0.6945532560348511,-0.020769402384757996,0.25473061203956604
1789038624417106700,13.991106689453124,0.6597339510917664,-0.08857539296150208,0.3029889166355133
1789038624434360800,14.00836083984375,0.6768381595611572,-0.10690133273601532,0.3292561173439026
1789038624451614700,14.02561474609375,0.6780598759651184,-0.004886918235570192,0.3298669755458832
1789038624468868600,14.04286865234375,0.7012727856636047,0.18142683804035187,0.38667741417884827
1789038624486122800,14.060122802734375,0.7531962990760803,0.3549124300479889,0.3695732057094574
1789038624503377000,14.077376953125,0.748920202255249,0.48502662777900696,0.41294458508491516
1789038624520630800,14.094630859375,0.7238747477531433,0.3494146466255188,0.430659681558609
1789038624537885000,14.111885009765626,0.7043271064758301,0.18692462146282196,0.4098902642726898
1789038624555138800,14.129138916015625,0.7171552777290344,0.09529490768909454,0.3555232882499695
1789038624572393000,14.14639306640625,0.7623592615127563,0.07635809481143951,0.28466299176216125
1789038624589646800,14.163646728515625,0.7464767694473267,-0.10751219838857651,0.18753549456596375
1789038624606901000,14.18090087890625,0.6982184648513794,-0.14599667489528656,0.12095122784376144
1789038624624155100,14.198155029296874,0.6328558921813965,-0.14538581669330597,0.13561198115348816
1789038624641409000,14.215408935546876,0.6230821013450623,-0.06841685622930527,0.16126830875873566
1789038624658663200,14.2326630859375,0.5711585879325867,0.006108647678047419,0.14538581669330597
1789038624675917000,14.2499169921875,0.5082395076751709,0.0922405794262886,0.10140355676412582
1789038624693171200,14.267171142578125,0.4520399272441864,0.15760311484336853,0.10323614627122879
1789038624710425000,14.284425048828124,0.40866854786872864,0.09712749719619751,0.12095122784376144
1789038624727679200,14.30167919921875,0.37201663851737976,0.08857539296150208,0.11667517572641373
1789038624744933400,14.318933349609376,0.39278605580329895,-0.04214967042207718,0.1178968995809555
1789038624762187300,14.336187255859375,0.45020735263824463,-0.10018182545900345,0.10201441496610641
1789038624779441400,14.35344140625,0.4880809485912323,0.023212861269712448,0.15088360011577606
1789038624796695300,14.3706953125,0.4868592321872711,-0.10690133273601532,0.2315177470445633
1789038624813949400,14.387949462890624,0.4776962697505951,-0.10690133273601532,0.19425499439239502
1789038624831203600,14.40520361328125,0.4416552484035492,-0.1533270627260208,0.17776164412498474
1789038624848457500,14.42245751953125,0.37812530994415283,-0.16187916696071625,0.08491020649671555
1789038624865711600,14.439711669921875,0.34147340059280396,-0.1484401375055313,0.0720820426940918
1789038624882965500,14.456965576171875,0.2883281707763672,-0.13622283935546875,0.06291907280683517
1789038624900219600,14.4742197265625,0.24495677649974823,-0.050090912729501724,-0.020158538594841957
1789038624917473500,14.4914736328125,0.21991132199764252,0.004276053514331579,-0.020158538594841957
1789038624934727700,14.508727783203126,0.22235478460788727,0.020158538594841957,0
1789038624951981800,14.52598193359375,0.21380266547203064,0.006108647678047419,-0.03176496922969818
1789038624969235700,14.543235595703125,0.1698204129934311,-0.0873536616563797,-0.13439024984836578
1789038624986489900,14.56048974609375,0.1130099818110466,-0.14660754799842834,-0.1594357043504715
1789038625003743700,14.57774365234375,0.023212861269712448,-0.16187916696071625,-0.06352993845939636
1789038625020998000,14.594997802734374,-0.010995565913617611,-0.20952661335468292,0.03481929376721382
1789038625038252000,14.612251953125,-0.020158538594841957,-0.31581708788871765,0.040317077189683914
1789038625055506000,14.629505859375,-0.026878049597144127,-0.3390299379825592,-0.04276053607463837
1789038625072760000,14.646760009765625,-0.05803215503692627,-0.35613417625427246,-0.0977383628487587
1789038625090014000,14.664013916015625,-0.07880155742168427,-0.33597561717033386,-0.09101885557174683
1789038625107268000,14.68126806640625,-0.10506874322891235,-0.22357651591300964,-0.053145237267017365
1789038625124522000,14.69852197265625,-0.07941242307424545,-0.3023780584335327,0.000610864779446274
1789038625141776100,14.715776123046876,-0.0824667438864708,-0.36285367608070374,-0.013439024798572063
1789038625159030300,14.7330302734375,-0.04153880476951599,-0.2626718580722809,-0.10201441496610641
1789038625176284200,14.7502841796875,-0.006719512399286032,-0.2889390289783478,-0.23029601573944092
1789038625193538300,14.767538330078125,0.026878049597144127,-0.30970844626426697,-0.2620609998703003
1789038625210792200,14.784792236328125,0.040317077189683914,-0.23823726177215576,-0.1441640853881836
1789038625228046300,14.80204638671875,0.0360410213470459,-0.23945899307727814,0.017104214057326317
1789038625245300200,14.81930029296875,0.023212861269712448,-0.2864955961704254,0.11911863088607788
1789038625262554400,14.836554443359375,-0.006108647678047419,-0.30115634202957153,0.07086031138896942
1789038625279808500,14.85380859375,-0.001832594396546483,-0.3127627670764923,-0.07391463965177536
1789038625297062400,14.8710625,0.04764745384454727,-0.2724456787109375,-0.17348559200763702
1789038625314316500,14.888316650390625,0.07513637095689774,-0.1380554437637329,-0.20708316564559937
1789038625331570400,14.9055703125,0.020158538594841957,0.02871064469218254,-0.24312418699264526
1789038625348824600,14.922824462890626,-0.07513637095689774,0.17592905461788177,-0.2626718580722809
1789038625366078700,14.94007861328125,-0.164322629570961,0.2938259541988373,-0.24006985127925873
1789038625383332600,14.95733251953125,-0.15638138353824615,0.33597561717033386,-0.16859868168830872
1789038625400586800,14.974586669921875,-0.08307760953903198,0.37262752652168274,-0.16554436087608337
1789038625417840600,14.991840576171874,-0.030543239787220955,0.35613417625427246,-0.2107483446598053
1789038625435094800,15.0090947265625,-0.020158538594841957,0.2608392536640167,-0.21319180727005005
1789038625452349000,15.026348876953126,-0.03909534588456154,0.1795942485332489,-0.143553227186203
1789038625469602800,15.043602783203125,-0.049480047076940536,0.1649334877729416,-0.06230820715427399
1789038625486857000,15.06085693359375,-0.04520399495959282,0.2211330533027649,-0.020769402384757996
1789038625504110800,15.07811083984375,-0.02871064469218254,0.2675587832927704,-0.01893680728971958
1789038625521365000,15.095364990234375,-0.017104214057326317,0.2522871494293213,-0.02260199747979641
1789038625538619100,15.112619140625,-0.021991131827235222,0.19303326308727264,-0.017715077847242355
1789038625555873000,15.129873046875,-0.06108647957444191,0.14538581669330597,-0.033597562462091446
1789038625573127200,15.147127197265625,-0.10690133273601532,0.16004657745361328,-0.07941242307424545
1789038625590381000,15.164381103515625,-0.13072505593299866,0.1539379209280014,-0.11056652665138245
1789038625607635200,15.18163525390625,-0.1026252806186676,0.1337793916463852,-0.14110976457595825
1789038625624889000,15.19888916015625,-0.07330377399921417,0.10873392969369888,-0.16249002516269684
1789038625642143200,15.216143310546874,-0.07147117704153061,0.143553227186203,-0.1594357043504715
1789038625659397400,15.2333974609375,-0.11911863088607788,0.2162461280822754,-0.14049890637397766
1789038625676651300,15.2506513671875,-0.19242240488529205,0.26511532068252563,-0.12767073512077332
1789038625693905400,15.267905517578125,-0.2712239623069763,0.3017672002315521,-0.16065743565559387
1789038625711159300,15.2851591796875,-0.32070401310920715,0.37751442193984985,-0.2205221801996231
1789038625728413400,15.302413330078124,-0.3897317349910736,0.3909534513950348,-0.25961753726005554
1789038625745667600,15.31966748046875,-0.4862483739852905,0.36285367608070374,-0.26389357447624207
1789038625762921500,15.33692138671875,-0.544891357421875,0.30543237924575806,-0.27855435013771057
1789038625780175600,15.354175537109375,-0.5668824911117554,0.22724169492721558,-0.33108872175216675
1789038625797429500,15.371429443359375,-0.565049946308136,0.15577052533626556,-0.39889469742774963
1789038625814683600,15.38868359375,-0.6017017960548401,0.030543239787220955,-0.4917461574077606
1789038625831937500,15.4059375,-0.7220421433448792,-0.05070177838206291,-0.5204567909240723
1789038625849191700,15.423191650390624,-0.8533781170845032,-0.1331685185432434,-0.5100721120834351
1789038625866445800,15.44044580078125,-0.8545998334884644,0.003665188793092966,-0.45387253165245056
1789038625883699700,15.45769970703125,-0.8057306408882141,0.059864748269319534,-0.45998117327690125
1789038625900953900,15.474953857421875,-0.7360920310020447,0.10445787757635117,-0.43493571877479553
1789038625918208000,15.4922080078125,-0.6939423680305481,0.056199558079242706,-0.4153880476951599
1789038625935462000,15.5094619140625,-0.6890554428100586,0.10567960888147354,-0.4043924808502197
1789038625952716000,15.526716064453124,-0.7764091491699219,0.046425722539424896,-0.3946186602115631
1789038625969970000,15.543969970703126,-0.8918625712394714,-0.04581485688686371,-0.38179048895835876
1789038625987224000,15.56122412109375,-0.9596685767173767,-0.08002328872680664,-0.3536907136440277
1789038626004478000,15.57847802734375,-0.9175189137458801,-0.15760311484336853,-0.32131487131118774
1789038626021732000,15.595732177734375,-0.7544180154800415,-0.1954767256975174,-0.2767217457294464
1789038626038986200,15.612986328125,-0.6835576891899109,-0.19730933010578156,-0.2571740746498108
1789038626056240000,15.630240234375,-0.6969966888427734,-0.23029601573944092,-0.3090975880622864
1789038626073494300,15.647494384765626,-0.7538071274757385,-0.24006985127925873,-0.3384190797805786
1789038626090748200,15.664748046875,-0.7996219992637634,-0.09957095980644226,-0.3610210716724396
1789038626108002300,15.682002197265625,-0.778241753578186,-0.0769689604640007,-0.33231043815612793
1789038626125256400,15.69925634765625,-0.7574723362922668,-0.09590577334165573,-0.3402516841888428
1789038626142510300,15.71651025390625,-0.6487383842468262,-0.1185077652335167,-0.3555232882499695
1789038626159764500,15.733764404296876,-0.6811142563819885,-0.15577052533626556,-0.40866854786872864
1789038626177018400,15.751018310546876,-0.6976075768470764,-0.1545487940311432,-0.4373791813850403
1789038626194272500,15.7682724609375,-0.8075632452964783,-0.04825831577181816,-0.38789913058280945
1789038626211526700,15.785526611328125,-0.8662062287330627,-0.08124501258134842,-0.33536475896835327
1789038626228780500,15.802780517578125,-0.8252783417701721,-0.1331685185432434,-0.2675587832927704
1789038626246034700,15.82003466796875,-0.6627882719039917,-0.17531819641590118,-0.24740023910999298
1789038626263288600,15.83728857421875,-0.667064368724823,-0.21685700118541718,-0.2156352698802948
1789038626280542700,15.854542724609376,-0.6579013466835022,-0.22296564280986786,-0.2211330533027649
1789038626297796600,15.871796630859375,-0.6249146461486816,-0.14110976457595825,-0.1893680840730667
1789038626315050800,15.88905078125,-0.5540543794631958,-0.23762640357017517,-0.23457208275794983
1789038626332305000,15.906304931640625,-0.4685332775115967,-0.2974911332130432,-0.31581708788871765
1789038626349558800,15.923558837890624,-0.4324922561645508,-0.20708316564559937,-0.3805687427520752
1789038626366813000,15.94081298828125,-0.41294458508491516,-0.25045454502105713,-0.33169957995414734
1789038626384066800,15.95806689453125,-0.4929678738117218,-0.13561198115348816,-0.27977606654167175
1789038626401321000,15.975321044921875,-0.44959646463394165,-0.11178825795650482,-0.3035998046398163
1789038626418575000,15.9925751953125,-0.34086254239082336,-0.04825831577181816,-0.2510654330253601
1789038626435829000,16.0098291015625,-0.38728827238082886,0.10873392969369888,-0.1649334877729416
1789038626453083100,16.027083251953126,-0.36774060130119324,0.3066541254520416,-0.14721840620040894
1789038626470337000,16.0443369140625,-0.29077163338661194,0.2626718580722809,-0.06475166976451874
1789038626487591200,16.061591064453125,-0.2577849328517914,0.20280711352825165,-0.10079269111156464
1789038626504845300,16.07884521484375,-0.32681265473365784,0.32009315490722656,-0.06780599057674408
1789038626522099200,16.09609912109375,-0.37262752652168274,0.29626941680908203,0.02626718580722809
1789038626539353300,16.113353271484375,-0.34208428859710693,0.22174391150474548,0.06230820715427399
1789038626556607200,16.130607177734376,-0.3329212963581085,0.16737695038318634,0.056199558079242706
1789038626573861400,16.147861328125,-0.29565855860710144,0.10629047453403473,0.11117739230394363
1789038626591115500,16.165115478515624,-0.21685700118541718,0.11545344442129135,0.13622283935546875
1789038626608369400,16.182369384765625,-0.12461641430854797,0.185092031955719,0.09407317638397217
1789038626625623600,16.19962353515625,-0.05192350596189499,0.15821397304534912,0.10201441496610641
1789038626642877400,16.21687744140625,-0.02932151034474373,0.20158538222312927,0.14294235408306122
1789038626660131600,16.234131591796874,-0.009773836471140385,0.19120067358016968,0.16310089826583862
1789038626677385500,16.251385498046876,-0.010384701192378998,0.2370155304670334,0.20830489695072174
1789038626694639600,16.2686396484375,-0.023212861269712448,0.25411975383758545,0.27488914132118225
1789038626711893500,16.2858935546875,-0.023212861269712448,0.30543237924575806,0.3396408259868622
1789038626729147600,16.303147705078125,0.020158538594841957,0.24801109731197357,0.3585776388645172
1789038626746401800,16.32040185546875,0.053756099194288254,0.17837251722812653,0.32192572951316833
1789038626763655700,16.33765576171875,0.11178825795650482,0.1130099818110466,0.2712239623069763
1789038626780909800,16.354909912109374,0.17165300250053406,0.0873536616563797,0.27855435013771057
1789038626798163700,16.372163818359375,0.24862197041511536,0.07513637095689774,0.3176496922969818
1789038626815417900,16.38941796875,0.26511532068252563,0.07024945318698883,0.3738492429256439
1789038626832671700,16.406671630859375,0.277332603931427,0.059864748269319534,0.40866854786872864
1789038626849926000,16.42392578125,0.29565855860710144,0.007941242307424545,0.4001164436340332
1789038626867180000,16.441179931640626,0.31459537148475647,-0.017104214057326317,0.34697118401527405
1789038626884434000,16.458433837890624,0.3543015718460083,-0.04153880476951599,0.32559093832969666
1789038626901688000,16.47568798828125,0.4013381600379944,-0.001221729558892548,0.32620179653167725
1789038626918942000,16.49294189453125,0.4251618981361389,0.039706211537122726,0.31093016266822815
1789038626936196000,16.510196044921877,0.44348782300949097,0.10018182545900345,0.31520622968673706
1789038626953450200,16.5274501953125,0.4581485986709595,0.16859868168830872,0.3341430425643921
1789038626970704100,16.5447041015625,0.4575377106666565,0.19792018830776215,0.3481929302215576
1789038626987958300,16.561958251953126,0.4526508152484894,0.1747073233127594,0.347582072019577
1789038627005212200,16.579212158203124,0.48013970255851746,0.20158538222312927,0.35124725103378296
1789038627022466300,16.59646630859375,0.5216785073280334,0.3042106628417969,0.3909534513950348
1789038627039720200,16.61372021484375,0.5943714380264282,0.3292561173439026,0.3848448097705841
1789038627056974300,16.630974365234376,0.6737838387489319,0.3341430425643921,0.34147340059280396
1789038627074228500,16.648228515625,0.6921098232269287,0.24862197041511536,0.3848448097705841
1789038627091482400,16.665482421875,0.6957749724388123,0.19181154668331146,0.3836230933666229
1789038627117363500,16.691363525390624,0.6536253094673157,0.15577052533626556,0.35063639283180237
1789038627134617600,16.70861767578125,0.695164144039154,0.12644900381565094,0.4318813979625702
1789038627151871500,16.72587158203125,0.7733548283576965,0.0818558782339096,0.4575377106666565
1789038627169125600,16.743125732421873,0.8216131329536438,-0.024434590712189674,0.4153880476951599
1789038627186379800,16.7603798828125,0.8405499458312988,0.036651886999607086,0.35185810923576355
1789038627203633700,16.777633544921876,0.8552106618881226,0.10934479534626007,0.38789913058280945
1789038627220887800,16.7948876953125,0.8796452879905701,0.1337793916463852,0.32620179653167725
1789038627238141700,16.8121416015625,0.8399390578269958,0.21258094906806946,0.2883281707763672
1789038627255395800,16.829395751953125,0.7415898442268372,0.07391463965177536,0.24923282861709595
1789038627272649700,16.846649658203123,0.6175842881202698,-0.008552107028663158,0.1496618688106537
1789038627289903900,16.86390380859375,0.5748237371444702,-0.06963858753442764,0.06352993845939636
1789038627307158000,16.881157958984375,0.62857985496521,-0.10629047453403473,0.020769402384757996
1789038627324412000,16.898411865234376,0.6780598759651184,-0.03298669680953026,0.01282816007733345
1789038627341666000,16.915666015625,0.6927206516265869,-0.0513126403093338,0.08124501258134842
1789038627358920000,16.932919921875,0.7324268817901611,-0.05497783049941063,0.11239911615848541
1789038627376174000,16.950174072265625,0.8350521326065063,0.004276053514331579,0.143553227186203
1789038627393428200,16.96742822265625,0.9016364216804504,0.026878049597144127,0.15577052533626556
1789038627410682000,16.98468212890625,0.9028581380844116,0.08552107214927673,0.18692462146282196
1789038627427936300,17.001936279296874,0.8381064534187317,0.012217295356094837,0.21868959069252014
1789038627445190100,17.019190185546876,0.7385355234146118,-0.08307760953903198,0.1539379209280014
1789038627462444300,17.0364443359375,0.6676751971244812,-0.05192350596189499,0.0769689604640007
1789038627479698400,17.053698486328123,0.536339282989502,-0.03176496922969818,0.1178968995809555
1789038627496952300,17.070952392578125,0.4984656572341919,0.05253437161445618,0.21380266547203064
1789038627514206500,17.08820654296875,0.6432406306266785,0.09712749719619751,0.14110976457595825
1789038627531460400,17.10546044921875,0.729983389377594,0.1802051067352295,-0.014049889519810677
1789038627548714500,17.122714599609374,0.721431314945221,0.05803215503692627,-0.029932374134659767
1789038627565968600,17.13996875,0.6676751971244812,-0.13561198115348816,-0.03848448023200035
1789038627583222500,17.157222412109373,0.5332849621772766,-0.2987128794193268,-0.10079269111156464
1789038627600476700,17.1744765625,0.4062250852584839,-0.37262752652168274,-0.1533270627260208
1789038627617730600,17.19173046875,0.3549124300479889,-0.3707949221134186,-0.14294235408306122
1789038627634984700,17.208984619140626,0.2834412455558777,-0.32681265473365784,-0.059864748269319534
1789038627652238800,17.22623876953125,0.32131487131118774,-0.30543237924575806,0.03176496922969818
1789038627669492700,17.24349267578125,0.3280344009399414,-0.318871408700943,0.03298669680953026
1789038627686746600,17.26074658203125,0.3555232882499695,-0.21685700118541718,0.02260199747979641
1789038627704000800,17.278000732421877,0.37690356373786926,-0.20830489695072174,0.07269290834665298
1789038627721255000,17.2952548828125,0.22663083672523499,-0.18387030065059662,0.1997527778148651
1789038627738508800,17.3125087890625,0.028099779039621353,-0.15149445831775665,0.31520622968673706
1789038627755763000,17.329762939453126,-0.0818558782339096,-0.19425499439239502,0.268169641494751
1789038627773016800,17.347016845703124,-0.12583814561367035,-0.21135921776294708,0.185092031955719
1789038627790271000,17.36427099609375,-0.10934479534626007,-0.23823726177215576,0.12461641430854797
1789038627807525000,17.381525146484375,-0.0769689604640007,-0.28527384996414185,0.11117739230394363
1789038627824779000,17.398779052734376,-0.07147117704153061,-0.2614501118659973,0.11728604137897491
1789038627842033200,17.416033203125,-0.11545344442129135,-0.22418737411499023,0.09529490768909454
1789038627859287000,17.433287109375,-0.17837251722812653,-0.20158538222312927,0.07452550530433655
1789038627876541200,17.450541259765625,-0.22968515753746033,-0.1893680840730667,0.056810423731803894
1789038627893795300,17.46779541015625,-0.22846342623233795,-0.1954767256975174,0.024434590712189674
1789038627911049200,17.48504931640625,-0.17776164412498474,-0.15210533142089844,-0.023823726922273636
1789038627928303400,17.502303466796874,-0.11911863088607788,-0.07269290834665298,-0.047036588191986084
1789038627945557500,17.5195576171875,-0.09101885557174683,-0.024434590712189674,-0.05253437161445618
1789038627962811400,17.536811279296874,-0.07757982611656189,0,-0.08124501258134842
1789038627980065500,17.5540654296875,-0.04459312930703163,-0.02932151034474373,-0.13439024984836578
1789038627997319400,17.5713193359375,-0.033597562462091446,-0.07574722915887833,-0.19730933010578156
1789038628014573600,17.588573486328126,-0.07330377399921417,-0.07819069176912308,-0.2309068888425827
1789038628031827500,17.605827392578124,-0.11362084746360779,-0.01954767294228077,-0.20341797173023224
1789038628049081600,17.62308154296875,-0.10873392969369888,0.1337793916463852,-0.1740964651107788
1789038628066335700,17.640335693359376,-0.05742128938436508,0.3023780584335327,-0.17898337543010712
1789038628083589600,17.657589599609373,0.03237583488225937,0.40744680166244507,-0.23518294095993042
1789038628100843800,17.67484375,0.01954767294228077,0.4098902642726898,-0.3341430425643921
1789038628118098000,17.692097900390625,-0.1026252806186676,0.4043924808502197,-0.4172206521034241
1789038628135351800,17.709351806640626,-0.2412915825843811,0.4367683231830597,-0.37140578031539917
1789038628152606000,17.72660595703125,-0.3591884970664978,0.564439058303833,-0.24984370172023773
1789038628169859800,17.74385986328125,-0.4410443603992462,0.6719512343406677,-0.10934479534626007
1789038628187114000,17.761114013671875,-0.4514290690422058,0.7086031436920166,-0.07269290834665298
1789038628204368000,17.778367919921877,-0.44409868121147156,0.6432406306266785,-0.12095122784376144
1789038628221622000,17.7956220703125,-0.4251618981361389,0.546113133430481,-0.2406807243824005
1789038628238876000,17.8128759765625,-0.401949018239975,0.3738492429256439,-0.31642794609069824
1789038628256130000,17.830130126953126,-0.40317076444625854,0.23029601573944092,-0.2926042377948761
1789038628273384200,17.84738427734375,-0.43432486057281494,0.25900667905807495,-0.2370155304670334
1789038628290638000,17.86463818359375,-0.516791582107544,0.25900667905807495,-0.2657261788845062
1789038628307892200,17.881892333984375,-0.6249146461486816,0.18753549456596375,-0.379347026348114
1789038628325146000,17.89914599609375,-0.6914989352226257,0.1594357043504715,-0.46059203147888184
1789038628342400300,17.916400146484374,-0.7617483735084534,0.10445787757635117,-0.47097674012184143
1789038628359654400,17.933654296875,-0.7281508445739746,0.08124501258134842,-0.40317076444625854
1789038628376908300,17.950908203125,-0.6890554428100586,0.09590577334165573,-0.33108872175216675
1789038628394162400,17.968162353515623,-0.6792816519737244,0.07086031138896942,-0.35613417625427246
1789038628411416300,17.985416259765625,-0.7189878225326538,0.007330377586185932,-0.43860089778900146
1789038628428670500,18.00267041015625,-0.8118392825126648,-0.08552107214927673,-0.5400044918060303
1789038628445924600,18.019924560546876,-0.870482325553894,-0.22907429933547974,-0.5882627964019775
1789038628463178500,18.037178466796874,-0.9193515181541443,-0.33047783374786377,-0.593149721622467
1789038628480432600,18.0544326171875,-0.8943060636520386,-0.26450446248054504,-0.5687150955200195
1789038628497686500,18.0716865234375,-0.8472694754600525,-0.2559523284435272,-0.5858193039894104
1789038628514940700,18.088940673828127,-0.7910698652267456,-0.16126830875873566,-0.5815432667732239
1789038628532194800,18.10619482421875,-0.7855721116065979,-0.10567960888147354,-0.5894845128059387
1789038628549448700,18.12344873046875,-0.7434224486351013,0.025045456364750862,-0.5870410799980164
1789038628566702800,18.140702880859376,-0.7422007322311401,0.031154103577136993,-0.5699368119239807
1789038628583956700,18.157956787109374,-0.6957749724388123,-0.03176496922969818,-0.6004800796508789
1789038628601211000,18.1752109375,-0.66645348072052,-0.11239911615848541,-0.6438514590263367
1789038628618464800,18.19246484375,-0.7171552777290344,-0.16126830875873566,-0.657290518283844
1789038628635719000,18.209718994140626,-0.730594277381897,-0.24740023910999298,-0.6585122346878052
1789038628652973000,18.22697314453125,-0.7000510096549988,-0.23762640357017517,-0.6035344004631042
1789038628670227000,18.24422705078125,-0.6688969135284424,-0.22418737411499023,-0.5516108870506287
1789038628687481000,18.261481201171875,-0.6994401812553406,-0.12522727251052856,-0.45998117327690125
1789038628704735000,18.27873486328125,-0.6310232877731323,-0.010995565913617611,-0.42088583111763
1789038628721989000,18.295989013671875,-0.62857985496521,-0.1649334877729416,-0.379347026348114
1789038628739243300,18.3132431640625,-0.5815432667732239,-0.29626941680908203,-0.4508182108402252
1789038628756497200,18.3304970703125,-0.5510000586509705,-0.33597561717033386,-0.4838049113750458
1789038628773751300,18.347751220703124,-0.5790998339653015,-0.2626718580722809,-0.4618137776851654
1789038628791005200,18.365005126953125,-0.5974257588386536,-0.17043127119541168,-0.38667741417884827
1789038628808259300,18.38225927734375,-0.5241219997406006,-0.13622283935546875,-0.33169957995414734
1789038628825513500,18.399513427734377,-0.46608981490135193,-0.056810423731803894,-0.3029889166355133
1789038628842767400,18.416767333984374,-0.4263836145401001,-0.01954767294228077,-0.19853104650974274
1789038628860021500,18.434021484375,-0.49968740344047546,0.03237583488225937,-0.03787361457943916
1789038628877275400,18.451275390625,-0.5027416944503784,0.03543015569448471,-0.02871064469218254
1789038628894529500,18.468529541015624,-0.3084867000579834,-0.018325943499803543,-0.011606430634856224
1789038628911783700,18.48578369140625,-0.26389357447624207,0.01954767294228077,0.07635809481143951
1789038628929037600,18.50303759765625,-0.25045454502105713,0.10506874322891235,0.10629047453403473
1789038628946291700,18.520291748046876,-0.23212862014770508,0.14782927930355072,0.1331685185432434
1789038628963545600,18.537545654296874,-0.20219624042510986,0.14233149588108063,0.13683371245861053
1789038628980799700,18.5547998046875,-0.17226386070251465,0.10873392969369888,0.1185077652335167
1789038628998053600,18.5720537109375,-0.1545487940311432,0.0769689604640007,0.14477495849132538
1789038629015307800,18.589307861328123,-0.15821397304534912,0.04581485688686371,0.20891575515270233
1789038629032562000,18.60656201171875,-0.16126830875873566,0.01588248461484909,0.24251331388950348
1789038629049815800,18.62381591796875,-0.1337793916463852,0.04153880476951599,0.27366742491722107
1789038629067070000,18.641070068359376,-0.10567960888147354,0.1026252806186676,0.3243691921234131
1789038629084323800,18.65832373046875,-0.08429934084415436,0.1649334877729416,0.3854556679725647
1789038629101578000,18.675577880859375,-0.05070177838206291,0.20158538222312927,0.47036588191986084
1789038629118832000,18.69283203125,0.006719512399286032,0.23823726177215576,0.5204567909240723
1789038629136086000,18.7100859375,0.07635809481143951,0.20952661335468292,0.555276095867157
1789038629153340200,18.727340087890624,0.12156209349632263,0.16310089826583862,0.5497782826423645
1789038629170594000,18.744593994140626,0.1545487940311432,0.1496618688106537,0.5338957905769348
1789038629187848200,18.76184814453125,0.19242240488529205,0.10506874322891235,0.5326740741729736
1789038629205102000,18.77910205078125,0.21135921776294708,0.056199558079242706,0.5216785073280334
1789038629222356200,18.796356201171875,0.20769402384757996,0.004886918235570192,0.5229002237319946
1789038629239610400,18.8136103515625,0.23518294095993042,-0.02932151034474373,0.5045742988586426
1789038629256864300,18.8308642578125,0.32009315490722656,-0.040317077189683914,0.49418962001800537
1789038629274118400,18.848118408203124,0.3848448097705841,-0.02260199747979641,0.5180133581161499
1789038629291372300,18.865372314453126,0.45509424805641174,0.0513126403093338,0.5351175665855408
1789038629308626400,18.88262646484375,0.5308414697647095,0.17715078592300415,0.5497782826423645
1789038629325880300,18.89988037109375,0.5790998339653015,0.2577849328517914,0.5858193039894104
1789038629343134500,18.917134521484375,0.6053670048713684,0.26450446248054504,0.6096430420875549
1789038629360388600,18.934388671875,0.6579013466835022,0.2419024556875229,0.6866120100021362
1789038629377642500,18.951642578125,0.915686309337616,-0.22418737411499023,0.9199623465538025
1789038629394896600,18.968896728515624,1.166751742362976,0.17898337543010712,0.10018182545900345
1789038629412150500,18.986150634765625,0.9016364216804504,0.535728394985199,0.5784889459609985
1789038629429404700,19.00340478515625,0.8075632452964783,0.536339282989502,0.9303470849990845
1789038629446658600,19.020658447265625,0.7947350740432739,0.4043924808502197,0.7287616729736328
1789038629463912700,19.03791259765625,0.861319363117218,0.03176496922969818,0.4764745235443115
1789038629481166800,19.055166748046876,0.7825177907943726,0.0665842592716217,0.23457208275794983
1789038629498420700,19.072420654296874,0.6322450637817383,-0.28954991698265076,0.23823726177215576
1789038629515675000,19.0896748046875,0.6181951761245728,-0.43982264399528503,0.32070401310920715
1789038629532928800,19.1069287109375,0.7843503952026367,-0.24923282861709595,0.26022839546203613
1789038629550183000,19.124182861328126,0.9560033679008484,0.16187916696071625,0.12278381735086441
1789038629567437000,19.14143701171875,1.1239912509918213,0.3494146466255188,0.10506874322891235
1789038629584691000,19.15869091796875,1.1026109457015991,0.27916520833969116,0.1288924664258957
1789038629601945000,19.175945068359376,0.9492838382720947,0.3029889166355133,0.11056652665138245
1789038629619199000,19.193198974609373,0.8350521326065063,0.15088360011577606,0.0818558782339096
1789038629636453000,19.210453125,0.7043271064758301,-0.013439024798572063,0.08491020649671555
1789038629653707000,19.22770703125,0.6224712133407593,-0.1692095398902893,0.10934479534626007
1789038629670961200,19.244961181640626,0.6591231226921082,-0.14233149588108063,0.1288924664258957
1789038629688215300,19.26221533203125,0.7641918659210205,-0.001221729558892548,0.15149445831775665
1789038629705469200,19.27946923828125,0.9230166673660278,0.07391463965177536,0.23396120965480804
1789038629722723300,19.296723388671875,0.9602794051170349,0.039706211537122726,0.23884813487529755
1789038629739977200,19.313977294921877,0.8484911918640137,-0.018325943499803543,0.16859868168830872
1789038629757231400,19.3312314453125,0.7440332770347595,-0.08368847519159317,0.11178825795650482
1789038629774485500,19.348485595703124,0.6346884965896606,-0.17531819641590118,0.12400554865598679
1789038629791739400,19.365739501953126,0.6652317643165588,-0.21258094906806946,0.14233149588108063
1789038629808993500,19.38299365234375,0.6780598759651184,-0.16615521907806396,0.09896009415388107
1789038629826247400,19.400247314453125,0.5369501113891602,-0.06475166976451874,0.0922405794262886
1789038629843501600,19.41750146484375,0.4770853817462921,-0.12705987691879272,0.09040798991918564
1789038629860755500,19.43475537109375,0.4508182108402252,-0.1386663019657135,0.07147117704153061
1789038629878009600,19.452009521484374,0.42455101013183594,-0.18570289015769958,0.05253437161445618
1789038629895263700,19.469263671875,0.42332929372787476,-0.2828303873538971,0.017715077847242355
1789038629912517600,19.486517578125,0.41905322670936584,-0.28405213356018066,-0.01649334840476513
1789038629929771800,19.503771728515623,0.36285367608070374,-0.20952661335468292,-0.021991131827235222
1789038629947025700,19.521025634765625,0.2510654330253601,-0.1594357043504715,0.001832594396546483
1789038629964279800,19.53827978515625,0.23762640357017517,-0.1386663019657135,0.007330377586185932
1789038629981534000,19.555533935546876,0.15027274191379547,-0.10934479534626007,-0.01954767294228077
1789038629998787800,19.572787841796874,0.07941242307424545,-0.13255766034126282,-0.017715077847242355
1789038630016041700,19.590041748046875,0.09285144507884979,-0.17043127119541168,0.004276053514331579
1789038630033296000,19.6072958984375,0.10995566099882126,-0.2205221801996231,0.006719512399286032
1789038630050550000,19.624550048828127,0.0873536616563797,-0.2156352698802948,-0.006108647678047419
1789038630067804000,19.641803955078124,0.0360410213470459,-0.15821397304534912,-0.027488915249705315
1789038630085058000,19.65905810546875,-0.059864748269319534,-0.10751219838857651,-0.012217295356094837
1789038630102312000,19.67631201171875,-0.13255766034126282,-0.07819069176912308,0.01588248461484909
1789038630119566000,19.693566162109374,-0.17043127119541168,-0.0616973415017128,0.013439024798572063
1789038630136820200,19.7108203125,-0.17592905461788177,0.010995565913617611,-0.0409279391169548
1789038630154074000,19.72807421875,-0.18142683804035187,0.0824667438864708,-0.1130099818110466
1789038630171328300,19.745328369140626,-0.1997527778148651,0.09590577334165573,-0.16004657745361328
1789038630188582400,19.76258251953125,-0.2364046722650528,0.06597339361906052,-0.2003636509180069
1789038630205836300,19.779836181640626,-0.2419024556875229,0.02871064469218254,-0.22174391150474548
1789038630223090200,19.797090087890624,-0.22296564280986786,0.0720820426940918,-0.20280711352825165
1789038630240344300,19.81434423828125,-0.2205221801996231,0.1539379209280014,-0.16249002516269684
1789038630257598500,19.831598388671875,-0.21380266547203064,0.1893680840730667,-0.12522727251052856
1789038630274852400,19.848852294921876,-0.1747073233127594,0.21868959069252014,-0.1282816082239151
1789038630292106500,19.8661064453125,-0.1380554437637329,0.20341797173023224,-0.15210533142089844
1789038630309360400,19.8833603515625,-0.14294235408306122,0.13561198115348816,-0.15027274191379547
1789038630326614500,19.900614501953125,-0.1844811588525772,0.14110976457595825,-0.13072505593299866
1789038630343868700,19.91786865234375,-0.2254091054201126,0.25045454502105713,-0.12461641430854797
1789038630361122600,19.93512255859375,-0.24495677649974823,0.3897317349910736,-0.11606431007385254
1789038630378376700,19.952376708984374,-0.2528980076313019,0.41783151030540466,-0.11911863088607788
1789038630395630600,19.969630615234376,-0.25900667905807495,0.4007273018360138,-0.15271618962287903
1789038630412884700,19.986884765625,-0.2974911332130432,0.4618137776851654,-0.2370155304670334
1789038630430138600,20.004138671875,-0.389120876789093,0.4630354940891266,-0.3439168632030487
1789038630447392800,20.021392822265625,-0.48441576957702637,0.347582072019577,-0.42088583111763
1789038630464647000,20.03864697265625,-0.5980366468429565,0.37140578031539917,-0.43860089778900146
1789038630481900800,20.05590087890625,-0.7367029190063477,0.45875945687294006,-0.4557051360607147
1789038630499155000,20.073155029296874,-0.8717040419578552,0.4379900395870209,-0.41905322670936584
1789038630516408800,20.090408935546876,-0.9621120095252991,0.26450446248054504,-0.36285367608070374
1789038630533663000,20.1076630859375,-1.0439679622650146,0.20219624042510986,-0.4214966893196106
1789038630550917000,20.124917236328123,-0.9743293523788452,0.14599667489528656,-0.5247328281402588
1789038630568171000,20.1421708984375,-0.8784235715866089,-0.015271619893610477,-0.5009090900421143
1789038630585425200,20.159425048828126,-0.8173370957374573,-0.2211330533027649,-0.44470956921577454
1789038630602679000,20.176678955078124,-0.8594867587089539,-0.2309068888425827,-0.4557051360607147
1789038630619933200,20.19393310546875,-0.7623592615127563,-0.09712749719619751,-0.4569268524646759
1789038630637187000,20.21118701171875,-0.5894845128059387,-0.06108647957444191,-0.36774060130119324
1789038630654441200,20.228441162109377,-0.47952884435653687,-0.09896009415388107,-0.3133736252784729
1789038630671695400,20.2456953125,-0.5155698657035828,-0.2205221801996231,-0.43004879355430603
1789038630688949200,20.26294921875,-0.6517927050590515,-0.31642794609069824,-0.5693259835243225
1789038630706203400,20.280203369140626,-0.841160774230957,-0.30604326725006104,-0.6261364221572876
1789038630723457300,20.297457275390624,-0.9401208758354187,-0.27855435013771057,-0.5955931544303894
1789038630740711400,20.31471142578125,-1.053130865097046,-0.27488914132118225,-0.5748237371444702
1789038630757965600,20.331965576171875,-1.01708984375,-0.1740964651107788,-0.5247328281402588
1789038630775219500,20.349219482421876,-0.9260709881782532,-0.25045454502105713,-0.4147771894931793
1789038630792473600,20.3664736328125,-0.9224058389663696,-0.43310311436653137,-0.4098902642726898
1789038630809727500,20.3837275390625,-0.8991929292678833,-0.5216785073280334,-0.3756818473339081
1789038630826981600,20.400981689453126,-0.8246674537658691,-0.5308414697647095,-0.28527384996414185
1789038630844235500,20.418235595703123,-0.8436042666435242,-0.4251618981361389,-0.0873536616563797
1789038630861489700,20.43548974609375,-0.8820887207984924,-0.3194822669029236,0.05803215503692627
1789038630878743600,20.45274365234375,-0.7538071274757385,-0.17592905461788177,0.1490510106086731
1789038630895997700,20.469997802734376,-0.5821541547775269,-0.0818558782339096,0.1539379209280014
1789038630913251800,20.487251953125,-0.5119046568870544,-0.017715077847242355,0.1337793916463852
1789038630930505700,20.504505615234375,-0.555276095867157,-0.000610864779446274,0.1081230640411377
1789038630947759900,20.521759765625,-0.593149721622467,0.01649334840476513,0.06108647957444191
1789038630965013800,20.539013671875,-0.5607738494873047,-0.05436696484684944,-0.020158538594841957
1789038630982268000,20.556267822265625,-0.4886918365955353,-0.13744457066059113,-0.04520399495959282
1789038630999521800,20.573521728515626,-0.4257727563381195,-0.20402882993221283,-0.046425722539424896
1789038631016776000,20.59077587890625,-0.411722868680954,-0.19120067358016968,-0.0769689604640007
1789038631034030000,20.608030029296874,-0.3543015718460083,-0.14660754799842834,-0.0824667438864708
1789038631051284000,20.625283935546875,-0.2938259541988373,-0.0977383628487587,-0.08368847519159317
1789038631068538000,20.6425380859375,-0.2779434621334076,0.1288924664258957,-0.04764745384454727
1789038631085792000,20.6597919921875,-0.21258094906806946,0.277332603931427,-0.018325943499803543
1789038631103046100,20.677046142578124,-0.11972949653863907,0.39217519760131836,0.02932151034474373
1789038631120300300,20.69430029296875,-0.017715077847242355,0.3543015718460083,0.0409279391169548
1789038631137554200,20.71155419921875,0.020158538594841957,0.2932150959968567,0.04214967042207718
1789038631154808300,20.728808349609373,0.03543015569448471,0.14049890637397766,0.07086031138896942
1789038631172062200,20.746062255859375,0.03543015569448471,0.12767073512077332,0.043371398001909256
1789038631189316400,20.76331640625,0.0818558782339096,0.1588248461484909,0.056199558079242706
1789038631206570200,20.7805703125,0.1337793916463852,0.22663083672523499,0.17776164412498474
1789038631223824400,20.797824462890624,0.17531819641590118,0.32070401310920715,0.27488914132118225
1789038631241078500,20.81507861328125,0.21197007596492767,0.29504770040512085,0.2938259541988373
1789038631258332400,20.83233251953125,0.21930044889450073,0.20891575515270233,0.24862197041511536
1789038631275586600,20.849586669921877,0.19730933010578156,0.1533270627260208,0.20769402384757996
1789038631292840400,20.86684033203125,0.20952661335468292,0.07574722915887833,0.23212862014770508
1789038631310094600,20.884094482421876,0.23945899307727814,-0.011606430634856224,0.26022839546203613
1789038631327348500,20.901348388671874,0.2663370370864868,-0.04214967042207718,0.24373504519462585
1789038631344602600,20.9186025390625,0.28405213356018066,-0.049480047076940536,0.22785256803035736
1789038631361856800,20.935856689453125,0.32009315490722656,-0.014049889519810677,0.277332603931427
1789038631379110700,20.953110595703127,0.36285367608070374,0.06047561392188072,0.3500255048274994
1789038631396364500,20.970364501953124,0.40927940607070923,0.06352993845939636,0.45509424805641174
1789038631413618700,20.98761865234375,0.45326167345046997,0.031154103577136993,0.4825831651687622
1789038631430872800,21.004872802734376,0.5485565662384033,-0.004886918235570192,0.4764745235443115
1789038631448126700,21.022126708984374,0.6444623470306396,0.056199558079242706,0.4868592321872711
1789038631465380900,21.039380859375,0.6963858604431152,0.14172062277793884,0.5668824911117554
1789038631482634800,21.056634765625,0.7703005075454712,0.08063415437936783,0.5809323787689209
1789038631499889000,21.073888916015626,0.8741474747657776,0.03787361457943916,0.49113526940345764
1789038631517142800,21.091142822265624,0.9468404054641724,0.07147117704153061,0.4569268524646759
1789038631534397000,21.10839697265625,0.9566142559051514,0.12095122784376144,0.5302306413650513
1789038631551651000,21.125651123046875,0.9743293523788452,0.020158538594841957,0.4917461574077606
1789038631568905000,21.142905029296877,0.9450078010559082,-0.001221729558892548,0.4172206521034241
1789038631586159000,21.1601591796875,0.953559935092926,-0.05558869615197182,0.40927940607070923
1789038631603413000,21.1774130859375,1.0067051649093628,-0.06047561392188072,0.42455101013183594
1789038631620667100,21.194667236328126,1.0103703737258911,0.004276053514331579,0.4263836145401001
1789038631637921000,21.211921142578124,0.9071341753005981,0.020769402384757996,0.3970620930194855
1789038631655175200,21.229175048828125,0.768467903137207,-0.09101885557174683,0.33169957995414734
1789038631672429300,21.24642919921875,0.6420188546180725,-0.15699224174022675,0.26511532068252563
1789038631689683200,21.26368310546875,0.5882627964019775,-0.21197007596492767,0.24006985127925873
1789038631706937300,21.280937255859374,0.565049946308136,-0.27366742491722107,0.16249002516269684
