time,seconds_elapsed,z,y,x
1789038610506843600,0.08084375,7.714460372924805,0.8614161610603333,-2.1367905139923096
1789038610524097500,0.09809765625,6.570691108703613,1.428515076637268,-3.713660717010498
1789038610541351700,0.1153515625,7.010970115661621,1.2729816436767578,-3.7016966342926025
1789038610558605600,0.13260546875,7.429714202880859,0.24885354936122894,-1.6701902151107788
1789038610575859500,0.149859375,9.183652877807617,0.8255237936973572,-1.0815558433532715
1789038610593113300,0.16711328125,11.23908805847168,1.612762451171875,-2.5220351219177246
1789038610610367200,0.1843671875,11.430513381958008,2.2085752487182617,-3.311666488647461
1789038610627621400,0.201621337890625,9.851250648498535,2.4598217010498047,-4.661218643188477
1789038610644875300,0.218875244140625,8.894122123718262,3.136990547180176,-6.4701924324035645
1789038610662129200,0.236129150390625,8.556734085083008,1.7802600860595703,-4.6995038986206055
1789038610679383000,0.253383056640625,8.403593063354492,1.1102696657180786,-2.548356056213379
1789038610696637000,0.270636962890625,8.784051895141602,2.3330020904541016,-2.526820659637451
1789038610713891000,0.28789111328125,9.221938133239746,1.7395820617675781,-1.4763715267181396
1789038610731145000,0.30514501953125,9.257830619812012,1.8161523342132568,-0.8781659007072449
1789038610748398800,0.32239892578125,9.889535903930664,2.313859462738037,-1.7730815410614014
1789038610765652700,0.33965283203125,10.418350219726562,2.9312076568603516,-2.1343977451324463
1789038610782906600,0.35690673828125,9.856036186218262,2.4813570976257324,-2.2755744457244873
1789038610800160800,0.374160888671875,8.69791030883789,2.6847469806671143,-3.115455150604248
1789038610817414700,0.39141455078125,7.824530124664307,2.5459632873535156,-2.2205393314361572
1789038610834668500,0.40866845703125,8.286344528198242,2.5076780319213867,-2.4765713214874268
1789038610851922400,0.42592236328125,8.803194046020508,2.3736801147460938,-2.416750907897949
1789038610869176600,0.443176513671875,9.181260108947754,2.1367905139923096,-2.2468605041503906
1789038610886430500,0.460430419921875,9.425328254699707,2.455035924911499,-2.359323024749756
1789038610903684400,0.477684326171875,10.277173042297363,2.644068956375122,-2.280359983444214
1789038610920938200,0.494938232421875,9.78664493560791,2.053041934967041,-1.6247265338897705
1789038610938192400,0.5121923828125,9.109476089477539,1.7371892929077148,-0.8446664214134216
1789038610955446300,0.5294462890625,9.080761909484863,2.335394859313965,-0.7345965504646301
1789038610972700200,0.5467001953125,9.315258979797363,2.5674986839294434,-0.5862415432929993
1789038610989954000,0.5639541015625,9.580862045288086,2.328216314315796,0.062213387340307236
1789038611007208000,0.5812080078125,9.664610862731934,2.045863389968872,0.1459621787071228
1789038611024462000,0.598462158203125,9.272188186645508,1.9453648328781128,0.07417750358581543
1789038611041716000,0.615716064453125,8.865407943725586,2.155933141708374,0.31824541091918945
1789038611058969900,0.632969970703125,9.109476089477539,2.2396819591522217,0.45942193269729614
1789038611076224000,0.65022412109375,9.588040351867676,2.007578134536743,0.5790630578994751
1789038611093478000,0.667477783203125,9.657432556152344,1.9022940397262573,0.10289137065410614
1789038611110731800,0.684731689453125,8.956335067749023,1.8616160154342651,0.016749758273363113
1789038611127985700,0.701985595703125,8.669196128845215,2.1296122074127197,-0.2392822653055191
1789038611145239600,0.719239501953125,9.382257461547852,2.194218397140503,-0.5575276613235474
1789038611162493700,0.73649365234375,9.966106414794922,1.4620146751403809,0.2632105052471161
1789038611179747600,0.75374755859375,10.009177207946777,1.210768222808838,-0.1746760457754135
1789038611197001500,0.77100146484375,10.41356372833252,1.215553879737854,-0.4163511395454407
1789038611214255400,0.78825537109375,11.076375961303711,1.0289137363433838,-0.35413774847984314
1789038611231509200,0.80550927734375,11.397014617919922,0.8398807644844055,-0.3565305769443512
1789038611248763400,0.822763427734375,11.291729927062988,0.7657032608985901,-0.38285163044929504
1789038611266017300,0.840017333984375,10.576275825500488,0.9284151792526245,-0.6269195079803467
1789038611283271200,0.857271240234375,10.066604614257812,1.0863415002822876,-0.8925228714942932
1789038611300525300,0.874525390625,9.944570541381836,1.0648061037063599,-1.0839486122131348
1789038611317779200,0.891779296875,9.942177772521973,0.9236295223236084,-1.28255295753479
1789038611335033000,0.909033203125,9.846465110778809,0.9858429431915283,-1.4117653369903564
1789038611352287000,0.926286865234375,9.702896118164062,1.1222338676452637,-1.1222338676452637
1789038611369540900,0.943540771484375,9.20279598236084,1.2323036193847656,-1.0648061037063599
1789038611386794800,0.960794677734375,8.963513374328613,1.2729816436767578,-1.3543375730514526
1789038611404049000,0.978048828125,9.166903495788574,1.1676974296569824,-1.404586911201477
1789038611421302800,0.995302734375,9.351150512695312,1.2993026971817017,-1.0815558433532715
1789038611438556700,1.012556640625,9.57607650756836,1.332802176475525,-1.0432707071304321
1789038611455810800,1.029810791015625,9.549755096435547,1.2083754539489746,-1.2801600694656372
1789038611473064700,1.047064697265625,9.446864128112793,1.0289137363433838,-1.301695466041565
1789038611490318600,1.064318603515625,9.45882797241211,1.153340458869934,-1.3208380937576294
1789038611507572500,1.081572509765625,9.80817985534668,1.3639088869094849,-1.306481122970581
1789038611524826400,1.098826416015625,9.774680137634277,1.3040883541107178,-1.34476637840271
1789038611542080500,1.11608056640625,9.343972206115723,1.2370892763137817,-1.4859428405761719
1789038611559334400,1.13333447265625,9.056833267211914,1.2634103298187256,-1.34476637840271
1789038611576588300,1.15058837890625,9.205188751220703,1.2705888748168945,-1.3423734903335571
1789038611593842200,1.16784228515625,9.951749801635742,1.3112667798995972,-1.0456634759902954
1789038611611096300,1.185096435546875,10.40638542175293,1.5098711252212524,-1.1030912399291992
1789038611628350200,1.20235009765625,10.17428207397461,1.4428720474243164,-1.1868400573730469
1789038611645604000,1.21960400390625,9.686145782470703,1.3351950645446777,-1.3782658576965332
1789038611662858000,1.23685791015625,9.346364974975586,1.4117653369903564,-1.3040883541107178
1789038611680112000,1.254112060546875,9.291330337524414,1.5744773149490356,-1.1892328262329102
1789038611697366000,1.271365966796875,9.293723106384277,1.5050854682922363,-1.0863415002822876
1789038611714620000,1.288619873046875,9.743574142456055,1.3926228284835815,-1.1054840087890625
1789038611731873800,1.305873779296875,9.9469633102417,1.5194423198699951,-0.7657032608985901
1789038611749127700,1.323127685546875,9.592825889587402,1.8161523342132568,0
1789038611766381800,1.3403818359375,9.34875774383545,2.0745773315429688,-0.07417750358581543
1789038611783635700,1.3576357421875,8.640482902526855,1.7611174583435059,-0.4618147611618042
1789038611800889600,1.3748896484375,9.116654396057129,1.184447169303894,-0.0933200865983963
1789038611818143500,1.3921435546875,8.999405860900879,0.8757730722427368,-0.4091726839542389
1789038611835397600,1.409397705078125,10.248459815979004,1.703689694404602,0.8638089895248413
1789038611852651500,1.426651611328125,10.822736740112305,1.2179467678070068,2.981456995010376
1789038611869905400,1.443905517578125,12.720245361328125,0.7657032608985901,2.1846470832824707
1789038611887159300,1.4611591796875,11.626725196838379,1.0456634759902954,0.7130611538887024
1789038611904413400,1.478413330078125,10.202995300292969,0.08135596662759781,-0.6460621356964111
1789038611921667300,1.495667236328125,11.753544807434082,-0.8566305041313171,-1.7587246894836426
1789038611938921200,1.512921142578125,12.665210723876953,0.8542376756668091,1.0097711086273193
1789038611956175000,1.530175048828125,10.250852584838867,1.0145567655563354,1.8616160154342651
1789038611973429200,1.54742919921875,8.286344528198242,0.34695929288864136,-0.2799602448940277
1789038611990683100,1.56468310546875,8.365307807922363,0.2967100143432617,-1.4835500717163086
1789038612007937000,1.58193701171875,10.437492370605469,-0.10767702013254166,-1.6558332443237305
1789038612025191000,1.59919091796875,8.360522270202637,0.27038896083831787,2.352144718170166
1789038612042444800,1.61644482421875,6.376872539520264,0.9116654396057129,2.3976082801818848
1789038612059699000,1.633698974609375,7.417750358581543,-0.2632105052471161,0.5312066078186035
1789038612076952800,1.650952880859375,9.32722282409668,-1.3184453248977661,-0.973878800868988
1789038612094206700,1.668206787109375,9.554540634155273,-2.9359934329986572,0.4259224236011505
1789038612111460600,1.685460693359375,8.827122688293457,-2.667997360229492,2.998206853866577
1789038612128714800,1.70271484375,6.472585201263428,-2.266003131866455,3.672982692718506
1789038612145968600,1.71996875,6.364908218383789,-2.775674343109131,-0.1052841991186142
1789038612163222500,1.737222412109375,6.355337142944336,-4.510470867156982,-0.7824530005455017
1789038612180476400,1.754476318359375,5.402993679046631,-4.934000492095947,2.029113531112671
1789038612197730600,1.77173046875,5.565705299377441,-4.759324073791504,7.149754047393799
1789038612214984400,1.788984375,6.798008918762207,-4.314259052276611,8.563912391662598
1789038612232238300,1.80623828125,5.745167255401611,-3.9146578311920166,8.38684368133545
1789038612249492200,1.8234921875,3.311666488647461,-2.7038896083831787,9.329615592956543
1789038612266746000,1.84074609375,2.6775684356689453,-0.064606212079525,9.415757179260254
1789038612284000300,1.858000244140625,2.5292134284973145,1.129412293434143,9.56650447845459
1789038612309881000,1.883881103515625,-0.08374879509210587,1.8640087842941284,10.88973617553711
1789038612327135000,1.901135009765625,0.44027936458587646,0.2871387302875519,11.684152603149414
1789038612344389000,1.91838916015625,5.374279499053955,-0.48095735907554626,12.524033546447754
1789038612361643000,1.93564306640625,8.248059272766113,-1.184447169303894,9.162117958068848
1789038612378897000,1.95289697265625,7.625925540924072,-3.1274192333221436,5.927021503448486
1789038612396150800,1.97015087890625,9.580862045288086,-4.479363918304443,5.1565327644348145
1789038612413405000,1.987405029296875,10.037891387939453,-4.800002098083496,6.786045074462891
1789038612430658800,2.004658935546875,8.051848411560059,-4.388436794281006,8.731410026550293
1789038612447912700,2.02191259765625,6.8482584953308105,-3.4265220165252686,9.678967475891113
1789038612465166600,2.03916650390625,5.163711071014404,-3.87876558303833,8.80798053741455
1789038612482420500,2.05642041015625,2.8737800121307373,-4.5583271980285645,7.613961696624756
1789038612499674600,2.073674560546875,1.612762451171875,-4.252045631408691,9.358329772949219
1789038612516928500,2.090928466796875,2.045863389968872,-3.6394832134246826,11.353943824768066
1789038612534182400,2.108182373046875,2.392822742462158,-4.610969066619873,11.2247314453125
1789038612551436300,2.125436279296875,2.7972097396850586,-4.73300313949585,11.873186111450195
1789038612568690400,2.1426904296875,3.4193434715270996,-4.383651256561279,12.356535911560059
1789038612585944300,2.1599443359375,-0.08614161610603333,-4.359723091125488,11.763115882873535
1789038612603198200,2.1771982421875,-1.2370892763137817,-5.472385406494141,11.3180513381958
1789038612620452000,2.1944521484375,-0.9786644577980042,-5.594419479370117,9.578469276428223
1789038612637706200,2.211706298828125,0.5048855543136597,-6.013163089752197,9.812965393066406
1789038612654960000,2.228960205078125,1.1892328262329102,-8.769695281982422,8.307880401611328
1789038612680840700,2.2548408203125,5.601597785949707,-9.272188186645508,8.556734085083008
1789038612706722000,2.28072216796875,5.38624382019043,-9.521040916442871,5.2043890953063965
1789038612723976000,2.297975830078125,1.1126625537872314,-8.415556907653809,4.443471431732178
1789038612741229800,2.315229736328125,-3.1513473987579346,-7.171289443969727,6.515655994415283
1789038612758483700,2.332483642578125,-4.036691665649414,-6.805187702178955,8.322237014770508
1789038612775737900,2.34973779296875,-0.2847459018230438,-7.216753005981445,8.93958568572998
1789038612792991700,2.36699169921875,-1.3495519161224365,-6.532405853271484,8.4562349319458
1789038612810245600,2.38424560546875,-1.4811571836471558,-5.974878311157227,8.920442581176758
1789038612827499500,2.40149951171875,-0.6221339106559753,-5.426921844482422,10.947163581848145
1789038612844753400,2.41875341796875,-0.6939185857772827,-4.869394302368164,14.139188766479492
1789038612870634500,2.444634521484375,0.32542386651039124,-4.376472473144531,11.229516983032227
1789038612887888400,2.461888427734375,-0.01196411345154047,-4.3310089111328125,3.9625144004821777
1789038612905142300,2.479142333984375,0.6580262184143066,-6.309873104095459,3.3547372817993164
1789038612922396200,2.496396240234375,-1.306481122970581,-4.551148891448975,7.714460372924805
1789038612948277200,2.52227734375,-1.526620864868164,-4.091726779937744,3.7974095344543457
1789038612965531100,2.53953125,-1.6342978477478027,-4.115654945373535,6.965506553649902
1789038612982785000,2.556784912109375,-1.7682958841323853,-3.2374889850616455,9.614361763000488
1789038613000039200,2.5740390625,-2.9288148880004883,-1.1629117727279663,11.078768730163574
1789038613017293000,2.59129296875,-1.7156537771224976,0.2153540402650833,11.913864135742188
1789038613034547000,2.608546875,-2.053041934967041,0.08135596662759781,11.784651756286621
1789038613051800800,2.62580078125,-1.337587833404541,-1.031306505203247,9.291330337524414
1789038613069054700,2.6430546875,-1.9334007501602173,-1.9046868085861206,6.295516490936279
1789038613086308600,2.66030859375,-1.667797327041626,-1.459621787071228,7.178467750549316
1789038613103562800,2.677562744140625,-2.816352367401123,-1.00259268283844,8.50169849395752
1789038613120816600,2.694816650390625,-3.28773832321167,-0.7848458290100098,7.302894592285156
1789038613138070500,2.712070556640625,-2.390429735183716,1.1174482107162476,6.486942291259766
1789038613155324400,2.729324462890625,0.5407779216766357,2.0338993072509766,6.173482418060303
1789038613172578600,2.74657861328125,1.0552347898483276,-0.13160525262355804,5.647061347961426
1789038613189832400,2.76383251953125,3.2997024059295654,-0.9930213689804077,6.400800704956055
1789038613207086300,2.78108642578125,-1.8759729862213135,-3.7256247997283936,10.15753173828125
1789038613224340200,2.79834033203125,-6.606583118438721,-3.524627685546875,11.641081809997559
1789038613241594000,2.815593994140625,-6.613761901855469,-5.218746185302734,11.846864700317383
1789038613258848300,2.83284814453125,-2.400001049041748,-5.525027275085449,9.454042434692383
1789038613276102100,2.85010205078125,-2.775674343109131,-5.647061347961426,9.107083320617676
1789038613293356000,2.86735595703125,-5.869594097137451,-4.572684288024902,10.26760196685791
1789038613310610000,2.88460986328125,-3.1800613403320312,-2.7421748638153076,12.246466636657715
1789038613327864000,2.901864013671875,-2.957528829574585,-4.835894584655762,10.674382209777832
1789038613345118000,2.919117919921875,-3.7567315101623535,-3.249453067779541,8.673981666564941
1789038613362371800,2.936371826171875,-3.036491870880127,-4.1659040451049805,8.614161491394043
1789038613379626000,2.9536259765625,-1.4931213855743408,-3.452843189239502,9.80100154876709
1789038613396880000,2.9708798828125,-0.11246266216039658,-1.5314065217971802,9.047262191772461
1789038613414133800,2.9881337890625,-2.8522446155548096,-1.2131611108779907,8.025527000427246
1789038613431387600,3.0053876953125,-5.867201328277588,-0.20338992774486542,6.7692952156066895
1789038613448641800,3.022641845703125,-5.197210788726807,-1.1413763761520386,6.9583282470703125
1789038613465895700,3.039895751953125,-2.495713949203491,-2.0817556381225586,8.46341323852539
1789038613483149600,3.057149658203125,-0.5694918036460876,-4.730610370635986,8.437092781066895
1789038613500403500,3.074403564453125,-0.8159525394439697,-8.236095428466797,7.269395351409912
1789038613517657600,3.09165771484375,-0.3613162338733673,-9.92542839050293,8.030312538146973
1789038613534911500,3.108911376953125,-0.35892340540885925,-9.265008926391602,9.561718940734863
1789038613552165400,3.126165283203125,-1.9597218036651611,-6.329015731811523,5.338387489318848
1789038613569419500,3.14341943359375,-3.8763725757598877,-3.680161237716675,7.458428382873535
1789038613586673400,3.16067333984375,-2.366501569747925,-3.7016966342926025,8.671588897705078
1789038613603927300,3.17792724609375,1.521835207939148,-4.589433670043945,10.494919776916504
1789038613621181200,3.19518115234375,-0.38763725757598877,-3.720839262008667,8.762516975402832
1789038613638435300,3.212435302734375,1.3902299404144287,-3.675375461578369,8.236095428466797
1789038613655689200,3.229689208984375,2.4023938179016113,-2.943171739578247,9.126225471496582
1789038613672943000,3.246943115234375,-0.3924229145050049,0.5120640397071838,10.243673324584961
1789038613690197000,3.264197021484375,-1.8113667964935303,0.8159525394439697,7.956135272979736
1789038613707451100,3.281451171875,-1.28255295753479,-1.5601203441619873,7.9657063484191895
1789038613724705000,3.298705078125,-1.672582983970642,-3.0939197540283203,8.678768157958984
1789038613741959200,3.315959228515625,-1.2370892763137817,-3.696911096572876,8.922835350036621
1789038613759213000,3.333213134765625,-1.4021940231323242,-4.515256404876709,8.841479301452637
1789038613776467000,3.350467041015625,-2.2468605041503906,-5.505885124206543,9.396614074707031
1789038613793721000,3.36772119140625,-3.050848960876465,-6.001199245452881,9.643074989318848
1789038613810975000,3.38497509765625,-2.344966173171997,-5.505885124206543,8.585447311401367
1789038613828228900,3.402228759765625,-0.45224347710609436,1.2011969089508057,6.64486837387085
1789038613845482800,3.419482666015625,2.218146562576294,4.656432628631592,5.532206058502197
1789038613862737000,3.43673681640625,-1.495514154434204,-5.151747226715088,7.853243827819824
1789038613879990800,3.45399072265625,-5.580062389373779,-4.9052863121032715,7.905886173248291
1789038613897245000,3.471244873046875,-3.3930225372314453,-3.7878382205963135,8.34855842590332
1789038613914498800,3.488498779296875,-4.024727821350098,-8.295916557312012,10.348958015441895
1789038613931752700,3.505752685546875,0.6699903607368469,-6.0849480628967285,7.585247993469238
1789038613949006600,3.523006591796875,1.8137595653533936,-4.2592244148254395,5.355136871337891
1789038613966260700,3.5402607421875,-2.8426733016967773,-7.525427341461182,7.137789726257324
1789038613983514600,3.5575146484375,-6.941578388214111,-9.595218658447266,10.073782920837402
1789038614000768800,3.574768798828125,-2.9694929122924805,-7.171289443969727,10.370492935180664
1789038614018022700,3.592022705078125,0.42352959513664246,-3.7232320308685303,8.908478736877441
1789038614035276500,3.609276611328125,0.42352959513664246,-6.556334018707275,5.608776092529297
1789038614052530400,3.626530517578125,-1.7874385118484497,-9.162117958068848,8.142775535583496
1789038614069784600,3.64378466796875,-3.6059837341308594,-11.320444107055664,6.448657035827637
1789038614087038500,3.66103857421875,-2.4095723628997803,-8.709874153137207,7.544569969177246
1789038614104292600,3.678292724609375,-1.435693621635437,-6.788437843322754,8.102097511291504
1789038614121546500,3.69554638671875,-2.0673987865448,-6.364908218383789,8.683553695678711
1789038614138800400,3.71280029296875,-1.8975083827972412,-6.8482584953308105,6.833901405334473
1789038614156054500,3.730054443359375,-1.3710874319076538,-6.620940208435059,7.582854747772217
1789038614173308400,3.747308349609375,-0.1866401731967926,-4.9986066818237305,5.905486106872559
1789038614190562300,3.764562255859375,-3.4887354373931885,-4.761716842651367,8.334200859069824
1789038614207816400,3.78181640625,-1.7515461444854736,-6.63769006729126,8.0350980758667
1789038614225070300,3.7990703125,-1.4452649354934692,-6.903293132781982,7.267002582550049
1789038614242324500,3.816324462890625,-2.5220351219177246,-5.089533805847168,6.745367050170898
1789038614259578400,3.833578369140625,-1.4021940231323242,-5.1876397132873535,7.573283672332764
1789038614276832500,3.85083251953125,-2.124826431274414,-5.769095420837402,7.652246952056885
1789038614294086400,3.86808642578125,-1.373480200767517,-7.511070251464844,7.946564197540283
1789038614311340500,3.885340576171875,2.3090739250183105,-5.13021183013916,6.819544315338135
1789038614328594400,3.902594482421875,-1.7204394340515137,-6.893722057342529,7.549355506896973
1789038614345848300,3.919848388671875,-1.550549030303955,-8.396414756774902,6.333801746368408
1789038614363102500,3.9371025390625,0.12681959569454193,-9.846465110778809,8.398807525634766
1789038614380356400,3.9543564453125,-1.7539390325546265,-6.927221775054932,8.683553695678711
1789038614397610500,3.971610595703125,-5.06799840927124,-4.218546390533447,6.4510498046875
1789038614414864400,3.988864501953125,-2.414358139038086,-5.225924491882324,5.13739013671875
1789038614432118300,4.0061181640625,-0.4139583110809326,-3.3379876613616943,7.501499176025391
1789038614449372400,4.023372314453125,-1.8592232465744019,-3.0628130435943604,8.147561073303223
1789038614466626300,4.040626220703125,-4.0079779624938965,-4.704289436340332,7.551748275756836
1789038614483880400,4.05788037109375,-1.7778671979904175,-7.11146879196167,5.6925249099731445
1789038614501134300,4.07513427734375,-1.734796404838562,-7.683353424072266,5.986842155456543
1789038614518388500,4.092388427734375,-2.3784656524658203,-6.149554252624512,7.611568927764893
1789038614535642400,4.109642333984375,-1.3423734903335571,-5.139782905578613,6.049055576324463
1789038614552896500,4.126896484375,-2.043470621109009,-6.223731517791748,6.9583282470703125
1789038614570150400,4.144150390625,-4.242474555969238,-6.900900363922119,6.8554368019104
1789038614587404300,4.161404296875,-3.139383316040039,-7.341179847717285,6.5874409675598145
1789038614604658400,4.178658447265625,-3.4025938510894775,-9.573683738708496,7.345965385437012
1789038614621912300,4.195912353515625,-2.9766714572906494,-8.69791030883789,5.565705299377441
1789038614639166200,4.213166259765625,-2.5148565769195557,-9.154939651489258,4.512863636016846
1789038614656420400,4.23042041015625,-2.799602508544922,-8.396414756774902,5.149354457855225
1789038614673674200,4.24767431640625,-3.0556344985961914,-7.149754047393799,5.077569484710693
1789038614690928400,4.264928466796875,-2.909672260284424,-7.814958572387695,6.446264266967773
1789038614708182300,4.282182373046875,-2.132004976272583,-8.654839515686035,6.333801746368408
1789038614725436200,4.299436279296875,-3.005385160446167,-6.802794933319092,6.484549522399902
1789038614742690300,4.316690185546875,-3.7471601963043213,-5.831308841705322,5.838487148284912
1789038614759944200,4.333944091796875,-3.3403804302215576,-6.819544315338135,4.78803825378418
1789038614777198000,4.351197998046875,-2.5531418323516846,-6.711867332458496,4.177868366241455
1789038614794452200,4.3684521484375,-2.555534601211548,-6.608976364135742,5.515456199645996
1789038614811706000,4.3857060546875,-3.0245277881622314,-7.061219692230225,5.862415313720703
1789038614828960300,4.402960205078125,-3.7256247997283936,-7.190432071685791,7.621140003204346
1789038614846214100,4.420214111328125,-3.3068809509277344,-6.838686943054199,6.9822564125061035
1789038614863468000,4.437468017578125,-2.5938198566436768,-6.489335060119629,5.515456199645996
1789038614880722200,4.45472216796875,-3.084348440170288,-4.764110088348389,5.72123908996582
1789038614897976000,4.47197607421875,-3.0963125228881836,-4.185046672821045,4.776073932647705
1789038614915230000,4.48922998046875,-3.043670415878296,-3.830909013748169,3.809373617172241
1789038614932484000,4.506484130859375,-2.6249263286590576,-3.902693748474121,4.768895626068115
1789038614949738000,4.523738037109375,-2.5363919734954834,-4.984249591827393,4.393222332000732
1789038614966992100,4.5409921875,-2.4406790733337402,-8.920442581176758,7.738388538360596
1789038614984246000,4.55824609375,-1.8137595653533936,-10.325029373168945,5.678168296813965
1789038615001500000,4.5755,-2.311466693878174,-11.162517547607422,4.0797624588012695
1789038615018753800,4.59275390625,-3.136990547180176,-10.62413215637207,3.656233072280884
1789038615036008000,4.610008056640625,-1.4715858697891235,-12.854243278503418,7.226324558258057
1789038615053261800,4.62726171875,-3.462414264678955,-10.923234939575195,4.034298896789551
1789038615070515700,4.644515625,-3.460021495819092,-10.37767219543457,1.1940184831619263
1789038615087769600,4.66176953125,-2.3856441974639893,-10.971092224121094,1.8759729862213135
1789038615105023700,4.679023681640625,-2.7589244842529297,-9.396614074707031,2.60339093208313
1789038615122277600,4.696277587890625,-2.5914268493652344,-10.913663864135742,1.368694543838501
1789038615139531500,4.713531494140625,-4.474578380584717,-9.219545364379883,2.6536402702331543
1789038615156785700,4.73078564453125,-2.416750907897949,-11.344371795654297,7.039684295654297
1789038615174039600,4.74803955078125,-2.256431818008423,-10.571490287780762,5.4795637130737305
1789038615191293700,4.765293701171875,-4.359723091125488,-8.571090698242188,1.9764715433120728
1789038615208547600,4.782547607421875,-3.4576287269592285,-10.100104331970215,5.123033046722412
1789038615225801500,4.799801513671875,-2.7326035499572754,-9.05444049835205,6.412764549255371
1789038615243055400,4.817055419921875,-2.187039852142334,-7.470392227172852,4.35254430770874
1789038615260309500,4.8343095703125,-3.290131092071533,-6.486942291259766,1.6414763927459717
1789038615277563400,4.8515634765625,-1.6055840253829956,-8.640482902526855,1.9621145725250244
1789038615294817300,4.8688173828125,-0.41156548261642456,-8.848658561706543,3.6394832134246826
1789038615312071400,4.886071533203125,-1.825723648071289,-9.590433120727539,6.305087566375732
1789038615329325300,4.9033251953125,-2.723032236099243,-6.230910301208496,13.586446762084961
1789038615346579200,4.9205791015625,-2.878565549850464,-2.2396819591522217,15.158531188964844
1789038615363833300,4.937833251953125,-2.8498518466949463,-0.8781659007072449,7.080362319946289
1789038615381087200,4.955087158203125,-2.6249263286590576,0.18424734473228455,1.9022940397262573
1789038615398341000,4.972341064453125,-2.550748825073242,-2.1056840419769287,6.149554252624512
1789038615415595000,4.989594970703125,-4.304687976837158,-3.242274761199951,6.491727828979492
1789038615432849200,5.00684912109375,-2.8283164501190186,-4.35254430770874,5.958128452301025
1789038615450103000,5.02410302734375,-1.8424733877182007,-4.658825874328613,3.570091485977173
1789038615467357200,5.041357177734375,-2.2540390491485596,-4.6301116943359375,1.801795482635498
1789038615484611000,5.058611083984375,-2.1655044555664062,-4.54636287689209,3.414557933807373
1789038615501865000,5.075864990234375,-1.4404792785644531,-5.431707382202148,4.804787635803223
1789038615519119000,5.093119140625,-2.7876384258270264,-6.98704195022583,8.327022552490234
1789038615536373000,5.110373046875,-3.460021495819092,-8.846264839172363,6.685546398162842
1789038615553627000,5.127626953125,-1.215553879737854,-10.686346054077148,3.641875982284546
1789038615570880800,5.144880859375,-1.7994025945663452,-12.981062889099121,2.6632115840911865
1789038615588135000,5.162135009765625,-1.4404792785644531,-13.940585136413574,3.6921253204345703
1789038615605388800,5.179388916015625,-1.9022940397262573,-12.981062889099121,3.3619158267974854
1789038615622642700,5.196642578125,-3.3403804302215576,-11.590832710266113,3.4576287269592285
1789038615639896600,5.213896484375,-4.88853645324707,-11.164910316467285,2.7828526496887207
1789038615657150500,5.231150390625,-4.108476638793945,-11.540583610534668,1.8855443000793457
1789038615674404600,5.248404541015625,-2.076970100402832,-9.767501831054688,1.6390835046768188
1789038615691658500,5.265658447265625,-2.682354211807251,-9.533005714416504,1.4787644147872925
1789038615708912400,5.282912353515625,-2.0554347038269043,-10.083354949951172,0.7322037220001221
1789038615726166300,5.300166259765625,-0.8303094506263733,-12.904492378234863,-0.8781659007072449
1789038615743420400,5.31742041015625,-1.210768222808838,-9.827322959899902,1.1365907192230225
1789038615760674300,5.33467431640625,-2.5986053943634033,-9.724431037902832,1.797009825706482
1789038615777928200,5.35192822265625,-2.8833513259887695,-6.943971157073975,3.680161237716675
1789038615795182300,5.369182373046875,-4.264009952545166,-4.048655986785889,5.613562107086182
1789038615812436200,5.386436279296875,-2.837887763977051,-5.19960355758667,4.039084434509277
1789038615829690000,5.403690185546875,-1.3782658576965332,-9.812965393066406,4.319045066833496
1789038615846944300,5.4209443359375,-3.2757742404937744,-9.600004196166992,3.5198421478271484
1789038615864198100,5.4381982421875,-2.1415762901306152,-8.236095428466797,4.474578380584717
1789038615881452000,5.4554521484375,-3.658625841140747,-6.3840508460998535,4.656432628631592
1789038615898706200,5.4727060546875,-3.7184464931488037,-3.950550079345703,4.034298896789551
1789038615915960000,5.4899599609375,-2.5746772289276123,-7.953742504119873,4.833501815795898
1789038615933214200,5.507214111328125,-2.7661030292510986,-7.357929706573486,1.0528420209884644
1789038615950468000,5.524468017578125,-1.301695466041565,-8.568697929382324,3.376272678375244
1789038615967722000,5.541721923828125,-4.527220249176025,-8.549555778503418,2.163111686706543
1789038615984976000,5.558975830078125,-1.832902193069458,-10.581061363220215,-0.97148597240448
1789038616002230000,5.57622998046875,-3.294916868209839,-9.667003631591797,2.6727828979492188
1789038616019484000,5.59348388671875,-3.0101709365844727,-9.061619758605957,0.8063812255859375
1789038616036738000,5.610738037109375,-2.445464849472046,-10.691131591796875,-1.797009825706482
1789038616053992000,5.627991943359375,-2.376072883605957,-11.72004508972168,-0.7896314859390259
1789038616071246000,5.64524609375,-3.5365917682647705,-10.875378608703613,-0.2105683982372284
1789038616088500000,5.6625,-4.697110652923584,-9.016156196594238,-0.5048855543136597
1789038616105753900,5.67975390625,-3.6083765029907227,-9.53779125213623,-1.1318050622940063
1789038616123007700,5.6970078125,-3.28773832321167,-10.289137840270996,-1.2729816436767578
1789038616140262000,5.714261962890625,-4.163511276245117,-9.087940216064453,-1.1700903177261353
1789038616157515800,5.731515869140625,-4.462614059448242,-8.49452018737793,-1.7371892929077148
1789038616174770000,5.74877001953125,-3.641875982284546,-9.238688468933105,-2.2612173557281494
1789038616192023800,5.76602392578125,-2.6392834186553955,-9.822537422180176,-2.6057839393615723
1789038616209278000,5.78327783203125,-2.809173822402954,-7.36032247543335,-1.698904037475586
1789038616226531800,5.80053173828125,-2.59621262550354,-7.276573657989502,-2.3784656524658203
1789038616243785700,5.81778564453125,-4.505684852600098,-8.128418922424316,-4.591826438903809
1789038616261039900,5.835039794921875,-4.383651256561279,-6.295516490936279,-2.801995277404785
1789038616278293800,5.852293701171875,-3.9218363761901855,-10.191031455993652,-2.9001009464263916
1789038616295547600,5.869547607421875,-3.208775281906128,-10.088140487670898,-2.510071039199829
1789038616312801800,5.8868017578125,-3.761517286300659,-9.896714210510254,-2.8283164501190186
1789038616330055700,5.9040556640625,-3.933800458908081,-12.277572631835938,-2.352144718170166
1789038616347309800,5.921309814453125,-4.089334011077881,-8.090133666992188,-2.091326951980591
1789038616364563700,5.938563720703125,-3.3619158267974854,-8.248059272766113,-2.227717876434326
1789038616381817600,5.955817626953125,-2.794816732406616,-9.688538551330566,-0.8901300430297852
1789038616399071500,5.973071533203125,-3.572484254837036,-9.896714210510254,-0.23688943684101105
1789038616416325600,5.99032568359375,-3.5509488582611084,-9.32004451751709,-1.0097711086273193
1789038616433579500,6.00757958984375,-3.3571300506591797,-8.95394229888916,-0.8614161610603333
1789038616450833700,6.024833740234375,-4.357329845428467,-9.09990406036377,-1.5984054803848267
1789038616468087600,6.042087646484375,-3.2446675300598145,-9.233902931213379,-1.3758729696273804
1789038616485341400,6.059341552734375,-3.345165967941284,-9.425328254699707,-1.160519003868103
1789038616502595600,6.076595703125,-2.8977081775665283,-9.633503913879395,-1.0959128141403198
1789038616519849500,6.093849365234375,-4.053441524505615,-8.781659126281738,-1.1653046607971191
1789038616537103400,6.111103271484375,-3.9768712520599365,-9.767501831054688,-1.3782658576965332
1789038616554357500,6.128357421875,-3.7328033447265625,-9.257830619812012,-0.9882357716560364
1789038616571611400,6.145611328125,-3.3954153060913086,-9.382257461547852,-1.466800332069397
1789038616588865500,6.162865478515625,-3.1345977783203125,-9.913464546203613,-0.763310432434082
1789038616606119400,6.180119384765625,-3.211168050765991,-9.56650447845459,-1.1318050622940063
1789038616623373300,6.197373291015625,-3.3619158267974854,-8.571090698242188,-1.1078768968582153
1789038616640627500,6.21462744140625,-3.1968109607696533,-8.638090133666992,-1.466800332069397
1789038616657881300,6.23188134765625,-3.4265220165252686,-9.30329418182373,-1.0456634759902954
1789038616675135200,6.24913525390625,-3.8261234760284424,-8.37009334564209,0.5551348328590393
1789038616692389400,6.266389404296875,-3.7543387413024902,-9.597611427307129,2.5938198566436768
1789038616709643300,6.283643310546875,-1.612762451171875,-9.722038269042969,-0.05742774158716202
1789038616726897400,6.3008974609375,-4.632504463195801,-10.066604614257812,-0.14356936514377594
1789038616744151300,6.3181513671875,-4.60857629776001,-9.221938133239746,0.5240281820297241
1789038616761405200,6.3354052734375,-3.8285162448883057,-8.391629219055176,1.7730815410614014
1789038616778659000,6.3526591796875,-3.1920254230499268,-8.7505521774292,1.9860427379608154
1789038616795913200,6.369913330078125,-2.495713949203491,-8.291130065917969,1.0671988725662231
1789038616813167000,6.3871669921875,-2.187039852142334,-7.668996810913086,0.6628118753433228
1789038616830421200,6.404421142578125,-2.5674986839294434,-7.77188777923584,0.3086741268634796
1789038616847675100,6.421675048828125,-2.699103832244873,-7.125825881958008,0.6532405614852905
1789038616864929300,6.43892919921875,-2.9312076568603516,-6.606583118438721,0.2727817893028259
1789038616882183200,6.45618310546875,-3.029313564300537,-6.573083877563477,0.18424734473228455
1789038616899437000,6.47343701171875,-3.2063822746276855,-8.042277336120605,0.2632105052471161
1789038616916691200,6.490691162109375,-3.5126636028289795,-9.707681655883789,0.43549370765686035
1789038616933945000,6.507945068359375,-3.665804386138916,-11.686545372009277,-0.3684946894645691
1789038616951199000,6.525198974609375,-3.9290146827697754,-10.8969144821167,-0.12203395366668701
1789038616968453000,6.542453125,-3.4743785858154297,-10.801201820373535,-0.3565305769443512
1789038616985707000,6.55970703125,-3.651447296142578,-9.8871431350708,-0.42352959513664246
1789038617002961000,6.5769609375,-3.8213376998901367,-9.150154113769531,-0.5910272002220154
1789038617020215000,6.594215087890625,-3.5150563716888428,-8.578269004821777,-0.7130611538887024
1789038617037469000,6.611468994140625,-3.060420274734497,-9.236295700073242,-0.30149564146995544
1789038617054723000,6.62872314453125,-2.8737800121307373,-9.688538551330566,-0.22013968229293823
1789038617071977000,6.64597705078125,-3.13220477104187,-9.982855796813965,-0.5647061467170715
1789038617089230800,6.66323095703125,-3.2614171504974365,-10.226923942565918,-0.4163511395454407
1789038617106485000,6.680485107421875,-3.2446675300598145,-9.76989459991455,-0.49292147159576416
1789038617123739000,6.69773876953125,-3.328416347503662,-9.511469841003418,-0.849452018737793
1789038617140992800,6.71499267578125,-3.067598581314087,-8.805587768554688,-0.10289137065410614
1789038617158247000,6.732246826171875,-3.029313564300537,-8.657232284545898,0.2153540402650833
1789038617175500800,6.749500732421875,-2.840280532836914,-8.37009334564209,0.36610186100006104
1789038617192755000,6.7667548828125,-2.940778970718384,-8.50169849395752,0.3158525824546814
1789038617210008800,6.7840087890625,-2.9455647468566895,-9.061619758605957,0.23449662327766418
1789038617227262700,6.8012626953125,-2.8498518466949463,-9.181260108947754,0.15074782073497772
1789038617244516900,6.818516845703125,-2.6632115840911865,-9.152546882629395,0.23688943684101105
1789038617261770800,6.835770751953125,-2.825923442840576,-9.403793334960938,0.1986042857170105
1789038617279024600,6.853024658203125,-2.8139593601226807,-9.743574142456055,-0.02153540402650833
1789038617296278800,6.87027880859375,-2.7972097396850586,-9.8871431350708,-0.1818545162677765
1789038617313532700,6.88753271484375,-3.0269205570220947,-9.968499183654785,-0.4618147611618042
1789038617330786800,6.904786865234375,-2.857030153274536,-9.425328254699707,-0.5264210104942322
1789038617348040700,6.922040771484375,-2.555534601211548,-8.956335067749023,-0.32542386651039124
1789038617365294600,6.939294677734375,-2.8426733016967773,-9.140582084655762,-0.6293123364448547
1789038617382548700,6.956548828125,-3.0388846397399902,-9.647860527038574,-0.5000999569892883
1789038617399802600,6.973802734375,-2.8594231605529785,-9.949356079101562,0.01196411345154047
1789038617417056800,6.991056884765625,-2.65842604637146,-9.473184585571289,0.7226324677467346
1789038617434310700,7.008310546875,-2.8450660705566406,-9.430113792419434,0.08135596662759781
1789038617451564500,7.025564453125,-2.770888566970825,-9.664610862731934,0.08135596662759781
1789038617468818700,7.042818603515625,-2.66560435295105,-9.355937004089355,1.184447169303894
1789038617486072600,7.060072509765625,-2.730210542678833,-9.08554744720459,0.7106683254241943
1789038617503326700,7.07732666015625,-2.806781053543091,-9.355937004089355,0.05024927482008934
1789038617520580600,7.09458056640625,-3.005385160446167,-9.30329418182373,-0.10289137065410614
1789038617537834500,7.11183447265625,-2.8115665912628174,-9.322437286376953,0.031106693670153618
1789038617555088600,7.129088623046875,-2.68953275680542,-9.28893756866455,0.1698904037475586
1789038617572342500,7.146342529296875,-2.6967110633850098,-8.913264274597168,0.06939185410737991
1789038617589596700,7.1635966796875,-2.943171739578247,-8.74337387084961,0.12921242415905
1789038617606850600,7.1808505859375,-3.014956474304199,-8.870193481445312,0.15074782073497772
1789038617624104400,7.1981044921875,-2.8211379051208496,-8.733802795410156,0.2727817893028259
1789038617641358600,7.215358642578125,-2.7086751461029053,-8.365307807922363,0.605384111404419
1789038617658612500,7.232612548828125,-2.7972097396850586,-8.760123252868652,0.37088751792907715
1789038617675866400,7.249866455078125,-2.854637384414673,-9.454042434692383,-0.07178468257188797
1789038617693120500,7.26712060546875,-2.667997360229492,-10.427921295166016,-0.20099709928035736
1789038617710374400,7.28437451171875,-2.7014968395233154,-9.781859397888184,1.191625714302063
1789038617727628500,7.301628662109375,-2.8115665912628174,-9.248259544372559,0.5383850932121277
1789038617744882400,7.31888232421875,-3.022135019302368,-9.355937004089355,0.4618147611618042
1789038617762136600,7.336136474609375,-2.5914268493652344,-9.355937004089355,0.5072783827781677
1789038617779390500,7.353390380859375,-3.0101709365844727,-9.934999465942383,-0.34695929288864136
1789038617796644400,7.370644287109375,-3.3643085956573486,-9.882357597351074,-0.6221339106559753
1789038617813898200,7.387898193359375,-3.634697675704956,-9.511469841003418,-0.3613162338733673
1789038617831152400,7.40515234375,-3.78544545173645,-8.951549530029297,0.2967100143432617
1789038617848406300,7.42240625,-3.5437703132629395,-9.279366493225098,-0.11485548317432404
1789038617865660400,7.439660400390625,-2.8115665912628174,-9.324830055236816,0.24646073579788208
1789038617882914300,7.456914306640625,-2.2205393314361572,-9.540184020996094,0.9690931439399719
1789038617900168400,7.47416845703125,-2.1535403728485107,-9.169296264648438,0.851844847202301
1789038617917422300,7.49142236328125,-2.4670002460479736,-9.190832138061523,0.11006984114646912
1789038617934676500,7.508676513671875,-2.3856441974639893,-9.741181373596191,-0.007178467698395252
1789038617951930400,7.525930419921875,-2.3018953800201416,-10.05703353881836,-0.038285162299871445
1789038617969184300,7.543184326171875,-3.290131092071533,-10.3681001663208,0.6269195079803467
1789038617986438400,7.5604384765625,-3.5150563716888428,-10.03310489654541,0.7704889178276062
1789038618003692300,7.5776923828125,-3.460021495819092,-9.358329772949219,0.6149554252624512
1789038618020946200,7.5949462890625,-3.3020951747894287,-8.82233715057373,0.6340979933738708
1789038618038200300,7.612200439453125,-2.6727828979492188,-8.635697364807129,-0.01196411345154047
1789038618055454200,7.6294541015625,-2.383251428604126,-9.066405296325684,0.14835500717163086
1789038618072708400,7.646708251953125,-2.0673987865448,-9.561718940734863,-0.4378865361213684
1789038618089962200,7.663962158203125,-2.0817556381225586,-10.073782920837402,-0.2871387302875519
1789038618107216400,7.68121630859375,-1.9573289155960083,-9.789037704467773,0.03349951654672623
1789038618124470300,7.69847021484375,-1.923829436302185,-9.382257461547852,-0.10289137065410614
1789038618141724400,7.715724365234375,-2.3545374870300293,-9.018548965454102,0.13878370821475983
1789038618158978300,7.732978271484375,-2.8761727809906006,-9.07119083404541,0.3732803463935852
1789038618176232200,7.750232177734375,-3.1992039680480957,-9.473184585571289,0.6029912829399109
1789038618193486300,7.767486328125,-3.2470602989196777,-9.841679573059082,0.5575276613235474
1789038618210740200,7.784740234375,-3.1130621433258057,-9.8871431350708,0.519242525100708
1789038618227994400,7.801994384765625,-2.8522446155548096,-9.717252731323242,0.5479564070701599
1789038618245248300,7.819248291015625,-2.56510591506958,-9.475577354431152,0.5694918036460876
1789038618262502100,7.836502197265625,-2.376072883605957,-9.241081237792969,0.4666004180908203
1789038618279756300,7.85375634765625,-2.2923240661621094,-9.255437850952148,0.4259224236011505
1789038618297010200,7.87101025390625,-2.423929452896118,-9.231510162353516,0.5742774605751038
1789038618314264300,7.888264404296875,-2.6273193359375,-9.286544799804688,0.5958128571510315
1789038618331518200,7.905518310546875,-2.785245656967163,-9.473184585571289,0.44745782017707825
1789038618348772000,7.922772216796875,-2.8833513259887695,-9.542576789855957,0.41874396800994873
1789038618366026200,7.940026123046875,-3.0484559535980225,-9.592825889587402,0.44745782017707825
1789038618383280000,7.957280029296875,-3.139383316040039,-9.77707290649414,0.4570291340351105
1789038618400534300,7.9745341796875,-3.345165967941284,-9.772287368774414,0.38285163044929504
1789038618417788200,7.9917880859375,-3.3475589752197266,-9.760323524475098,0.4211367964744568
1789038618435042300,8.009042236328124,-3.2279176712036133,-9.67657470703125,0.5670989751815796
1789038618452296200,8.026296142578126,-3.249453067779541,-9.789037704467773,0.8901300430297852
1789038618469550300,8.04355029296875,-3.4887354373931885,-9.738788604736328,1.3280165195465088
1789038618486804200,8.06080419921875,-3.4983067512512207,-9.903892517089844,1.8687944412231445
1789038618504058000,8.07805810546875,-3.5676984786987305,-9.784252166748047,2.3497519493103027
1789038618521312000,8.09531201171875,-3.3547372817993164,-9.509077072143555,1.978864312171936
1789038618538566100,8.112566162109376,-2.943171739578247,-9.652647018432617,2.3976082801818848
1789038618555820000,8.129820068359376,-3.2853455543518066,-9.365508079528809,2.196611166000366
1789038618573074200,8.14707421875,-4.041477680206299,-9.851250648498535,2.273181438446045
1789038618590328000,8.164328125,-4.187439441680908,-10.863414764404297,2.6392834186553955
1789038618607582200,8.181582275390625,-4.041477680206299,-11.291729927062988,1.7587246894836426
1789038618624836000,8.198836181640624,-4.2209391593933105,-11.72004508972168,2.0267207622528076
1789038618642090200,8.21609033203125,-3.704089403152466,-11.179266929626465,2.6967110633850098
1789038618659344100,8.23334423828125,-3.783052682876587,-8.987442016601562,1.8185452222824097
1789038618676598300,8.250598388671875,-2.9838497638702393,-7.044469833374023,1.153340458869934
1789038618693852200,8.26785205078125,-1.7467604875564575,-5.759523868560791,0.9906286001205444
1789038618711106300,8.285106201171875,-2.0099709033966064,-5.929414749145508,1.576870083808899
1789038618728360200,8.302360107421874,-2.9527430534362793,-7.482356548309326,2.383251428604126
1789038618745614000,8.319614013671876,-3.1441688537597656,-8.609375953674316,3.122633457183838
1789038618762868200,8.3368681640625,-3.6873397827148438,-8.118846893310547,3.290131092071533
1789038618780122000,8.3541220703125,-4.622933387756348,-7.2813591957092285,2.3880369663238525
1789038618797376000,8.3713759765625,-5.359922885894775,-6.632904529571533,1.3758729696273804
1789038618814630100,8.388630126953124,-5.010570526123047,-6.345765590667725,0.02871387079358101
1789038618831884000,8.405884033203124,-4.847858905792236,-6.723831653594971,0.13160525262355804
1789038618849138200,8.42313818359375,-4.867001056671143,-8.032705307006836,1.062413215637207
1789038618866392000,8.44039208984375,-4.644468784332275,-8.437092781066895,1.428515076637268
1789038618883646200,8.457646240234375,-4.689932346343994,-8.209774017333984,0.973878800868988
1789038618900900000,8.474900146484375,-5.493920803070068,-8.140382766723633,0.8997012972831726
1789038618918154000,8.492154052734374,-4.902893543243408,-8.506484031677246,1.4189438819885254
1789038618935408000,8.509408203125,-4.9363932609558105,-8.748159408569336,1.8999011516571045
1789038618952662000,8.526662109375,-5.556134223937988,-8.906085968017578,2.4574289321899414
1789038618969916200,8.543916259765625,-5.553741455078125,-8.922835350036621,2.56510591506958
1789038618987170000,8.561170166015625,-5.402993679046631,-8.738588333129883,2.8809585571289062
1789038619004424200,8.578424072265625,-5.304887771606445,-8.453842163085938,3.3643085956573486
1789038619021678000,8.595677978515624,-5.2737812995910645,-7.994420528411865,3.6538400650024414
1789038619038932200,8.61293212890625,-4.962714195251465,-7.587640762329102,3.7399818897247314
1789038619056186000,8.63018603515625,-4.639683246612549,-7.429714202880859,3.565305709838867
1789038619073440300,8.647440185546875,-4.749752998352051,-7.393822193145752,3.8045880794525146
1789038619090694100,8.664694091796875,-4.9124650955200195,-7.5637125968933105,3.926621913909912
1789038619107948000,8.681947998046875,-4.716253280639648,-7.963313579559326,3.9625144004821777
1789038619125202200,8.6992021484375,-4.596612453460693,-8.214560508728027,4.115654945373535
1789038619142456000,8.7164560546875,-4.666004180908203,-8.338987350463867,4.041477680206299
1789038619159710200,8.733710205078125,-4.579862594604492,-8.350951194763184,4.077369689941406
1789038619176964000,8.750964111328125,-4.232903480529785,-8.135597229003906,4.350151538848877
1789038619194218200,8.76821826171875,-4.701896667480469,-7.408178806304932,4.5583271980285645
1789038619211472100,8.78547216796875,-5.285745143890381,-7.5804619789123535,4.735395908355713
1789038619228726300,8.802726318359374,-5.020142078399658,-8.02791976928711,5.335994720458984
1789038619245980200,8.819980224609376,-5.082355499267578,-7.7838521003723145,4.560719966888428
1789038619263234300,8.837234375,-5.546562671661377,-6.9822564125061035,3.682554006576538
1789038619280488200,8.85448828125,-5.4867424964904785,-7.156932353973389,3.8117663860321045
1789038619297742300,8.871742431640625,-4.876572608947754,-7.156932353973389,3.476771354675293
1789038619314996200,8.888996337890624,-5.134997367858887,-7.322037220001221,4.685146808624268
1789038619332250000,8.90625,-5.553741455078125,-7.161718368530273,4.694717884063721
1789038619349504300,8.923504150390626,-5.520241737365723,-6.8171515464782715,4.453042984008789
1789038619366758100,8.940758056640625,-4.694717884063721,-6.4079790115356445,6.276373863220215
1789038619384012000,8.958011962890625,-4.6061835289001465,-6.479763507843018,7.4225358963012695
1789038619401266200,8.97526611328125,-4.689932346343994,-6.147161483764648,6.7932233810424805
1789038619418520000,8.99252001953125,-5.2977094650268555,-6.484549522399902,5.998806476593018
1789038619435774200,9.009774169921876,-6.465406894683838,-6.757331371307373,5.496313571929932
1789038619453028000,9.027028076171876,-7.288537979125977,-7.429714202880859,4.436293125152588
1789038619470282200,9.0442822265625,-5.551348686218262,-7.066005229949951,4.232903480529785
1789038619487536000,9.0615361328125,-5.438885688781738,-6.38883638381958,4.321437835693359
1789038619504790300,9.078790283203125,-6.183053493499756,-5.788238048553467,4.835894584655762
1789038619522044200,9.096044189453124,-6.905686378479004,-6.130411624908447,4.386044025421143
1789038619539298300,9.11329833984375,-6.5252275466918945,-6.2428741455078125,3.7567315101623535
1789038619556552200,9.13055224609375,-5.498706340789795,-6.2189459800720215,3.7160534858703613
1789038619573806000,9.14780615234375,-6.0466628074646,-6.072983741760254,3.7806596755981445
1789038619591060200,9.165060302734375,-6.111268997192383,-5.498706340789795,3.3475589752197266
1789038619608314000,9.182314208984375,-6.262016773223877,-5.240281581878662,3.232703447341919
1789038619625568300,9.199568359375,-6.120840549468994,-4.7952165603637695,3.0652058124542236
1789038619642822100,9.216822265625,-5.793023586273193,-4.713860511779785,3.2542388439178467
1789038619660076300,9.234076171875,-5.637490272521973,-4.548755645751953,3.570091485977173
1789038619677330200,9.251330078125,-6.206982135772705,-4.2592244148254395,3.476771354675293
1789038619694584300,9.268584228515625,-6.156732559204102,-4.4961137771606445,3.7088751792907715
1789038619711838200,9.285838134765624,-5.764309883117676,-4.67078971862793,3.955335855484009
1789038619729092000,9.303092041015624,-5.72123908996582,-4.9435715675354,4.3549370765686035
1789038619746346200,9.32034619140625,-6.151947021484375,-4.785645484924316,4.685146808624268
1789038619763600100,9.33760009765625,-6.269195556640625,-4.510470867156982,4.768895626068115
1789038619780854300,9.354854248046875,-6.082555294036865,-4.338187217712402,4.941178798675537
1789038619798108200,9.372108154296875,-5.434100151062012,-4.2209391593933105,4.8574299812316895
1789038619815362300,9.3893623046875,-4.941178798675537,-4.381258487701416,5.194818019866943
1789038619832616200,9.4066162109375,-4.934000492095947,-4.2831525802612305,5.3694939613342285
1789038619849870300,9.423870361328126,-6.116054534912109,-4.527220249176025,5.807380676269531
1789038619867124200,9.441124267578125,-6.7932233810424805,-5.5034918785095215,6.393621921539307
1789038619884378400,9.45837841796875,-7.372286796569824,-7.106683254241943,5.92223596572876
1789038619901632300,9.47563232421875,-6.405586242675781,-6.508477687835693,3.649054527282715
1789038619918886400,9.492886474609374,-5.027320384979248,-4.237689018249512,2.4574289321899414
1789038619936140300,9.510140380859376,-4.689932346343994,-4.326223373413086,3.735196113586426
1789038619953394200,9.527394287109376,-5.536991596221924,-5.213960647583008,3.321237802505493
1789038619970648300,9.5446484375,-5.527420520782471,-5.953342914581299,3.1489546298980713
1789038619987902200,9.561902099609375,-6.728617191314697,-6.393621921539307,4.156332969665527
1789038620005156400,9.57915625,-6.496513366699219,-6.908079147338867,4.821537494659424
1789038620022410200,9.59641015625,-5.32403039932251,-7.527820110321045,5.00578498840332
1789038620039664400,9.613664306640626,-5.848058700561523,-7.420143127441406,4.5391845703125
1789038620056918300,9.630918212890625,-6.833901405334473,-7.520641803741455,4.381258487701416
1789038620074172400,9.64817236328125,-6.814758777618408,-7.597211837768555,4.3070807456970215
1789038620091426300,9.66542626953125,-6.678368091583252,-7.467999458312988,4.677968502044678
1789038620108680400,9.682680419921875,-6.489335060119629,-7.188039302825928,4.991427898406982
1789038620125934300,9.699934326171874,-5.850451469421387,-6.833901405334473,5.010570526123047
1789038620143188500,9.7171884765625,-5.484349727630615,-6.788437843322754,4.802394866943359
1789038620160442400,9.7344423828125,-5.027320384979248,-6.766902446746826,4.632504463195801
1789038620177696500,9.751696533203125,-5.446064472198486,-6.754938125610352,4.268795490264893
1789038620194950400,9.768950439453125,-5.584847927093506,-6.783652305603027,4.543970108032227
1789038620212204300,9.786204345703124,-5.85284423828125,-6.678368091583252,4.565505504608154
1789038620229458400,9.80345849609375,-5.737988471984863,-6.50608491897583,4.311866283416748
1789038620246712300,9.82071240234375,-5.711667537689209,-6.819544315338135,4.1036906242370605
1789038620263966500,9.837966552734375,-5.769095420837402,-7.269395351409912,3.8907296657562256
1789038620281220400,9.855220458984375,-5.747560024261475,-7.6474609375,4.106083869934082
1789038620298474500,9.872474609375,-5.800201892852783,-8.037490844726562,4.5822553634643555
1789038620315728400,9.889728271484374,-5.438885688781738,-7.970492362976074,4.54636287689209
1789038620332982500,9.906982421875,-5.450850009918213,-7.2813591957092285,4.1730828285217285
1789038620350236400,9.924236328125,-5.687739372253418,-6.776473522186279,3.7328033447265625
1789038620367490600,9.941490478515625,-5.443671703338623,-6.898507595062256,3.8668015003204346
1789038620384744400,9.958744384765625,-5.096712112426758,-7.29093074798584,3.838087558746338
1789038620401998600,9.97599853515625,-4.972285270690918,-7.735995769500732,3.617947816848755
1789038620419252500,9.99325244140625,-4.450650215148926,-8.3629150390625,3.4911282062530518
1789038620436506400,10.01050634765625,-4.192225456237793,-8.70508861541748,3.2518460750579834
1789038620453760500,10.027760498046876,-4.390829563140869,-8.640482902526855,2.7421748638153076
1789038620471014400,10.045014404296875,-4.381258487701416,-8.161917686462402,2.579462766647339
1789038620488268500,10.0622685546875,-4.299902439117432,-7.467999458312988,2.4813570976257324
1789038620505522700,10.079522705078125,-3.7950167655944824,-6.853044033050537,2.146361827850342
1789038620522776600,10.096776611328124,-3.7495529651641846,-6.640082836151123,2.0961127281188965
1789038620540030500,10.114030517578126,-3.184846878051758,-7.226324558258057,2.720639228820801
1789038620557284600,10.13128466796875,-2.801995277404785,-8.075776100158691,2.9168508052825928
1789038620574538500,10.14853857421875,-2.4047868251800537,-8.774480819702148,3.7112679481506348
1789038620591792600,10.165792724609375,-1.9716858863830566,-9.28893756866455,4.304687976837158
1789038620609046800,10.183046875,-2.3976082801818848,-9.745966911315918,5.723631858825684
1789038620626300700,10.20030078125,-2.715853691101074,-9.970891952514648,6.692724704742432
1789038620643554800,10.217554931640626,-3.2590243816375732,-9.791430473327637,6.544369697570801
1789038620660808700,10.23480859375,-3.8524444103240967,-9.7005033493042,6.472585201263428
1789038620678062800,10.252062744140625,-3.6299118995666504,-9.470791816711426,5.737988471984863
1789038620695316700,10.269316650390625,-3.3403804302215576,-9.075976371765137,4.919643402099609
1789038620712571000,10.28657080078125,-3.3858439922332764,-8.882157325744629,4.261617183685303
1789038620729824800,10.30382470703125,-2.864208698272705,-8.94676399230957,4.132404804229736
1789038620747078700,10.32107861328125,-2.4574289321899414,-8.941978454589844,3.3308091163635254
1789038620764332800,10.338332763671875,-2.4358935356140137,-8.398807525634766,2.5052852630615234
1789038620781586700,10.355586669921875,-2.076970100402832,-7.89631462097168,1.8855443000793457
1789038620798840800,10.3728408203125,-2.2947168350219727,-7.903493404388428,2.1272194385528564
1789038620816094700,10.3900947265625,-2.2755744457244873,-8.102097511291504,2.163111686706543
1789038620833348900,10.407348876953124,-2.4502503871917725,-8.413164138793945,2.816352367401123
1789038620850602800,10.424602783203126,-2.9359934329986572,-8.752944946289062,2.885744094848633
1789038620867857000,10.44185693359375,-2.8043880462646484,-9.243474006652832,3.1896326541900635
1789038620885110800,10.45911083984375,-3.0723843574523926,-9.049654960632324,3.2350962162017822
1789038620902365000,10.476364990234375,-2.9934210777282715,-8.810373306274414,2.988635540008545
1789038620919618800,10.493618896484374,-3.16331148147583,-8.786444664001465,3.4719855785369873
1789038620936873000,10.510873046875,-3.2709884643554688,-9.119047164916992,4.338187217712402
1789038620954126800,10.528126953125,-2.8283164501190186,-9.351150512695312,5.01296329498291
1789038620971381000,10.545381103515625,-2.730210542678833,-9.382257461547852,4.467400074005127
1789038620988635000,10.562634765625,-2.6943182945251465,-9.140582084655762,4.144368648529053
1789038621005889000,10.579888916015625,-3.3379876613616943,-8.97787094116211,4.3549370765686035
1789038621023143000,10.597142822265624,-2.744567632675171,-8.547162055969238,5.056034088134766
1789038621040397000,10.61439697265625,-2.7661030292510986,-7.8795647621154785,4.843072891235352
1789038621057651200,10.631651123046876,-2.8211379051208496,-7.479963779449463,4.479363918304443
1789038621074905000,10.648905029296875,-2.816352367401123,-7.7455668449401855,4.838287353515625
1789038621092159000,10.666158935546875,-2.50289249420166,-8.343772888183594,5.163711071014404
1789038621109413000,10.6834130859375,-2.2755744457244873,-8.724231719970703,4.835894584655762
1789038621126667000,10.7006669921875,-2.421536445617676,-8.884550094604492,4.383651256561279
1789038621143921200,10.717921142578126,-2.5148565769195557,-9.075976371765137,4.0797624588012695
1789038621161175000,10.735175048828125,-2.8043880462646484,-9.09990406036377,3.9625144004821777
1789038621178429200,10.75242919921875,-2.837887763977051,-9.056833267211914,4.1036906242370605
1789038621195683000,10.76968310546875,-2.0171494483947754,-8.848658561706543,4.429114818572998
1789038621212937200,10.786937255859375,-1.9621145725250244,-8.499305725097656,4.395615100860596
1789038621230191000,10.804191162109374,-2.0961127281188965,-8.008777618408203,4.728217601776123
1789038621247445200,10.8214453125,-1.667797327041626,-8.070990562438965,5.144568920135498
1789038621264699100,10.83869921875,-1.3423734903335571,-7.884350776672363,5.008177757263184
1789038621281953300,10.855953369140625,-1.6366907358169556,-7.362715244293213,4.572684288024902
1789038621299207200,10.873207275390625,-2.1128623485565186,-7.202396392822266,4.369294166564941
1789038621316461300,10.89046142578125,-2.493321180343628,-7.3746795654296875,4.67078971862793
1789038621333715500,10.907715576171874,-2.3808584213256836,-7.7216386795043945,4.778466701507568
1789038621350969300,10.92496923828125,-2.2157537937164307,-7.893921852111816,4.993820667266846
1789038621368223500,10.942223388671875,-2.0338993072509766,-8.085348129272461,5.120640277862549
1789038621385477400,10.959477294921875,-1.8161523342132568,-8.059026718139648,4.764110088348389
1789038621402731300,10.976731201171875,-2.076970100402832,-8.310273170471191,4.18983268737793
1789038621419985400,10.9939853515625,-2.2707886695861816,-8.994620323181152,4.467400074005127
1789038621437239300,11.0112392578125,-2.6249263286590576,-9.978070259094238,4.467400074005127
1789038621454493400,11.028493408203126,-3.046063184738159,-10.238887786865234,3.8189449310302734
1789038621471747300,11.045747314453125,-3.3714871406555176,-9.643074989318848,2.746960401535034
1789038621489001500,11.06300146484375,-2.778067111968994,-8.970691680908203,2.7589244842529297
1789038621506255600,11.080255615234375,-2.6177480220794678,-8.207381248474121,3.486342668533325
1789038621523509500,11.097509521484374,-2.833101987838745,-7.262216567993164,3.9146578311920166
1789038621540763600,11.114763671875,-2.8905298709869385,-7.125825881958008,3.8428730964660645
1789038621558017500,11.132017578125,-2.9312076568603516,-7.814958572387695,4.0319061279296875
1789038621575271700,11.149271728515625,-2.5938198566436768,-8.159524917602539,4.094119548797607
1789038621592525600,11.166525634765625,-2.713460922241211,-8.353343963623047,4.333401679992676
1789038621609779700,11.18377978515625,-2.328216314315796,-8.303094863891602,4.359723091125488
1789038621627033600,11.20103369140625,-2.273181438446045,-8.135597229003906,4.177868366241455
1789038621644287700,11.218287841796876,-2.4885356426239014,-8.008777618408203,4.194618225097656
1789038621661541600,11.235541748046876,-2.837887763977051,-8.047062873840332,4.242474555969238
1789038621678795800,11.252795654296875,-2.933600664138794,-7.984848976135254,4.106083869934082
1789038621696049700,11.270049560546875,-2.6488547325134277,-8.46580696105957,4.40757942199707
1789038621713303800,11.2873037109375,-2.3497519493103027,-8.367700576782227,3.9529430866241455
1789038621730558000,11.304557861328124,-2.3497519493103027,-8.23130989074707,3.5341989994049072
1789038621747811800,11.321811767578126,-2.3497519493103027,-8.530412673950195,3.1992039680480957
1789038621765066000,11.33906591796875,-2.6464617252349854,-8.772088050842285,3.077169895172119
1789038621782319900,11.35631982421875,-2.8211379051208496,-8.889336585998535,3.170490026473999
1789038621799573800,11.37357373046875,-2.801995277404785,-8.72183895111084,3.1920254230499268
1789038621816828000,11.390827880859375,-2.9001009464263916,-8.597412109375,3.4719855785369873
1789038621834082000,11.40808203125,-2.9240293502807617,-8.662017822265625,3.7495529651641846
1789038621851336000,11.4253359375,-2.981456995010376,-8.693124771118164,4.113262176513672
1789038621868590000,11.442590087890625,-2.943171739578247,-8.597412109375,4.1970109939575195
1789038621885844000,11.459843994140625,-2.799602508544922,-8.752944946289062,4.194618225097656
1789038621903098000,11.47709814453125,-2.68953275680542,-8.906085968017578,4.371686935424805
1789038621920352000,11.49435205078125,-2.8139593601226807,-8.915657043457031,4.603790760040283
1789038621937606100,11.511606201171874,-2.9312076568603516,-8.865407943725586,4.756931304931641
1789038621954860000,11.528860107421876,-2.8809585571289062,-8.86780071258545,4.900500774383545
1789038621972114200,11.5461142578125,-2.7804598808288574,-8.949156761169434,4.780859470367432
1789038621989368000,11.5633681640625,-2.6392834186553955,-8.834300994873047,4.510470867156982
1789038622006622200,11.580622314453125,-2.713460922241211,-8.484949111938477,4.374079704284668
1789038622023876400,11.59787646484375,-2.7493531703948975,-8.01356315612793,4.201796531677246
1789038622041130200,11.615130126953124,-2.65842604637146,-7.9250288009643555,4.177868366241455
1789038622058384400,11.63238427734375,-2.5148565769195557,-7.999206066131592,4.194618225097656
1789038622075638300,11.64963818359375,-2.421536445617676,-8.037490844726562,4.201796531677246
1789038622092892400,11.666892333984375,-2.4335005283355713,-8.140382766723633,4.115654945373535
1789038622110146300,11.684146240234375,-2.60339093208313,-8.358129501342773,4.077369689941406
1789038622127400400,11.701400390625,-2.706282377243042,-8.563912391662598,4.213760852813721
1789038622144654300,11.718654296875,-2.550748825073242,-8.886942863464355,4.436293125152588
1789038622161908500,11.735908447265626,-2.7182464599609375,-9.138189315795898,4.776073932647705
1789038622179162400,11.753162353515625,-2.9048867225646973,-8.94676399230957,4.938786029815674
1789038622196416500,11.77041650390625,-3.014956474304199,-8.525627136230469,5.003392219543457
1789038622213670700,11.787670654296875,-2.9479575157165527,-8.315058708190918,5.170889854431152
1789038622230924500,11.804924560546874,-2.964707374572754,-8.563912391662598,5.532206058502197
1789038622248178700,11.8221787109375,-2.9790642261505127,-9.145368576049805,6.0466628074646
1789038622265432600,11.8394326171875,-2.926422119140625,-9.408578872680664,6.281159400939941
1789038622282686700,11.856686767578125,-2.857030153274536,-9.018548965454102,6.120840549468994
1789038622299940600,11.873940673828125,-2.926422119140625,-7.752745151519775,5.558526992797852
1789038622317194800,11.89119482421875,-2.531606435775757,-6.709474563598633,4.914857864379883
1789038622334448600,11.90844873046875,-2.3401806354522705,-6.3601226806640625,4.402793884277344
1789038622351702800,11.925702880859374,-2.4526431560516357,-6.278766632080078,4.278367042541504
1789038622368957000,11.94295703125,-2.720639228820801,-6.197410583496094,4.957928657531738
1789038622386210800,11.9602109375,-3.2518460750579834,-5.388636589050293,5.161318302154541
1789038622403464700,11.977464599609375,-3.5461630821228027,-4.381258487701416,4.773681163787842
1789038622420718800,11.99471875,-3.649054527282715,-4.2281174659729,4.9435715675354
1789038622437972700,12.01197265625,-3.3930225372314453,-4.797609329223633,5.216353416442871
1789038622455227000,12.029226806640626,-3.0340991020202637,-6.156732559204102,5.599205017089844
1789038622472481000,12.04648095703125,-3.046063184738159,-7.700103282928467,6.400800704956055
1789038622489735000,12.06373486328125,-2.9838497638702393,-9.145368576049805,7.36032247543335
1789038622506989000,12.080989013671875,-2.8354947566986084,-9.796216011047363,7.77188777923584
1789038622524243000,12.098242919921875,-3.3379876613616943,-9.832108497619629,7.554141044616699
1789038622541497000,12.1154970703125,-3.2303106784820557,-9.611968994140625,6.640082836151123
1789038622558751000,12.1327509765625,-3.0173492431640625,-9.066405296325684,5.515456199645996
1789038622576005000,12.150005126953126,-2.6632115840911865,-8.73619556427002,4.682754039764404
1789038622593259000,12.167259033203125,-2.170290231704712,-8.082955360412598,4.299902439117432
1789038622610513200,12.18451318359375,-2.0721843242645264,-7.223931789398193,3.9290146827697754
1789038622627767300,12.201767333984375,-2.706282377243042,-6.300302028656006,3.9433717727661133
1789038622645021200,12.219021240234374,-3.2757742404937744,-5.594419479370117,4.364508628845215
1789038622662275300,12.236275390625,-3.3068809509277344,-5.357530117034912,4.8191447257995605
1789038622679529200,12.253529296875,-3.242274761199951,-5.223531723022461,5.190032482147217
1789038622696783400,12.270783447265625,-2.8115665912628174,-5.72841739654541,5.781059741973877
1789038622714037200,12.288037353515625,-2.7038896083831787,-6.733402729034424,6.305087566375732
1789038622731291400,12.30529150390625,-2.9934210777282715,-7.630711555480957,6.369693756103516
1789038622748545300,12.322545166015624,-3.2303106784820557,-7.798209190368652,6.2189459800720215
1789038622765799400,12.33979931640625,-3.4025938510894775,-7.95134973526001,6.269195556640625
1789038622783053600,12.357053466796875,-3.342773199081421,-8.140382766723633,6.537191390991211
1789038622800307500,12.374307373046875,-3.34995174407959,-8.066205024719238,6.32662296295166
1789038622817561600,12.3915615234375,-3.720839262008667,-8.173882484436035,6.486942291259766
1789038622834815500,12.4088154296875,-3.845266103744507,-8.23848819732666,6.491727828979492
1789038622852069600,12.426069580078124,-3.9074792861938477,-8.161917686462402,6.685546398162842
1789038622869323500,12.443323486328126,-3.8811583518981934,-7.664210796356201,6.4319071769714355
1789038622886577700,12.46057763671875,-3.950550079345703,-6.927221775054932,6.293123722076416
1789038622903831800,12.477831787109375,-3.7232320308685303,-6.558726787567139,6.594619274139404
1789038622921085700,12.495085693359375,-3.4743785858154297,-6.664011001586914,6.771687984466553
1789038622938339800,12.51233984375,-3.2207393646240234,-6.592226505279541,7.350750923156738
1789038622955593700,12.52959375,-3.0101709365844727,-6.7621169090271,7.750352382659912
1789038622972847600,12.54684765625,-2.9862427711486816,-6.403193473815918,7.549355506896973
1789038622990101800,12.564101806640625,-3.074777126312256,-5.869594097137451,6.58265495300293
1789038623007356000,12.58135595703125,-3.249453067779541,-5.426921844482422,6.135197162628174
1789038623024609800,12.59860986328125,-3.2518460750579834,-5.328815937042236,6.4510498046875
1789038623041864000,12.615864013671874,-3.397808074951172,-5.855237007141113,6.386443614959717
1789038623059117800,12.633117919921874,-3.617947816848755,-5.6590256690979,6.491727828979492
1789038623076372000,12.6503720703125,-3.5461630821228027,-5.678168296813965,6.91765022277832
1789038623093625900,12.6676259765625,-3.6610186100006104,-5.570491313934326,6.608976364135742
1789038623110880000,12.6848798828125,-3.9744784832000732,-5.357530117034912,7.070790767669678
1789038623128134100,12.702134033203125,-3.704089403152466,-5.426921844482422,7.283751964569092
1789038623145388000,12.719387939453124,-3.704089403152466,-5.443671703338623,7.250252723693848
1789038623162642200,12.73664208984375,-4.00319242477417,-5.13021183013916,6.939185619354248
1789038623179896000,12.75389599609375,-4.051048755645752,-5.139782905578613,7.130611419677734
1789038623197150200,12.771150146484375,-4.230510234832764,-5.438885688781738,8.207381248474121
1789038623214404000,12.788404052734375,-4.2281174659729,-5.266602516174316,7.755138397216797
1789038623231658200,12.805658203125,-3.641875982284546,-4.510470867156982,6.781259536743164
1789038623248912100,12.822912109375,-3.814159393310547,-4.768895626068115,6.185446739196777
1789038623266166300,12.840166259765626,-4.342973232269287,-4.728217601776123,5.97727108001709
1789038623283420400,12.85742041015625,-4.536791801452637,-4.711467742919922,6.618547439575195
1789038623300674300,12.87467431640625,-4.1970109939575195,-4.603790760040283,7.015756130218506
1789038623317928400,12.891928466796875,-4.735395908355713,-4.498506546020508,6.628118515014648
1789038623335182300,12.909182373046875,-4.551148891448975,-4.433900356292725,7.295716285705566
1789038623352436500,12.9264365234375,-4.398007869720459,-4.567898273468018,7.893921852111816
1789038623369690400,12.9436904296875,-4.642076015472412,-4.491328239440918,7.779066562652588
1789038623386944500,12.960944580078126,-4.1970109939575195,-4.5583271980285645,8.049455642700195
1789038623404198400,12.978198486328125,-4.323830604553223,-4.395615100860596,7.841279983520508
1789038623421452500,12.99545263671875,-4.321437835693359,-4.264009952545166,7.0301127433776855
1789038623438706700,13.012706787109375,-4.369294166564941,-4.132404804229736,6.640082836151123
1789038623455960600,13.029960693359374,-4.527220249176025,-3.924229145050049,6.726224422454834
1789038623473214700,13.047214599609376,-4.395615100860596,-3.682554006576538,6.240481376647949
1789038623490468600,13.064468505859375,-4.137190341949463,-3.2757742404937744,6.271588325500488
1789038623507722800,13.08172265625,-4.615755081176758,-3.1441688537597656,6.372086524963379
1789038623524976600,13.0989765625,-4.867001056671143,-3.3643085956573486,5.9916276931762695
1789038623542230800,13.116230712890625,-5.125426292419434,-3.6155550479888916,7.0061845779418945
1789038623559484700,13.133484619140624,-4.790431022644043,-4.1419758796691895,8.209774017333984
1789038623576738800,13.15073876953125,-4.436293125152588,-4.814359188079834,8.731410026550293
1789038623593993000,13.167992919921875,-4.498506546020508,-4.797609329223633,8.126026153564453
1789038623611246800,13.185246826171875,-4.704289436340332,-4.40757942199707,7.623532772064209
1789038623628501000,13.2025009765625,-4.701896667480469,-3.7950167655944824,7.264609336853027
1789038623645755000,13.2197548828125,-4.362115859985352,-3.507878065109253,6.927221775054932
1789038623663009000,13.237009033203124,-4.512863636016846,-3.507878065109253,7.2813591957092285
1789038623680263000,13.254262939453126,-4.455435752868652,-3.737588882446289,7.499105930328369
1789038623697517000,13.27151708984375,-4.534399032592773,-3.9936211109161377,7.704888820648193
1789038623714771200,13.288771240234375,-4.721039295196533,-4.156332969665527,7.8317084312438965
1789038623732025000,13.306025146484375,-4.5391845703125,-4.034298896789551,7.5708909034729
1789038623749279000,13.323279052734375,-3.9768712520599365,-3.8524444103240967,7.752745151519775
1789038623766533000,13.340533203125,-4.543970108032227,-3.7543387413024902,7.3292155265808105
1789038623783787300,13.357787353515626,-4.156332969665527,-3.4911282062530518,7.3292155265808105
1789038623801041200,13.375041259765625,-3.9672999382019043,-3.538984775543213,7.645068168640137
1789038623818295300,13.39229541015625,-4.175475597381592,-3.6921253204345703,7.6666035652160645
1789038623835549200,13.409549072265625,-4.247260093688965,-3.9194436073303223,7.6737823486328125
1789038623852803300,13.42680322265625,-4.029513359069824,-4.163511276245117,7.5708909034729
1789038623870057200,13.44405712890625,-4.098905086517334,-4.089334011077881,7.613961696624756
1789038623887311400,13.461311279296876,-3.988835334777832,-3.895515203475952,7.381857872009277
1789038623904565200,13.478565185546875,-3.6921253204345703,-3.744767427444458,7.312466144561768
1789038623921819400,13.4958193359375,-3.9625144004821777,-3.7256247997283936,7.331608772277832
1789038623939073500,13.513073486328125,-3.8333017826080322,-3.814159393310547,7.6043901443481445
1789038623956327400,13.530327392578124,-4.153940200805664,-3.9840497970581055,7.573283672332764
1789038623973581600,13.54758154296875,-3.8261234760284424,-4.096512317657471,7.623532772064209
1789038623990835500,13.56483544921875,-3.7088751792907715,-4.48414945602417,7.573283672332764
1789038624008089600,13.582089599609375,-3.871587038040161,-4.737788677215576,7.4225358963012695
1789038624025343500,13.599343505859375,-4.058227062225342,-4.749752998352051,7.664210796356201
1789038624042597600,13.61659765625,-3.366701364517212,-4.661218643188477,7.45364236831665
1789038624059851500,13.6338515625,-3.6777684688568115,-4.570291042327881,7.1162543296813965
1789038624077105700,13.651105712890624,-3.730410575866699,-4.551148891448975,7.350750923156738
1789038624094359600,13.668359619140626,-3.6299118995666504,-4.752145767211914,7.671389579772949
1789038624111613700,13.68561376953125,-3.6394832134246826,-4.752145767211914,7.429714202880859
1789038624128867800,13.702867919921875,-3.9696927070617676,-4.567898273468018,7.479963779449463
1789038624146121700,13.720121826171875,-4.01037073135376,-4.632504463195801,7.587640762329102
1789038624163375900,13.7373759765625,-3.5772697925567627,-5.051248550415039,7.800601959228516
1789038624180629800,13.754629638671876,-3.900300979614258,-5.429314613342285,7.503891944885254
1789038624197884000,13.7718837890625,-3.7950167655944824,-5.642275810241699,7.207181930541992
1789038624215137800,13.7891376953125,-3.3403804302215576,-5.544169902801514,7.04925537109375
1789038624232392000,13.806391845703125,-3.6227335929870605,-5.458028316497803,7.245467185974121
1789038624249645800,13.823645751953125,-3.2614171504974365,-5.26181697845459,7.058826923370361
1789038624266900000,13.84089990234375,-3.4169507026672363,-5.302495002746582,6.821937561035156
1789038624284154000,13.858154052734376,-3.2781670093536377,-5.166104316711426,6.5491557121276855
1789038624301408000,13.875407958984376,-3.1489546298980713,-5.242674350738525,7.008577346801758
1789038624318662000,13.892661865234375,-3.0173492431640625,-5.31685209274292,7.384250640869141
1789038624335916000,13.909916015625,-2.7972097396850586,-5.309673309326172,7.29093074798584
1789038624353170200,13.927170166015625,-3.13220477104187,-5.72123908996582,7.144968509674072
1789038624370424000,13.944424072265624,-2.919243574142456,-6.501298904418945,7.716853141784668
1789038624387678200,13.96167822265625,-3.414557933807373,-7.140182971954346,7.934599876403809
1789038624404932000,13.97893212890625,-3.266202926635742,-7.188039302825928,7.829315662384033
1789038624422186200,13.996186279296875,-3.10109806060791,-6.838686943054199,7.183253765106201
1789038624439440100,14.013440185546875,-3.2207393646240234,-6.183053493499756,6.812366008758545
1789038624456694300,14.0306943359375,-2.8187451362609863,-5.283352375030518,6.331408500671387
1789038624473948200,14.0479482421875,-3.1250264644622803,-5.01296329498291,6.0849480628967285
1789038624491202300,14.065202392578126,-2.6943182945251465,-5.637490272521973,6.599404811859131
1789038624508456400,14.08245654296875,-2.3545374870300293,-6.4319071769714355,6.618547439575195
1789038624525710300,14.09971044921875,-1.9214365482330322,-7.161718368530273,6.668796539306641
1789038624542964500,14.116964599609375,-1.9860427379608154,-7.860422611236572,6.534798622131348
1789038624560218400,14.13421826171875,-1.9525432586669922,-7.661818027496338,5.814558982849121
1789038624577472500,14.151472412109374,-2.1894326210021973,-7.719245910644531,6.214160442352295
1789038624594726400,14.168726318359376,-2.5938198566436768,-8.047062873840332,6.38883638381958
1789038624611980500,14.18598046875,-2.390429735183716,-8.288737297058105,6.553941249847412
1789038624629234700,14.203234619140625,-2.3258235454559326,-7.7455668449401855,5.929414749145508
1789038624646488600,14.220488525390625,-2.510071039199829,-7.23589563369751,5.793023586273193
1789038624663742700,14.23774267578125,-2.5698914527893066,-7.597211837768555,5.532206058502197
1789038624680996600,14.25499658203125,-2.069791555404663,-8.066205024719238,5.72123908996582
1789038624698250800,14.272250732421876,-1.7180466651916504,-8.458627700805664,6.034698486328125
1789038624715504600,14.289504638671875,-1.6366907358169556,-8.200202941894531,5.807380676269531
1789038624732758800,14.3067587890625,-1.31365966796875,-7.448856830596924,5.551348686218262
1789038624750013000,14.324012939453125,-1.7802600860595703,-6.941578388214111,5.158925533294678
1789038624767266800,14.341266845703124,-2.084148406982422,-6.903293132781982,4.78803825378418
1789038624784521000,14.35852099609375,-1.306481122970581,-7.714460372924805,5.3216376304626465
1789038624801774800,14.37577490234375,-2.3258235454559326,-8.805587768554688,5.910272121429443
1789038624819029000,14.393029052734375,-1.9645073413848877,-9.461220741271973,6.173482418060303
1789038624836283100,14.410283203125,-2.2301106452941895,-9.324830055236816,5.508277893066406
1789038624853537000,14.427537109375,-1.6223337650299072,-8.506484031677246,4.902893543243408
1789038624870791200,14.444791259765625,-1.9262222051620483,-8.030312538146973,4.6061835289001465
1789038624888045000,14.462045166015624,-2.620140790939331,-8.13081169128418,4.443471431732178
1789038624905299200,14.47929931640625,-1.94297194480896,-8.283951759338379,4.823930263519287
1789038624922553000,14.496552978515625,-1.466800332069397,-8.082955360412598,4.73300313949585
1789038624939807200,14.51380712890625,-1.435693621635437,-8.056633949279785,4.838287353515625
1789038624957061400,14.531061279296875,-1.674975872039795,-8.551948547363281,5.517848968505859
1789038624974315300,14.548315185546874,-1.8783657550811768,-8.657232284545898,4.979464054107666
1789038624991569400,14.5655693359375,-1.8496519327163696,-8.855836868286133,4.986642360687256
1789038625008823300,14.5828232421875,-1.7276179790496826,-8.841479301452637,4.67078971862793
1789038625026077400,14.600077392578125,-1.8616160154342651,-9.042476654052734,4.831109046936035
1789038625043331600,14.61733154296875,-2.359323024749756,-8.910871505737305,4.711467742919922
1789038625060585500,14.63458544921875,-2.416750907897949,-8.583054542541504,4.342973232269287
1789038625077839600,14.651839599609374,-2.416750907897949,-8.6907320022583,3.806980848312378
1789038625095093500,14.669093505859376,-2.3186452388763428,-8.669196128845215,3.955335855484009
1789038625112347600,14.68634765625,-1.765903115272522,-8.877371788024902,4.01037073135376
1789038625129601500,14.7036015625,-1.7826528549194336,-9.200403213500977,4.658825874328613
1789038625146855700,14.720855712890625,-2.249253273010254,-8.72183895111084,4.278367042541504
1789038625164109800,14.73810986328125,-2.170290231704712,-8.157132148742676,3.7734813690185547
1789038625181363700,14.75536376953125,-2.3090739250183105,-8.176275253295898,3.3858439922332764
1789038625198617900,14.772617919921874,-2.196611166000366,-8.470592498779297,3.579662561416626
1789038625215871700,14.789871826171876,-2.1583259105682373,-8.81515884399414,3.845266103744507
1789038625233126000,14.8071259765625,-1.9812572002410889,-8.937192916870117,3.7878382205963135
1789038625250380000,14.824380126953125,-2.0003998279571533,-8.630910873413086,3.7256247997283936
1789038625267634000,14.841634033203125,-2.383251428604126,-8.23130989074707,3.8907296657562256
1789038625284888000,14.85888818359375,-2.7397818565368652,-8.12123966217041,4.280759811401367
1789038625302142000,14.876141845703126,-2.9216363430023193,-8.374878883361816,4.395615100860596
1789038625319396000,14.89339599609375,-3.1130621433258057,-8.532805442810059,4.359723091125488
1789038625336650200,14.910650146484375,-3.077169895172119,-8.602197647094727,4.204189300537109
1789038625353904000,14.927904052734375,-2.950350284576416,-8.57348346710205,4.230510234832764
1789038625371158300,14.945158203125,-2.6249263286590576,-8.367700576782227,4.323830604553223
1789038625388412200,14.962412109375,-2.5435705184936523,-8.061419486999512,4.701896667480469
1789038625405666300,14.979666259765626,-2.423929452896118,-7.95134973526001,4.9124650955200195
1789038625422920200,14.996920166015625,-2.1846470832824707,-8.09970474243164,4.847858905792236
1789038625440174300,15.01417431640625,-2.115255117416382,-8.499305725097656,4.792823791503906
1789038625457428500,15.031428466796875,-2.3880369663238525,-8.772088050842285,4.718646049499512
1789038625474682400,15.048682373046875,-2.6967110633850098,-8.73619556427002,4.828716278076172
1789038625491936500,15.0659365234375,-2.7254250049591064,-8.508877754211426,4.862215518951416
1789038625509190400,15.0831904296875,-2.5148565769195557,-8.166703224182129,4.941178798675537
1789038625526444500,15.100444580078126,-2.368894338607788,-7.903493404388428,4.67078971862793
1789038625543698700,15.11769873046875,-2.3401806354522705,-7.9968132972717285,4.575077056884766
1789038625560952600,15.13495263671875,-2.455035924911499,-7.960920810699463,4.498506546020508
1789038625578206700,15.152206787109375,-2.3497519493103027,-7.623532772064209,4.560719966888428
1789038625595460600,15.169460693359374,-2.4263222217559814,-7.195217609405518,4.462614059448242
1789038625612714800,15.18671484375,-2.4765713214874268,-7.343572616577148,4.541577339172363
1789038625629969000,15.203968994140626,-2.586641311645508,-8.12123966217041,4.828716278076172
1789038625647222800,15.221222900390625,-2.6799614429473877,-8.839086532592773,5.431707382202148
1789038625664477000,15.238476806640625,-2.7326035499572754,-9.020941734313965,5.685346603393555
1789038625681730800,15.255730712890625,-3.0317063331604004,-8.851051330566406,5.618347644805908
1789038625698985000,15.27298486328125,-3.31884503364563,-8.724231719970703,5.312066078186035
1789038625716239000,15.290239013671876,-3.2350962162017822,-8.874979019165039,5.350351333618164
1789038625733493000,15.307492919921875,-3.074777126312256,-8.901300430297852,5.467599868774414
1789038625750747100,15.3247470703125,-2.754138946533203,-8.630910873413086,5.441278457641602
1789038625768001000,15.3420009765625,-2.4646072387695312,-8.133204460144043,5.582455158233643
1789038625785255200,15.359255126953125,-2.4047868251800537,-7.692924976348877,5.5106706619262695
1789038625802509300,15.37650927734375,-2.5698914527893066,-7.6474609375,5.584847927093506
1789038625819763200,15.39376318359375,-2.478964328765869,-7.8795647621154785,5.828916072845459
1789038625837017300,15.411017333984375,-2.478964328765869,-7.795815944671631,6.096911907196045
1789038625854271200,15.428271240234375,-2.455035924911499,-7.312466144561768,5.233103275299072
1789038625871525400,15.445525390625,-2.8139593601226807,-6.91765022277832,5.446064472198486
1789038625888779300,15.462779296875,-2.7517459392547607,-6.654439926147461,5.493920803070068
1789038625906033400,15.480033447265624,-3.1728827953338623,-6.8243303298950195,5.752345561981201
1789038625923287600,15.49728759765625,-3.421736478805542,-7.22871732711792,5.946164131164551
1789038625940541400,15.51454150390625,-3.28773832321167,-7.518248558044434,6.728617191314697
1789038625957795300,15.53179541015625,-2.9479575157165527,-7.51585578918457,6.857829570770264
1789038625975049500,15.549049560546875,-3.0795626640319824,-7.503891944885254,7.561319351196289
1789038625992303600,15.5663037109375,-3.091526746749878,-6.908079147338867,7.872386455535889
1789038626009557800,15.583557861328124,-2.957528829574585,-6.156732559204102,7.106683254241943
1789038626026811600,15.600811767578126,-2.9958138465881348,-5.72123908996582,6.702296257019043
1789038626044065500,15.6180654296875,-3.201596736907959,-5.79780912399292,5.862415313720703
1789038626061319700,15.635319580078125,-3.2829527854919434,-6.049055576324463,5.998806476593018
1789038626078573800,15.65257373046875,-3.6466617584228516,-6.029912948608398,6.39601469039917
1789038626095828000,15.669827880859375,-3.390629768371582,-5.814558982849121,6.245266914367676
1789038626113081900,15.687081787109374,-3.16331148147583,-5.525027275085449,7.262216567993164
1789038626130335700,15.704335693359376,-3.1968109607696533,-5.254638671875,6.324230194091797
1789038626147590000,15.72158984375,-3.728017568588257,-5.434100151062012,6.798008918762207
1789038626164844000,15.738843994140625,-3.900300979614258,-5.536991596221924,6.661618232727051
1789038626182098000,15.756097900390625,-4.077369689941406,-5.891129493713379,7.343572616577148
1789038626199352000,15.77335205078125,-3.988835334777832,-5.735595703125,7.762316703796387
1789038626216606000,15.79060595703125,-3.8356947898864746,-5.563312530517578,8.097311973571777
1789038626233860000,15.807860107421876,-4.086941242218018,-5.216353416442871,6.8554368019104
1789038626251114200,15.8251142578125,-3.675375461578369,-5.089533805847168,7.214360237121582
1789038626268368100,15.8423681640625,-3.950550079345703,-4.922036170959473,7.4225358963012695
1789038626285622300,15.859622314453125,-4.347758769989014,-4.692325115203857,6.922435760498047
1789038626302876200,15.876876220703124,-4.388436794281006,-4.4410786628723145,6.50608491897583
1789038626320130300,15.89413037109375,-4.319045066833496,-4.342973232269287,6.747759819030762
1789038626337384200,15.91138427734375,-4.914857864379883,-4.6372904777526855,6.948757171630859
1789038626354638300,15.928638427734375,-4.29033088684082,-4.445864677429199,6.156732559204102
1789038626371892500,15.945892578125,-3.8428730964660645,-4.761716842651367,6.867401123046875
1789038626389146400,15.963146484375,-4.340580463409424,-4.395615100860596,7.322037220001221
1789038626406400500,15.980400390625,-3.933800458908081,-4.005585193634033,6.7310099601745605
1789038626423654400,15.997654296875,-3.900300979614258,-3.981656789779663,7.4225358963012695
1789038626440908500,16.014908447265626,-4.591826438903809,-3.9864425659179688,7.22871732711792
1789038626458162700,16.03216259765625,-4.29033088684082,-4.168296813964844,6.3601226806640625
1789038626475416600,16.04941650390625,-3.6610186100006104,-3.5198421478271484,6.680760860443115
1789038626492670700,16.066670654296875,-4.211368083953857,-3.806980848312378,7.936992645263672
1789038626509924600,16.083924560546876,-3.594019651412964,-4.094119548797607,8.365307807922363
1789038626527178800,16.1011787109375,-3.6466617584228516,-4.1659040451049805,7.69531774520874
1789038626544433000,16.118432861328124,-4.249652862548828,-3.88594388961792,7.747959613800049
1789038626561686800,16.135686767578125,-3.9146578311920166,-3.2925238609313965,7.759923934936523
1789038626578941000,16.15294091796875,-3.6155550479888916,-2.9240293502807617,7.4464640617370605
1789038626596194800,16.17019482421875,-4.35254430770874,-2.8187451362609863,7.044469833374023
1789038626613449000,16.187448974609374,-4.369294166564941,-2.926422119140625,7.130611419677734
1789038626630703000,16.204703125,-4.158725738525391,-3.3020951747894287,7.5637125968933105
1789038626647957000,16.22195703125,-4.311866283416748,-3.768695592880249,7.470392227172852
1789038626665211100,16.239211181640623,-4.326223373413086,-4.115654945373535,7.671389579772949
1789038626682465000,16.256465087890625,-4.311866283416748,-4.271188259124756,7.793423175811768
1789038626699719200,16.27371923828125,-4.158725738525391,-4.053441524505615,8.410771369934082
1789038626716973000,16.29097314453125,-4.022335052490234,-3.8500516414642334,8.09970474243164
1789038626734227200,16.308227294921874,-4.084548473358154,-3.7256247997283936,7.860422611236572
1789038626751481300,16.3254814453125,-4.022335052490234,-3.5844483375549316,7.168896675109863
1789038626768735200,16.3427353515625,-3.373879909515381,-3.6705899238586426,7.302894592285156
1789038626785989400,16.3599892578125,-3.5437703132629395,-3.8572301864624023,7.405786037445068
1789038626803243300,16.3772431640625,-3.649054527282715,-4.0797624588012695,7.692924976348877
1789038626820497400,16.394497314453126,-3.565305709838867,-4.2281174659729,7.7838521003723145
1789038626837751300,16.411751220703124,-3.5844483375549316,-4.115654945373535,7.750352382659912
1789038626855005400,16.42900537109375,-3.81655216217041,-4.043870449066162,7.69531774520874
1789038626872259600,16.446259521484375,-3.579662561416626,-3.8739798069000244,7.551748275756836
1789038626889513500,16.463513427734377,-3.8285162448883057,-3.8213376998901367,7.357929706573486
1789038626906767600,16.480767578125,-3.335594654083252,-4.022335052490234,7.537391185760498
1789038626924021500,16.498021484375,-3.4672000408172607,-4.070191383361816,7.403393268585205
1789038626941275600,16.515275634765626,-3.5054850578308105,-3.926621913909912,7.130611419677734
1789038626958529800,16.53252978515625,-3.10109806060791,-4.022335052490234,7.267002582550049
1789038626975783700,16.54978369140625,-3.084348440170288,-4.316651821136475,7.865208148956299
1789038626993037800,16.567037841796875,-3.359523057937622,-4.1419758796691895,7.903493404388428
1789038627010291700,16.584291748046876,-3.3714871406555176,-3.8333017826080322,7.568498134613037
1789038627027545900,16.6015458984375,-2.761317253112793,-4.254438877105713,8.26241683959961
1789038627044799700,16.6187998046875,-3.2231321334838867,-4.603790760040283,8.008777618408203
1789038627062054000,16.636053955078125,-2.7876384258270264,-5.247459888458252,8.415556907653809
1789038627079308000,16.65330810546875,-2.7972097396850586,-5.3216376304626465,8.032705307006836
1789038627096562000,16.67056201171875,-3.2207393646240234,-5.26181697845459,7.456035137176514
1789038627122443000,16.696443115234374,-2.6727828979492188,-5.529813289642334,7.733603000640869
1789038627139697200,16.713697265625,-2.775674343109131,-5.615954875946045,7.436892986297607
1789038627156951000,16.730950927734376,-2.794816732406616,-5.8097734451293945,7.267002582550049
1789038627174205200,16.748205078125,-3.1513473987579346,-5.477170944213867,7.037291526794434
1789038627191459000,16.765458984375,-2.7589244842529297,-4.9531426429748535,6.936792850494385
1789038627208713200,16.782713134765626,-3.3068809509277344,-5.376672267913818,6.836294174194336
1789038627225967000,16.799967041015623,-3.2997024059295654,-6.58265495300293,7.410571575164795
1789038627243221200,16.81722119140625,-2.730210542678833,-7.152146816253662,7.9585280418396
1789038627260475400,16.834475341796875,-2.7876384258270264,-7.338787078857422,8.193024635314941
1789038627277729300,16.851729248046876,-2.4646072387695312,-7.025327205657959,7.477570533752441
1789038627294983400,16.8689833984375,-2.242074728012085,-6.594619274139404,6.884150981903076
1789038627312237300,16.8862373046875,-2.541177749633789,-6.183053493499756,6.678368091583252
1789038627329491500,16.903491455078125,-1.954936146736145,-6.111268997192383,6.781259536743164
1789038627346745600,16.92074560546875,-2.069791555404663,-6.434299945831299,6.7310099601745605
1789038627363999700,16.937999755859376,-2.038684844970703,-6.608976364135742,6.31944465637207
1789038627381253600,16.955253662109374,-2.1511476039886475,-6.86261510848999,6.183053493499756
1789038627398507500,16.972507568359376,-2.2205393314361572,-7.424928665161133,6.235695838928223
1789038627415761700,16.98976171875,-2.0315065383911133,-7.384250640869141,5.917450428009033
1789038627433015800,17.007015869140623,-2.1583259105682373,-7.781459331512451,5.91505765914917
1789038627450269700,17.024269775390625,-2.4287149906158447,-7.381857872009277,5.359922885894775
1789038627467523800,17.04152392578125,-2.344966173171997,-7.101897716522217,5.6446685791015625
1789038627484777700,17.05877783203125,-1.9046868085861206,-6.92482852935791,5.4556355476379395
1789038627502032000,17.076031982421874,-1.7228323221206665,-6.872186660766602,5.225924491882324
1789038627519286000,17.0932861328125,-2.4670002460479736,-7.812565803527832,6.183053493499756
1789038627536540000,17.110539794921873,-2.014756679534912,-8.903693199157715,6.991827964782715
1789038627553794000,17.1277939453125,-2.038684844970703,-9.183652877807617,6.230910301208496
1789038627571048000,17.1450478515625,-2.2468605041503906,-9.449256896972656,5.986842155456543
1789038627588302000,17.162302001953126,-2.2468605041503906,-9.32722282409668,6.068198204040527
1789038627605556200,17.17955615234375,-2.1894326210021973,-8.451449394226074,5.599205017089844
1789038627622810000,17.19681005859375,-1.9932212829589844,-7.932207107543945,5.699703693389893
1789038627640064300,17.214064208984375,-1.7180466651916504,-7.221538543701172,4.826323509216309
1789038627657318100,17.231318115234377,-1.8233308792114258,-7.013363361358643,5.113461971282959
1789038627674572300,17.248572265625,-1.856830358505249,-7.09711217880249,5.010570526123047
1789038627691826200,17.265826171875,-1.9908283948898315,-6.874579429626465,4.4482574462890625
1789038627709080300,17.283080322265626,-2.062613010406494,-7.776673793792725,5.1182475090026855
1789038627726334500,17.30033447265625,-1.8640087842941284,-8.772088050842285,5.5345988273620605
1789038627743588400,17.31758837890625,-2.201396942138672,-9.001798629760742,5.505885124206543
1789038627760842500,17.334842529296875,-2.249253273010254,-8.458627700805664,5.546562671661377
1789038627778096400,17.352096435546876,-2.251646041870117,-8.056633949279785,5.477170944213867
1789038627795350500,17.3693505859375,-2.2301106452941895,-8.181060791015625,5.438885688781738
1789038627812604700,17.386604736328124,-2.311466693878174,-8.772088050842285,5.436492919921875
1789038627829858600,17.403858642578125,-2.5292134284973145,-9.231510162353516,5.194818019866943
1789038627847112700,17.42111279296875,-2.5746772289276123,-9.272188186645508,4.895715236663818
1789038627864366600,17.43836669921875,-2.5698914527893066,-9.126225471496582,4.859822750091553
1789038627881620700,17.455620849609375,-2.517249345779419,-8.827122688293457,4.967499732971191
1789038627898875000,17.472875,-2.5148565769195557,-8.602197647094727,4.934000492095947
1789038627916128800,17.490128662109374,-2.447857618331909,-8.389236450195312,4.661218643188477
1789038627933383000,17.5073828125,-2.2995026111602783,-8.310273170471191,4.34536600112915
1789038627950636800,17.52463671875,-2.093719720840454,-7.992027759552002,4.240081787109375
1789038627967891000,17.541890869140627,-1.832902193069458,-7.365108013153076,4.0558342933654785
1789038627985145000,17.55914501953125,-1.7132610082626343,-6.881757736206055,3.7639100551605225
1789038628002399000,17.57639892578125,-1.97407865524292,-7.113861560821533,3.524627685546875
1789038628019653000,17.593653076171876,-2.258824586868286,-7.968099594116211,3.9768712520599365
1789038628036907000,17.610906982421874,-2.8043880462646484,-8.73619556427002,5.010570526123047
1789038628054161200,17.6281611328125,-3.0412776470184326,-8.965906143188477,6.159125328063965
1789038628071415300,17.645415283203125,-2.919243574142456,-8.57348346710205,6.305087566375732
1789038628088669200,17.662669189453126,-2.8498518466949463,-8.214560508728027,5.79063081741333
1789038628105923300,17.67992333984375,-3.170490026473999,-8.214560508728027,5.099104881286621
1789038628123177200,17.69717724609375,-3.1513473987579346,-8.293522834777832,4.773681163787842
1789038628140431400,17.714431396484375,-3.3571300506591797,-8.264809608459473,4.9124650955200195
1789038628157685500,17.731685546875,-2.864208698272705,-8.183453559875488,5.347958564758301
1789038628174939400,17.748939453125,-2.392822742462158,-8.140382766723633,6.044270038604736
1789038628192193500,17.766193603515624,-1.8352949619293213,-8.070990562438965,6.527620315551758
1789038628209447400,17.783447509765626,-2.012363910675049,-7.843672752380371,6.147161483764648
1789038628226701600,17.80070166015625,-2.0961127281188965,-7.463213920593262,5.735595703125
1789038628243955500,17.81795556640625,-2.352144718170166,-7.386643409729004,5.709274768829346
1789038628261209600,17.835209716796875,-2.6632115840911865,-7.762316703796387,6.0849480628967285
1789038628278463700,17.852463623046877,-2.7038896083831787,-8.126026153564453,6.5874409675598145
1789038628295717600,17.869717529296874,-2.6703901290893555,-8.164310455322266,6.754938125610352
1789038628312971800,17.8869716796875,-2.6488547325134277,-7.424928665161133,6.0849480628967285
1789038628330225700,17.9042255859375,-2.5459632873535156,-7.223931789398193,6.199803352355957
1789038628347479800,17.921479736328124,-2.5148565769195557,-7.09711217880249,6.0610198974609375
1789038628364734000,17.93873388671875,-2.4335005283355713,-7.288537979125977,6.6592254638671875
1789038628381987800,17.95598779296875,-2.8522446155548096,-7.747959613800049,7.16650390625
1789038628399242000,17.973241943359376,-3.0317063331604004,-8.015955924987793,7.386643409729004
1789038628416495900,17.990495849609374,-2.964707374572754,-7.798209190368652,7.728816986083984
1789038628433750000,18.00775,-2.5770699977874756,-7.018148899078369,6.948757171630859
1789038628451004200,18.025004150390625,-2.3808584213256836,-6.527620315551758,6.647261142730713
1789038628468258000,18.042258056640627,-2.455035924911499,-6.221338748931885,6.364908218383789
1789038628485512200,18.05951220703125,-2.7421748638153076,-5.986842155456543,6.338587284088135
1789038628502766000,18.07676611328125,-2.9001009464263916,-5.66620397567749,5.893522262573242
1789038628520020200,18.094020263671876,-3.1680972576141357,-5.714060306549072,6.616154670715332
1789038628537274400,18.1112744140625,-3.249453067779541,-5.843272686004639,6.386443614959717
1789038628554528300,18.1285283203125,-3.2685956954956055,-6.2500529289245605,7.121040344238281
1789038628571782400,18.145782470703125,-3.421736478805542,-6.369693756103516,7.460821151733398
1789038628589036300,18.163036376953126,-3.483949661254883,-6.271588325500488,7.190432071685791
1789038628606290400,18.18029052734375,-3.5509488582611084,-6.10169792175293,7.64028263092041
1789038628623544300,18.19754443359375,-3.5437703132629395,-5.477170944213867,7.369893550872803
1789038628640798500,18.214798583984376,-3.4002010822296143,-4.754538536071777,6.97268533706665
1789038628658052600,18.232052490234373,-3.625126361846924,-4.35254430770874,7.164111137390137
1789038628675306500,18.249306396484375,-3.5294134616851807,-4.319045066833496,7.752745151519775
1789038628692560600,18.266560546875,-4.130012035369873,-4.529613494873047,7.317251682281494
1789038628709814500,18.283814453125,-3.4121651649475098,-4.517649173736572,8.0350980758667
1789038628727068700,18.301068603515624,-3.783052682876587,-4.429114818572998,7.77188777923584
1789038628744322800,18.31832275390625,-3.7399818897247314,-4.357329845428467,6.812366008758545
1789038628761576700,18.33557666015625,-3.792623996734619,-4.089334011077881,6.38883638381958
1789038628778830800,18.352830810546877,-3.572484254837036,-3.806980848312378,6.199803352355957
1789038628796084700,18.370084716796875,-3.483949661254883,-3.1968109607696533,6.211767673492432
1789038628813339000,18.3873388671875,-3.8739798069000244,-3.1274192333221436,6.92482852935791
1789038628830593000,18.404593017578126,-3.7734813690185547,-3.5581271648406982,6.994220733642578
1789038628847847000,18.421846923828124,-3.586841106414795,-3.7471601963043213,7.444071292877197
1789038628865101000,18.43910107421875,-4.4410786628723145,-3.9146578311920166,7.860422611236572
1789038628882355000,18.45635498046875,-3.9050865173339844,-2.768495798110962,7.786244869232178
1789038628899609000,18.473609130859376,-3.5365917682647705,-3.3020951747894287,8.09970474243164
1789038628916863200,18.49086328125,-3.806980848312378,-3.6131622791290283,8.183453559875488
1789038628934117000,18.5081171875,-3.957728624343872,-3.783052682876587,8.334200859069824
1789038628951371300,18.525371337890626,-3.972085475921631,-3.6705899238586426,8.183453559875488
1789038628968625200,18.542625244140623,-4.247260093688965,-3.5844483375549316,8.030312538146973
1789038628985879300,18.55987939453125,-4.199403762817383,-3.5748770236968994,7.781459331512451
1789038629003133200,18.57713330078125,-3.9768712520599365,-3.6442689895629883,7.63310432434082
1789038629020387300,18.59438720703125,-3.7423746585845947,-3.7016966342926025,7.336394309997559
1789038629037641500,18.611641357421874,-3.988835334777832,-3.0867412090301514,6.867401123046875
1789038629054895400,18.628895263671875,-3.641875982284546,-2.7900311946868896,6.9822564125061035
1789038629072149500,18.6461494140625,-3.4337005615234375,-3.187239646911621,6.838686943054199
1789038629089403400,18.6634033203125,-3.5772697925567627,-3.5581271648406982,7.101897716522217
1789038629106657500,18.680657470703125,-3.6921253204345703,-3.7710886001586914,7.412964344024658
1789038629123911700,18.69791162109375,-3.7399818897247314,-3.620340585708618,7.623532772064209
1789038629141165600,18.71516552734375,-3.9074792861938477,-3.641875982284546,7.70967435836792
1789038629158419700,18.732419677734374,-4.039084434509277,-3.8572301864624023,7.975277900695801
1789038629175673600,18.749673583984375,-3.9601213932037354,-4.177868366241455,8.039883613586426
1789038629192927700,18.766927734375,-3.9194436073303223,-4.46979284286499,7.908278942108154
1789038629210181600,18.784181640625,-3.761517286300659,-4.4961137771606445,8.032705307006836
1789038629227435800,18.801435791015624,-3.5844483375549316,-4.457828521728516,8.011170387268066
1789038629244690000,18.81868994140625,-3.7543387413024902,-4.0797624588012695,7.10429048538208
1789038629261943800,18.83594384765625,-3.5676984786987305,-4.01037073135376,6.9822564125061035
1789038629279198000,18.853197998046873,-3.187239646911621,-3.862015724182129,6.929614543914795
1789038629296451800,18.870451904296875,-3.397808074951172,-3.6705899238586426,6.678368091583252
1789038629313706000,18.8877060546875,-3.4002010822296143,-3.7806596755981445,6.946363925933838
1789038629330960000,18.9049599609375,-3.1178479194641113,-3.806980848312378,7.747959613800049
1789038629348214000,18.922214111328124,-3.335594654083252,-4.213760852813721,8.171489715576172
1789038629365468200,18.93946826171875,1.6893328428268433,-4.668396949768066,6.6113691329956055
1789038629382722000,18.95672216796875,-6.843472957611084,-3.924229145050049,4.18983268737793
1789038629399976200,18.97397607421875,-3.8572301864624023,-3.9529430866241455,7.558926582336426
1789038629417230000,18.99122998046875,-1.430907964706421,-4.627718925476074,8.9850492477417
1789038629434484200,19.008484130859376,-3.5581271648406982,-5.86002254486084,9.174081802368164
1789038629451738400,19.02573828125,-2.9766714572906494,-6.91765022277832,8.429914474487305
1789038629468992300,19.0429921875,-3.5605201721191406,-8.032705307006836,8.10688304901123
1789038629486246400,19.060246337890625,-2.8498518466949463,-8.12123966217041,8.616554260253906
1789038629503500300,19.077500244140627,-3.1441688537597656,-6.340980052947998,8.276773452758789
1789038629520754400,19.09475439453125,-3.4791641235351562,-4.759324073791504,6.711867332458496
1789038629538008300,19.11200830078125,-3.81655216217041,-3.6323046684265137,5.515456199645996
1789038629555262500,19.129262451171876,-2.9359934329986572,-3.460021495819092,4.54636287689209
1789038629572516600,19.1465166015625,-2.3808584213256836,-4.900500774383545,5.467599868774414
1789038629589770500,19.1637705078125,-2.775674343109131,-6.604190349578857,7.350750923156738
1789038629607024600,19.181024658203125,-2.4406790733337402,-7.946564197540283,8.283951759338379
1789038629624278500,19.198278564453126,-2.0578274726867676,-8.547162055969238,8.688339233398438
1789038629641532700,19.21553271484375,-1.7252250909805298,-8.401200294494629,8.188239097595215
1789038629658786800,19.232786865234374,-1.7539390325546265,-7.712067604064941,7.056434154510498
1789038629676040700,19.250040771484375,-2.306680917739868,-6.927221775054932,6.199803352355957
1789038629693294600,19.267294677734377,-2.0793628692626953,-6.185446739196777,5.185246467590332
1789038629710548700,19.284548828125,-2.1439690589904785,-6.118447303771973,5.096712112426758
1789038629727803000,19.301802978515624,-2.2325034141540527,-7.056434154510498,6.3361945152282715
1789038629745056800,19.319056884765626,-2.321038007736206,-7.551748275756836,6.436692714691162
1789038629762311000,19.336310791015624,-2.210968017578125,-8.228917121887207,6.98704195022583
1789038629779565000,19.35356494140625,-2.203789710998535,-8.563912391662598,7.039684295654297
1789038629796819000,19.37081884765625,-2.840280532836914,-8.34855842590332,6.4319071769714355
1789038629814073000,19.388072998046876,-2.6727828979492188,-8.312665939331055,6.283552169799805
1789038629831327000,19.405326904296874,-2.1846470832824707,-8.056633949279785,5.309673309326172
1789038629848581000,19.4225810546875,-2.2755744457244873,-7.582854747772217,4.833501815795898
1789038629865835000,19.4398349609375,-2.1296122074127197,-7.795815944671631,5.560919761657715
1789038629883089200,19.457089111328123,-2.2085752487182617,-7.89631462097168,5.84566593170166
1789038629900343000,19.474343017578125,-2.2205393314361572,-8.23848819732666,5.706881999969482
1789038629917597200,19.49159716796875,-2.132004976272583,-8.513663291931152,5.525027275085449
1789038629934851300,19.508851318359376,-2.038684844970703,-8.93240737915039,6.082555294036865
1789038629952105200,19.526105224609374,-2.203789710998535,-8.992227554321289,5.802595138549805
1789038629969359400,19.543359375,-2.2755744457244873,-8.96829891204834,6.187839508056641
1789038629986613200,19.56061328125,-1.9070796966552734,-7.886743545532227,5.4628143310546875
1789038630003867400,19.577867431640627,-1.7084753513336182,-7.164111137390137,4.843072891235352
1789038630021121300,19.595121337890625,-1.8831514120101929,-7.35314416885376,4.88853645324707
1789038630038375400,19.61237548828125,-2.1272194385528564,-8.401200294494629,5.319244861602783
1789038630055629600,19.629629638671876,-2.4263222217559814,-8.769695281982422,5.233103275299072
1789038630072883500,19.646883544921874,-2.4191436767578125,-8.46341323852539,5.096712112426758
1789038630090137600,19.6641376953125,-2.4598217010498047,-8.0350980758667,4.706682205200195
1789038630107391500,19.6813916015625,-2.572284460067749,-8.111668586730957,4.814359188079834
1789038630124645600,19.698645751953126,-2.770888566970825,-8.23848819732666,5.041677474975586
1789038630141899800,19.715899658203124,-2.854637384414673,-8.427521705627441,5.19960355758667
1789038630159153700,19.733153564453126,-2.6249263286590576,-8.34138011932373,5.032105922698975
1789038630176407800,19.75040771484375,-2.4741785526275635,-8.190631866455078,4.847858905792236
1789038630193661700,19.76766162109375,-2.4646072387695312,-8.054241180419922,4.7712883949279785
1789038630210915800,19.784915771484375,-2.5292134284973145,-8.157132148742676,5.027320384979248
1789038630228169700,19.802169677734376,-2.438286304473877,-8.434700012207031,5.405386447906494
1789038630245423900,19.819423828125,-2.2061824798583984,-8.461020469665527,5.458028316497803
1789038630262678000,19.836677978515624,-2.172683000564575,-7.867600917816162,5.340780258178711
1789038630279932000,19.853931884765625,-2.194218397140503,-7.348358154296875,5.07517671585083
1789038630297186000,19.87118603515625,-2.1655044555664062,-7.551748275756836,5.051248550415039
1789038630314440000,19.88843994140625,-2.3330020904541016,-8.078168869018555,5.395814895629883
1789038630331694000,19.905694091796875,-2.7110681533813477,-8.288737297058105,5.618347644805908
1789038630348948200,19.9229482421875,-3.0652058124542236,-7.901100158691406,5.599205017089844
1789038630366202000,19.9402021484375,-2.9240293502807617,-7.523034572601318,5.565705299377441
1789038630383456300,19.957456298828124,-2.4909284114837646,-7.424928665161133,5.735595703125
1789038630400710100,19.974710205078125,-2.4358935356140137,-7.477570533752441,5.6925249099731445
1789038630417964300,19.99196435546875,-2.1822543144226074,-7.788637638092041,5.704489231109619
1789038630435218200,20.00921826171875,-2.0267207622528076,-8.018348693847656,5.675775527954102
1789038630452472300,20.026472412109374,-2.5076780319213867,-8.260024070739746,5.907878875732422
1789038630469726500,20.0437265625,-3.1178479194641113,-8.37009334564209,5.9676995277404785
1789038630486980400,20.06098046875,-2.667997360229492,-8.444271087646484,6.324230194091797
1789038630504234500,20.078234375,-1.801795482635498,-8.09970474243164,6.857829570770264
1789038630521488400,20.09548828125,-1.7228323221206665,-7.776673793792725,7.5804619789123535
1789038630538742500,20.112742431640626,-2.2612173557281494,-7.0755767822265625,7.022934436798096
1789038630555996700,20.12999658203125,-1.9908283948898315,-6.412764549255371,6.999006271362305
1789038630573250600,20.14725048828125,-2.170290231704712,-6.329015731811523,7.295716285705566
1789038630590504700,20.164504638671875,-2.768495798110962,-6.293123722076416,7.8077802658081055
1789038630607758600,20.181758544921873,-2.991028308868408,-6.185446739196777,6.826723098754883
1789038630625012700,20.1990126953125,-2.541177749633789,-5.874379634857178,6.412764549255371
1789038630642266600,20.2162666015625,-2.5052852630615234,-6.027520179748535,6.692724704742432
1789038630659520800,20.233520751953126,-3.407379388809204,-6.317051887512207,6.728617191314697
1789038630676775000,20.25077490234375,-3.689732551574707,-6.754938125610352,6.654439926147461
1789038630694028800,20.26802880859375,-3.3643085956573486,-6.726224422454834,6.884150981903076
1789038630711283000,20.285282958984375,-2.8426733016967773,-5.883950710296631,6.903293132781982
1789038630728536800,20.302536865234377,-2.950350284576416,-4.871787071228027,7.891529083251953
1789038630745791000,20.319791015625,-3.0029923915863037,-4.431507587432861,7.767102241516113
1789038630763045000,20.337045166015624,-2.682354211807251,-5.125426292419434,7.800601959228516
1789038630780299000,20.354299072265626,-3.014956474304199,-5.67338228225708,8.688339233398438
1789038630797553200,20.37155322265625,-3.022135019302368,-5.79063081741333,8.429914474487305
1789038630814807000,20.38880712890625,-3.2350962162017822,-5.194818019866943,7.3292155265808105
1789038630832061200,20.406061279296875,-2.9838497638702393,-4.675575256347656,7.039684295654297
1789038630849315000,20.423315185546876,-2.8666014671325684,-4.041477680206299,7.341179847717285
1789038630866569200,20.4405693359375,-3.091526746749878,-4.218546390533447,6.206982135772705
1789038630883823400,20.4578232421875,-3.627519130706787,-4.4482574462890625,5.675775527954102
1789038630901077200,20.4750771484375,-3.7471601963043213,-4.395615100860596,6.565905570983887
1789038630918331400,20.492331298828127,-4.058227062225342,-4.551148891448975,7.472784996032715
1789038630935585300,20.509585205078125,-4.455435752868652,-4.871787071228027,7.534998416900635
1789038630952839400,20.52683935546875,-4.287938117980957,-4.689932346343994,7.4847493171691895
1789038630970093300,20.54409326171875,-3.783052682876587,-4.347758769989014,7.489534854888916
1789038630987347500,20.561347412109374,-3.7328033447265625,-4.319045066833496,7.582854747772217
1789038631004601600,20.5786015625,-3.8883368968963623,-4.4650068283081055,8.219346046447754
1789038631021855500,20.59585546875,-3.6466617584228516,-4.40757942199707,7.5565338134765625
1789038631039109600,20.613109619140626,-3.5772697925567627,-3.8907296657562256,6.446264266967773
1789038631056363500,20.630363525390624,-3.689732551574707,-3.438486099243164,6.278766632080078
1789038631073617700,20.64761767578125,-3.8428730964660645,-2.9168508052825928,6.453442573547363
1789038631090871600,20.66487158203125,-4.161118507385254,-2.9599215984344482,6.8482584953308105
1789038631108125700,20.682125732421873,-4.070191383361816,-3.345165967941284,7.4225358963012695
1789038631125379800,20.6993798828125,-3.8524444103240967,-3.9912281036376953,8.056633949279785
1789038631142633700,20.7166337890625,-3.428914785385132,-4.383651256561279,8.13081169128418
1789038631159887600,20.7338876953125,-3.7543387413024902,-4.015156269073486,7.781459331512451
1789038631177141800,20.751141845703124,-3.483949661254883,-3.6323046684265137,7.479963779449463
1789038631194396000,20.76839599609375,-3.2829527854919434,-3.2829527854919434,7.917850017547607
1789038631211649800,20.78564990234375,-3.3858439922332764,-3.328416347503662,8.12123966217041
1789038631228904000,20.802904052734377,-3.22552490234375,-3.680161237716675,8.078168869018555
1789038631246157800,20.82015771484375,-3.586841106414795,-3.9194436073303223,7.546962738037109
1789038631263412000,20.837411865234376,-3.586841106414795,-4.015156269073486,7.611568927764893
1789038631280665900,20.854665771484374,-3.304488182067871,-4.084548473358154,7.69531774520874
1789038631297920000,20.871919921875,-3.1417760848999023,-4.204189300537109,7.728816986083984
1789038631315174100,20.889174072265625,-3.3714871406555176,-4.271188259124756,7.491927623748779
1789038631332428000,20.906427978515627,-3.4121651649475098,-4.180261135101318,7.293323516845703
1789038631349682200,20.92368212890625,-3.2279176712036133,-3.964907169342041,7.326822757720947
1789038631366936000,20.94093603515625,-3.4121651649475098,-3.7902309894561768,7.652246952056885
1789038631384190200,20.958190185546876,-2.8689942359924316,-3.88594388961792,8.056633949279785
1789038631401444000,20.975444091796874,-2.7589244842529297,-3.957728624343872,8.082955360412598
1789038631418698200,20.9926982421875,-3.2542388439178467,-3.761517286300659,7.482356548309326
1789038631435952400,21.009952392578125,-3.3714871406555176,-3.6299118995666504,7.082755088806152
1789038631453206300,21.027206298828126,-3.404986619949341,-3.620340585708618,7.36032247543335
1789038631470460400,21.04446044921875,-2.723032236099243,-4.242474555969238,7.791030406951904
1789038631487714300,21.06171435546875,-3.0867412090301514,-4.500899314880371,7.726424217224121
1789038631504968400,21.078968505859375,-3.3308091163635254,-4.445864677429199,7.523034572601318
1789038631522222300,21.096222412109373,-2.6153552532196045,-4.393222332000732,7.245467185974121
1789038631539476500,21.1134765625,-2.8522446155548096,-4.474578380584717,7.0683979988098145
1789038631556730600,21.130730712890625,-3.0723843574523926,-5.19242525100708,7.544569969177246
1789038631573984500,21.147984619140626,-2.9599215984344482,-5.680561065673828,7.238288402557373
1789038631591238700,21.16523876953125,-2.730210542678833,-6.166304111480713,6.869793891906738
1789038631608492500,21.182492431640625,-2.8139593601226807,-6.556334018707275,7.0683979988098145
1789038631625746700,21.19974658203125,-2.9718856811523438,-7.1234331130981445,7.362715244293213
1789038631643000600,21.21700048828125,-2.768495798110962,-7.405786037445068,7.307680130004883
1789038631660254700,21.234254638671874,-2.7086751461029053,-7.659425258636475,7.506284713745117
1789038631677508900,21.2515087890625,-2.4741785526275635,-7.714460372924805,7.539783954620361
1789038631694762800,21.2687626953125,-2.6775684356689453,-7.518248558044434,7.338787078857422
1789038631712017000,21.286016845703124,-2.895315408706665,-7.3986077308654785,7.350750923156738
1789038631729270800,21.303270751953125,-2.770888566970825,-6.7932233810424805,6.463014125823975
1789038631746525000,21.32052490234375,-2.3545374870300293,-6.288337707519531,5.582455158233643
1789038631763778800,21.33777880859375,-2.5938198566436768,-6.573083877563477,5.656632900238037
1789038631781033000,21.355032958984374,-2.3473589420318604,-7.188039302825928,6.142375946044922
1789038631798287000,21.372287109375,-2.478964328765869,-7.731209754943848,6.939185619354248
1789038631815541000,21.389541015625,-2.4023938179016113,-7.939385414123535,6.922435760498047
1789038631832795100,21.406795166015623,-2.6560330390930176,-7.700103282928467,6.247660160064697
1789038631850049000,21.424049072265625,-2.447857618331909,-7.465606689453125,6.297909259796143
1789038631867303200,21.44130322265625,-2.4047868251800537,-7.2574310302734375,6.118447303771973
1789038631884557000,21.45855712890625,-2.4047868251800537,-7.250252723693848,6.094519138336182
1789038631901811200,21.475811279296874,-2.337787628173828,-7.29810905456543,5.749952793121338
1789038631919065000,21.493065185546875,-2.2301106452941895,-7.262216567993164,5.907878875732422
1789038631936319200,21.5103193359375,-2.306680917739868,-7.513463020324707,6.283552169799805
1789038631953573400,21.527573486328127,-2.3401806354522705,-7.795815944671631,6.50608491897583
1789038631970827300,21.5448271484375,-2.242074728012085,-7.824530124664307,6.2428741455078125
1789038631988081400,21.562081298828126,-2.2636101245880127,-7.657032489776611,5.867201328277588
1789038632005335300,21.579335205078124,-2.3018953800201416,-7.389036178588867,5.663811206817627
1789038632022589200,21.596589111328125,-2.194218397140503,-7.6474609375,6.010770320892334
1789038632039843300,21.61384326171875,-2.251646041870117,-7.805387496948242,6.003592014312744
1789038632057097500,21.631097412109376,-2.3976082801818848,-7.922635555267334,6.025127410888672
1789038632074351600,21.6483515625,-2.5052852630615234,-7.984848976135254,6.022734642028809
1789038632091605500,21.66560546875,-2.3808584213256836,-7.846065521240234,6.041877269744873
1789038632108859400,21.682859375,-2.416750907897949,-7.692924976348877,5.98444938659668
1789038632126113500,21.700113525390623,-2.469393014907837,-7.841279983520508,6.017949104309082
1789038632143367400,21.717367431640625,-2.63449764251709,-7.776673793792725,6.0466628074646
1789038632160621600,21.73462158203125,-2.6081767082214355,-7.403393268585205,5.804987907409668
1789038632177875700,21.751875732421876,-2.4741785526275635,-7.058826923370361,5.44845724105835
1789038632195129600,21.769129638671874,-2.179861545562744,-7.2095746994018555,5.359922885894775
1789038632212383700,21.7863837890625,-2.5459632873535156,-7.542177200317383,5.556134223937988
1789038632229637600,21.8036376953125,-2.8187451362609863,-8.063812255859375,5.848058700561523
1789038632246891800,21.820891845703127,-2.988635540008545,-8.535198211669922,6.063412666320801
1789038632264145700,21.838145751953125,-3.0101709365844727,-8.382058143615723,6.0777692794799805
1789038632281399800,21.85539990234375,-2.7517459392547607,-7.5637125968933105,5.745167255401611
1789038632298654000,21.872654052734376,-2.4335005283355713,-6.814758777618408,5.402993679046631
1789038632315907800,21.889907958984374,-2.0243279933929443,-6.888936519622803,5.726024627685547
1789038632333162000,21.907161865234375,-2.170290231704712,-7.264609336853027,6.020341873168945
1789038632350416000,21.924415771484377,-2.3401806354522705,-7.659425258636475,6.159125328063965
1789038632367670000,21.941669921875,-2.5292134284973145,-7.513463020324707,5.960521221160889
1789038632384924000,21.958923828125,-2.5435705184936523,-7.269395351409912,5.733202934265137
1789038632402178000,21.976177978515626,-2.562713146209717,-7.307680130004883,5.917450428009033
1789038632419432000,21.993431884765624,-2.3880369663238525,-7.45364236831665,6.415157318115234
1789038632436686000,22.01068603515625,-2.03629207611084,-7.276573657989502,6.26440954208374
1789038632453940200,22.027940185546875,-2.0889341831207275,-7.039684295654297,5.931807518005371
1789038632471194000,22.045194091796876,-2.407179594039917,-6.802794933319092,5.6590256690979
1789038632488448300,22.0624482421875,-2.7876384258270264,-6.7310099601745605,5.637490272521973
1789038632505702100,22.0797021484375,-2.857030153274536,-7.018148899078369,5.948556900024414
