time,seconds_elapsed,z,y,x
1790108039090828800,0.050828857421875,-0.9066314697265625,-0.514678955078125,0.0380859375
1790108039100772900,0.06077294921875,-1.019622802734375,-0.4842529296875,0.034332275390625
1790108039110717700,0.0707177734375,-1.0427703857421875,-0.4357452392578125,0.019805908203125
1790108039120661800,0.080661865234375,-1.0463714599609375,-0.39324951171875,-0.0089874267578125
1790108039130606800,0.09060693359375,-1.03070068359375,-0.438995361328125,0.0071563720703125
1790108039140551000,0.100551025390625,-0.98095703125,-0.449676513671875,0.0343170166015625
1790108039150495700,0.110495849609375,-0.9333648681640625,-0.4260101318359375,0.027099609375
1790108039160439800,0.120439697265625,-0.8921966552734375,-0.41131591796875,0.0401611328125
1790108039170384000,0.1303837890625,-0.86590576171875,-0.3920135498046875,0.0662994384765625
1790108039180329000,0.140328857421875,-0.893768310546875,-0.34051513671875,0.09124755859375
1790108039190272800,0.150272705078125,-0.8043670654296875,-0.2590484619140625,0.053619384765625
1790108039200217600,0.160217529296875,-0.6222991943359375,-0.2151031494140625,-0.0540771484375
1790108039210162000,0.170161865234375,-0.463226318359375,-0.2771759033203125,-0.2030487060546875
1790108039220106800,0.180106689453125,-0.337127685546875,-0.3550872802734375,-0.36212158203125
1790108039230050800,0.19005078125,-0.3142547607421875,-0.4008026123046875,-0.4131317138671875
1790108039239995600,0.19999560546875,-0.3912353515625,-0.415252685546875,-0.2886962890625
1790108039249940000,0.20993994140625,-0.490081787109375,-0.374114990234375,-0.0450592041015625
1790108039259883800,0.2198837890625,-0.4790496826171875,-0.26971435546875,0.1356353759765625
1790108039269828900,0.229828857421875,-0.4073028564453125,-0.1053924560546875,0.1660308837890625
1790108039279772700,0.239772705078125,-0.3402252197265625,0.05194091796875,0.0556182861328125
1790108039289718000,0.249718017578125,-0.2610626220703125,0.144073486328125,-0.225677490234375
1790108039299661800,0.259661865234375,-0.1632537841796875,0.240966796875,-0.5485992431640625
1790108039309607000,0.26960693359375,-0.0597076416015625,0.324432373046875,-0.781951904296875
1790108039319550700,0.27955078125,-0.045074462890625,0.2944488525390625,-0.7448883056640625
1790108039329495800,0.289495849609375,-0.0660552978515625,0.3169403076171875,-0.38800048828125
1790108039339439900,0.29943994140625,-0.2270660400390625,0.398895263671875,0.1210784912109375
1790108039349384000,0.309384033203125,-0.252532958984375,0.71502685546875,-0.1156158447265625
1790108039359328800,0.319328857421875,0.005218505859375,0.7818145751953125,-0.4585113525390625
1790108039369272800,0.32927294921875,0.078643798828125,0.8122100830078125,-0.3274383544921875
1790108039379218000,0.339218017578125,0.104278564453125,0.828643798828125,-0.3825836181640625
1790108039389161700,0.34916162109375,0.1819305419921875,0.81976318359375,-0.6162109375
1790108039399106800,0.35910693359375,0.168853759765625,0.8831024169921875,-0.7229766845703125
1790108039409050600,0.369050537109375,0.0620574951171875,0.9112548828125,-0.8042755126953125
1790108039418996000,0.378995849609375,-0.0538482666015625,0.8514862060546875,-0.989898681640625
1790108039428939800,0.388939697265625,-0.0778045654296875,0.792327880859375,-1.3036651611328125
1790108039438883800,0.3988837890625,-0.1078338623046875,0.7757720947265625,-1.572174072265625
1790108039448829000,0.408828857421875,-0.286956787109375,0.7051239013671875,-1.7342681884765625
1790108039458773000,0.41877294921875,-0.487213134765625,0.47137451171875,-2.0088958740234375
1790108039468717800,0.4287177734375,-0.5460968017578125,0.515838623046875,-2.387420654296875
1790108039478662000,0.438661865234375,-0.773712158203125,0.2623748779296875,-2.4608612060546875
1790108039488607000,0.44860693359375,-0.468597412109375,-0.10845947265625,-2.889495849609375
1790108039498550800,0.45855078125,-0.374725341796875,-0.2381134033203125,-3.176788330078125
1790108039508496000,0.468495849609375,-0.51019287109375,-0.2953948974609375,-2.7917022705078125
1790108039518439700,0.478439697265625,-0.387359619140625,-0.2781829833984375,-2.4738311767578125
1790108039528383700,0.4883837890625,-0.2569122314453125,-0.315277099609375,-2.279449462890625
1790108039538328800,0.498328857421875,-0.207763671875,-0.36895751953125,-2.0859375
1790108039548273000,0.50827294921875,-0.0257568359375,-0.482269287109375,-2.208465576171875
1790108039558217700,0.5182177734375,-0.1170196533203125,-0.602142333984375,-2.2998046875
1790108039568161800,0.528161865234375,-0.3725128173828125,-0.6849517822265625,-2.296173095703125
1790108039578107000,0.53810693359375,-0.4542083740234375,-0.711883544921875,-2.2238006591796875
1790108039588051000,0.548051025390625,-0.376312255859375,-0.775665283203125,-2.0929718017578125
1790108039597994800,0.557994873046875,-0.009429931640625,-0.85516357421875,-2.001678466796875
1790108039607939800,0.56793994140625,0.492584228515625,-1.0107421875,-1.9161529541015625
1790108039617884000,0.5778837890625,0.5908966064453125,-1.052032470703125,-1.8722991943359375
1790108039627828700,0.587828857421875,0.535736083984375,-1.00897216796875,-1.7342529296875
1790108039637772800,0.597772705078125,0.6101531982421875,-0.9738311767578125,-1.5366668701171875
1790108039647717600,0.607717529296875,0.605377197265625,-0.8695068359375,-1.279144287109375
1790108039657662000,0.617661865234375,0.7226409912109375,-0.710418701171875,-0.913787841796875
1790108039667606800,0.627606689453125,0.827911376953125,-0.56695556640625,-0.5326385498046875
1790108039677550800,0.63755078125,0.7706451416015625,-0.4203643798828125,-0.331207275390625
1790108039687495700,0.64749560546875,0.721435546875,-0.3008880615234375,-0.2776031494140625
1790108039697440000,0.65743994140625,0.70953369140625,-0.260772705078125,-0.43914794921875
1790108039707383800,0.6673837890625,0.8470306396484375,-0.1367950439453125,-0.4130401611328125
1790108039717329000,0.677328857421875,0.90008544921875,-0.0715179443359375,-0.45245361328125
1790108039727272700,0.687272705078125,0.5033416748046875,-0.2930145263671875,-0.603912353515625
1790108039737217800,0.6972177734375,0.2371826171875,-0.181488037109375,-0.9333953857421875
1790108039747161900,0.707161865234375,-0.3085479736328125,0.166900634765625,-1.2197418212890625
1790108039757106700,0.717106689453125,-0.166748046875,0.117156982421875,-1.23150634765625
1790108039767050800,0.72705078125,0.0756988525390625,-0.1356201171875,-1.4558868408203125
1790108039776995800,0.736995849609375,0.0391082763671875,0.1096649169921875,-1.424896240234375
1790108039786940000,0.74693994140625,0.0265045166015625,-0.9449615478515625,-1.24078369140625
1790108039796883500,0.756883544921875,-0.4552764892578125,-0.4843597412109375,-1.8508758544921875
1790108039806828500,0.76682861328125,-0.414703369140625,0.3627471923828125,-1.8868865966796875
1790108039816772400,0.7767724609375,-0.114501953125,-0.1046142578125,-1.27313232421875
1790108039826717400,0.786717529296875,0.1040496826171875,0.1005859375,-1.2044219970703125
1790108039836661200,0.7966611328125,-0.131195068359375,0.32098388671875,-0.9217376708984375
1790108039846606600,0.806606689453125,-0.3612823486328125,0.686920166015625,-0.7376861572265625
1790108039856550400,0.81655029296875,0.1577606201171875,0.9944000244140625,-0.400848388671875
1790108039866495500,0.82649560546875,0.1972198486328125,1.278778076171875,0.008575439453125
1790108039876439300,0.836439208984375,0.2498931884765625,1.43536376953125,-0.089508056640625
1790108039886383600,0.846383544921875,0.3511505126953125,1.8097991943359375,-0.5791473388671875
1790108039896328400,0.856328369140625,0.1628570556640625,1.384490966796875,-0.565460205078125
1790108039906272500,0.8662724609375,0.5838775634765625,0.882659912109375,-0.732421875
1790108039916217300,0.87621728515625,0.394805908203125,0.941558837890625,-0.91473388671875
1790108039926161400,0.886161376953125,0.1354827880859375,0.9432220458984375,-0.59796142578125
1790108039936106500,0.8961064453125,-0.2149658203125,0.8975982666015625,-0.617095947265625
1790108039946050300,0.90605029296875,-0.486083984375,0.8729705810546875,-1.1493377685546875
1790108039955994400,0.915994384765625,-0.4853668212890625,0.6638641357421875,-1.348052978515625
1790108039965939500,0.925939453125,-0.0289764404296875,0.4006805419921875,-1.326904296875
1790108039975883500,0.935883544921875,0.6883087158203125,0.304168701171875,-1.5068206787109375
1790108039985828400,0.945828369140625,0.797393798828125,0.3627777099609375,-1.5617828369140625
1790108039995772400,0.9557724609375,0.41278076171875,0.45574951171875,-1.3369598388671875
1790108040005717500,0.965717529296875,0.162200927734375,0.465789794921875,-0.9749908447265625
1790108040015661600,0.97566162109375,0.12841796875,0.3508148193359375,-0.9498748779296875
1790108040025606400,0.9856064453125,0.1640472412109375,0.3136749267578125,-0.9384307861328125
1790108040035550500,0.995550537109375,0.201690673828125,0.3381195068359375,-0.91583251953125
1790108040045494500,1.00549462890625,0.184906005859375,0.36505126953125,-0.932464599609375
1790108040055439400,1.015439453125,0.1750640869140625,0.3895111083984375,-0.9017181396484375
1790108040065383400,1.025383544921875,0.15673828125,0.4452667236328125,-0.7864532470703125
1790108040075328300,1.035328369140625,0.1662445068359375,0.4951019287109375,-0.660736083984375
1790108040085272600,1.0452724609375,0.22918701171875,0.5228729248046875,-0.6059417724609375
1790108040095217400,1.055217529296875,0.257843017578125,0.5326080322265625,-0.7540130615234375
1790108040105161500,1.065161376953125,0.272064208984375,0.4432373046875,-0.94183349609375
1790108040115106300,1.075106201171875,0.2794647216796875,0.3726806640625,-1.1034088134765625
1790108040125050600,1.085050537109375,0.230621337890625,0.4714813232421875,-1.0637359619140625
1790108040134994400,1.094994384765625,0.1315155029296875,0.6427154541015625,-0.9005889892578125
1790108040144939500,1.104939453125,0.0726470947265625,0.6987762451171875,-0.7510986328125
1790108040154883300,1.11488330078125,0.1146240234375,0.6176910400390625,-0.662200927734375
1790108040164828400,1.124828369140625,0.2171478271484375,0.5712432861328125,-0.5898590087890625
1790108040174772500,1.1347724609375,0.2640228271484375,0.555511474609375,-0.6441650390625
1790108040184717300,1.14471728515625,0.3770751953125,0.6229095458984375,-0.5940704345703125
1790108040194661400,1.154661376953125,0.420867919921875,0.6816864013671875,-0.5442657470703125
1790108040204606500,1.1646064453125,0.33294677734375,0.7392578125,-0.5489349365234375
1790108040214550500,1.174550537109375,0.204071044921875,0.97723388671875,-0.5749664306640625
1790108040224494300,1.184494384765625,0.150665283203125,1.1476898193359375,-0.571441650390625
1790108040234439400,1.194439453125,0.1782684326171875,0.9684600830078125,-0.585296630859375
1790108040244383200,1.20438330078125,0.1214141845703125,0.9441986083984375,-0.621734619140625
1790108040254328600,1.21432861328125,0.145050048828125,0.9312591552734375,-0.4054412841796875
1790108040264272400,1.2242724609375,0.1228485107421875,0.895751953125,-0.2239837646484375
1790108040274217500,1.234217529296875,0.0630645751953125,0.728973388671875,-0.2197113037109375
1790108040284161300,1.244161376953125,-0.101531982421875,-0.1105499267578125,-0.0884552001953125
1790108040294106400,1.2541064453125,0.2603759765625,-1.0961151123046875,-0.070831298828125
1790108040304050400,1.264050537109375,0.4514617919921875,-0.6617889404296875,-0.589599609375
1790108040313994500,1.273994384765625,0.372528076171875,0.232452392578125,-1.021514892578125
1790108040323939600,1.283939697265625,0.2965545654296875,1.79547119140625,-1.346343994140625
1790108040333883600,1.293883544921875,0.1285552978515625,3.3778228759765625,-0.8528900146484375
1790108040343828500,1.303828369140625,-0.2138214111328125,2.7474822998046875,0.10552978515625
1790108040353772300,1.313772216796875,-0.3324737548828125,1.1869964599609375,-0.0019378662109375
1790108040363717600,1.323717529296875,-0.1875,-0.5690460205078125,-0.2660980224609375
1790108040373661400,1.333661376953125,-0.0575714111328125,-2.330413818359375,-0.87164306640625
1790108040383605500,1.34360546875,0.5068359375,-0.934478759765625,-1.7427825927734375
1790108040393550300,1.35355029296875,0.046356201171875,1.1898193359375,-1.663665771484375
1790108040403494400,1.363494384765625,0.1638946533203125,1.52484130859375,-1.0298004150390625
1790108040413439500,1.373439453125,0.191314697265625,1.4588775634765625,-0.8116912841796875
1790108040423383600,1.383383544921875,0.20587158203125,1.3391876220703125,-1.1031036376953125
1790108040433328400,1.393328369140625,0.1678924560546875,1.2772064208984375,-1.1649169921875
1790108040443272400,1.4032724609375,0.1124267578125,1.1653900146484375,-1.0074310302734375
1790108040453217500,1.413217529296875,0.0691375732421875,1.022552490234375,-0.855316162109375
1790108040463161300,1.423161376953125,0.1087188720703125,0.895965576171875,-0.651397705078125
1790108040473105400,1.43310546875,0.14398193359375,0.913238525390625,-0.617156982421875
1790108040483050200,1.44305029296875,0.14471435546875,0.889373779296875,-0.7014007568359375
1790108040492994600,1.45299462890625,0.25860595703125,0.862579345703125,-0.83502197265625
1790108040502939400,1.462939453125,0.43560791015625,1.02716064453125,-1.0552215576171875
1790108040512883500,1.472883544921875,0.4287872314453125,0.9458160400390625,-1.1243438720703125
1790108040522828300,1.482828369140625,0.1079559326171875,0.83197021484375,-1.17242431640625
1790108040532772600,1.492772705078125,0.021240234375,0.805389404296875,-1.1680908203125
1790108040542717400,1.502717529296875,0.1304779052734375,0.770660400390625,-1.100189208984375
1790108040552661500,1.51266162109375,0.1843719482421875,0.8298797607421875,-0.938568115234375
1790108040562605300,1.522605224609375,0.1376190185546875,0.8681488037109375,-0.8074951171875
1790108040572550700,1.532550537109375,0.1699981689453125,0.8635101318359375,-0.8609619140625
1790108040582494500,1.542494384765625,0.3022918701171875,0.7597503662109375,-1.0014190673828125
1790108040592439300,1.552439208984375,0.37408447265625,0.8125,-1.2426910400390625
1790108040602383400,1.56238330078125,0.31402587890625,0.641845703125,-1.451019287109375
1790108040612328400,1.572328369140625,0.1717681884765625,0.4588623046875,-1.3369293212890625
1790108040622272500,1.5822724609375,0.2186431884765625,0.3275604248046875,-0.99835205078125
1790108040632216600,1.592216552734375,0.2127838134765625,0.3749847412109375,-0.7001953125
1790108040642161400,1.602161376953125,0.3427581787109375,0.4754486083984375,-0.5941009521484375
1790108040652105200,1.612105224609375,0.46875,0.45831298828125,-0.472442626953125
1790108040662050600,1.622050537109375,0.459442138671875,0.3352508544921875,-0.3119964599609375
1790108040671994400,1.631994384765625,0.22491455078125,0.20648193359375,-0.2159271240234375
1790108040681939500,1.641939453125,0.20404052734375,0.1460418701171875,-0.271514892578125
1790108040691883500,1.651883544921875,0.4951171875,0.1176300048828125,-0.462005615234375
1790108040701828400,1.661828369140625,0.720489501953125,-0.006072998046875,-0.462738037109375
1790108040711772400,1.6717724609375,0.650146484375,-0.1800689697265625,-0.413818359375
1790108040721716500,1.681716552734375,0.40338134765625,-0.3472900390625,-0.5469818115234375
1790108040731661600,1.69166162109375,0.2595367431640625,-0.4410552978515625,-0.6483612060546875
1790108040741605600,1.701605712890625,0.2788238525390625,-0.522491455078125,-0.7719573974609375
1790108040751550500,1.711550537109375,0.29608154296875,-0.594512939453125,-0.7962493896484375
1790108040761494300,1.721494384765625,0.3305511474609375,-0.539031982421875,-0.54779052734375
1790108040771439600,1.731439697265625,0.2761383056640625,-0.4527740478515625,-0.2792205810546875
1790108040781383400,1.741383544921875,0.1303558349609375,-0.418609619140625,-0.0401153564453125
1790108040791327500,1.751327392578125,0.077850341796875,-0.3226165771484375,0.276763916015625
1790108040801273000,1.761273193359375,-0.0225677490234375,-0.12176513671875,0.42010498046875
1790108040811217200,1.771217041015625,-0.045928955078125,0.0208587646484375,0.28204345703125
1790108040821162000,1.781161865234375,-0.0699005126953125,0.11236572265625,-0.317108154296875
1790108040831106300,1.791106201171875,-0.11187744140625,0.487030029296875,-1.668212890625
1790108040841051100,1.801051025390625,0.2476348876953125,0.8495635986328125,-2.559814453125
1790108040850995000,1.810994873046875,0.7573394775390625,1.235076904296875,-2.15875244140625
1790108040860940000,1.82093994140625,0.6897125244140625,1.3455963134765625,-1.4363250732421875
1790108040870884000,1.830884033203125,0.2980804443359375,1.235565185546875,-1.14923095703125
1790108040880828200,1.840828125,0.070068359375,1.1384429931640625,-0.8896331787109375
1790108040890773000,1.85077294921875,0.353424072265625,1.3777618408203125,-0.64544677734375
1790108040900717000,1.860717041015625,0.4781341552734375,1.3233184814453125,-0.7835235595703125
1790108040910662100,1.870662109375,0.2827301025390625,1.324920654296875,-1.193817138671875
1790108040920606200,1.880606201171875,0.1991729736328125,1.17926025390625,-1.466949462890625
1790108040930551000,1.890551025390625,0.135162353515625,0.9283599853515625,-1.6357879638671875
1790108040940495000,1.9004951171875,0.3408050537109375,0.7974700927734375,-1.5138092041015625
1790108040950440200,1.910440185546875,0.4461822509765625,0.6902923583984375,-1.283233642578125
1790108040960384300,1.92038427734375,0.3115997314453125,0.7383270263671875,-1.1800689697265625
1790108040970328000,1.930328125,0.357879638671875,0.5883636474609375,-1.46466064453125
1790108040980273000,1.94027294921875,0.4681396484375,0.4463653564453125,-1.25274658203125
1790108040990217000,1.950217041015625,0.375701904296875,0.35546875,-1.05010986328125
1790108041000162000,1.960162109375,0.078216552734375,0.51385498046875,-1.199737548828125
1790108041010106000,1.970106201171875,0.225799560546875,0.467987060546875,-1.4674224853515625
1790108041020051000,1.980051025390625,0.331695556640625,0.444488525390625,-1.15869140625
1790108041029995000,1.9899951171875,0.259063720703125,0.446533203125,-0.685577392578125
1790108041039939000,1.99993896484375,0.200439453125,0.40704345703125,-0.4129180908203125
1790108041049884200,2.00988427734375,0.1323089599609375,0.4085845947265625,-0.0657958984375
1790108041059828000,2.019827880859375,0.3697662353515625,0.281402587890625,0.3596038818359375
1790108041069773000,2.02977294921875,0.55328369140625,0.0808868408203125,0.608612060546875
1790108041079717000,2.039717041015625,0.489227294921875,-0.0075836181640625,0.5113525390625
1790108041089662000,2.049661865234375,0.509857177734375,0.0050811767578125,0.3529815673828125
1790108041099606000,2.05960595703125,0.586273193359375,0.0465850830078125,0.0677642822265625
1790108041109550000,2.069550048828125,0.534088134765625,0.0147705078125,-0.143280029296875
1790108041119495200,2.0794951171875,0.4430084228515625,-0.1105804443359375,-0.099090576171875
1790108041129439200,2.089439208984375,0.402557373046875,-0.1787109375,0.20159912109375
1790108041139384000,2.099384033203125,0.233978271484375,0.104278564453125,0.33245849609375
1790108041149328000,2.109327880859375,0.0320587158203125,0.4650421142578125,-0.1919097900390625
1790108041159273200,2.119273193359375,0.3474273681640625,0.4549407958984375,-1.3560791015625
1790108041169217000,2.129217041015625,0.610076904296875,0.3945159912109375,-1.900115966796875
1790108041179162000,2.139162109375,0.401031494140625,0.4785308837890625,-1.7177581787109375
1790108041189106000,2.14910595703125,0.206024169921875,0.633544921875,-1.2534332275390625
1790108041199050200,2.15905029296875,0.142486572265625,0.6612396240234375,-0.5676727294921875
1790108041208995000,2.1689951171875,0.156982421875,0.5618438720703125,-0.177215576171875
1790108041218939100,2.178939208984375,0.161865234375,0.5570526123046875,-0.228424072265625
1790108041228884000,2.188884033203125,0.359954833984375,0.754302978515625,-0.876495361328125
1790108041238828300,2.198828369140625,0.6046600341796875,0.7618255615234375,-1.7998809814453125
1790108041248773000,2.208773193359375,0.7020111083984375,0.6141204833984375,-1.8862457275390625
1790108041258717200,2.21871728515625,0.545501708984375,0.6528472900390625,-1.3866424560546875
1790108041268661000,2.228660888671875,0.419891357421875,0.6298065185546875,-0.6173095703125
1790108041278606000,2.238606201171875,0.554046630859375,0.5788116455078125,-0.9979095458984375
1790108041288550100,2.248550048828125,0.5089874267578125,0.5335845947265625,-1.3053436279296875
1790108041298495000,2.258494873046875,0.4121246337890625,0.42669677734375,-1.0971832275390625
1790108041308439000,2.26843896484375,0.478057861328125,0.2556304931640625,-0.025146484375
1790108041318384000,2.278384033203125,0.394256591796875,0.2094268798828125,1.2752838134765625
1790108041328328200,2.288328125,0.047821044921875,0.128448486328125,2.0784149169921875
1790108041338273000,2.29827294921875,-0.6302642822265625,0.50018310546875,0.2238311767578125
1790108041348217000,2.308217041015625,-0.8351898193359375,0.56292724609375,-1.88970947265625
1790108041358161000,2.318160888671875,-0.7191925048828125,0.57171630859375,-2.690032958984375
1790108041368106200,2.328106201171875,0.0299224853515625,0.577850341796875,-2.37945556640625
1790108041378050000,2.338050048828125,0.71929931640625,0.435882568359375,-2.153961181640625
1790108041387995000,2.347994873046875,1.0577392578125,0.4306640625,-2.2584991455078125
1790108041397939000,2.35793896484375,1.513092041015625,0.450592041015625,-2.07275390625
1790108041407884000,2.367884033203125,1.6541748046875,0.244110107421875,-1.5115814208984375
1790108041417828000,2.377828125,1.38372802734375,0.1510162353515625,-1.495880126953125
1790108041427772200,2.387772216796875,0.81158447265625,0.0156402587890625,-1.773651123046875
1790108041437717000,2.397717041015625,0.7077789306640625,-0.072479248046875,-1.7447662353515625
1790108041447661000,2.4076611328125,0.9952545166015625,-0.1348724365234375,-1.498931884765625
1790108041457606100,2.417606201171875,0.96746826171875,-0.128570556640625,-1.28424072265625
1790108041467550000,2.427550048828125,0.9462738037109375,-0.1009674072265625,-0.772674560546875
1790108041477495000,2.4374951171875,0.8845367431640625,-0.1411590576171875,-0.33538818359375
1790108041487439000,2.447439208984375,0.4939422607421875,-0.09375,0.0040740966796875
1790108041497384200,2.45738427734375,0.0135498046875,-0.0057525634765625,0.0436859130859375
1790108041507328000,2.467327880859375,-0.7839813232421875,0.33599853515625,-0.039703369140625
1790108041517272000,2.47727197265625,-1.794921875,0.64404296875,-0.102996826171875
1790108041527217200,2.487217041015625,-2.66156005859375,0.7715911865234375,-0.1940460205078125
1790108041537161200,2.4971611328125,-1.6585235595703125,1.102386474609375,-0.15777587890625
1790108041547106000,2.50710595703125,-0.6818695068359375,1.6472930908203125,-0.1660003662109375
1790108041557050000,2.517050048828125,0.0788421630859375,1.9129180908203125,-0.1107177734375
1790108041566995200,2.5269951171875,0.81884765625,2.3248748779296875,-0.10723876953125
1790108041576939000,2.53693896484375,0.937255859375,2.288543701171875,-0.1945648193359375
1790108041586883000,2.546883056640625,0.6913604736328125,2.2083587646484375,-0.5181884765625
1790108041596828000,2.556827880859375,0.4490203857421875,1.972442626953125,-0.888763427734375
1790108041606772200,2.566772216796875,0.280303955078125,1.245330810546875,-0.7781982421875
1790108041616717000,2.576717041015625,0.5027008056640625,0.6074066162109375,-0.679931640625
1790108041626661000,2.5866611328125,1.1494903564453125,0.8937530517578125,-0.6494903564453125
1790108041636606000,2.59660595703125,1.067169189453125,0.851806640625,-0.6503753662109375
1790108041646550300,2.60655029296875,0.56390380859375,0.807586669921875,-0.5504150390625
1790108041656495000,2.6164951171875,0.347564697265625,0.7507476806640625,-0.5178985595703125
1790108041666439200,2.626439208984375,0.2357177734375,0.7626953125,-0.5194854736328125
1790108041676383000,2.636383056640625,0.0869903564453125,0.9357147216796875,-0.5
1790108041686328000,2.646328125,0.1523284912109375,0.8975677490234375,-0.5081939697265625
1790108041696272100,2.656272216796875,0.285400390625,0.6813201904296875,-0.514801025390625
1790108041706217000,2.666217041015625,0.2490234375,0.6361846923828125,-0.4712677001953125
1790108041716161000,2.6761611328125,0.186431884765625,0.7070770263671875,-0.3927001953125
1790108041726106000,2.686106201171875,0.17999267578125,0.8385162353515625,-0.35736083984375
1790108041736050200,2.69605029296875,0.183074951171875,0.9784088134765625,-0.3828125
1790108041745995000,2.7059951171875,0.16046142578125,1.037628173828125,-0.43756103515625
1790108041755939000,2.71593896484375,0.156585693359375,1.1224365234375,-0.55194091796875
1790108041765883000,2.7258828125,0.1160125732421875,1.19781494140625,-0.618011474609375
1790108041775828200,2.735828125,0.13348388671875,1.175323486328125,-0.61810302734375
1790108041785772000,2.74577197265625,0.148345947265625,1.0502471923828125,-0.51934814453125
1790108041795717000,2.755717041015625,0.1143646240234375,1.01019287109375,-0.548980712890625
1790108041805660700,2.76566064453125,0.2398529052734375,1.0247955322265625,-0.63128662109375
1790108041815605800,2.775605712890625,0.296234130859375,1.0155029296875,-0.6805572509765625
1790108041825549800,2.7855498046875,0.2227630615234375,1.00054931640625,-0.6501617431640625
1790108041835494000,2.795493896484375,0.15826416015625,0.993560791015625,-0.61907958984375
1790108041845438700,2.805438720703125,0.0830078125,1.0099334716796875,-0.6096343994140625
1790108041855382800,2.8153828125,0.1590728759765625,0.8353729248046875,-0.50946044921875
1790108041865327900,2.825327880859375,0.2950439453125,0.7585601806640625,-0.4806365966796875
1790108041875271700,2.835271728515625,0.245574951171875,0.8137969970703125,-0.5724029541015625
1790108041885216800,2.845216796875,0.2224578857421875,0.8096771240234375,-0.563201904296875
1790108041895160600,2.85516064453125,0.2025146484375,0.8088531494140625,-0.5302886962890625
1790108041905105000,2.86510498046875,0.21575927734375,0.7291107177734375,-0.551513671875
1790108041915049700,2.8750498046875,0.4026031494140625,-2.382965087890625,-1.0163116455078125
1790108041924993800,2.884993896484375,-0.4498138427734375,0.2158660888671875,-1.38690185546875
1790108041934938600,2.894938720703125,0.0374603271484375,1.3762359619140625,-1.0607452392578125
1790108041944883000,2.904883056640625,0.2337493896484375,1.0955810546875,-0.6494140625
1790108041954827800,2.914827880859375,0.17218017578125,1.2143096923828125,-0.4918212890625
1790108041964771800,2.924771728515625,0.0882415771484375,1.21368408203125,-0.52093505859375
1790108041974716700,2.934716552734375,0.0695037841796875,1.206573486328125,-0.582305908203125
1790108041984660700,2.94466064453125,0.0799407958984375,1.089508056640625,-0.54681396484375
1790108041994604800,2.954604736328125,0.1688079833984375,1.1191864013671875,-0.3942718505859375
1790108042004549600,2.964549560546875,0.20709228515625,1.3352508544921875,-0.23284912109375
1790108042014493700,2.97449365234375,0.2051849365234375,1.3556671142578125,-0.1458740234375
1790108042024438800,2.984438720703125,0.1663055419921875,1.2429962158203125,-0.04095458984375
1790108042034382800,2.9943828125,0.06781005859375,1.3613128662109375,-0.0157318115234375
1790108042044327700,3.00432763671875,-0.0412445068359375,1.248321533203125,-0.1357879638671875
1790108042054271700,3.014271728515625,0.0252685546875,1.1523590087890625,-0.146697998046875
1790108042064215600,3.024215576171875,0.11383056640625,1.3911285400390625,-0.0698394775390625
1790108042074161000,3.034160888671875,0.2351837158203125,1.42535400390625,-0.1839599609375
1790108042084104700,3.044104736328125,0.340179443359375,1.333404541015625,-0.283721923828125
1790108042094049800,3.0540498046875,0.3851318359375,1.1798095703125,-0.3669281005859375
1790108042103993900,3.063993896484375,0.3217010498046875,1.0479583740234375,-0.370941162109375
1790108042113938700,3.073938720703125,0.2181243896484375,0.874267578125,-0.3581085205078125
1790108042123882800,3.0838828125,0.161041259765625,0.6073455810546875,-0.3756561279296875
1790108042133827600,3.09382763671875,0.1374664306640625,0.5698699951171875,-0.381195068359375
1790108042143772000,3.10377197265625,0.107879638671875,0.7347564697265625,-0.331939697265625
1790108042153716000,3.113716064453125,0.0937957763671875,0.8303680419921875,-0.2307891845703125
1790108042163660800,3.123660888671875,0.2070770263671875,0.8906097412109375,-0.2255401611328125
1790108042173604600,3.1336044921875,0.1739044189453125,1.087371826171875,-0.2071685791015625
1790108042183550000,3.143550048828125,0.1904754638671875,1.1792144775390625,-0.242034912109375
1790108042193493800,3.15349365234375,0.2236480712890625,1.123260498046875,-0.29205322265625
1790108042203438800,3.16343896484375,0.2411346435546875,0.9064178466796875,-0.380096435546875
1790108042213382700,3.173382568359375,0.2276611328125,0.6411895751953125,-0.5741424560546875
1790108042223326700,3.18332666015625,0.2399139404296875,0.4656829833984375,-0.746978759765625
1790108042233271800,3.193271728515625,0.2573394775390625,0.429534912109375,-0.904693603515625
1790108042243216000,3.2032158203125,0.2354583740234375,0.5080718994140625,-0.9868621826171875
1790108042253160700,3.21316064453125,0.211517333984375,0.5541534423828125,-0.9824371337890625
1790108042263104800,3.223104736328125,0.2082366943359375,0.59002685546875,-0.89794921875
1790108042273049900,3.2330498046875,0.2496185302734375,0.659637451171875,-0.720794677734375
1790108042282994000,3.242993896484375,0.2909393310546875,0.749542236328125,-0.5316619873046875
1790108042292938800,3.252938720703125,0.28363037109375,0.7952117919921875,-0.4529266357421875
1790108042302882600,3.262882568359375,0.259246826171875,0.8911895751953125,-0.396697998046875
1790108042312827000,3.272826904296875,0.245941162109375,1.055633544921875,-0.3201904296875
1790108042322771700,3.282771728515625,0.2637786865234375,1.16937255859375,-0.2647247314453125
1790108042332715800,3.2927158203125,0.2765960693359375,1.1656341552734375,-0.2423248291015625
1790108042342660600,3.30266064453125,0.3036651611328125,1.083404541015625,-0.2522125244140625
1790108042352605000,3.31260498046875,0.3427581787109375,0.9886016845703125,-0.2985076904296875
1790108042362549800,3.3225498046875,0.3732147216796875,0.917877197265625,-0.3947906494140625
1790108042372493800,3.332493896484375,0.400146484375,0.880096435546875,-0.51055908203125
1790108042382437600,3.342437744140625,0.4338226318359375,0.8643798828125,-0.6070098876953125
1790108042392383000,3.352383056640625,0.4832305908203125,0.8646087646484375,-0.6757965087890625
1790108042402326800,3.362326904296875,0.513214111328125,0.834808349609375,-0.6887664794921875
1790108042412271600,3.372271728515625,0.4856109619140625,0.81585693359375,-0.6544036865234375
1790108042422215700,3.382215576171875,0.438934326171875,0.8307342529296875,-0.581787109375
1790108042432160800,3.392160888671875,0.4027862548828125,0.839935302734375,-0.4655303955078125
1790108042442104800,3.402104736328125,0.378509521484375,0.8365478515625,-0.376434326171875
1790108042452049700,3.412049560546875,0.3706512451171875,0.8388519287109375,-0.3464813232421875
1790108042461993700,3.42199365234375,0.3515625,0.8449554443359375,-0.37042236328125
1790108042471937800,3.431937744140625,0.34283447265625,0.865570068359375,-0.404754638671875
1790108042481883000,3.4418828125,0.3486785888671875,0.9079742431640625,-0.4373321533203125
1790108042491826700,3.45182666015625,0.370697021484375,0.940704345703125,-0.4667510986328125
1790108042501771800,3.461771728515625,0.37969970703125,0.96356201171875,-0.525848388671875
1790108042511715800,3.4717158203125,0.3491668701171875,0.968963623046875,-0.5822906494140625
1790108042521661000,3.481660888671875,0.34503173828125,0.9145965576171875,-0.619171142578125
1790108042531604700,3.491604736328125,0.3391876220703125,0.8689117431640625,-0.6865692138671875
1790108042541548800,3.501548828125,0.3045806884765625,0.8349151611328125,-0.6966552734375
1790108042551494000,3.511493896484375,0.2912139892578125,0.8078155517578125,-0.682281494140625
1790108042561438000,3.52143798828125,0.2717132568359375,0.7738800048828125,-0.6825714111328125
1790108042571382800,3.5313828125,0.2523193359375,0.7277374267578125,-0.66986083984375
1790108042581326800,3.541326904296875,0.2237396240234375,0.6716156005859375,-0.6395416259765625
1790108042591272000,3.55127197265625,0.238250732421875,0.634521484375,-0.6438140869140625
1790108042601215700,3.5612158203125,0.25372314453125,0.621246337890625,-0.6687774658203125
1790108042611160800,3.571160888671875,0.2570343017578125,0.6195068359375,-0.6795806884765625
1790108042621104600,3.581104736328125,0.2615814208984375,0.622711181640625,-0.719512939453125
1790108042631048700,3.591048583984375,0.2750091552734375,0.6168212890625,-0.7468109130859375
1790108042640993800,3.600993896484375,0.24017333984375,0.6051483154296875,-0.7426300048828125
1790108042650937900,3.610937744140625,0.26043701171875,0.5984954833984375,-0.7678985595703125
1790108042660882700,3.620882568359375,0.2863006591796875,0.633514404296875,-0.75103759765625
1790108042670826800,3.63082666015625,0.2616424560546875,0.687652587890625,-0.6708984375
1790108042680771800,3.640771728515625,0.1921234130859375,0.697479248046875,-0.6382293701171875
1790108042690716000,3.6507158203125,0.11175537109375,0.69476318359375,-0.5952301025390625
1790108042700659700,3.66065966796875,0.1562652587890625,0.6404571533203125,-0.5088043212890625
1790108042710604500,3.6706044921875,0.2248992919921875,0.5805816650390625,-0.4830169677734375
1790108042720548900,3.680548828125,0.3313751220703125,0.5543365478515625,-0.49169921875
1790108042730493700,3.69049365234375,0.372283935546875,0.559234619140625,-0.484832763671875
1790108042740437800,3.700437744140625,0.32781982421875,0.60833740234375,-0.4826812744140625
1790108042750382600,3.710382568359375,0.392578125,0.6829071044921875,-0.493621826171875
1790108042760327000,3.720326904296875,0.5014190673828125,0.708709716796875,-0.5106048583984375
1790108042770270700,3.730270751953125,0.5300750732421875,0.7415771484375,-0.483489990234375
1790108042780215800,3.7402158203125,0.5349273681640625,0.755767822265625,-0.4088897705078125
1790108042790159600,3.75015966796875,0.4509429931640625,0.766937255859375,-0.33782958984375
1790108042800105200,3.760105224609375,0.3743438720703125,0.7923583984375,-0.333343505859375
1790108042810049300,3.77004931640625,0.387786865234375,0.815673828125,-0.4133453369140625
1790108042819994000,3.779994140625,0.4793548583984375,0.8173980712890625,-0.4811859130859375
1790108042829938200,3.789938232421875,0.555084228515625,0.800323486328125,-0.4705810546875
1790108042839883300,3.79988330078125,0.5586395263671875,0.77874755859375,-0.40191650390625
1790108042849827300,3.809827392578125,0.4958953857421875,0.7256927490234375,-0.35968017578125
1790108042859771100,3.819771240234375,0.3916778564453125,0.67303466796875,-0.3738555908203125
1790108042869716200,3.82971630859375,0.318206787109375,0.610809326171875,-0.3704986572265625
1790108042879660300,3.839660400390625,0.388031005859375,0.4838409423828125,-0.3524169921875
1790108042889605400,3.84960546875,0.4793853759765625,0.410797119140625,-0.3374481201171875
1790108042899549200,3.859549072265625,0.4510345458984375,0.441192626953125,-0.378509521484375
1790108042909494300,3.869494384765625,0.3743438720703125,0.527862548828125,-0.43170166015625
1790108042919438300,3.879438232421875,0.3482818603515625,0.594970703125,-0.4964752197265625
1790108042929382400,3.88938232421875,0.3822174072265625,0.6432037353515625,-0.50457763671875
1790108042939327200,3.8993271484375,0.449859619140625,0.6797943115234375,-0.4983978271484375
1790108042949271300,3.909271240234375,0.479217529296875,0.694976806640625,-0.5052032470703125
1790108042959216400,3.91921630859375,0.4630126953125,0.6819305419921875,-0.5333251953125
1790108042969160200,3.92916015625,0.4354095458984375,0.652099609375,-0.562530517578125
1790108042979105300,3.939105224609375,0.4344329833984375,0.58380126953125,-0.5883026123046875
1790108042989049000,3.949049072265625,0.4128265380859375,0.491180419921875,-0.583587646484375
1790108042998994400,3.958994384765625,0.4083251953125,0.4217376708984375,-0.5707244873046875
1790108043008938200,3.968938232421875,0.38458251953125,0.4144744873046875,-0.56109619140625
1790108043018882300,3.97888232421875,0.3832244873046875,0.4176177978515625,-0.5738983154296875
1790108043028827100,3.9888271484375,0.384307861328125,0.4568023681640625,-0.5816802978515625
1790108043038771500,3.998771484375,0.35504150390625,0.5174560546875,-0.631317138671875
1790108043048716300,4.00871630859375,0.3214111328125,0.5654449462890625,-0.6460418701171875
1790108043058660400,4.018660400390625,0.324798583984375,0.6120147705078125,-0.6142730712890625
1790108043068605200,4.028605224609375,0.3389434814453125,0.6681060791015625,-0.5575408935546875
1790108043078549500,4.038549560546875,0.3321990966796875,0.7336273193359375,-0.51812744140625
1790108043088493300,4.048493408203125,0.31201171875,0.7794647216796875,-0.5043182373046875
1790108043098438100,4.058438232421875,0.3000946044921875,0.8388214111328125,-0.486083984375
1790108043108382200,4.06838232421875,0.295989990234375,0.8862152099609375,-0.4643707275390625
1790108043118327300,4.078327392578125,0.2892913818359375,0.894989013671875,-0.4368438720703125
1790108043128271400,4.088271240234375,0.281524658203125,0.8869476318359375,-0.3995208740234375
1790108043138216200,4.09821630859375,0.2822265625,0.87225341796875,-0.368621826171875
1790108043148160300,4.10816015625,0.30548095703125,0.846527099609375,-0.38946533203125
1790108043158105300,4.118105224609375,0.332763671875,0.8339385986328125,-0.40130615234375
1790108043168049400,4.12804931640625,0.343170166015625,0.8173828125,-0.4107818603515625
1790108043177993200,4.1379931640625,0.356170654296875,0.805267333984375,-0.4423828125
1790108043187938300,4.147938232421875,0.35528564453125,0.78546142578125,-0.4569244384765625
1790108043197882000,4.157882080078125,0.3426971435546875,0.7799530029296875,-0.4822845458984375
1790108043207827500,4.167827392578125,0.3289947509765625,0.7969512939453125,-0.5203704833984375
1790108043217771300,4.177771240234375,0.3140411376953125,0.828857421875,-0.5374603271484375
1790108043227716000,4.187716064453125,0.2925262451171875,0.8634033203125,-0.5445556640625
1790108043237660200,4.19766015625,0.2542266845703125,0.9017791748046875,-0.5617828369140625
1790108043247604500,4.2076044921875,0.2576446533203125,0.9237213134765625,-0.5926055908203125
1790108043257549300,4.21754931640625,0.275238037109375,0.949249267578125,-0.612945556640625
1790108043267493000,4.2274931640625,0.27020263671875,0.95452880859375,-0.6270294189453125
1790108043277438200,4.237438232421875,0.2518768310546875,0.9396209716796875,-0.621337890625
1790108043287382300,4.24738232421875,0.239776611328125,0.9235992431640625,-0.6220550537109375
1790108043297327400,4.257327392578125,0.2507781982421875,0.911041259765625,-0.6202545166015625
1790108043307271200,4.267271240234375,0.2608795166015625,0.89471435546875,-0.6255035400390625
1790108043317216500,4.277216552734375,0.2631683349609375,0.8634796142578125,-0.645050048828125
1790108043327160300,4.287160400390625,0.2742767333984375,0.8514556884765625,-0.662811279296875
1790108043337104400,4.2971044921875,0.2815399169921875,0.865264892578125,-0.667816162109375
1790108043347049200,4.30704931640625,0.301513671875,0.9142608642578125,-0.6559295654296875
1790108043356993300,4.3169931640625,0.3233489990234375,0.943634033203125,-0.6750640869140625
1790108043366938400,4.3269384765625,0.3391265869140625,0.9747161865234375,-0.6947174072265625
1790108043376882400,4.33688232421875,0.3513336181640625,1.011962890625,-0.717803955078125
1790108043386827300,4.3468271484375,0.374847412109375,1.040435791015625,-0.718505859375
1790108043396771000,4.35677099609375,0.3792572021484375,1.022979736328125,-0.7110443115234375
1790108043406716400,4.36671630859375,0.364990234375,1.0089111328125,-0.659698486328125
1790108043416660200,4.37666015625,0.314056396484375,0.981231689453125,-0.6069793701171875
1790108043426604300,4.386604248046875,0.2706298828125,0.9822540283203125,-0.552154541015625
1790108043436549000,4.396549072265625,0.21929931640625,0.98516845703125,-0.4869232177734375
1790108043446493400,4.406493408203125,0.1776275634765625,0.9757843017578125,-0.420379638671875
1790108043456438300,4.416438232421875,0.1432647705078125,0.9528350830078125,-0.342315673828125
1790108043466382300,4.42638232421875,0.06640625,0.9205169677734375,-0.28607177734375
1790108043476327200,4.4363271484375,0.0225067138671875,0.9152069091796875,-0.1681671142578125
1790108043486271500,4.446271484375,0.0515289306640625,0.9123077392578125,-0.037139892578125
1790108043496215300,4.45621533203125,0.11297607421875,0.9395599365234375,0.0785675048828125
1790108043506160400,4.466160400390625,0.1781158447265625,0.99322509765625,0.1713409423828125
1790108043516104200,4.476104248046875,0.2166290283203125,1.0020599365234375,0.197052001953125
1790108043526049300,4.48604931640625,0.2430572509765625,0.9817657470703125,0.171630859375
1790108043535993300,4.495993408203125,0.206787109375,0.9776458740234375,0.1363983154296875
1790108043545938200,4.505938232421875,0.044952392578125,0.9672698974609375,0.1142425537109375
1790108043555882200,4.51588232421875,-0.0901336669921875,0.9637298583984375,0.062103271484375
1790108043565827300,4.525827392578125,-0.0504608154296875,0.9770660400390625,0.0154571533203125
1790108043575771400,4.535771484375,0.0932464599609375,1.0022125244140625,0.037689208984375
1790108043585715200,4.545715087890625,0.23223876953125,1.032501220703125,-0.014007568359375
1790108043595660300,4.555660400390625,0.3278350830078125,1.073211669921875,-0.063690185546875
1790108043605604000,4.56560400390625,0.4272308349609375,1.130279541015625,-0.0864715576171875
1790108043615549400,4.575549560546875,0.4705657958984375,1.1656036376953125,-0.1351318359375
1790108043625493200,4.5854931640625,0.4260101318359375,1.201629638671875,-0.236053466796875
1790108043635438000,4.59543798828125,0.41595458984375,1.2237396240234375,-0.3502197265625
1790108043645382100,4.605382080078125,0.4298095703125,1.2256927490234375,-0.3964080810546875
1790108043655326500,4.615326416015625,0.4623870849609375,1.2155303955078125,-0.3748626708984375
1790108043665271300,4.625271240234375,0.43243408203125,1.17108154296875,-0.326019287109375
1790108043675215400,4.63521533203125,0.3895416259765625,1.109649658203125,-0.3069000244140625
1790108043685160200,4.64516015625,0.3026885986328125,1.0518951416015625,-0.286712646484375
1790108043695104300,4.655104248046875,0.286346435546875,1.014801025390625,-0.2762603759765625
1790108043705049300,4.66504931640625,0.306915283203125,1.0010223388671875,-0.263458251953125
1790108043714993200,4.6749931640625,0.3533172607421875,1.001251220703125,-0.2471771240234375
1790108043724938500,4.6849384765625,0.2744903564453125,1.023681640625,-0.1763458251953125
1790108043734882300,4.69488232421875,0.21014404296875,1.0637664794921875,-0.120941162109375
1790108043744826400,4.704826416015625,0.205596923828125,1.084503173828125,-0.11297607421875
1790108043754771200,4.714771240234375,0.194580078125,1.0740509033203125,-0.137481689453125
1790108043764715300,4.72471533203125,0.1614227294921875,1.0496826171875,-0.14276123046875
1790108043774660400,4.734660400390625,0.1010284423828125,1.0128173828125,-0.1273651123046875
1790108043784604400,4.7446044921875,0.0427703857421875,0.9766693115234375,-0.1309967041015625
1790108043794549200,4.75454931640625,0.0762786865234375,0.915435791015625,-0.19085693359375
1790108043804493300,4.764493408203125,0.0716400146484375,0.8684234619140625,-0.21966552734375
1790108043814438100,4.774438232421875,0.0850372314453125,0.843048095703125,-0.244659423828125
1790108043824382000,4.7843818359375,0.1417083740234375,0.8180084228515625,-0.2933807373046875
1790108043834326300,4.794326171875,0.2036285400390625,0.8069610595703125,-0.33941650390625
1790108043844271000,4.80427099609375,0.20904541015625,0.824127197265625,-0.363311767578125
1790108043854215200,4.814215087890625,0.2064208984375,0.8461761474609375,-0.3960418701171875
1790108043864160000,4.824159912109375,0.2051849365234375,0.8629302978515625,-0.4415130615234375
1790108043874104300,4.834104248046875,0.2009429931640625,0.8772125244140625,-0.471771240234375
1790108043884049200,4.844049072265625,0.21136474609375,0.873931884765625,-0.4993133544921875
1790108043893993200,4.8539931640625,0.2297821044921875,0.8691864013671875,-0.52593994140625
1790108043903937000,4.86393701171875,0.2450103759765625,0.8775787353515625,-0.5550994873046875
1790108043913882400,4.87388232421875,0.2473602294921875,0.8831939697265625,-0.582489013671875
1790108043923826200,4.883826171875,0.233489990234375,0.876953125,-0.5850677490234375
1790108043933771000,4.89377099609375,0.215362548828125,0.870635986328125,-0.5939178466796875
1790108043943715000,4.903715087890625,0.201904296875,0.873809814453125,-0.6339874267578125
1790108043953660200,4.91366015625,0.2088165283203125,0.8817291259765625,-0.6291046142578125
1790108043963604200,4.923604248046875,0.2254180908203125,0.8941650390625,-0.6361236572265625
1790108043973549000,4.933549072265625,0.259307861328125,0.90826416015625,-0.6450347900390625
1790108043983493000,4.9434931640625,0.272552490234375,0.9264373779296875,-0.6214447021484375
1790108043993437000,4.95343701171875,0.26043701171875,0.9351959228515625,-0.602996826171875
1790108044003382300,4.96338232421875,0.2258453369140625,0.9473114013671875,-0.5654754638671875
1790108044013326000,4.973326171875,0.2110595703125,0.94183349609375,-0.5335845947265625
1790108044023271200,4.983271240234375,0.21868896484375,0.937835693359375,-0.5406646728515625
1790108044033215000,4.993215087890625,0.2017669677734375,0.9375457763671875,-0.569610595703125
1790108044043160300,5.003160400390625,0.1835174560546875,0.941925048828125,-0.61834716796875
1790108044053104000,5.013104248046875,0.19561767578125,0.933441162109375,-0.6756591796875
1790108044063048200,5.023048095703125,0.22491455078125,0.9131317138671875,-0.7285614013671875
1790108044072993000,5.032992919921875,0.256103515625,0.9033660888671875,-0.7637481689453125
1790108044082937300,5.042937255859375,0.3180694580078125,0.9055938720703125,-0.7544403076171875
1790108044092882200,5.052882080078125,0.3395233154296875,0.9065704345703125,-0.7454071044921875
1790108044102826200,5.062826171875,0.318084716796875,0.9062347412109375,-0.7091827392578125
1790108044112771300,5.072771240234375,0.313934326171875,0.901763916015625,-0.6893157958984375
1790108044122715100,5.082715087890625,0.30322265625,0.9161529541015625,-0.6813201904296875
1790108044132660200,5.09266015625,0.267822265625,0.91314697265625,-0.6293792724609375
1790108044142604000,5.10260400390625,0.2237548828125,0.8873443603515625,-0.5967254638671875
1790108044152549400,5.11254931640625,0.1806793212890625,0.8585357666015625,-0.5577239990234375
1790108044162493200,5.1224931640625,0.151885986328125,0.8241119384765625,-0.5518951416015625
1790108044172437200,5.132437255859375,0.1305084228515625,0.8110198974609375,-0.549713134765625
1790108044182382000,5.142382080078125,0.149871826171875,0.80792236328125,-0.534698486328125
1790108044192326100,5.152326171875,0.2104949951171875,0.8138885498046875,-0.5137786865234375
1790108044202271200,5.162271240234375,0.2243804931640625,0.8240509033203125,-0.4936676025390625
1790108044212215300,5.17221533203125,0.25225830078125,0.794952392578125,-0.477874755859375
1790108044222160100,5.18216015625,0.26458740234375,0.75830078125,-0.4469757080078125
1790108044232104000,5.19210400390625,0.249603271484375,0.705352783203125,-0.427520751953125
1790108044242048300,5.20204833984375,0.2275848388671875,0.6707000732421875,-0.3994293212890625
1790108044251993000,5.2119931640625,0.1884002685546875,0.6772308349609375,-0.37078857421875
1790108044261937200,5.221937255859375,0.1557464599609375,0.694427490234375,-0.3974609375
1790108044271882000,5.231882080078125,0.1591796875,0.702880859375,-0.4487152099609375
1790108044281826300,5.241826416015625,0.19232177734375,0.71307373046875,-0.42205810546875
1790108044291771100,5.251771240234375,0.24334716796875,0.709869384765625,-0.4076690673828125
1790108044301715200,5.261715087890625,0.29925537109375,0.6298828125,-0.3819427490234375
1790108044311660000,5.271659912109375,0.3121185302734375,0.5633087158203125,-0.3128204345703125
1790108044321604400,5.281604248046875,0.263092041015625,0.54718017578125,-0.2573394775390625
1790108044331548200,5.291548095703125,0.1826934814453125,0.530792236328125,-0.2765960693359375
1790108044341493200,5.3014931640625,0.0982666015625,0.5274200439453125,-0.32318115234375
1790108044351437000,5.31143701171875,0.053955078125,0.5228424072265625,-0.3852386474609375
1790108044361382100,5.321382080078125,0.0883636474609375,0.5097503662109375,-0.4067840576171875
1790108044371326200,5.331326171875,0.1646728515625,0.503936767578125,-0.3697509765625
1790108044381271000,5.34127099609375,0.3088531494140625,0.4844970703125,-0.3685150146484375
1790108044391215000,5.351215087890625,0.3224639892578125,0.4887847900390625,-0.3719940185546875
1790108044401160200,5.36116015625,0.2822418212890625,0.502777099609375,-0.3662872314453125
1790108044411104300,5.371104248046875,0.2800140380859375,0.5306243896484375,-0.3681488037109375
1790108044421048000,5.381048095703125,0.2797698974609375,0.572967529296875,-0.3544921875
1790108044430993200,5.3909931640625,0.29852294921875,0.6180572509765625,-0.345550537109375
1790108044440937000,5.40093701171875,0.35198974609375,0.6673126220703125,-0.4294891357421875
1790108044450882300,5.41088232421875,0.38897705078125,0.7179412841796875,-0.5242919921875
1790108044460826000,5.420826171875,0.371856689453125,0.743316650390625,-0.556640625
1790108044470771200,5.430771240234375,0.350311279296875,0.72802734375,-0.5598907470703125
1790108044480715000,5.440715087890625,0.3104095458984375,0.695343017578125,-0.5583953857421875
1790108044490660000,5.45066015625,0.2843170166015625,0.6644439697265625,-0.5515899658203125
1790108044500604200,5.460604248046875,0.2853240966796875,0.64581298828125,-0.5614166259765625
1790108044510548200,5.47054833984375,0.287872314453125,0.626739501953125,-0.5581817626953125
1790108044520493300,5.480493408203125,0.30621337890625,0.6048583984375,-0.53155517578125
1790108044530437000,5.49043701171875,0.331146240234375,0.597503662109375,-0.568115234375
1790108044540382200,5.50038232421875,0.3236236572265625,0.6139984130859375,-0.627655029296875
1790108044550326000,5.510325927734375,0.309326171875,0.6322021484375,-0.640655517578125
1790108044560271400,5.520271240234375,0.29730224609375,0.650421142578125,-0.620025634765625
1790108044570215200,5.530215087890625,0.281951904296875,0.661834716796875,-0.583831787109375
1790108044580160300,5.54016015625,0.26263427734375,0.6793212890625,-0.54791259765625
1790108044590104000,5.55010400390625,0.2344512939453125,0.676239013671875,-0.48583984375
1790108044600048000,5.560048095703125,0.2061309814453125,0.657928466796875,-0.407989501953125
1790108044609993200,5.5699931640625,0.192626953125,0.638702392578125,-0.3523101806640625
1790108044619937300,5.579937255859375,0.1741180419921875,0.62481689453125,-0.319366455078125
1790108044629882000,5.589882080078125,0.1562042236328125,0.6231536865234375,-0.31011962890625
1790108044639826200,5.599826171875,0.144744873046875,0.63543701171875,-0.304656982421875
1790108044649771300,5.609771240234375,0.151214599609375,0.6680145263671875,-0.3162689208984375
1790108044659715000,5.619715087890625,0.1689453125,0.7222442626953125,-0.342926025390625
1790108044669660200,5.62966015625,0.19268798828125,0.78802490234375,-0.39373779296875
1790108044679604000,5.63960400390625,0.224822998046875,0.8502197265625,-0.461944580078125
1790108044689548300,5.64954833984375,0.2619171142578125,0.9106903076171875,-0.52947998046875
1790108044699493000,5.6594931640625,0.2854156494140625,0.964874267578125,-0.5676116943359375
1790108044709437200,5.669437255859375,0.321258544921875,1.0076141357421875,-0.5819854736328125
1790108044719382000,5.679382080078125,0.3960723876953125,1.082000732421875,-0.6302642822265625
1790108044729326300,5.689326416015625,0.4183502197265625,1.1699371337890625,-0.6674041748046875
1790108044739271200,5.699271240234375,0.4357452392578125,1.2330474853515625,-0.7371673583984375
1790108044749215200,5.70921533203125,0.5337677001953125,1.2628936767578125,-0.7662353515625
1790108044759160000,5.71916015625,0.5033721923828125,1.2327728271484375,-0.7266387939453125
1790108044769104100,5.729104248046875,0.429595947265625,1.1748809814453125,-0.6880950927734375
1790108044779048200,5.739048095703125,0.3684539794921875,1.1173858642578125,-0.641754150390625
1790108044788993000,5.748992919921875,0.308807373046875,1.0710601806640625,-0.599639892578125
1790108044798937000,5.75893701171875,0.21160888671875,1.0301361083984375,-0.5671844482421875
1790108044808881700,5.768881591796875,0.1016082763671875,1.0015411376953125,-0.5201416015625
1790108044818825700,5.77882568359375,-0.0343475341796875,0.9893035888671875,-0.490570068359375
1790108044828770600,5.7887705078125,-0.1219635009765625,0.9911651611328125,-0.439117431640625
1790108044838714600,5.798714599609375,-0.060394287109375,0.977752685546875,-0.375152587890625
1790108044848659700,5.80865966796875,0.04620361328125,0.981842041015625,-0.33514404296875
1790108044858603800,5.818603759765625,0.1707305908203125,0.99383544921875,-0.324737548828125
1790108044868547600,5.828547607421875,0.2863922119140625,1.006622314453125,-0.287689208984375
1790108044878492700,5.83849267578125,0.30712890625,0.9887847900390625,-0.244873046875
1790108044888436700,5.848436767578125,0.26220703125,0.9758758544921875,-0.190093994140625
1790108044898381800,5.8583818359375,0.15771484375,0.9674835205078125,-0.2123870849609375
1790108044908325600,5.86832568359375,0.1688995361328125,0.9105072021484375,-0.2580413818359375
1790108044918270500,5.8782705078125,0.242584228515625,0.8752899169921875,-0.2747955322265625
1790108044928214800,5.88821484375,0.27252197265625,0.8949127197265625,-0.2577362060546875
1790108044938159600,5.89815966796875,0.22454833984375,0.93701171875,-0.2648773193359375
1790108044948103700,5.908103759765625,0.1435089111328125,0.9929962158203125,-0.292449951171875
1790108044958047700,5.9180478515625,0.144439697265625,1.034088134765625,-0.322601318359375
1790108044967992800,5.927992919921875,0.232086181640625,1.0458831787109375,-0.3472137451171875
1790108044977936600,5.9379365234375,0.22296142578125,1.0688934326171875,-0.320648193359375
1790108044987881700,5.9478818359375,0.2047271728515625,1.0621337890625,-0.2520294189453125
1790108044997825500,5.957825439453125,0.2449493408203125,1.056427001953125,-0.2159271240234375
1790108045007771000,5.96777099609375,0.28009033203125,1.073455810546875,-0.2021484375
1790108045017714700,5.977714599609375,0.2923126220703125,1.1034698486328125,-0.2451324462890625
1790108045027659800,5.98765966796875,0.25970458984375,1.117767333984375,-0.3146514892578125
1790108045037603600,5.997603515625,0.21630859375,1.1243133544921875,-0.3707122802734375
1790108045047547600,6.007547607421875,0.160369873046875,1.1151275634765625,-0.3671417236328125
1790108045057492700,6.01749267578125,0.218902587890625,1.06500244140625,-0.3675689697265625
1790108045067436800,6.027436767578125,0.2275543212890625,1.0130767822265625,-0.338531494140625
1790108045077381600,6.037381591796875,0.21331787109375,0.9873046875,-0.2856597900390625
1790108045087325700,6.04732568359375,0.18743896484375,0.9716949462890625,-0.2070770263671875
1790108045097270800,6.057270751953125,0.0927581787109375,0.9979248046875,-0.0960540771484375
1790108045107214600,6.067214599609375,0.1736297607421875,1.0106658935546875,-0.0821533203125
1790108045117158700,6.07715869140625,0.2520294189453125,1.007080078125,-0.0871734619140625
1790108045127103700,6.087103759765625,0.2448577880859375,1.046051025390625,-0.08245849609375
1790108045137047800,6.0970478515625,0.235870361328125,1.0911865234375,-0.080047607421875
1790108045146992600,6.10699267578125,0.26031494140625,1.1009368896484375,-0.1128692626953125
1790108045156936700,6.116936767578125,0.3027801513671875,1.0818023681640625,-0.1782684326171875
1790108045166881800,6.1268818359375,0.25592041015625,1.0583648681640625,-0.2068328857421875
1790108045176825900,6.136825927734375,0.1668853759765625,1.0535736083984375,-0.1983489990234375
1790108045186770700,6.146770751953125,0.1829833984375,1.0129241943359375,-0.250213623046875
1790108045196714800,6.15671484375,0.2272796630859375,0.951263427734375,-0.30609130859375
1790108045206659800,6.166659912109375,0.2429351806640625,0.9123687744140625,-0.340972900390625
1790108045216603600,6.176603759765625,0.231231689453125,0.902099609375,-0.360565185546875
1790108045226547700,6.186547607421875,0.2431640625,0.91168212890625,-0.3903961181640625
1790108045236492500,6.196492431640625,0.2715606689453125,0.94281005859375,-0.4214630126953125
1790108045246436600,6.2064365234375,0.25,0.995697021484375,-0.4140167236328125
1790108045256381700,6.216381591796875,0.196746826171875,1.0313262939453125,-0.419677734375
1790108045266325800,6.22632568359375,0.1943817138671875,1.0454864501953125,-0.5052337646484375
1790108045276270600,6.2362705078125,0.267120361328125,1.0340576171875,-0.5681610107421875
1790108045286214700,6.246214599609375,0.3170166015625,1.00836181640625,-0.6285247802734375
1790108045296159700,6.25615966796875,0.334869384765625,1.010498046875,-0.6743316650390625
1790108045306103800,6.266103759765625,0.332733154296875,0.99591064453125,-0.7336883544921875
1790108045316047600,6.276047607421875,0.32366943359375,0.9990997314453125,-0.7755279541015625
1790108045325992700,6.28599267578125,0.319122314453125,0.9930572509765625,-0.7875213623046875
1790108045335936800,6.295936767578125,0.2942047119140625,0.9578094482421875,-0.813232421875
1790108045345881600,6.305881591796875,0.266632080078125,0.9322662353515625,-0.8033447265625
1790108045355825700,6.31582568359375,0.275665283203125,0.890411376953125,-0.7608642578125
1790108045365770500,6.3257705078125,0.2974853515625,0.8667449951171875,-0.6897125244140625
1790108045375714800,6.33571484375,0.3101959228515625,0.86273193359375,-0.688629150390625
1790108045385659600,6.34565966796875,0.31982421875,0.844268798828125,-0.661163330078125
1790108045395603700,6.355603759765625,0.28302001953125,0.804443359375,-0.637359619140625
1790108045405547500,6.365547607421875,0.246856689453125,0.7545318603515625,-0.59210205078125
1790108045415492900,6.375492919921875,0.2445220947265625,0.7119598388671875,-0.54119873046875
1790108045425436700,6.385436767578125,0.21923828125,0.693084716796875,-0.500701904296875
1790108045435381800,6.3953818359375,0.1600799560546875,0.6972503662109375,-0.4730682373046875
1790108045445325600,6.40532568359375,0.1582489013671875,0.74334716796875,-0.42236328125
1790108045455270700,6.415270751953125,0.1782684326171875,0.7989044189453125,-0.4192352294921875
1790108045465214700,6.425214599609375,0.1822052001953125,0.81719970703125,-0.4820709228515625
1790108045475159600,6.43515966796875,0.2122344970703125,0.810546875,-0.51824951171875
1790108045485103600,6.445103515625,0.2159423828125,0.8062896728515625,-0.5437469482421875
1790108045495047700,6.455047607421875,0.2507781982421875,0.79742431640625,-0.5400543212890625
1790108045504992800,6.46499267578125,0.289520263671875,0.7801361083984375,-0.5339202880859375
1790108045514936600,6.4749365234375,0.3142852783203125,0.76812744140625,-0.524749755859375
1790108045524881700,6.484881591796875,0.3288726806640625,0.77752685546875,-0.5314788818359375
1790108045534825700,6.49482568359375,0.312713623046875,0.808380126953125,-0.54217529296875
1790108045544770800,6.504770751953125,0.29730224609375,0.86517333984375,-0.579925537109375
1790108045554714600,6.514714599609375,0.3185577392578125,0.9088592529296875,-0.6486358642578125
1790108045564659700,6.52465966796875,0.32208251953125,0.9187774658203125,-0.7144927978515625
1790108045574603800,6.534603759765625,0.367279052734375,0.918243408203125,-0.722381591796875
1790108045584547800,6.5445478515625,0.4250640869140625,0.9093017578125,-0.66839599609375
1790108045594492700,6.55449267578125,0.41082763671875,0.880645751953125,-0.5747222900390625
1790108045604436700,6.564436767578125,0.3729400634765625,0.8323211669921875,-0.4777679443359375
1790108045614381800,6.5743818359375,0.295257568359375,0.72479248046875,-0.4651336669921875
1790108045624325600,6.58432568359375,0.19189453125,0.6375885009765625,-0.502777099609375
1790108045634270700,6.594270751953125,0.099273681640625,0.613372802734375,-0.4702911376953125
1790108045644214500,6.604214599609375,0.0795745849609375,0.568756103515625,-0.36676025390625
1790108045654160000,6.614159912109375,0.1490631103515625,0.5108184814453125,-0.263153076171875
1790108045664103700,6.624103759765625,0.308685302734375,0.4296722412109375,-0.1842803955078125
1790108045674047700,6.6340478515625,0.369903564453125,0.3559417724609375,-0.16937255859375
1790108045683992600,6.64399267578125,0.2071075439453125,0.326324462890625,-0.215087890625
1790108045693936600,6.6539365234375,0.07659912109375,0.2905731201171875,-0.2513580322265625
1790108045703881700,6.6638818359375,0.09375,0.219207763671875,-0.2120361328125
1790108045713825800,6.67382568359375,0.1839447021484375,0.1844635009765625,-0.1245269775390625
1790108045723770600,6.6837705078125,0.226470947265625,0.1864471435546875,-0.1206512451171875
1790108045733714700,6.693714599609375,0.183197021484375,0.2060089111328125,-0.2397918701171875
1790108045743659800,6.70365966796875,0.14581298828125,0.2259979248046875,-0.3242645263671875
1790108045753603600,6.713603515625,0.145538330078125,0.270477294921875,-0.329498291015625
1790108045763547600,6.723547607421875,0.2023773193359375,0.32275390625,-0.3751373291015625
1790108045773492700,6.73349267578125,0.257781982421875,0.3739776611328125,-0.4445953369140625
1790108045783436800,6.743436767578125,0.2846527099609375,0.4380340576171875,-0.4773712158203125
1790108045793381600,6.753381591796875,0.3018646240234375,0.5131988525390625,-0.492584228515625
1790108045803325700,6.76332568359375,0.2871856689453125,0.575347900390625,-0.5157012939453125
1790108045813270800,6.773270751953125,0.26031494140625,0.6185455322265625,-0.5512847900390625
1790108045823214800,6.78321484375,0.261566162109375,0.663055419921875,-0.562042236328125
1790108045833159700,6.79315966796875,0.3009185791015625,0.719696044921875,-0.5592498779296875
1790108045843103700,6.803103759765625,0.36474609375,0.782623291015625,-0.58905029296875
1790108045853047600,6.813047607421875,0.413848876953125,0.85626220703125,-0.6388702392578125
1790108045862992600,6.82299267578125,0.3990631103515625,0.9133758544921875,-0.681488037109375
1790108045872936700,6.832936767578125,0.3311614990234375,0.9544525146484375,-0.6659088134765625
1790108045882881500,6.842881591796875,0.29010009765625,0.99755859375,-0.6066131591796875
1790108045892825600,6.85282568359375,0.285003662109375,1.038909912109375,-0.55975341796875
1790108045902770700,6.862770751953125,0.28253173828125,1.066375732421875,-0.526611328125
1790108045912714800,6.87271484375,0.2942962646484375,1.0798797607421875,-0.5226287841796875
1790108045922659600,6.88265966796875,0.333984375,1.1057891845703125,-0.567291259765625
1790108045932603600,6.892603759765625,0.3771209716796875,1.15704345703125,-0.62884521484375
1790108045942548700,6.902548828125,0.3937530517578125,1.206085205078125,-0.7051849365234375
1790108045952492800,6.912492919921875,0.397216796875,1.2301788330078125,-0.730621337890625
1790108045962436600,6.9224365234375,0.43109130859375,1.2404937744140625,-0.730438232421875
1790108045972381700,6.932381591796875,0.493408203125,1.2303619384765625,-0.76165771484375
1790108045982325800,6.94232568359375,0.464141845703125,1.1917572021484375,-0.7402496337890625
1790108045992270600,6.9522705078125,0.4127960205078125,1.0883941650390625,-0.68341064453125
1790108046002214700,6.962214599609375,0.3605804443359375,0.938232421875,-0.5929718017578125
1790108046012159500,6.972159423828125,0.30450439453125,0.772064208984375,-0.4880218505859375
1790108046022103800,6.982103759765625,0.216217041015625,0.607696533203125,-0.4425048828125
1790108046032048600,6.992048583984375,0.160400390625,0.4696807861328125,-0.3983001708984375
1790108046041992700,7.00199267578125,0.1287994384765625,0.3779449462890625,-0.349151611328125
1790108046051936500,7.0119365234375,0.0721435546875,0.3576507568359375,-0.33184814453125
1790108046061881900,7.0218818359375,-0.046417236328125,0.38824462890625,-0.3511505126953125
1790108046071825700,7.03182568359375,-0.1033935546875,0.4355316162109375,-0.4134979248046875
1790108046081770800,7.041770751953125,-0.074981689453125,0.52142333984375,-0.4681549072265625
1790108046091714600,7.051714599609375,-0.023773193359375,0.684112548828125,-0.4397125244140625
1790108046101659600,7.06165966796875,0.0104522705078125,0.871612548828125,-0.435699462890625
1790108046111603700,7.071603759765625,0.169403076171875,1.075164794921875,-0.4596710205078125
1790108046121548500,7.081548583984375,0.312469482421875,1.255828857421875,-0.44232177734375
1790108046131492600,7.09149267578125,0.3337860107421875,1.368682861328125,-0.3597564697265625
1790108046141436700,7.101436767578125,0.223480224609375,1.4425201416015625,-0.2538909912109375
1790108046151381800,7.1113818359375,0.227264404296875,1.4683837890625,-0.20404052734375
1790108046161325600,7.12132568359375,0.3740997314453125,1.42022705078125,-0.2240447998046875
1790108046171270700,7.131270751953125,0.282562255859375,1.381072998046875,-0.208740234375
1790108046181214700,7.141214599609375,0.08807373046875,1.3010101318359375,-0.200439453125
1790108046191159800,7.151159912109375,0.1008453369140625,1.1712188720703125,-0.239959716796875
1790108046201103600,7.161103515625,0.2720184326171875,1.05224609375,-0.2500457763671875
1790108046211048700,7.171048583984375,0.2593994140625,0.9901885986328125,-0.1589813232421875
1790108046220992800,7.18099267578125,0.207366943359375,0.9808807373046875,-0.081939697265625
1790108046230937600,7.1909375,0.3700103759765625,0.963531494140625,-0.146728515625
1790108046240881700,7.200881591796875,0.478302001953125,0.9492340087890625,-0.3141326904296875
1790108046250825700,7.21082568359375,0.3647918701171875,0.988311767578125,-0.4162445068359375
1790108046260770800,7.220770751953125,0.3035888671875,1.0550994873046875,-0.573394775390625
1790108046270715000,7.23071484375,0.291900634765625,1.0894927978515625,-0.6956634521484375
1790108046280659700,7.24065966796875,0.23394775390625,1.0848541259765625,-0.6881561279296875
1790108046290603500,7.250603515625,0.1836395263671875,1.034820556640625,-0.6389923095703125
1790108046300548900,7.260548828125,0.1152801513671875,0.975982666015625,-0.54180908203125
1790108046310492700,7.27049267578125,0.142669677734375,0.894744873046875,-0.46380615234375
1790108046320436700,7.280436767578125,0.1524658203125,0.78948974609375,-0.376678466796875
1790108046330381600,7.290381591796875,0.11260986328125,0.7115020751953125,-0.302032470703125
1790108046340325600,7.30032568359375,0.0667724609375,0.6590576171875,-0.2442474365234375
1790108046350270700,7.310270751953125,-0.0468902587890625,0.6475372314453125,-0.14044189453125
1790108046360214800,7.32021484375,-0.0480499267578125,0.68304443359375,-0.0789337158203125
1790108046370159600,7.33015966796875,0.102020263671875,0.7047882080078125,-0.1348724365234375
1790108046380103700,7.340103759765625,0.158447265625,0.7694549560546875,-0.17864990234375
1790108046390048800,7.350048828125,0.0587005615234375,0.9257659912109375,-0.147308349609375
1790108046399992800,7.359992919921875,0.243988037109375,1.0650177001953125,-0.242340087890625
1790108046409937700,7.369937744140625,0.339691162109375,1.1252899169921875,-0.3109893798828125
1790108046419881500,7.379881591796875,0.0996551513671875,1.271697998046875,-0.2059478759765625
1790108046429825800,7.38982568359375,0.3482513427734375,1.34930419921875,-0.3777923583984375
1790108046439770600,7.3997705078125,0.3664398193359375,1.3177337646484375,-0.457550048828125
1790108046449714700,7.409714599609375,0.2497100830078125,1.337188720703125,-0.4383392333984375
1790108046459659500,7.419659423828125,0.4063262939453125,1.2374267578125,-0.593658447265625
1790108046469603800,7.429603759765625,0.3258819580078125,1.1984100341796875,-0.53729248046875
1790108046479548700,7.439548583984375,0.2644195556640625,1.1893463134765625,-0.4818267822265625
1790108046489492700,7.44949267578125,0.2905731201171875,1.1436920166015625,-0.5213775634765625
1790108046499437800,7.459437744140625,0.2629852294921875,1.1165618896484375,-0.5419464111328125
1790108046509382000,7.4693818359375,0.28961181640625,1.0731353759765625,-0.57464599609375
1790108046519325700,7.47932568359375,0.3048858642578125,1.054901123046875,-0.5709991455078125
1790108046529270500,7.4892705078125,0.2857666015625,1.034423828125,-0.57086181640625
1790108046539214600,7.499214599609375,0.240570068359375,0.9990081787109375,-0.598724365234375
1790108046549159700,7.50915966796875,0.202606201171875,0.9609832763671875,-0.660125732421875
1790108046559103700,7.519103759765625,0.2005615234375,0.9419097900390625,-0.707275390625
1790108046569048600,7.529048583984375,0.206268310546875,0.9299468994140625,-0.698944091796875
1790108046578992600,7.53899267578125,0.1889801025390625,0.894012451171875,-0.6669158935546875
1790108046588937700,7.548937744140625,0.16961669921875,0.8421783447265625,-0.6922454833984375
1790108046598881800,7.5588818359375,0.184722900390625,0.817657470703125,-0.69140625
1790108046608825600,7.56882568359375,0.2028045654296875,0.8113555908203125,-0.6628875732421875
1790108046618770700,7.578770751953125,0.211883544921875,0.7852935791015625,-0.6125640869140625
1790108046628714800,7.58871484375,0.2223968505859375,0.7463531494140625,-0.54638671875
1790108046638659800,7.598659912109375,0.246337890625,0.70416259765625,-0.5211181640625
1790108046648603600,7.608603759765625,0.340545654296875,0.6871185302734375,-0.5220947265625
1790108046658548500,7.618548583984375,0.3866424560546875,0.7244720458984375,-0.48992919921875
1790108046668492800,7.628492919921875,0.31884765625,0.7908477783203125,-0.4439849853515625
1790108046678437600,7.638437744140625,0.2458953857421875,0.8296966552734375,-0.4313507080078125
1790108046688381700,7.648381591796875,0.1776275634765625,0.828369140625,-0.429840087890625
1790108046698325800,7.65832568359375,0.13275146484375,0.7972869873046875,-0.44769287109375
1790108046708270800,7.668270751953125,0.1306610107421875,0.7813720703125,-0.459075927734375
1790108046718214700,7.678214599609375,0.166290283203125,0.7861480712890625,-0.4509735107421875
1790108046728159700,7.68815966796875,0.1876068115234375,0.8082427978515625,-0.4709625244140625
1790108046738103600,7.698103515625,0.2030029296875,0.844879150390625,-0.5466156005859375
1790108046748049000,7.708048828125,0.2261810302734375,0.8684234619140625,-0.5852813720703125
1790108046757992700,7.71799267578125,0.263824462890625,0.8924560546875,-0.60394287109375
1790108046767937500,7.7279375,0.3266754150390625,0.9062957763671875,-0.6197967529296875
1790108046777881600,7.737881591796875,0.36761474609375,0.9023284912109375,-0.6225738525390625
1790108046787825700,7.74782568359375,0.3671417236328125,0.9047088623046875,-0.5869140625
1790108046797770800,7.757770751953125,0.342803955078125,0.87841796875,-0.5715179443359375
1790108046807715300,7.76771533203125,0.3095245361328125,0.78704833984375,-0.5545806884765625
1790108046817660400,7.777660400390625,0.2602081298828125,0.6860809326171875,-0.5045166015625
1790108046827604200,7.787604248046875,0.1902618408203125,0.6046295166015625,-0.4618072509765625
1790108046837549600,7.797549560546875,0.0941619873046875,0.5127105712890625,-0.4380035400390625
1790108046847493400,7.807493408203125,-0.0116119384765625,0.433837890625,-0.4378662109375
1790108046857438200,7.817438232421875,-0.0422515869140625,0.3697357177734375,-0.4255218505859375
1790108046867382300,7.82738232421875,0.087890625,0.2923583984375,-0.327667236328125
1790108046877326600,7.83732666015625,0.2276763916015625,0.2741241455078125,-0.2327728271484375
1790108046887271400,7.847271484375,0.2532196044921875,0.2916412353515625,-0.211456298828125
1790108046897215500,7.857215576171875,0.2261962890625,0.2975921630859375,-0.2560577392578125
1790108046907160600,7.86716064453125,0.185760498046875,0.3109588623046875,-0.3179168701171875
1790108046917104400,7.8771044921875,0.1751251220703125,0.3287200927734375,-0.36077880859375
1790108046927049500,7.887049560546875,0.24530029296875,0.360137939453125,-0.3840179443359375
1790108046936993300,7.8969931640625,0.2722015380859375,0.43560791015625,-0.4203948974609375
1790108046946938600,7.906938720703125,0.23883056640625,0.505706787109375,-0.4766082763671875
1790108046956882400,7.91688232421875,0.290863037109375,0.546783447265625,-0.5208892822265625
1790108046966827500,7.92682763671875,0.32891845703125,0.5759124755859375,-0.516143798828125
1790108046976771300,7.936771240234375,0.31219482421875,0.5756988525390625,-0.4901885986328125
1790108046986715400,7.94671533203125,0.2773895263671875,0.581390380859375,-0.4197845458984375
1790108046996660500,7.956660400390625,0.28643798828125,0.58203125,-0.4122161865234375
1790108047006604500,7.9666044921875,0.3004608154296875,0.579437255859375,-0.441192626953125
1790108047016549400,7.97654931640625,0.32086181640625,0.5871734619140625,-0.45428466796875
1790108047026493200,7.9864931640625,0.3194122314453125,0.6038665771484375,-0.4665679931640625
1790108047036438500,7.9964384765625,0.305633544921875,0.6209259033203125,-0.47332763671875
1790108047046382300,8.00638232421875,0.315460205078125,0.6538238525390625,-0.482757568359375
1790108047056327400,8.016327392578125,0.3274993896484375,0.684051513671875,-0.4804229736328125
1790108047066271200,8.026271240234376,0.3553466796875,0.714324951171875,-0.4793853759765625
1790108047076215600,8.036215576171875,0.3709259033203125,0.75091552734375,-0.4922332763671875
1790108047086160400,8.046160400390624,0.3529052734375,0.791534423828125,-0.478271484375
1790108047096104400,8.0561044921875,0.34613037109375,0.8348388671875,-0.453643798828125
1790108047106049300,8.06604931640625,0.3600921630859375,0.8825225830078125,-0.4434967041015625
1790108047115993600,8.07599365234375,0.3833770751953125,0.9296722412109375,-0.44976806640625
1790108047125938400,8.0859384765625,0.4155426025390625,0.970703125,-0.4670867919921875
1790108047135882500,8.095882568359375,0.454620361328125,0.996826171875,-0.4971923828125
1790108047145827300,8.105827392578124,0.489288330078125,1.008544921875,-0.5213775634765625
1790108047155771400,8.115771484375,0.5021209716796875,1.0101470947265625,-0.562164306640625
1790108047165715500,8.125715576171874,0.489593505859375,0.9938812255859375,-0.6119537353515625
1790108047175660300,8.135660400390625,0.4477996826171875,0.973388671875,-0.646697998046875
1790108047185604400,8.145604248046874,0.3746490478515625,0.959197998046875,-0.666534423828125
1790108047195549400,8.155549560546875,0.288177490234375,0.9532623291015625,-0.6896514892578125
1790108047205493500,8.165493408203124,0.34368896484375,0.93634033203125,-0.7260894775390625
1790108047215438300,8.175438232421875,0.348175048828125,0.9582977294921875,-0.6918182373046875
1790108047225382400,8.18538232421875,0.2917022705078125,0.99432373046875,-0.6688995361328125
1790108047235327500,8.195327392578125,0.236480712890625,1.0164337158203125,-0.6604156494140625
1790108047245271600,8.205271484375,0.084259033203125,1.01129150390625,-0.576904296875
1790108047255215400,8.21521533203125,-0.239044189453125,0.9685516357421875,-0.542633056640625
1790108047265160400,8.225160400390624,-0.382598876953125,0.8870849609375,-0.52532958984375
1790108047275104500,8.2351044921875,-0.1448211669921875,0.8613128662109375,-0.4811553955078125
1790108047285049300,8.24504931640625,0.1687774658203125,0.8570709228515625,-0.5025177001953125
1790108047294993400,8.254993408203125,0.3370361328125,0.8670806884765625,-0.492401123046875
1790108047304938200,8.264938232421875,0.423309326171875,0.88946533203125,-0.4708709716796875
1790108047314882600,8.274882568359375,0.40411376953125,0.9528350830078125,-0.4033355712890625
1790108047324827400,8.284827392578125,0.319427490234375,1.0215606689453125,-0.3694610595703125
1790108047334771500,8.294771484375,0.2944793701171875,1.081390380859375,-0.36285400390625
1790108047344715300,8.30471533203125,0.280548095703125,1.1101531982421875,-0.3836669921875
1790108047354660600,8.31466064453125,0.233306884765625,1.1343536376953125,-0.410369873046875
1790108047364604400,8.3246044921875,0.1249847412109375,1.14080810546875,-0.38787841796875
1790108047374549500,8.334549560546876,0.113250732421875,1.11572265625,-0.3551483154296875
1790108047384493300,8.344493408203125,0.1802825927734375,1.0599365234375,-0.3766632080078125
1790108047394438400,8.3544384765625,0.23828125,1.023895263671875,-0.36968994140625
1790108047404382500,8.364382568359375,0.2886962890625,1.009765625,-0.3300018310546875
1790108047414327300,8.374327392578126,0.356597900390625,1.0127105712890625,-0.3177337646484375
1790108047424271400,8.384271240234375,0.3353118896484375,1.0175628662109375,-0.322265625
1790108047434215400,8.39421533203125,0.2572784423828125,1.01409912109375,-0.324005126953125
1790108047444160500,8.404160400390625,0.2227325439453125,1.0031280517578125,-0.35809326171875
1790108047454104300,8.414104248046876,0.2187652587890625,0.9987640380859375,-0.3700103759765625
1790108047464049400,8.42404931640625,0.287078857421875,1.006591796875,-0.391021728515625
1790108047473993200,8.4339931640625,0.3711090087890625,1.0220794677734375,-0.45843505859375
1790108047483938600,8.4439384765625,0.2972869873046875,1.056121826171875,-0.445068359375
1790108047493882400,8.45388232421875,0.2607879638671875,1.06878662109375,-0.3888702392578125
1790108047503827500,8.463827392578125,0.2561187744140625,1.0550537109375,-0.34649658203125
1790108047513771300,8.473771240234376,0.2060546875,1.02459716796875,-0.2816925048828125
1790108047523715600,8.483715576171875,0.234588623046875,0.968597412109375,-0.2466888427734375
1790108047533660400,8.493660400390626,0.2547454833984375,0.9008026123046875,-0.2195281982421875
1790108047543604500,8.5036044921875,0.2233123779296875,0.864013671875,-0.181121826171875
1790108047553549300,8.51354931640625,0.1907196044921875,0.8681182861328125,-0.150848388671875
1790108047563493400,8.523493408203125,0.2374114990234375,0.884552001953125,-0.1738739013671875
1790108047573438500,8.5334384765625,0.2924346923828125,0.9091949462890625,-0.2203826904296875
1790108047583382300,8.54338232421875,0.290802001953125,0.946258544921875,-0.2413330078125
1790108047593327600,8.55332763671875,0.152801513671875,1.017822265625,-0.1674346923828125
1790108047603271400,8.563271484375,0.1395416259765625,1.0779571533203125,-0.12701416015625
1790108047613216500,8.573216552734374,0.300018310546875,1.0395660400390625,-0.180999755859375
1790108047623160300,8.583160400390625,0.3312530517578125,0.990478515625,-0.1927337646484375
1790108047633104400,8.5931044921875,0.2631683349609375,0.9875030517578125,-0.164886474609375
1790108047643049500,8.603049560546875,0.1921539306640625,0.9977569580078125,-0.1560211181640625
1790108047652993500,8.61299365234375,0.1849822998046875,0.99444580078125,-0.2159881591796875
1790108047662938400,8.6229384765625,0.190948486328125,0.9848175048828125,-0.3374786376953125
1790108047672882400,8.63288232421875,0.1850738525390625,0.9824676513671875,-0.4720916748046875
1790108047682827500,8.64282763671875,0.1818389892578125,0.9748077392578125,-0.6030426025390625
1790108047692771300,8.652771240234374,0.2108001708984375,0.9627532958984375,-0.719482421875
1790108047702716400,8.66271630859375,0.263702392578125,0.9510650634765625,-0.788818359375
1790108047712660200,8.67266015625,0.2550811767578125,0.9594879150390625,-0.8267364501953125
1790108047722604500,8.6826044921875,0.2561798095703125,0.9835968017578125,-0.8237762451171875
1790108047732549400,8.69254931640625,0.3123321533203125,1.0050201416015625,-0.7607421875
1790108047742493400,8.702493408203125,0.365936279296875,1.009857177734375,-0.68939208984375
1790108047752438300,8.712438232421874,0.3521270751953125,0.9935760498046875,-0.6468658447265625
1790108047762382600,8.722382568359375,0.3167877197265625,0.9710845947265625,-0.5782318115234375
1790108047772327400,8.732327392578124,0.2800750732421875,0.925140380859375,-0.535797119140625
1790108047782271500,8.742271484375,0.2863616943359375,0.8880767822265625,-0.480804443359375
1790108047792216300,8.75221630859375,0.312591552734375,0.8746337890625,-0.3913726806640625
1790108047802160400,8.762160400390625,0.3028717041015625,0.8613739013671875,-0.353729248046875
1790108047812103700,8.772103759765624,0.289642333984375,0.8633880615234375,-0.371490478515625
1790108047822048800,8.782048828125,0.2855987548828125,0.87060546875,-0.444915771484375
1790108047831992800,8.791992919921874,0.2829742431640625,0.8785247802734375,-0.5177154541015625
1790108047841937700,8.801937744140625,0.2405548095703125,0.8790283203125,-0.5666961669921875
1790108047851881700,8.8118818359375,0.2595367431640625,0.8758544921875,-0.5523529052734375
1790108047861826800,8.821826904296875,0.2769927978515625,0.860321044921875,-0.555908203125
1790108047871771000,8.83177099609375,0.28521728515625,0.8394012451171875,-0.5574951171875
1790108047881715700,8.8417158203125,0.3045806884765625,0.8312835693359375,-0.548309326171875
1790108047891659800,8.85165966796875,0.3465728759765625,0.8323211669921875,-0.5861358642578125
1790108047901603600,8.861603515625,0.4093475341796875,0.8485260009765625,-0.6281585693359375
1790108047911549000,8.871548828125,0.4117279052734375,0.8860015869140625,-0.6590423583984375
1790108047921492700,8.88149267578125,0.344573974609375,0.9337921142578125,-0.6614837646484375
1790108047931437800,8.891437744140624,0.3196868896484375,0.9576263427734375,-0.59832763671875
1790108047941381600,8.901381591796875,0.319580078125,0.920318603515625,-0.5725860595703125
1790108047951326700,8.91132666015625,0.31353759765625,0.833953857421875,-0.5565643310546875
1790108047961270800,8.921270751953125,0.35260009765625,0.7444610595703125,-0.548583984375
1790108047971215600,8.931215576171875,0.43701171875,0.688720703125,-0.5234527587890625
1790108047981159700,8.94115966796875,0.4776611328125,0.6750946044921875,-0.4734954833984375
1790108047991104000,8.95110400390625,0.4632415771484375,0.67156982421875,-0.4446258544921875
1790108048001048800,8.961048828125,0.4159393310546875,0.660919189453125,-0.439483642578125
1790108048010992600,8.97099267578125,0.3437347412109375,0.638641357421875,-0.4453887939453125
1790108048020937700,8.980937744140626,0.277130126953125,0.620635986328125,-0.4534912109375
1790108048030881800,8.9908818359375,0.2297515869140625,0.6110382080078125,-0.453399658203125
1790108048040827000,9.000826904296876,0.1988525390625,0.5807342529296875,-0.45050048828125
1790108048050770700,9.010770751953125,0.2354583740234375,0.5063934326171875,-0.429290771484375
1790108048060715800,9.0207158203125,0.307403564453125,0.4065399169921875,-0.3721466064453125
1790108048070659800,9.030659912109375,0.339111328125,0.3166961669921875,-0.3204803466796875
1790108048080604000,9.04060400390625,0.330413818359375,0.2687225341796875,-0.3295745849609375
1790108048090548700,9.050548828125,0.3092498779296875,0.2745819091796875,-0.3841552734375
1790108048100492800,9.060492919921876,0.2178192138671875,0.34912109375,-0.3805084228515625
1790108048110438000,9.07043798828125,0.1169891357421875,0.406005859375,-0.341064453125
1790108048120382000,9.0803818359375,0.1366729736328125,0.418975830078125,-0.3156280517578125
1790108048130326800,9.090326904296875,0.2037353515625,0.4050750732421875,-0.335906982421875
1790108048140270600,9.1002705078125,0.2652587890625,0.3963623046875,-0.365509033203125
1790108048150216000,9.1102158203125,0.3490753173828125,0.38946533203125,-0.393096923828125
1790108048160159700,9.12015966796875,0.3614501953125,0.3912353515625,-0.4482574462890625
1790108048170104800,9.130104736328125,0.3211212158203125,0.3889007568359375,-0.4959259033203125
1790108048180048600,9.140048583984376,0.2851409912109375,0.384002685546875,-0.534210205078125
1790108048189992700,9.14999267578125,0.2462005615234375,0.394134521484375,-0.554931640625
1790108048199937800,9.159937744140626,0.206787109375,0.411865234375,-0.5426788330078125
1790108048209881900,9.1698818359375,0.1707763671875,0.4272308349609375,-0.5036773681640625
1790108048219826700,9.17982666015625,0.1714019775390625,0.4479827880859375,-0.46343994140625
1790108048229770800,9.189770751953125,0.19171142578125,0.476898193359375,-0.43072509765625
1790108048239715800,9.1997158203125,0.2075653076171875,0.5151214599609375,-0.4187774658203125
1790108048249660000,9.209659912109375,0.2274627685546875,0.5670623779296875,-0.418121337890625
1790108048259604700,9.219604736328124,0.2408599853515625,0.6244354248046875,-0.4437408447265625
1790108048269548800,9.229548828125,0.253936767578125,0.681884765625,-0.502288818359375
1790108048279492900,9.239492919921876,0.255889892578125,0.7403564453125,-0.533905029296875
1790108048289437700,9.249437744140625,0.2487335205078125,0.8048095703125,-0.517303466796875
1790108048299381800,9.2593818359375,0.234710693359375,0.850128173828125,-0.4819183349609375
1790108048309326800,9.269326904296875,0.2350006103515625,0.8792572021484375,-0.4504852294921875
1790108048319271000,9.27927099609375,0.2493438720703125,0.919097900390625,-0.441314697265625
1790108048329215700,9.2892158203125,0.2543792724609375,0.97491455078125,-0.4257049560546875
1790108048339159800,9.299159912109374,0.274627685546875,1.0352783203125,-0.422760009765625
1790108048349105000,9.30910498046875,0.29449462890625,1.08148193359375,-0.4566192626953125
1790108048359049000,9.319049072265624,0.312835693359375,1.1275787353515625,-0.518402099609375
1790108048368992800,9.32899267578125,0.3689727783203125,1.1842041015625,-0.5671844482421875
1790108048378937600,9.3389375,0.4019012451171875,1.2234649658203125,-0.573211669921875
1790108048388881700,9.348881591796875,0.40643310546875,1.2535247802734375,-0.5943756103515625
1790108048398826800,9.35882666015625,0.4271392822265625,1.27935791015625,-0.6431427001953125
1790108048408770800,9.368770751953125,0.415740966796875,1.25921630859375,-0.698455810546875
1790108048418715600,9.378715576171874,0.39471435546875,1.1949615478515625,-0.7673797607421875
1790108048428659700,9.38865966796875,0.356597900390625,1.123779296875,-0.7667388916015625
1790108048438604800,9.398604736328124,0.27386474609375,1.054168701171875,-0.733612060546875
1790108048448548900,9.408548828125,0.1595916748046875,0.9714813232421875,-0.7361297607421875
1790108048458492700,9.41849267578125,0.0877685546875,0.9091644287109375,-0.7209930419921875
1790108048468437800,9.428437744140625,0.1209869384765625,0.883880615234375,-0.71441650390625
1790108048478381800,9.4383818359375,0.1410369873046875,0.930084228515625,-0.6680145263671875
1790108048488327000,9.448326904296875,0.1666412353515625,0.979217529296875,-0.5836181640625
1790108048498270700,9.458270751953124,0.2002105712890625,0.986572265625,-0.499542236328125
1790108048508215600,9.468215576171875,0.2067718505859375,0.95306396484375,-0.42547607421875
1790108048518160000,9.478159912109374,0.2449188232421875,0.898468017578125,-0.363616943359375
1790108048528104700,9.488104736328125,0.294158935546875,0.869964599609375,-0.3298492431640625
1790108048538048800,9.498048828125,0.3123321533203125,0.8923187255859375,-0.312225341796875
1790108048547992800,9.507992919921875,0.2659149169921875,0.922576904296875,-0.2840423583984375
1790108048557938000,9.51793798828125,0.1570587158203125,0.9470672607421875,-0.245025634765625
1790108048567881700,9.5278818359375,0.144775390625,0.9599456787109375,-0.1885528564453125
1790108048577826800,9.537826904296875,0.179412841796875,0.987945556640625,-0.0980682373046875
1790108048587770600,9.5477705078125,0.140228271484375,1.0522003173828125,0.0236053466796875
1790108048597716000,9.557716064453125,0.197967529296875,1.1189422607421875,0.1661834716796875
1790108048607659800,9.56765966796875,0.299560546875,1.135589599609375,0.1603240966796875
1790108048617604600,9.5776044921875,0.34814453125,1.051513671875,-0.0018157958984375
1790108048627548700,9.587548583984375,0.186248779296875,0.9443359375,-0.1182708740234375
1790108048637493800,9.59749365234375,0.1164398193359375,0.8936309814453125,-0.2253265380859375
1790108048647437800,9.607437744140626,0.2847137451171875,0.8148193359375,-0.36138916015625
1790108048657382000,9.6173818359375,0.467010498046875,0.719635009765625,-0.49072265625
1790108048667326700,9.62732666015625,0.2491302490234375,0.7712249755859375,-0.4463043212890625
1790108048677270800,9.637270751953125,0.150848388671875,0.920074462890625,-0.443115234375
1790108048687215900,9.6472158203125,0.222015380859375,1.0404052734375,-0.4407501220703125
1790108048697159700,9.65715966796875,0.369415283203125,1.129302978515625,-0.5060882568359375
1790108048707104800,9.667104736328126,0.5030517578125,1.1887664794921875,-0.632110595703125
1790108048717048800,9.677048828125,0.2699432373046875,1.2399444580078125,-0.579986572265625
1790108048726994000,9.686993896484376,0.1404876708984375,1.259918212890625,-0.51568603515625
1790108048736937700,9.696937744140625,0.3049163818359375,1.1887359619140625,-0.565887451171875
1790108048746881800,9.7068818359375,0.410003662109375,1.103668212890625,-0.63812255859375
1790108048756827000,9.716826904296875,0.2850341796875,1.060821533203125,-0.5948944091796875
1790108048766771000,9.72677099609375,0.0838775634765625,1.0707550048828125,-0.4829559326171875
1790108048776715800,9.7367158203125,-0.01806640625,1.0864410400390625,-0.3548126220703125
1790108048786659800,9.746659912109376,-0.0346221923828125,1.062103271484375,-0.2581329345703125
1790108048796605000,9.75660498046875,0.0751800537109375,1.00250244140625,-0.2394561767578125
1790108048806548700,9.766548828125,0.18463134765625,0.9351043701171875,-0.2147369384765625
1790108048816493800,9.776493896484375,0.233184814453125,0.8809967041015625,-0.1700286865234375
1790108048826437600,9.786437744140626,0.2415924072265625,0.8568878173828125,-0.144622802734375
1790108048836382000,9.7963818359375,0.2248382568359375,0.86273193359375,-0.162261962890625
1790108048846326800,9.806326904296874,0.1682891845703125,0.9087066650390625,-0.2545318603515625
1790108048856270800,9.816270751953125,0.127960205078125,0.9357757568359375,-0.3866729736328125
1790108048866215700,9.826215576171874,0.1448974609375,0.91046142578125,-0.4844970703125
1790108048876160000,9.836159912109375,0.1728515625,0.8684844970703125,-0.534912109375
1790108048886104800,9.846104736328124,0.2077484130859375,0.8400115966796875,-0.538543701171875
1790108048896049000,9.856048828125,0.2007293701171875,0.809112548828125,-0.5296478271484375
1790108048905994000,9.865993896484374,0.159759521484375,0.795440673828125,-0.5436248779296875
1790108048915937800,9.875937744140625,0.1578216552734375,0.8143768310546875,-0.5145416259765625
1790108048925881900,9.8858818359375,0.1839752197265625,0.8444671630859375,-0.4622955322265625
1790108048935826700,9.89582666015625,0.19366455078125,0.897369384765625,-0.4666748046875
1790108048945770800,9.905770751953124,0.239013671875,0.9454193115234375,-0.5520477294921875
1790108048955715800,9.9157158203125,0.3031768798828125,0.988128662109375,-0.691375732421875
1790108048965660000,9.925659912109374,0.35693359375,1.012939453125,-0.7645416259765625
1790108048975604700,9.935604736328125,0.349090576171875,1.0037078857421875,-0.7758331298828125
1790108048985548800,9.945548828125,0.3064117431640625,1.0016326904296875,-0.746612548828125
1790108048995494000,9.955493896484375,0.246185302734375,0.99237060546875,-0.7120819091796875
1790108049005438000,9.96543798828125,0.142608642578125,0.97125244140625,-0.6667327880859375
1790108049015381800,9.9753818359375,0.1048583984375,0.9423980712890625,-0.6342926025390625
1790108049025326800,9.985326904296874,0.166748046875,0.9026947021484375,-0.627655029296875
1790108049035271000,9.99527099609375,0.30877685546875,0.8745574951171875,-0.6270599365234375
1790108049045215700,10.0052158203125,0.39752197265625,0.86846923828125,-0.64093017578125
1790108049055159800,10.015159912109375,0.426177978515625,0.897216796875,-0.698028564453125
1790108049065104600,10.025104736328124,0.433990478515625,0.9527740478515625,-0.78668212890625
1790108049075049000,10.035049072265625,0.3862457275390625,1.0081634521484375,-0.8790130615234375
1790108049084993800,10.044993896484375,0.29022216796875,1.04595947265625,-0.86956787109375
1790108049094937900,10.054937744140625,0.17901611328125,1.0663604736328125,-0.764801025390625
1790108049104881700,10.064881591796874,0.1014251708984375,1.0286712646484375,-0.6839752197265625
1790108049114827000,10.074826904296875,0.092041015625,0.90185546875,-0.642578125
1790108049124770800,10.084770751953124,0.145477294921875,0.7606353759765625,-0.5772552490234375
1790108049134716000,10.0947158203125,0.2408599853515625,0.632080078125,-0.495880126953125
1790108049144659700,10.10465966796875,0.3596343994140625,0.56121826171875,-0.4175262451171875
1790108049154604800,10.114604736328126,0.4242401123046875,0.5320281982421875,-0.375732421875
1790108049164548900,10.124548828125,0.3502655029296875,0.511260986328125,-0.38330078125
1790108049174493700,10.13449365234375,0.1732025146484375,0.508941650390625,-0.400909423828125
1790108049184437800,10.144437744140625,0.0034637451171875,0.5207366943359375,-0.4124603271484375
1790108049194382800,10.1543828125,-0.128204345703125,0.52362060546875,-0.39532470703125
1790108049204327000,10.164326904296875,-0.177947998046875,0.5063323974609375,-0.3446044921875
1790108049214270700,10.174270751953125,-0.0796356201171875,0.450714111328125,-0.266265869140625
1790108049224215800,10.1842158203125,0.1143646240234375,0.3657379150390625,-0.2054443359375
1790108049234159600,10.19415966796875,0.31805419921875,0.3096771240234375,-0.1844024658203125
1790108049244105000,10.20410498046875,0.3478851318359375,0.3219451904296875,-0.1614532470703125
1790108049254048800,10.214048828125,0.198638916015625,0.33306884765625,-0.175384521484375
1790108049263993900,10.223993896484375,0.084259033203125,0.339691162109375,-0.2317352294921875
1790108049273937700,10.233937744140626,0.1395263671875,0.3341064453125,-0.326202392578125
1790108049283882800,10.2438828125,0.271514892578125,0.3703460693359375,-0.428924560546875
1790108049293826800,10.253826904296876,0.3218994140625,0.434051513671875,-0.5087890625
1790108049303771000,10.26377099609375,0.2632598876953125,0.527679443359375,-0.491302490234375
1790108049313716000,10.273716064453126,0.217010498046875,0.5882720947265625,-0.4752349853515625
1790108049323659800,10.28365966796875,0.253814697265625,0.597503662109375,-0.5081634521484375
1790108049333604900,10.29360498046875,0.3230438232421875,0.58209228515625,-0.5368194580078125
1790108049343548700,10.303548583984375,0.3987274169921875,0.5843353271484375,-0.5348663330078125
1790108049353494000,10.313493896484376,0.423858642578125,0.5950469970703125,-0.5073394775390625
1790108049363437800,10.323437744140625,0.4013519287109375,0.5980224609375,-0.4954986572265625
1790108049373383000,10.3333828125,0.33734130859375,0.5913238525390625,-0.4994659423828125
1790108049383326700,10.34332666015625,0.2850189208984375,0.58428955078125,-0.5145416259765625
1790108049393270800,10.353270751953126,0.2688446044921875,0.607513427734375,-0.5384521484375
1790108049403216000,10.3632158203125,0.2621307373046875,0.6420135498046875,-0.541259765625
1790108049413160000,10.373159912109376,0.2807769775390625,0.6566925048828125,-0.523345947265625
1790108049423104800,10.383104736328125,0.330841064453125,0.671142578125,-0.5133514404296875
1790108049433048800,10.393048828125,0.36785888671875,0.6886138916015625,-0.503692626953125
1790108049442994000,10.402993896484375,0.389495849609375,0.695831298828125,-0.5148468017578125
1790108049452937700,10.412937744140624,0.3696136474609375,0.699981689453125,-0.5345611572265625
1790108049462882800,10.4228828125,0.3487548828125,0.6977386474609375,-0.5323486328125
1790108049472826600,10.43282666015625,0.327728271484375,0.694244384765625,-0.507354736328125
1790108049482771000,10.44277099609375,0.3074188232421875,0.693634033203125,-0.4857940673828125
1790108049492715800,10.4527158203125,0.2897796630859375,0.701904296875,-0.50054931640625
1790108049502659800,10.462659912109375,0.2729339599609375,0.720977783203125,-0.53466796875
1790108049512604700,10.472604736328124,0.2350311279296875,0.7386932373046875,-0.5799407958984375
1790108049522549000,10.482549072265625,0.1991424560546875,0.77203369140625,-0.6119384765625
1790108049532493800,10.492493896484374,0.1436767578125,0.8211212158203125,-0.6096649169921875
1790108049542438000,10.50243798828125,0.2150115966796875,0.8592681884765625,-0.6891326904296875
1790108049552382700,10.5123828125,0.2904052734375,0.9132080078125,-0.695892333984375
1790108049562326800,10.522326904296875,0.3064727783203125,0.97332763671875,-0.6858062744140625
1790108049572270800,10.532270751953124,0.3273162841796875,1.061431884765625,-0.675933837890625
1790108049582215700,10.542215576171875,0.334075927734375,1.15655517578125,-0.68487548828125
1790108049592159700,10.55215966796875,0.286102294921875,1.1900482177734375,-0.6990814208984375
1790108049602104800,10.562104736328125,0.1990203857421875,1.1756744384765625,-0.66650390625
1790108049612049000,10.572048828125,0.1031951904296875,1.1540985107421875,-0.602630615234375
1790108049621993700,10.58199365234375,-0.0074462890625,1.1019287109375,-0.6075897216796875
1790108049631937800,10.591937744140624,-0.130523681640625,1.085357666015625,-0.571868896484375
1790108049641883000,10.6018828125,-0.15875244140625,1.0699462890625,-0.454803466796875
1790108049651827000,10.611826904296874,-0.0211639404296875,1.0275115966796875,-0.3528289794921875
1790108049661771800,10.621771728515625,0.3410797119140625,1.0000762939453125,-0.2652130126953125
1790108049671715800,10.6317158203125,0.5783233642578125,0.9899444580078125,-0.22552490234375
1790108049681660000,10.641659912109375,0.5565643310546875,0.989898681640625,-0.20867919921875
1790108049691604700,10.651604736328125,0.360382080078125,1.00640869140625,-0.2128143310546875
1790108049701548800,10.661548828125,0.15283203125,1.0188751220703125,-0.26507568359375
1790108049711493600,10.67149365234375,0.0701446533203125,1.0376434326171875,-0.30010986328125
1790108049721438000,10.68143798828125,0.150665283203125,1.0298004150390625,-0.308807373046875
1790108049731382800,10.6913828125,0.229339599609375,1.026123046875,-0.323638916015625
1790108049741326800,10.701326904296875,0.2181549072265625,1.02783203125,-0.305694580078125
1790108049751271700,10.711271728515625,0.2555999755859375,1.0128173828125,-0.2827911376953125
1790108049761216000,10.721216064453126,0.355499267578125,0.9743194580078125,-0.263885498046875
1790108049771159800,10.731159912109375,0.4181671142578125,0.9502105712890625,-0.285186767578125
1790108049781105000,10.74110498046875,0.330291748046875,0.93914794921875,-0.3647918701171875
1790108049791048700,10.751048583984375,0.2674102783203125,0.949859619140625,-0.3953094482421875
1790108049800993800,10.760993896484376,0.223114013671875,1.0035247802734375,-0.423919677734375
1790108049810937900,10.770937744140625,0.243621826171875,1.057373046875,-0.43438720703125
1790108049820882700,10.780882568359376,0.29632568359375,1.093109130859375,-0.413482666015625
1790108049830826800,10.79082666015625,0.33892822265625,1.1131591796875,-0.4300079345703125
1790108049840771600,10.800771484375,0.372314453125,1.103546142578125,-0.4836273193359375
1790108049850716000,10.8107158203125,0.24700927734375,1.081573486328125,-0.4543914794921875
1790108049860659700,10.82065966796875,0.1461181640625,1.0535430908203125,-0.3736419677734375
1790108049870604800,10.830604736328125,0.2000885009765625,1.00665283203125,-0.3321075439453125
1790108049880548600,10.840548583984376,0.3539276123046875,0.954345703125,-0.403533935546875
1790108049890494000,10.850493896484375,0.3022308349609375,0.936553955078125,-0.404052734375
1790108049900437800,10.860437744140626,0.2433013916015625,0.932861328125,-0.36260986328125
1790108049910382800,10.8703828125,0.1675872802734375,0.9299774169921875,-0.2762908935546875
1790108049920326700,10.88032666015625,0.064483642578125,0.9720306396484375,-0.1683807373046875
1790108049930271700,10.890271728515625,0.163604736328125,0.9833831787109375,-0.1668548583984375
1790108049940215800,10.9002158203125,0.3355255126953125,0.942657470703125,-0.2303924560546875
1790108049950160000,10.910159912109375,0.3380126953125,0.920318603515625,-0.246551513671875
1790108049960104700,10.920104736328126,0.2213592529296875,0.940704345703125,-0.20941162109375
1790108049970048800,10.930048828125,0.1843109130859375,0.9564361572265625,-0.2314300537109375
1790108049979993900,10.939993896484374,0.226593017578125,0.9574737548828125,-0.3188934326171875
1790108049989937700,10.949937744140625,0.1586761474609375,0.9896087646484375,-0.3512725830078125
1790108049999882800,10.9598828125,0.108154296875,1.018707275390625,-0.392120361328125
1790108050009826600,10.96982666015625,0.097564697265625,1.011810302734375,-0.4398193359375
1790108050019772000,10.97977197265625,0.1196746826171875,0.979705810546875,-0.468505859375
1790108050029715700,10.9897158203125,0.25323486328125,0.923828125,-0.5065155029296875
1790108050039659800,10.99965966796875,0.339569091796875,0.866851806640625,-0.5496978759765625
1790108050049604900,11.00960498046875,0.337066650390625,0.836822509765625,-0.601043701171875
1790108050059549000,11.019548828125,0.2987213134765625,0.841949462890625,-0.64849853515625
1790108050069493800,11.02949365234375,0.272308349609375,0.8695526123046875,-0.6659088134765625
1790108050079437800,11.039437744140624,0.233673095703125,0.8884735107421875,-0.658660888671875
1790108050089383000,11.0493828125,0.2010040283203125,0.907562255859375,-0.69891357421875
1790108050099327000,11.059326904296874,0.2021331787109375,0.925018310546875,-0.7106781005859375
1790108050109271800,11.069271728515625,0.253631591796875,0.9193878173828125,-0.72845458984375
1790108050119215600,11.079215576171874,0.299285888671875,0.951812744140625,-0.7131805419921875
1790108050129159700,11.08915966796875,0.31048583984375,1.0067138671875,-0.6615142822265625
1790108050139104800,11.099104736328124,0.3091278076171875,1.0562744140625,-0.638275146484375
1790108050149048800,11.109048828125,0.334228515625,1.068511962890625,-0.655517578125
1790108050158993700,11.11899365234375,0.3472137451171875,1.04022216796875,-0.64605712890625
1790108050168937700,11.128937744140625,0.286102294921875,0.970855712890625,-0.6420745849609375
1790108050178882800,11.1388828125,0.2484893798828125,0.8744964599609375,-0.620635986328125
1790108050188827000,11.148826904296875,0.242431640625,0.76641845703125,-0.5670166015625
1790108050198771700,11.158771728515624,0.25054931640625,0.6943206787109375,-0.5631103515625
1790108050208715800,11.1687158203125,0.3312225341796875,0.6907501220703125,-0.55908203125
1790108050218660900,11.178660888671875,0.3925018310546875,0.7492828369140625,-0.55950927734375
1790108050228604700,11.188604736328125,0.371673583984375,0.842010498046875,-0.58624267578125
1790108050238548700,11.198548828125,0.322998046875,0.905609130859375,-0.576995849609375
1790108050248493600,11.20849365234375,0.2506561279296875,0.9398040771484375,-0.52142333984375
1790108050258438000,11.21843798828125,0.1675567626953125,0.946197509765625,-0.4687347412109375
1790108050268382700,11.2283828125,0.1923370361328125,0.914642333984375,-0.4703826904296875
1790108050278326800,11.238326904296875,0.2985076904296875,0.8480987548828125,-0.5659637451171875
1790108050288271600,11.248271728515626,0.3966217041015625,0.7975311279296875,-0.6727294921875
1790108050298216000,11.2582158203125,0.5139617919921875,0.8178253173828125,-0.65838623046875
1790108050308160800,11.268160888671876,0.521820068359375,0.9059295654296875,-0.6381378173828125
1790108050318104800,11.278104736328125,0.3865966796875,0.93841552734375,-0.5812225341796875
1790108050328048600,11.288048583984375,0.2280731201171875,0.887939453125,-0.4854888916015625
1790108050337994000,11.297993896484375,0.1743621826171875,0.73834228515625,-0.3803863525390625
1790108050347937800,11.307937744140625,0.2195587158203125,0.5284576416015625,-0.319915771484375
1790108050357882600,11.317882568359375,0.3098297119140625,0.37371826171875,-0.332000732421875
1790108050367826700,11.32782666015625,0.3602752685546875,0.342803955078125,-0.3824920654296875
1790108050377771800,11.337771728515625,0.3681793212890625,0.3837127685546875,-0.4574127197265625
1790108050387715800,11.3477158203125,0.31170654296875,0.485076904296875,-0.533782958984375
1790108050397660700,11.35766064453125,0.2057952880859375,0.59027099609375,-0.5490264892578125
1790108050407604700,11.367604736328126,0.116119384765625,0.6489715576171875,-0.484466552734375
1790108050417548800,11.377548828125,0.08148193359375,0.6081695556640625,-0.3564453125
1790108050427494000,11.387493896484376,0.135009765625,0.4866180419921875,-0.2264556884765625
1790108050437437700,11.397437744140625,0.2909698486328125,0.33587646484375,-0.164764404296875
1790108050447382800,11.4073828125,0.45111083984375,0.227447509765625,-0.1824188232421875
1790108050457326800,11.417326904296875,0.4712066650390625,0.2197265625,-0.2547454833984375
1790108050467271700,11.427271728515626,0.3403778076171875,0.283599853515625,-0.33721923828125
1790108050477215700,11.4372158203125,0.1896820068359375,0.3412322998046875,-0.4163970947265625
1790108050487160600,11.44716064453125,0.105010986328125,0.379974365234375,-0.4339752197265625
1790108050497105000,11.45710498046875,0.09979248046875,0.3876953125,-0.40887451171875
1790108050507049000,11.467049072265626,0.134033203125,0.37738037109375,-0.381927490234375
1790108050516993800,11.476993896484375,0.2516632080078125,0.3495635986328125,-0.3783111572265625
1790108050526937600,11.4869375,0.3667144775390625,0.3250732421875,-0.3952178955078125
1790108050536883000,11.496883056640625,0.40869140625,0.32220458984375,-0.429595947265625
1790108050546826800,11.50682666015625,0.39642333984375,0.3532257080078125,-0.4783935546875
1790108050556771800,11.516771728515625,0.3149566650390625,0.4084930419921875,-0.511749267578125
1790108050566715600,11.526715576171876,0.236907958984375,0.461761474609375,-0.5119781494140625
1790108050576661000,11.536660888671875,0.225860595703125,0.51812744140625,-0.51531982421875
1790108050586604800,11.546604736328124,0.2433929443359375,0.5898895263671875,-0.5351715087890625
1790108050596548900,11.556548828125,0.2650146484375,0.6681060791015625,-0.55242919921875
1790108050606493700,11.56649365234375,0.3063201904296875,0.7391204833984375,-0.566864013671875
1790108050616437800,11.576437744140625,0.3441619873046875,0.8042449951171875,-0.5933380126953125
1790108050626382800,11.5863828125,0.3617095947265625,0.863037109375,-0.6019287109375
1790108050636327000,11.596326904296875,0.3749542236328125,0.9221038818359375,-0.5861968994140625
1790108050646271700,11.606271728515624,0.3878631591796875,0.982452392578125,-0.575164794921875
1790108050656215600,11.616215576171875,0.3981475830078125,1.034576416015625,-0.5720367431640625
1790108050666161000,11.626160888671874,0.3979339599609375,1.047821044921875,-0.5796356201171875
1790108050676104700,11.636104736328125,0.373626708984375,1.03887939453125,-0.5993194580078125
1790108050686048800,11.646048828125,0.34552001953125,1.03887939453125,-0.62957763671875
1790108050695993600,11.65599365234375,0.31427001953125,1.027435302734375,-0.6608734130859375
1790108050705938000,11.66593798828125,0.2305145263671875,1.008453369140625,-0.6494598388671875
1790108050715882800,11.6758828125,0.2028656005859375,0.9862213134765625,-0.6441192626953125
1790108050725826800,11.685826904296874,0.29937744140625,0.9775238037109375,-0.697021484375
1790108050735772000,11.69577197265625,0.3891448974609375,0.974029541015625,-0.6875762939453125
1790108050745716000,11.705716064453124,0.393310546875,0.944305419921875,-0.6422882080078125
1790108050755660800,11.715660888671875,0.3565216064453125,0.9356842041015625,-0.6446685791015625
1790108050765604600,11.7256044921875,0.24285888671875,0.9353790283203125,-0.678741455078125
1790108050775550000,11.735550048828125,0.065093994140625,0.9324493408203125,-0.6649932861328125
1790108050785493800,11.74549365234375,-0.064605712890625,0.9178924560546875,-0.6661834716796875
1790108050795437800,11.755437744140625,-0.190338134765625,0.9064483642578125,-0.6443023681640625
1790108050805382700,11.765382568359374,-0.19842529296875,0.861541748046875,-0.51226806640625
1790108050815327200,11.7753271484375,-0.0041656494140625,0.82489013671875,-0.43310546875
1790108050825272000,11.78527197265625,0.3409881591796875,0.8125762939453125,-0.3997650146484375
1790108050835216100,11.795216064453125,0.512237548828125,0.8514556884765625,-0.3571014404296875
1790108050845161000,11.805160888671875,0.4517059326171875,0.9070587158203125,-0.3026580810546875
1790108050855105300,11.815105224609376,0.330841064453125,0.9796600341796875,-0.27978515625
1790108050865050000,11.825050048828125,0.21600341796875,1.082305908203125,-0.28021240234375
1790108050874994000,11.834993896484375,0.112091064453125,1.16119384765625,-0.2961578369140625
1790108050884938000,11.84493798828125,0.0553436279296875,1.1968536376953125,-0.31787109375
1790108050894883000,11.854883056640626,0.2026824951171875,1.204315185546875,-0.3352813720703125
1790108050904827100,11.8648271484375,0.3441009521484375,1.1792144775390625,-0.31707763671875
1790108050914772000,11.87477197265625,0.373748779296875,1.160430908203125,-0.2774658203125
1790108050924716000,11.884716064453125,0.3230438232421875,1.1478271484375,-0.277862548828125
1790108050934661000,11.8946611328125,0.35186767578125,1.125152587890625,-0.2677154541015625
1790108050944605200,11.904605224609375,0.3962860107421875,1.1056365966796875,-0.376861572265625
1790108050954550000,11.914550048828126,0.34033203125,1.104949951171875,-0.488922119140625
1790108050964494000,11.924494140625,0.2515869140625,1.1011199951171875,-0.495391845703125
1790108050974438000,11.93443798828125,0.2721099853515625,1.1026611328125,-0.5025634765625
1790108050984383200,11.94438330078125,0.328765869140625,1.1102294921875,-0.5499114990234375
1790108050994327000,11.9543271484375,0.2944488525390625,1.1062774658203125,-0.5744781494140625
1790108051004271900,11.96427197265625,0.278717041015625,1.060791015625,-0.561676025390625
1790108051014216200,11.97421630859375,0.2537994384765625,0.986572265625,-0.5009613037109375
1790108051024161000,11.9841611328125,0.25238037109375,0.9076690673828125,-0.4480743408203125
1790108051034105000,11.99410498046875,0.1983642578125,0.849700927734375,-0.3844757080078125
1790108051044050000,12.0040498046875,0.1490020751953125,0.8211669921875,-0.307037353515625
1790108051053994200,12.013994140625,0.165985107421875,0.7984161376953125,-0.266998291015625
1790108051063938000,12.02393798828125,0.1672515869140625,0.7828521728515625,-0.24169921875
1790108051073883100,12.033883056640626,0.1826019287109375,0.782379150390625,-0.2416839599609375
1790108051083827000,12.043826904296875,0.1708526611328125,0.792022705078125,-0.2460479736328125
1790108051093772300,12.053772216796874,0.081390380859375,0.835784912109375,-0.2180328369140625
1790108051103716000,12.063716064453125,0.093170166015625,0.8768463134765625,-0.244781494140625
1790108051113661000,12.073660888671874,0.1536865234375,0.8872833251953125,-0.2888336181640625
1790108051123605000,12.08360498046875,0.1317138671875,0.9289703369140625,-0.2854461669921875
1790108051133550000,12.093550048828124,0.0725250244140625,1.0017852783203125,-0.2538604736328125
1790108051143494100,12.103494140625,0.1024017333984375,1.0561981201171875,-0.268585205078125
1790108051153438200,12.113438232421874,0.2035064697265625,1.0722808837890625,-0.3374176025390625
1790108051163383000,12.123383056640625,0.2820281982421875,1.056671142578125,-0.4308624267578125
1790108051173326800,12.133326904296876,0.220672607421875,1.0458984375,-0.49761962890625
1790108051183272200,12.143272216796875,0.1786346435546875,1.0466156005859375,-0.52972412109375
1790108051193216000,12.153216064453124,0.245391845703125,1.005889892578125,-0.6267547607421875
1790108051203161000,12.1631611328125,0.27606201171875,0.9733428955078125,-0.69122314453125
1790108051213105000,12.17310498046875,0.2905426025390625,0.9616241455078125,-0.7108612060546875
1790108051223050200,12.18305029296875,0.29620361328125,0.9527435302734375,-0.714691162109375
1790108051232994000,12.192994140625,0.296630859375,0.9583282470703125,-0.69085693359375
1790108051242939000,12.20293896484375,0.353912353515625,0.9437103271484375,-0.682159423828125
1790108051252883000,12.212883056640624,0.421234130859375,0.931915283203125,-0.67266845703125
1790108051262827300,12.2228271484375,0.4112548828125,0.9384002685546875,-0.6524658203125
1790108051272772000,12.232772216796874,0.3743896484375,0.959564208984375,-0.6785736083984375
1790108051282716200,12.242716064453125,0.2938995361328125,0.9770965576171875,-0.659088134765625
1790108051292661000,12.252660888671874,0.2164459228515625,0.978973388671875,-0.628875732421875
1790108051302605000,12.26260498046875,0.182220458984375,0.9782867431640625,-0.6185455322265625
1790108051312550100,12.272550048828125,0.2033538818359375,0.9606781005859375,-0.6369781494140625
1790108051322494000,12.282493896484375,0.2410125732421875,0.9187774658203125,-0.6405029296875
1790108051332439300,12.292439208984375,0.266021728515625,0.8491668701171875,-0.645172119140625
1790108051342383000,12.302383056640625,0.28656005859375,0.7753753662109375,-0.6348114013671875
1790108051352327200,12.3123271484375,0.2909088134765625,0.7328338623046875,-0.5812835693359375
1790108051362272000,12.32227197265625,0.329193115234375,0.726104736328125,-0.5483245849609375
1790108051372216000,12.332216064453124,0.352935791015625,0.7284698486328125,-0.57232666015625
1790108051382161200,12.3421611328125,0.357269287109375,0.7509765625,-0.5924072265625
1790108051392105200,12.352105224609375,0.3323974609375,0.7901611328125,-0.6005401611328125
1790108051402050000,12.362050048828126,0.2822418212890625,0.8196258544921875,-0.5933074951171875
1790108051411993900,12.371993896484375,0.2723846435546875,0.81793212890625,-0.587615966796875
1790108051421939200,12.381939208984376,0.29180908203125,0.8026580810546875,-0.61248779296875
1790108051431883000,12.391883056640625,0.265899658203125,0.7851104736328125,-0.6483154296875
1790108051441827000,12.4018271484375,0.2162628173828125,0.786376953125,-0.650634765625
1790108051451772000,12.41177197265625,0.181671142578125,0.769012451171875,-0.63232421875
1790108051461716200,12.42171630859375,0.1719970703125,0.7353973388671875,-0.59027099609375
1790108051471661000,12.4316611328125,0.184295654296875,0.7318878173828125,-0.537628173828125
1790108051481605000,12.441605224609376,0.224273681640625,0.72320556640625,-0.4969940185546875
1790108051491550000,12.451550048828125,0.26458740234375,0.7004547119140625,-0.4758148193359375
1790108051501494300,12.461494384765626,0.2710113525390625,0.673980712890625,-0.455841064453125
1790108051511439000,12.471439208984375,0.2299652099609375,0.6363983154296875,-0.433929443359375
1790108051521383200,12.481383056640626,0.17669677734375,0.578369140625,-0.445404052734375
1790108051531328000,12.491327880859375,0.136505126953125,0.48968505859375,-0.46710205078125
1790108051541272000,12.50127197265625,0.0924224853515625,0.4250335693359375,-0.478973388671875
1790108051551216000,12.511216064453125,0.0417022705078125,0.4010009765625,-0.4662628173828125
1790108051561161000,12.521160888671876,0.013580322265625,0.394622802734375,-0.4281463623046875
1790108051571105000,12.53110498046875,0.03057861328125,0.32403564453125,-0.3291778564453125
1790108051581050000,12.541050048828126,0.1563568115234375,0.19549560546875,-0.2064971923828125
1790108051590994200,12.550994140625,0.3231201171875,0.148956298828125,-0.18853759765625
1790108051600939000,12.56093896484375,0.355133056640625,0.2254180908203125,-0.288116455078125
1790108051610883000,12.570883056640625,0.2483978271484375,0.34368896484375,-0.413543701171875
1790108051620828200,12.580828125,0.1387786865234375,0.4117584228515625,-0.470489501953125
1790108051630772200,12.590772216796875,0.10986328125,0.435302734375,-0.4607086181640625
1790108051640716000,12.600716064453126,0.169158935546875,0.4502716064453125,-0.4831695556640625
1790108051650660900,12.610660888671875,0.2254638671875,0.47528076171875,-0.536102294921875
1790108051660605000,12.62060498046875,0.2642364501953125,0.5088958740234375,-0.5493011474609375
1790108051670550000,12.630550048828125,0.31591796875,0.537841796875,-0.51361083984375
1790108051680494000,12.640494140625,0.331573486328125,0.569854736328125,-0.4854583740234375
1790108051690439000,12.65043896484375,0.3209381103515625,0.586517333984375,-0.47662353515625
1790108051700383200,12.66038330078125,0.3360748291015625,0.589080810546875,-0.447296142578125
1790108051710328000,12.670328125,0.355255126953125,0.5830078125,-0.4413909912109375
1790108051720272100,12.680272216796874,0.35528564453125,0.6005859375,-0.4547119140625
1790108051730216000,12.6902158203125,0.3430938720703125,0.6270599365234375,-0.4798583984375
1790108051740161300,12.700161376953124,0.3332061767578125,0.6528778076171875,-0.48760986328125
1790108051750105000,12.71010498046875,0.3393096923828125,0.6754150390625,-0.4754486083984375
1790108051760050200,12.72005029296875,0.3758087158203125,0.7138214111328125,-0.46575927734375
1790108051769994000,12.729993896484375,0.40521240234375,0.764373779296875,-0.4671630859375
1790108051779939000,12.73993896484375,0.41485595703125,0.8106231689453125,-0.46649169921875
1790108051789883100,12.749883056640625,0.433685302734375,0.857666015625,-0.4786376953125
1790108051799828000,12.759827880859374,0.447418212890625,0.9168548583984375,-0.49560546875
1790108051809772000,12.76977197265625,0.427734375,0.960723876953125,-0.5082244873046875
1790108051819716900,12.779716796875,0.3967742919921875,0.9646148681640625,-0.5025177001953125
1790108051829661000,12.789660888671875,0.38067626953125,0.95068359375,-0.4980010986328125
1790108051839604700,12.799604736328124,0.3771209716796875,0.941864013671875,-0.48126220703125
1790108051849550000,12.809550048828125,0.389404296875,0.929840087890625,-0.459869384765625
1790108051859494000,12.819493896484374,0.3833770751953125,0.9134674072265625,-0.4842681884765625
1790108051869439000,12.82943896484375,0.3340606689453125,0.9097747802734375,-0.548492431640625
1790108051879382800,12.8393828125,0.24774169921875,0.9312286376953125,-0.590850830078125
1790108051889328000,12.849328125,0.2696075439453125,0.9676513671875,-0.6611175537109375
1790108051899272000,12.85927197265625,0.3126983642578125,1.0747833251953125,-0.647705078125
1790108051909216800,12.869216796875,0.296905517578125,1.167144775390625,-0.61407470703125
1790108051919160800,12.879160888671874,0.314727783203125,1.21026611328125,-0.5819549560546875
1790108051929105000,12.88910498046875,0.147003173828125,1.1744842529296875,-0.607086181640625
1790108051939050000,12.899050048828125,-0.1313323974609375,1.1098175048828125,-0.5900115966796875
1790108051948994000,12.908994140625,-0.2251434326171875,1.0259246826171875,-0.536041259765625
1790108051958939000,12.91893896484375,-0.1299285888671875,0.943023681640625,-0.524200439453125
1790108051968882700,12.928882568359375,0.1233673095703125,0.908538818359375,-0.5506591796875
1790108051978828000,12.938828125,0.3247222900390625,0.91424560546875,-0.590484619140625
1790108051988771800,12.948771728515625,0.38677978515625,0.92852783203125,-0.6045074462890625
1790108051998717000,12.958717041015625,0.2840118408203125,0.9967803955078125,-0.556671142578125
