time,seconds_elapsed,z,y,x
1790108039102015700,0.062015625,-1.4639146144539117,0.004914075526595115,0.39808622181825337
1790108039111960800,0.0719609375,-1.6351158152461052,0.5415922640204429,0.2794916988369077
1790108039121905000,0.08190478515625,-1.7106290291309356,0.8981053162828088,0.07544871554756537
1790108039131849700,0.091849609375,-1.5329121628344058,0.4949436178311705,0.3504690228577703
1790108039141793800,0.101793701171875,-1.0966226862847805,0.5594605136662721,0.6724203186962753
1790108039151739000,0.11173876953125,-0.7127934648126363,0.9025310237705707,0.7013761448718607
1790108039161683000,0.121682861328125,-0.3874742999762296,1.1593693575769661,0.9930387584958225
1790108039171626800,0.131626708984375,-0.2999158435106277,1.515250249415636,1.3972647982433437
1790108039181571800,0.14157177734375,-0.6364157430529594,2.2070956187456843,1.7184259666174648
1790108039191516000,0.151515869140625,0.32098142789304257,3.1187305709481237,1.4235805582389234
1790108039201460700,0.161460693359375,2.0383762978971003,3.5251357813656328,0.5117458456806838
1790108039211404800,0.17140478515625,3.481419389235973,2.867517675808072,-0.7383506615258753
1790108039221349600,0.181349609375,4.597965504130721,2.1423744325101373,-2.015719498800486
1790108039231294000,0.1912939453125,4.608043830552697,1.7329010666936635,-2.0834864824727175
1790108039241238800,0.20123876953125,3.7403356983602043,1.6517787807554005,-0.5259815840430557
1790108039251182800,0.211182861328125,2.7872563906133174,2.163453460896015,2.0124160733409227
1790108039261126700,0.221126708984375,2.995440291365981,3.270965205463767,3.735176415900886
1790108039271072000,0.231072021484375,3.6715246124625205,4.905136433336138,4.027842726674676
1790108039281015800,0.241015869140625,4.30154217891097,6.303731895661354,2.9621126067817207
1790108039290961000,0.2509609375,5.057441210478544,7.09105131688714,0.3382736312165856
1790108039300904700,0.26090478515625,5.999644319424033,7.990050659400224,-2.516696989968419
1790108039310849800,0.270849853515625,6.767666919505595,8.60071645964682,-4.115614533630013
1790108039320793900,0.2807939453125,6.751618286502361,8.20949654340148,-3.034752895578742
1790108039330738700,0.29073876953125,6.126356390148401,8.453474226590991,1.4057096782445906
1790108039340682800,0.300682861328125,4.06673915130198,9.481517882168292,6.484948294511437
1790108039350626800,0.310626708984375,3.8423400288075205,12.492676551669835,3.908690277549624
1790108039360572000,0.320572021484375,5.785125370430946,12.756301769137382,1.8059797469079493
1790108039370515700,0.330515625,5.71771538350284,12.992836735105513,3.788582135134935
1790108039380460800,0.340460693359375,5.5215948455095285,12.79565762796998,3.3463790506273505
1790108039390404900,0.35040478515625,5.703794994699955,12.494794858998059,1.6184470045179127
1790108039400350000,0.360349853515625,4.910270873615145,12.765484608024359,1.1138900474280118
1790108039410293800,0.370293701171875,3.229014946223795,12.535734772151708,0.6425093837529421
1790108039420238800,0.38023876953125,1.58949768114835,11.40292550472021,-1.0288245768219233
1790108039430183000,0.390182861328125,0.9220004250027238,10.384870743715762,-3.8790117631226777
1790108039440127000,0.400126953125,0.01791457300558686,9.685822311139106,-6.157562260273099
1790108039450071800,0.41007177734375,-2.2468933761268852,8.275806460133195,-7.554650825166702
1790108039460015900,0.420015869140625,-4.328465257149935,5.20819642009139,-10.549876596999168
1790108039469961000,0.4299609375,-5.353512068998813,5.736586672711372,-13.690582852911948
1790108039479904800,0.43990478515625,-7.271599607217311,1.553677010704577,-14.703546428257226
1790108039489849900,0.449849853515625,-4.35518024559617,-1.8085691788792608,-19.045527000540496
1790108039499793700,0.459793701171875,-3.8878631780982014,-3.6894989528313276,-21.425027935171126
1790108039509739000,0.469739013671875,-5.315017795431614,-4.323135586559772,-16.94805553959608
1790108039519682800,0.479682861328125,-3.764161979627609,-4.649463343916833,-14.541104287981986
1790108039529627000,0.489626953125,-2.8455940132915973,-5.318469397190213,-12.43253743252754
1790108039539571700,0.49957177734375,-2.283741051530838,-6.2079848720431325,-10.981740073800086
1790108039549515800,0.509515869140625,-0.4709130461633205,-7.72278503960371,-12.499728223747015
1790108039559460900,0.5194609375,-1.9516122066795825,-9.029035980230569,-13.238291505110263
1790108039569405000,0.529405029296875,-4.156173923033475,-10.061503881990909,-13.259383392977714
1790108039579349800,0.539349853515625,-4.8523207889497275,-10.450823517572879,-12.460928829753398
1790108039589293800,0.5492939453125,-3.759333828818798,-11.238168657761811,-11.26198792476654
1790108039599238000,0.55923779296875,0.2410965747952461,-12.185737093132733,-10.425293939518928
1790108039609182700,0.5691826171875,4.683222113394737,-13.684524868047237,-9.624189738568663
1790108039619126800,0.579126708984375,5.271414800548553,-13.930374774849414,-9.156036804768442
1790108039629071600,0.589071533203125,4.767007481062412,-13.41502403654456,-7.679118916356563
1790108039639016000,0.599015869140625,5.518091221302748,-12.958106782507896,-5.631413649100065
1790108039648960800,0.608960693359375,5.382399140787125,-11.668436389803885,-2.966044101011753
1790108039658904800,0.61890478515625,6.724481273251771,-9.991780941945313,0.8159516414701938
1790108039668849700,0.628849609375,7.399924373835325,-8.42139624980688,4.386163997402787
1790108039678794000,0.6387939453125,6.778985601377487,-6.87142832275331,6.270226516422629
1790108039688738800,0.64873876953125,6.244764158385991,-5.658699715432524,6.510673102876543
1790108039698683000,0.658682861328125,6.182330206304788,-5.136101490217447,5.014809106454253
1790108039708626700,0.668626708984375,7.624756042528152,-3.668561963264644,5.437637043884396
1790108039718571800,0.67857177734375,7.525120779299735,-3.2839258093237875,4.841491936421394
1790108039728515800,0.688515869140625,3.408639399707317,-5.2590884029388425,3.307368059709668
1790108039738460700,0.698460693359375,0.6081601010359823,-3.6146845348656176,-0.14647767842411993
1790108039748404700,0.70840478515625,-4.679409861630201,0.2562970665365457,-2.5737761370182035
1790108039758349800,0.718349853515625,-2.6995804452478884,-1.9161492636322974,-2.4698206725031135
1790108039768294000,0.7282939453125,-0.9707948510490357,-1.9694806024558842,-5.247451741158962
1790108039778238700,0.73823876953125,-1.3967989342972635,-1.5993699636042118,-3.9288603743970394
1790108039788182800,0.748182861328125,-2.3366524113766847,-11.599583218330144,-3.179285285153985
1790108039798126300,0.758126220703125,-7.288809100693464,-4.362668555524945,-9.545425413933396
1790108039808071400,0.768071533203125,-6.177638833618164,1.7880960074320436,-8.164932594531773
1790108039818015200,0.77801513671875,-3.192638687723875,-2.4427330513522025,-2.9280975244551897
1790108039827960600,0.787960693359375,-1.4193423361472786,-0.016903642397373915,-2.1442484096884726
1790108039837904400,0.797904296875,-4.148704902327061,2.068452725600451,0.6877958016782999
1790108039847849500,0.807849365234375,-5.630189660263061,5.6892029902458185,2.3972300680667162
1790108039857793300,0.817793212890625,-0.406110611385107,8.399065175533295,5.950172724768519
1790108039867738400,0.82773828125,-0.7717118099883198,10.721213991391657,9.613670682641864
1790108039877682400,0.837682373046875,0.32756139080524443,12.299068873280286,7.944339294061065
1790108039887626500,0.84762646484375,0.46904257611632344,15.032462740802764,2.886778841117024
1790108039897571600,0.857571533203125,-0.5117708339914679,9.900749840933084,3.753251878556609
1790108039907515600,0.867515625,3.2652856985226273,5.250176782208681,1.1827782902151345
1790108039917460500,0.87746044921875,1.2906944750547409,5.871105033272505,0.13376841897666453
1790108039927404300,0.887404296875,-1.4170881274797023,5.4218906086981296,3.3177181888103484
1790108039937349600,0.897349609375,-4.863692077791691,5.009490541779995,2.1068051064789293
1790108039947293400,0.90729345703125,-7.46108699080646,4.425684691408276,-3.2271348315656185
1790108039957237500,0.917237548828125,-6.995772495302558,2.017082457716763,-4.586761388549208
1790108039967182300,0.927182373046875,-2.053662714356184,-0.5501502490073442,-4.774073766186833
1790108039977126400,0.93712646484375,4.565050784261524,-1.4065417451545594,-6.635328825592994
1790108039987071500,0.947071533203125,4.579656524980068,-0.772780316002667,-6.926274596184491
1790108039997015600,0.957015625,0.713691290435195,0.08668664206713438,-4.358858641847968
1790108040006960400,0.96696044921875,-1.453278069627285,-0.10735212121605872,-1.2182745510101318
1790108040016904400,0.976904541015625,-1.6522937445402144,-1.2863123144477604,-1.1883189732074737
1790108040026849500,0.986849609375,-1.3376429809734225,-1.6197899435594676,-1.1159499025672674
1790108040036793300,0.99679345703125,-1.0593982865229248,-1.4730463076755405,-0.9989040703326463
1790108040046737400,1.0067373046875,-1.2670929424539208,-1.3329741123795509,-1.2615192339748142
1790108040056682200,1.01668212890625,-1.326852999150753,-1.1719400853365658,-0.8817086004942655
1790108040066626600,1.02662646484375,-1.5044061993181705,-0.7038169621527195,0.21939327703118322
1790108040076571400,1.0365712890625,-1.3151616845741867,-0.339395620983839,1.3954296917706728
1790108040086515500,1.046515380859375,-0.7437690333127975,-0.17101123117804526,1.6287030255943535
1790108040096460300,1.056460205078125,-0.5690627470090985,-0.2677414206147194,-0.11762509342730045
1790108040106404600,1.066404541015625,-0.4919488199293613,-1.375063195568323,-2.0470769062250853
1790108040116349400,1.076349365234375,-0.498870435886085,-2.000840055707097,-3.5718840885370966
1790108040126293500,1.08629345703125,-1.0673822710141538,-0.9364163422375917,-3.040778731739521
1790108040136237300,1.0962373046875,-2.016035579012334,0.5679939487338066,-1.443040753251314
1790108040146182700,1.1061826171875,-2.4276103010222316,0.8250088081508874,-0.12947861282825468
1790108040156126500,1.11612646484375,-1.8669430419147013,-0.18173779237568377,0.6123287650227547
1790108040166071300,1.1260712890625,-0.869350346441567,-0.6896376301527023,1.0828788230925799
1790108040176015400,1.136015380859375,-0.4392670310556888,-0.990432010063529,0.33322014721930027
1790108040185960400,1.14596044921875,0.7091676755309104,-0.42979426931142806,0.7734621607869863
1790108040195904500,1.155904541015625,0.9392264312222599,-0.09263327551186085,1.0067074375599623
1790108040205849300,1.165849365234375,0.0321484116718173,0.47352585901021954,0.738626409727335
1790108040215793400,1.17579345703125,-1.0999348795726895,2.819392819586396,0.45346097610294817
1790108040225737200,1.1857373046875,-1.3126236905291675,3.9562212595313784,0.40517596088349817
1790108040235682600,1.1956826171875,-0.9559683071866631,1.9769372020721434,0.1428852068901062
1790108040245626400,1.20562646484375,-1.415265149836242,1.946206548243761,-0.11547697548270225
1790108040255571500,1.215571533203125,-1.0743275601074098,1.629448291003704,2.249209836375713
1790108040265515300,1.225515380859375,-1.3631003705739975,1.172637419950962,3.667269293105602
1790108040275460600,1.235460693359375,-2.134840237613022,-0.6513099453240633,3.6287785266697403
1790108040285404400,1.245404296875,-3.4514085741147396,-10.487347952371834,5.146690104249119
1790108040295349200,1.255349365234375,0.4916881231665611,-18.401635222518443,4.518500922271609
1790108040305293600,1.26529345703125,1.927679542428255,-13.149084112393854,-0.8756915321618318
1790108040315237600,1.275237548828125,1.2521684911750257,-3.97785266110301,-4.724574114480615
1790108040325182500,1.285182373046875,0.5935200196564198,12.64867726072073,-7.356447051158547
1790108040335126300,1.295126220703125,-1.108596909455955,26.221165649127958,-0.7182073065549135
1790108040345071600,1.305071533203125,-4.7176069058164956,18.007344812786577,7.804465543946623
1790108040355015400,1.315015380859375,-5.4030532217592,2.6526813314288855,6.104453185898065
1790108040364960500,1.32496044921875,-3.617285657274723,-14.676521643209457,3.6895693877190348
1790108040374904300,1.334904296875,-2.423170565009117,-30.734408797001837,-3.053196899285912
1790108040384848400,1.344848388671875,3.0152830559551713,-11.951214051508902,-10.625156002128124
1790108040394793500,1.35479345703125,-1.804899696586281,5.979428629869222,-8.681907719168066
1790108040404737500,1.364737548828125,-0.13701631485670804,8.563484753361344,-2.3334061229318377
1790108040414682400,1.374682373046875,-0.04131766042485833,7.606579749846458,-1.058459836629033
1790108040424626400,1.38462646484375,0.05551438195109367,6.649764762702584,-3.9876784740686415
1790108040434571500,1.394571533203125,-0.430545964461565,5.947233164185286,-4.122898260897398
1790108040444515600,1.404515625,-1.0417723212003707,4.940183196797967,-2.5898224319338796
1790108040454460400,1.41446044921875,-1.5723198979847133,3.4046219807595013,-0.9850526551127433
1790108040464404200,1.424404296875,-1.138245028744638,2.517424719721079,0.9301344854891299
1790108040474348500,1.4343486328125,-1.078643085218966,2.726516967490315,1.0425415520071983
1790108040484293400,1.44429345703125,-1.06170130276829,2.4889614263027906,0.2215554235011339
1790108040494237400,1.454237548828125,0.0578092148900032,2.5053999354064462,-1.286188395807147
1790108040504182300,1.464182373046875,1.565568231767416,4.090651941809058,-3.3331209251254794
1790108040514126600,1.474126708984375,0.8747367156550288,3.09009075191915,-3.956774217239022
1790108040524071400,1.484071533203125,-2.47296013957262,2.1988281411379575,-4.379936501190066
1790108040534015500,1.494015380859375,-3.076763652834296,2.05850080203712,-4.256224781325459
1790108040543960300,1.503960205078125,-2.201447675986588,1.933589643254876,-3.4800258890509603
1790108040553904600,1.513904541015625,-2.0783809760272502,2.7349796754091975,-1.8309265566378832
1790108040563848400,1.523848388671875,-2.7211028334870933,3.15322145409286,-0.741162650206685
1790108040573793500,1.53379345703125,-2.50631617346853,3.2094442765742537,-1.5058289255976676
1790108040583737300,1.5437373046875,-1.2252011354029178,2.2216876231998204,-2.846235818326473
1790108040593682400,1.553682373046875,-0.9120388568282127,3.0960967143356797,-5.481049484631419
1790108040603626500,1.56362646484375,-1.8569523937761783,1.1474565092042088,-7.104452650251984
1790108040613571300,1.5735712890625,-3.3000118517279624,-0.2863873766347766,-5.735388987359404
1790108040623515400,1.583515380859375,-2.951765400290489,-1.2696490566775203,-2.1703420513659712
1790108040633459500,1.59345947265625,-3.0813673472374674,-0.38575551335960623,0.43193595751523967
1790108040643404500,1.603404541015625,-1.9445190335482359,0.6855301948338747,1.3686416380882263
1790108040653348400,1.613348388671875,-0.9316495662271976,0.503333552774787,2.5821020668148993
1790108040663293400,1.62329345703125,-1.4756249259918928,-0.5890107255384326,4.142889494046568
1790108040673237500,1.633237548828125,-3.9316690020769833,-1.722676025277376,4.868637717500329
1790108040683182600,1.6431826171875,-3.7357092076033354,-2.0354908055886627,4.066678945547342
1790108040693126400,1.65312646484375,-0.803006235179305,-2.354029516504705,2.244052015221119
1790108040703071200,1.6630712890625,1.045443703189492,-3.5872470773637293,2.536760703831911
1790108040713015600,1.673015625,0.09205869049429893,-5.263563502526283,2.8449072000712157
1790108040722959600,1.682959716796875,-2.258850355902314,-6.804088478451967,1.5747060624688862
1790108040732904400,1.692904541015625,-3.3113585906505585,-7.6615779989689585,0.7244874097377061
1790108040742848500,1.7028486328125,-2.9456232442736625,-8.47324451046586,-0.4428302764952183
1790108040752793600,1.712793701171875,-2.8090748391896483,-9.131840521144866,-0.3906827406287193
1790108040762737400,1.7227373046875,-2.365209958949685,-8.464555008053779,2.322519987258315
1790108040772682500,1.7326826171875,-3.090357878422737,-7.800999913662672,4.8109331320285795
1790108040782626300,1.742626220703125,-4.355625066754222,-7.533228097909689,7.2677815102338785
1790108040792570400,1.7525703125,-4.91986638495624,-6.62860390125215,10.232941814148425
1790108040802516000,1.762515869140625,-5.890569612199068,-4.809657120743394,11.184059466433524
1790108040812460300,1.772460205078125,-6.065936115977168,-3.752632285353541,9.260129631927608
1790108040822405000,1.782405029296875,-6.42203737256825,-2.935241550990939,2.462301967436075
1790108040832349200,1.79234912109375,-6.423318644550442,0.8793930170282721,-11.39223927553296
1790108040842294000,1.8022939453125,-2.29557995788455,4.281334088140726,-18.30837358597517
1790108040852238000,1.812238037109375,2.469929393574595,7.962811939340829,-13.215259004569052
1790108040862183200,1.82218310546875,1.1831646591842173,8.692042744213342,-6.48744303393662
1790108040872127000,1.832126953125,-2.62272049292922,7.530812268939614,-3.7678988280683754
1790108040882071000,1.842071044921875,-4.130403521960973,7.007586267215013,-1.206494681367278
1790108040892016000,1.85201611328125,-1.0352011261165142,9.344228887850045,1.1864952649116516
1790108040901960200,1.861960205078125,-0.427541521948576,8.903243362438678,-0.7360849085509776
1790108040911905000,1.871905029296875,-2.0963462563067674,8.876680349683761,-4.543585679167509
1790108040921849000,1.88184912109375,-2.88369081197381,7.29364660385251,-7.0509262272477145
1790108040931794200,1.891794189453125,-3.05830240573138,4.937013919112086,-8.230095094794034
1790108040941738200,1.90173828125,-0.7168482931613922,3.710926940785348,-6.856882495528459
1790108040951683000,1.91168310546875,-0.02102846724241972,2.9796710598260163,-4.097227228546142
1790108040961627000,1.921626953125,-1.050742394119501,3.142542531429231,-4.136277382430434
1790108040971571000,1.931571044921875,-0.35250001722872254,1.5663436000540851,-6.2091106612026685
1790108040981516000,1.94151611328125,0.8018570651441812,-0.0007572481080889701,-3.975732600209117
1790108040991460000,1.951460205078125,-0.7535311333924531,-0.5868538397654891,-2.408455810958147
1790108041001405000,1.961405029296875,-3.2887288256913423,0.840299024002254,-4.250789312273263
1790108041011349000,1.971348876953125,-1.5223209184542297,0.2410465981736779,-6.608942338448762
1790108041021294000,1.981294189453125,-0.9505003971695899,0.21661066057533024,-2.76125276530683
1790108041031238100,1.991238037109375,-1.760101208308339,0.3440630282729864,1.522788828226924
1790108041041182000,2.001181884765625,-2.4546207652837038,0.09184066382944583,4.260726768919826
1790108041051127000,2.011126953125,-3.0729174988001584,0.23899521860182285,7.70193339023292
1790108041061071000,2.021071044921875,-0.4215308833569288,-1.0889295014336704,12.024260583019256
1790108041071016200,2.03101611328125,0.7971794287219643,-2.9335736177787184,13.862058194470405
1790108041080960000,2.0409599609375,0.05474456662237644,-3.577525309294462,12.747282596379518
1790108041090905000,2.050905029296875,0.4025058648914098,-3.331902196985483,11.018424667596816
1790108041100849200,2.06084912109375,0.9116317373320459,-3.022992315158248,8.121858007436991
1790108041110793200,2.070793212890625,0.2229150214165449,-3.4077395282581446,6.2316094932585955
1790108041120738000,2.080738037109375,-0.7193593991994858,-4.711389346475899,7.03023239878714
1790108041130682000,2.09068212890625,-1.1912591183125971,-5.115364991658926,9.970946243709324
1790108041140627200,2.100627197265625,-3.2648400005817413,-1.9435726926088333,10.582181952798367
1790108041150571000,2.110571044921875,-4.789192424863576,1.0334823394998907,4.343405636650323
1790108041160516000,2.12051611328125,-1.3441390649944542,0.5512430126801133,-7.246553428766131
1790108041170460000,2.1304599609375,0.5391384411275386,0.07901333096027374,-11.325265926456451
1790108041180405200,2.1404052734375,-1.8212831145018338,1.1097869960233568,-9.220107418140769
1790108041190349000,2.15034912109375,-3.64440747295618,2.6035727248668667,-4.297049543666839
1790108041200293000,2.160293212890625,-4.079618506619334,2.680787481972575,2.3984984805673357
1790108041210238000,2.170238037109375,-3.99771471491456,1.6672627656131982,5.588571701717377
1790108041220182300,2.180182373046875,-3.7657425268173217,1.805616466553509,4.496952522808313
1790108041230127000,2.190127197265625,-1.6319880386143921,3.678380469706654,-2.6706132939606904
1790108041240071200,2.2000712890625,0.6178489897489547,3.356368821983039,-11.235207469868659
1790108041250016000,2.21001611328125,1.3047457967609166,2.027862210406363,-11.026540169513225
1790108041259960000,2.2199599609375,-0.5200356812506913,2.383412555116415,-5.7174260451674455
1790108041269904100,2.229904052734375,-1.2773194451749323,2.01127903213501,1.2762526927262543
1790108041279849000,2.239848876953125,0.19863632020652294,1.346185476130247,-3.6627193747162816
1790108041289793000,2.24979296875,-0.4677297399520874,0.718706195987761,-5.687046688994765
1790108041299738000,2.259738037109375,-1.2519143702834843,-0.5016451612964272,-3.240249749204516
1790108041309682200,2.26968212890625,-0.2172685399621725,-2.363057457090914,9.200907627630233
1790108041319627000,2.279626953125,-1.5247797097831963,-3.15931977096796,19.860758511042594
1790108041329571000,2.289571044921875,-5.453074851512909,-3.3097932410299777,26.53744810554981
1790108041339516200,2.29951611328125,-11.621450182223318,-0.700460637462139,5.332696659985184
1790108041349460200,2.309460205078125,-13.138003915452956,-0.2870283048868179,-14.145814345818756
1790108041359404000,2.319404052734375,-11.099815833604335,-0.6265852539122104,-20.42013660712242
1790108041369349000,2.32934912109375,-3.0962653489008543,-0.7178396422863006,-16.771560324048995
1790108041379293000,2.33929296875,3.268004602092504,-2.537898767951131,-15.286493615972995
1790108041389238000,2.349238037109375,6.842354203960299,-2.105776347953081,-16.170924334907532
1790108041399182000,2.35918212890625,11.194649834030866,-2.4473627569794654,-13.608815254807471
1790108041409127000,2.369126953125,12.282905673986672,-4.345035868200659,-8.28683755723536
1790108041419071000,2.379071044921875,8.94594853169918,-5.181051808056235,-8.861783809325098
1790108041429015000,2.38901513671875,3.4801878016144037,-6.485154630738497,-11.35723225955963
1790108041438960000,2.398960205078125,3.1973896816432474,-7.080651503425836,-10.53681603989601
1790108041448904000,2.408904052734375,5.716716435593367,-7.538376566714048,-8.105191534796356
1790108041458849000,2.41884912109375,4.936252287089824,-7.09528383989036,-5.657042595875263
1790108041468793000,2.42879296875,4.700348020240664,-6.723918378672003,-0.42452129734456534
1790108041478738200,2.43873828125,3.4949344121083614,-6.838069658508896,3.7195121060401197
1790108041488682000,2.448681884765625,-0.6574941869169473,-6.207601425683498,6.8527417424619195
1790108041498627000,2.458626953125,-5.762646412119269,-4.966140060353279,6.872748173180222
1790108041508571100,2.468571044921875,-13.920375943404435,-1.2628648033648728,6.1155520875394345
1790108041518515200,2.47851513671875,-24.266662397181985,1.140124558880925,5.393692688217759
1790108041528460000,2.4884599609375,-30.79137863845825,2.4872154594182967,4.592493210199475
1790108041538404000,2.498404052734375,-19.43184920787215,5.916835687834024,4.988333187460899
1790108041548349200,2.50834912109375,-10.452722044670582,10.69982049022913,4.767895369812846
1790108041558293000,2.51829296875,-2.562738902436197,13.145209901309013,5.248530768567323
1790108041568238000,2.528238037109375,4.378129159507155,16.525474270403386,4.993009362578392
1790108041578182000,2.538181884765625,5.021314250564575,15.563748714864253,3.786837337294221
1790108041588126200,2.548126220703125,2.64211668279469,14.483686702758073,-0.01424362940788269
1790108041598071000,2.558071044921875,0.5241477927446365,11.381532003557682,-3.251969997614622
1790108041608015000,2.56801513671875,-0.5565656690075993,3.3692946467906233,-2.417750878047943
1790108041617960000,2.5779599609375,2.464497431653738,-1.864094082224369,-1.6060887504652142
1790108041627904300,2.587904296875,8.921151944094897,0.8182979123353957,-1.8616247695013879
1790108041637849000,2.59784912109375,6.964602865535021,-0.09666647655069828,-1.821761837929487
1790108041647793200,2.607793212890625,2.3793176870182156,-0.5024053320139646,-1.117394256156683
1790108041657738000,2.617738037109375,0.4901996381744742,-1.2189590261429548,-1.0217439709112048
1790108041667682000,2.62768212890625,-0.6985460360124707,-0.9030307899862527,-1.2037491820514201
1790108041677626000,2.637626220703125,-2.0869030129179356,0.7181675590664148,-1.144878475409746
1790108041687571000,2.647571044921875,-1.1910641802623867,-0.11922492983937263,-1.3988473912596702
1790108041697515000,2.657514892578125,-0.21772738964557647,-2.088912306913733,-1.4809157258763908
1790108041707460000,2.667460205078125,-0.8139236427739263,-2.3046488150030373,-0.9863131765678524
1790108041717404200,2.677404052734375,-1.5046107819795607,-1.436330441957712,-0.1782417669534683
1790108041727349000,2.687348876953125,-1.582078929324448,-0.047600540086627,0.1323106213837862
1790108041737293000,2.69729296875,-1.6401865426391362,1.2898270445704458,-0.06831979524940252
1790108041747238100,2.707238037109375,-1.782947538627684,1.8525392535090446,-0.6330842605426907
1790108041757182200,2.71718212890625,-1.799337240153551,2.716708105659485,-1.7140289007022975
1790108041767126000,2.7271259765625,-2.147282078295946,3.390333343166113,-2.2507719711259004
1790108041777071000,2.737071044921875,-1.8168866331085562,2.975680528885126,-2.056271435549855
1790108041787015000,2.747014892578125,-1.7916197976440191,1.7712234908252953,-1.1424044865116476
1790108041796960000,2.7569599609375,-1.9191668578878045,1.4968436551094055,-1.5423568675279618
1790108041806903800,2.76690380859375,-0.5836600121602415,1.6299673464417457,-2.332005316223204
1790108041816848600,2.7768486328125,-0.2282920382797718,1.5115414580255746,-2.7091160430952903
1790108041826792700,2.786792724609375,-1.0138441575720907,1.3682114299774168,-2.3703876538485287
1790108041836736800,2.79673681640625,-1.5283800723627208,1.3785983839571476,-2.0669424671679733
1790108041846681900,2.806681884765625,-2.3842823236882684,1.339292794007063,-1.9683546671658754
1790108041856626000,2.8166259765625,-1.2231573546156287,-0.43694238750040526,-0.8747335007846355
1790108041866570800,2.82657080078125,-0.1837748511612415,-0.9900316125690937,-0.9385352340877056
1790108041876514600,2.8365146484375,-0.6972466438516974,-0.45100715321004387,-1.778167610874772
1790108041886460000,2.8464599609375,-0.8776897202417254,-0.5885124206274748,-1.6448127411350606
1790108041896403700,2.85640380859375,-1.088497539757192,-0.4993307468742132,-1.3274696697443722
1790108041906347800,2.86634765625,-0.8313502861320972,-2.528494979789853,-1.7534604551196098
1790108041916292600,2.876292724609375,0.40804041040390726,-34.74153080720901,-6.922067207622527
1790108041926237000,2.88623681640625,-7.960485542219876,-0.6718295862615108,-9.625833998644351
1790108041936181800,2.896181640625,-1.9300038937225936,3.538095216181874,-5.992147241666912
1790108041946125800,2.906125732421875,-0.8580956697165966,2.7021055798113345,-2.1806088860973714
1790108041956070700,2.916070556640625,-1.4100927156344056,3.262982974538207,-1.144874968278408
1790108041966015000,2.926014892578125,-2.260767587700486,3.388428970849514,-1.4947466828301548
1790108041975959800,2.935959716796875,-2.3576611510053276,3.0634014824360607,-2.2668036529943345
1790108041985903600,2.945903564453125,-2.1804054724797606,1.9866870271921158,-1.637420877318084
1790108041995847700,2.95584765625,-1.2540458293542265,2.4654285750240086,-0.2760930693745613
1790108042005792800,2.965792724609375,-0.9148305333733558,4.620965271446108,1.208788637523353
1790108042015736800,2.97573681640625,-0.9214908680453896,4.21619964492917,1.836087300401926
1790108042025681700,2.985681640625,-1.2852458542600274,3.3985043746620414,2.731675957688689
1790108042035625700,2.995625732421875,-2.3887270281374455,4.499106485971808,2.6886957708790895
1790108042045570800,3.00557080078125,-3.260511323727667,3.0288737744122742,1.425129541246593
1790108042055515000,3.015514892578125,-2.5637469104349613,2.609762227156758,1.6129738338038324
1790108042065458700,3.025458740234375,-1.7499471863016485,4.996784789463877,2.2276272423818706
1790108042075403800,3.03540380859375,-0.6606687252998351,5.0958238403648135,1.0568547395199537
1790108042085347800,3.045347900390625,0.21920184611231086,4.165823794910311,0.16526275065392254
1790108042095293000,3.05529296875,0.4478726545765996,2.703824074167013,-0.5306915152996778
1790108042105236700,3.06523681640625,-0.37691345073431726,1.4676438641101122,-0.4438298089265823
1790108042115181600,3.075181640625,-1.3905612089514732,-0.31857612031698224,-0.2846834953263402
1790108042125126000,3.0851259765625,-1.9305492526456713,-2.8510446799129245,-0.4249821928545832
1790108042135070700,3.09507080078125,-2.118751272599399,-2.7999025216966866,-0.37408524157106876
1790108042145014800,3.105014892578125,-2.464149056607485,-1.1021651228427887,0.32703385979980226
1790108042154958800,3.114958740234375,-2.2699764378115534,-0.37600130432546136,1.315834177008271
1790108042164904000,3.124904052734375,-1.2588862551227211,0.5030307704359293,1.4677996391937136
1790108042174847700,3.13484765625,-1.5428738771393895,2.3674673824876544,1.7201687186315655
1790108042184792800,3.144792724609375,-1.2592664866119623,3.1793156802922486,1.465627848112583
1790108042194736600,3.154736572265625,-0.8615475637361407,2.3945132103234528,1.025384080979228
1790108042204682000,3.164681884765625,-0.7015566160053014,0.1074450601965189,0.040870647309720516
1790108042214625800,3.174625732421875,-0.822603792835772,-2.4222972893059254,-1.9348904967203735
1790108042224569900,3.18456982421875,-0.6028793841540813,-4.070293044391274,-3.6496342676937576
1790108042234514700,3.1945146484375,-0.47548576090633865,-4.220602848324179,-5.175711031550168
1790108042244458800,3.204458740234375,-0.7154045240938663,-3.4768665482372043,-5.924065054565668
1790108042254403800,3.21440380859375,-0.9450473924607038,-3.0533453678458926,-5.786820483911037
1790108042264348000,3.224347900390625,-0.9437015308097004,-2.7010464261472222,-4.877732293581962
1790108042274292700,3.234292724609375,-0.49651890432387585,-1.9313959326028822,-2.9907077098861334
1790108042284236500,3.244236572265625,-0.13788783699423074,-1.0681816046983004,-1.2016299979403615
1790108042294182000,3.254181884765625,-0.25531770011037586,-0.611537322384119,-0.45902007153481245
1790108042304125700,3.264125732421875,-0.4930126497685909,0.4788841711729765,0.16968436648845672
1790108042314069800,3.27406982421875,-0.5981693067669868,2.1286428442776204,0.9802025847330689
1790108042324014600,3.2840146484375,-0.38942601856589315,3.1335926245152947,1.5339605028435588
1790108042333959000,3.293958984375,-0.2594616680473089,2.9736481462746855,1.7602303876459597
1790108042343903700,3.30390380859375,0.0745379391118884,2.1310878993421793,1.6483640038758516
1790108042353847800,3.313847900390625,0.47812166236788034,1.2147539756685495,1.1716755891814827
1790108042363793000,3.32379296875,0.802189365838468,0.5619166746467351,0.17444471275806425
1790108042373737000,3.333737060546875,1.092908634197712,0.2187052947670221,-0.918528511108458
1790108042383680800,3.3436806640625,1.4570257317230104,0.10457038154304027,-1.8272639424771069
1790108042393625900,3.3536259765625,1.953541713437438,0.09923486573398113,-2.41453922252506
1790108042403569700,3.363569580078125,2.1678283149793742,-0.19389058698415756,-2.434684769453108
1790108042413514800,3.3735146484375,1.811981909932196,-0.3015484131485224,-2.0154960653081537
1790108042423458800,3.383458740234375,1.3171420447364448,-0.09802841255366801,-1.1987944822534917
1790108042433403600,3.393403564453125,0.9112728408917784,0.014908815318346022,0.00016015899777412413
1790108042443347700,3.40334765625,0.6382312680423259,0.014039046746492385,0.8299357431590556
1790108042453292800,3.413292724609375,0.4835734980329871,0.09883622180521488,1.0857362583503127
1790108042463236900,3.42323681640625,0.22124387333393095,0.2014478704959154,0.830589823153615
1790108042473180700,3.4331806640625,0.07714198413044214,0.4846212535202503,0.5249477109506726
1790108042483125800,3.443125732421875,0.07019611051529645,0.9387105906546115,0.2216848950996995
1790108042493069800,3.45306982421875,0.21149492499679326,1.2924760977745056,-0.07021656878143548
1790108042503015000,3.463014892578125,0.15933803678005934,1.5556366203397511,-0.6864730286419392
1790108042512958700,3.472958740234375,-0.2221481286972761,1.5663555827528237,-1.1682011910691856
1790108042522903800,3.48290380859375,-0.32174832061231134,1.0756091243505477,-1.5679092419356107
1790108042532847900,3.492847900390625,-0.5077268192976713,0.6854524534225463,-2.1905209160417316
1790108042542792000,3.5027919921875,-0.945505657622218,0.42353287082910535,-2.2137293576717374
1790108042552736800,3.51273681640625,-1.1541866942420602,0.20812427951991558,-2.0804431692540644
1790108042562680800,3.522680908203125,-1.4709557651370764,-0.07339958273172378,-2.071102509456873
1790108042572626000,3.5326259765625,-1.756390078830719,-0.47946401688754553,-1.8907739993572235
1790108042582569700,3.54256982421875,-2.109961524683237,-0.9596896657973527,-1.6010229915082455
1790108042592514800,3.552514892578125,-2.033347071558237,-1.223967794215679,-1.6738228547811507
1790108042602458600,3.562458740234375,-1.9816408497184514,-1.2831114725798367,-1.9094161559849976
1790108042612404000,3.572404052734375,-2.042642723169923,-1.2299363472312688,-2.0110259341567756
1790108042622347800,3.58234765625,-2.0456714233413336,-1.161758883062005,-2.424718378973007
1790108042632291800,3.592291748046875,-2.024661076277494,-1.1720113970071078,-2.612681037212908
1790108042642236700,3.602236572265625,-2.426113632723689,-1.2376754170507192,-2.5901664230659605
1790108042652180700,3.6121806640625,-2.233525360509753,-1.2146680509507655,-2.826354767553508
1790108042662125800,3.622125732421875,-2.1143495305091142,-0.7559329338371753,-2.545992642557621
1790108042672070000,3.63206982421875,-2.4827806918412447,-0.19698095421493053,-1.7424252663642168
1790108042682014700,3.6420146484375,-3.267716432800889,-0.08276946862339973,-1.4658625336512923
1790108042691958800,3.651958740234375,-3.979778660729527,-0.10106734185814857,-0.9188532130181789
1790108042701902800,3.66190283203125,-3.4588527526408432,-0.6422329048991203,-0.04522650443166494
1790108042711847700,3.67184765625,-2.767374463057518,-1.1477034697026014,0.16463877353668213
1790108042721791700,3.681791748046875,-1.7123562913149595,-1.343973645299673,0.15418401501774787
1790108042731736600,3.691736572265625,-1.454911808308959,-1.1635691473543643,0.29659459013342854
1790108042741681000,3.701680908203125,-1.8930822762995958,-0.6168950500249862,0.3728413789898157
1790108042751625700,3.711625732421875,-1.0066635984182357,0.14344576338231563,0.32783377800583835
1790108042761569800,3.72156982421875,-0.07900690121948718,0.4052577939480543,0.24807108998298644
1790108042771513600,3.731513671875,0.21204583687782286,0.784995946714282,0.654943333390355
1790108042781459000,3.741458984375,0.17280395981371402,0.9418331065893173,1.4910878680616617
1790108042791402800,3.75140283203125,-0.7025660853087902,1.1138988152563571,2.1867221082806587
1790108042801348000,3.76134814453125,-1.3466846578240395,1.3990239168703555,2.186637352606654
1790108042811292200,3.771292236328125,-1.0658762503653765,1.6499135714054107,1.4061737886250019
1790108042821237200,3.7812373046875,-0.08707797947227955,1.6619658282488583,0.8956880260080099
1790108042831181300,3.791181396484375,0.6211766728669404,1.5076356827586888,1.1569313167750834
1790108042841126100,3.801126220703125,0.6174789873927832,1.2901356721282005,1.9082021040201187
1790108042851070200,3.8110703125,-0.025120412731170653,0.7495148834884167,2.296462585937977
1790108042861014300,3.82101416015625,-1.0035440050929785,0.2577764914393425,2.1756553553432223
1790108042870959400,3.83095947265625,-1.5198235486805438,-0.430693263977766,2.306404718759656
1790108042880903200,3.840903076171875,-0.5896043075174093,-1.7277777323305605,2.5353683726906775
1790108042890848300,3.85084814453125,0.2712339389055967,-2.3177251541972157,2.675949394291639
1790108042900792300,3.860792236328125,-0.03815086695700884,-1.9626041408151387,2.2685107491731644
1790108042910737200,3.870737060546875,-0.6611638153403997,-1.1184575014740228,1.761035858809948
1790108042920681200,3.88068115234375,-0.747334032317996,-0.5464426266610622,1.1928367428928612
1790108042930625300,3.890625244140625,-0.24020488665252923,-0.11480886696279048,1.2015636547058821
1790108042940570400,3.9005703125,0.5137029710978269,0.18897651145756245,1.288090430036187
1790108042950514400,3.910514404296875,0.8321440668582916,0.2704121011286974,1.211871698230505
1790108042960459300,3.920459228515625,0.7156131984084844,0.077172087007761,0.9464654425650835
1790108042970403000,3.930403076171875,0.569071222576499,-0.2769979092597961,0.6659492960512637
1790108042980348400,3.940348388671875,0.6200874163255096,-1.036618591699004,0.45359249352812764
1790108042990292200,3.950292236328125,0.4903960375294089,-1.9775673166692256,0.5246154102563858
1790108043000237300,3.9602373046875,0.49666181992590425,-2.6394436641931533,0.6399363183945417
1790108043010181000,3.97018115234375,0.3292801774218678,-2.700663564309478,0.6942243734210729
1790108043020125400,3.98012548828125,0.42139439749568697,-2.714886735451221,0.566225185495615
1790108043030070300,3.9900703125,0.484612485691905,-2.3295301582813264,0.4135889844417572
1790108043040014300,4.000014404296875,0.24694296273589134,-1.8088813135683535,-0.08749649714529514
1790108043049959200,4.009959228515625,0.04636544533371925,-1.4060381795465946,-0.20160627592802047
1790108043059903500,4.019903564453125,0.19963146872371434,-1.0162328062742947,0.1305547176271677
1790108043069848300,4.029848388671875,0.42908349069356916,-0.5071984115093946,0.6580564969748258
1790108043079792400,4.03979248046875,0.41528906635791063,0.03912672625184059,0.9532312834382056
1790108043089736200,4.049736083984375,0.32351240767538547,0.41188685669898983,1.0394663823455572
1790108043099681300,4.059681396484375,0.30861703636050225,0.9329740928292274,1.1727648457229136
1790108043109625300,4.069625244140625,0.37569413807243107,1.2651467768222093,1.3276719143182039
1790108043119570200,4.079570068359375,0.4100631484031677,1.2305723070472478,1.5473007536709307
1790108043129514200,4.08951416015625,0.4486629281714558,1.0567518636673687,1.8463158489495515
1790108043139459300,4.099459228515625,0.5875668103404342,0.7865875998198986,2.003005124786496
1790108043149403400,4.1094033203125,0.9633540335237979,0.4448357710987329,1.6713228546589611
1790108043159348200,4.11934814453125,1.3270178343236445,0.21778817992210386,1.4720745400339363
1790108043169292300,4.129292236328125,1.542013168656826,-0.05392155980169773,1.2223334710121154
1790108043179236000,4.139236083984375,1.7731797394596038,-0.27863866220414635,0.7980933286964893
1790108043189181400,4.149181396484375,1.844284781513363,-0.5749065046012402,0.5350865353882313
1790108043199125200,4.159125244140625,1.8069290104568003,-0.7001800669550895,0.11165449458509683
1790108043209070000,4.169070068359375,1.7531623489558696,-0.6031809974491595,-0.3768029760971665
1790108043219014100,4.17901416015625,1.6746829787418245,-0.37582828584611416,-0.6746183401972055
1790108043228959200,4.188959228515625,1.5210205033801496,-0.12119710669517517,-0.8932999618276953
1790108043238903300,4.1989033203125,1.2101729314886034,0.15046937840878963,-1.244414369916916
1790108043248847400,4.208847412109375,1.3695909016370773,0.2814735933691263,-1.6971300806105136
1790108043258792200,4.218792236328125,1.5525779634214936,0.4434428554356098,-2.0484177994400263
1790108043268736300,4.228736328125,1.5159773946464061,0.3911392522245645,-2.318288048776984
1790108043278681300,4.238681396484375,1.3505296428143978,0.16908581607341766,-2.4113497788339853
1790108043288625200,4.248625244140625,1.2800200824357568,-0.052039399316906924,-2.582432613943517
1790108043298570500,4.258570556640625,1.4271405888080597,-0.2290285358607769,-2.7187989404588935
1790108043308514300,4.268514404296875,1.5285995603322982,-0.46972938933670516,-2.9453710230782626
1790108043318459400,4.27845947265625,1.579891356152296,-0.8286421962171793,-3.296711933399737
1790108043328403200,4.2884033203125,1.7038649418234824,-0.9582108254164456,-3.601450082500279
1790108043338347300,4.29834716796875,1.8053262514352797,-0.8270446978926658,-3.7647856644839046
1790108043348292400,4.308292236328125,2.035342629289627,-0.37324469909369945,-3.79419617562443
1790108043358236400,4.318236328125,2.264481055265665,-0.1531190161347389,-4.139582561455667
1790108043368181200,4.32818115234375,2.4168672270812093,0.13682780654728413,-4.45579867464304
1790108043378125300,4.338125244140625,2.559821261423826,0.47934769703149793,-4.769315758004784
1790108043388070400,4.3480703125,2.7857845644950867,0.6801075852632522,-4.8806531494647265
1790108043398014200,4.35801416015625,2.7925544970214364,0.4694856437087059,-4.848814242133498
1790108043407959300,4.367959228515625,2.5841268506407737,0.317092019239068,-4.3989533363491296
1790108043417903000,4.377903076171875,2.0256021565198896,0.03129413293004036,-3.97372096812576
1790108043427847400,4.387847412109375,1.5525567745029925,0.07466857975423336,-3.4818004975080488
1790108043437792300,4.397792236328125,0.9884965850215405,0.07862579294741154,-2.8928865103423593
1790108043447736300,4.407736328125,0.5418764877893031,-0.02886369091272354,-2.2821393154226244
1790108043457681200,4.41768115234375,0.12086276017427444,-0.27495909690856934,-1.560309726717323
1790108043467625500,4.42762548828125,-0.7030126600325107,-0.5725982276588678,-1.0287691933728753
1790108043477570300,4.4375703125,-1.0541280910350381,-0.6097907709777355,0.17490663118138908
1790108043487514400,4.447514404296875,-0.725467799077183,-0.6316501360863447,1.401164874421805
1790108043497458200,4.457458251953125,-0.10863573128581046,-0.3090624420404434,2.5006945341944693
1790108043507403300,4.4674033203125,0.49154330786839123,0.197757783806324,3.3144209008306262
1790108043517347300,4.477347412109375,0.8239664594911038,0.20121873791515826,3.484813707849383
1790108043527292200,4.487292236328125,1.0336755239844322,0.04126023114919662,3.175722624236345
1790108043537236200,4.497236328125,0.5107214710690081,-0.017294249150156975,2.8557261157274243
1790108043547181300,4.507181396484375,-1.1809060666024684,-0.1007213048994541,2.628989490196109
1790108043557125400,4.51712548828125,-2.283800672763586,-0.13911737878918648,2.0710136621296407
1790108043567070200,4.5270703125,-1.6731963934458791,0.026076690542697904,1.7261353719510137
1790108043577014300,4.53701416015625,-0.18423092436566949,0.259327228012681,1.9240999303758144
1790108043586958000,4.5469580078125,1.1684368995212018,0.5694435630202294,1.3320913381956516
1790108043596903400,4.5569033203125,2.0890869328282773,0.9875117387026547,0.9055049250148236
1790108043606847200,4.56684716796875,3.0765023715496063,1.5367659156531095,0.6599610154218971
1790108043616792300,4.576792236328125,3.365057447612285,1.8589140492379663,0.12228943197652697
1790108043626736000,4.586736083984375,2.886913865673542,2.229189961653948,-0.8969142068020999
1790108043636681200,4.59668115234375,2.856268552041054,2.405870470640063,-1.9632403928920625
1790108043646625300,4.606625244140625,2.962460981827974,2.4420552982211112,-2.246458345710486
1790108043656569300,4.6165693359375,3.2212977959752083,2.3100386913478372,-1.9200160220630467
1790108043666514400,4.626514404296875,2.8307997642636296,1.8630787677019833,-1.4094883200004695
1790108043676458200,4.636458251953125,2.289135165659338,1.2796405815988778,-1.159388354538381
1790108043686403300,4.6464033203125,1.4219101408086716,0.7500877149403095,-0.8953316137857734
1790108043696347100,4.65634716796875,1.2422045849129557,0.4496656754732132,-0.6968710885375737
1790108043706292500,4.66629248046875,1.4587011175893245,0.3655442077189684,-0.49203123751580713
1790108043716236300,4.676236328125,1.7437151600442826,0.4228694384843111,-0.188883134085685
1790108043726181400,4.686181396484375,0.7945604783952236,0.709507867270708,0.6425482544586062
1790108043736125200,4.696125244140625,0.21157368932142853,1.1367916150659323,1.2102528648570179
1790108043746069200,4.7060693359375,0.11047449102029204,1.333289169678092,1.3297408295467494
1790108043756014300,4.716014404296875,-0.07488792159333825,1.2379571566015481,1.1570841692492364
1790108043765958400,4.72595849609375,-0.4517689313627779,1.0068705191671847,1.2026523267254232
1790108043775903200,4.7359033203125,-1.1522647862687707,0.6719114193260669,1.440364812040329
1790108043785847300,4.745847412109375,-1.5943313849151133,0.3085422175586223,1.3526669471040367
1790108043795792400,4.75579248046875,-1.283389558868855,-0.2849082439929247,0.8185770215377212
1790108043805736200,4.765736083984375,-1.3616414039373397,-0.6958049206107855,0.6089625034600495
1790108043815681300,4.775681396484375,-1.1613666688740252,-0.929379283207655,0.36772681245505806
1790108043825625000,4.785625,-0.5766098013877868,-1.1608932061433792,-0.09811258370578288
1790108043835569200,4.795569091796875,-0.010924714118242264,-1.228848551994562,-0.48474020372480153
1790108043845514000,4.805513916015625,-0.02151873497739434,-1.021107718834281,-0.6773527335971593
1790108043855458300,4.815458251953125,-0.042674774122238156,-0.802135297563672,-0.9796873286873101
1790108043865403100,4.825403076171875,-0.06953136299625039,-0.6159340960383415,-1.374209209087491
1790108043875347200,4.83534716796875,-0.11805866253897547,-0.4750578908830881,-1.5975424559161067
1790108043885292000,4.8452919921875,0.003075461922585964,-0.49855625537037845,-1.8271178120046854
1790108043895236400,4.855236328125,0.15083002841472626,-0.5094540814816951,-2.0167656468525528
1790108043905180200,4.86518017578125,0.2880570634126663,-0.3977753292381763,-2.2662577095493672
1790108043915125200,4.875125244140625,0.2476537413537502,-0.3249211054295301,-2.43801946683377
1790108043925069000,4.885069091796875,0.09022314563021064,-0.3705535603135824,-2.4043925070419907
1790108043935014100,4.89501416015625,-0.11862886364236473,-0.3917231895923614,-2.4556933629512785
1790108043944958200,4.904958251953125,-0.24724706024900078,-0.32483634975552556,-2.786591789224744
1790108043954903000,4.914903076171875,-0.1700339105784893,-0.21354630456864832,-2.635742471587658
1790108043964847000,4.92484716796875,-0.013820435559749603,-0.06208966868817806,-2.681013399682939
1790108043974792200,4.934792236328125,0.3075754183530807,0.11814239529967308,-2.6593030876561996
1790108043984736300,4.944736328125,0.3688881113193929,0.31340543968081475,-2.3548583685442805
1790108043994680000,4.95468017578125,0.20615619431734084,0.44046471640765666,-2.1167662362620234
1790108044004625200,4.964625244140625,-0.1762825957097113,0.575949291652441,-1.6558301019728183
1790108044014569000,4.97456884765625,-0.28922055423408743,0.5441366878062487,-1.3253876027733087
1790108044024514300,4.984514404296875,-0.24119608964696526,0.5442302113085985,-1.3726955896541475
1790108044034458000,4.9944580078125,-0.4546460942342877,0.5776999347120523,-1.6160770605161785
1790108044044403200,5.0044033203125,-0.6013795009851456,0.6546528260111808,-2.0488649586856362
1790108044054347000,5.014346923828125,-0.45659342890977855,0.5770072762727737,-2.538539988464117
1790108044064291300,5.024291259765625,-0.17064181334376335,0.4232008623957634,-2.9806790678247808
1790108044074236200,5.034236083984375,0.15270459011495113,0.3823381061315536,-3.1841105133533474
1790108044084180200,5.04418017578125,0.7268284199059009,0.45950610148608684,-3.016175620880723
1790108044094125300,5.054125244140625,0.8156362919107079,0.5129711496919394,-2.8383742911711334
1790108044104069000,5.064069091796875,0.5374442044302821,0.5584837775886059,-2.3955896073833105
1790108044114014200,5.07401416015625,0.43843700997233387,0.5859563064038753,-2.1926061978831886
1790108044123958000,5.0839580078125,0.206523274064064,0.7976023303091525,-2.0003391204476357
1790108044133903400,5.0939033203125,-0.264107155765593,0.7935475019603967,-1.4361562544345854
1790108044143847200,5.10384716796875,-0.7894602326467632,0.6049614511251449,-1.055643610164523
1790108044153792300,5.113792236328125,-1.314902156855166,0.3831424082517624,-0.6348042162030935
1790108044163736000,5.123736083984375,-1.6348904820576309,0.12220482243299484,-0.5439753597646951
1790108044173680000,5.13368017578125,-1.9143176642909645,0.09623509939610958,-0.44312195291817186
1790108044183625200,5.143625244140625,-1.6789198856592178,0.14463994160294533,-0.19371990659236907
1790108044193569300,5.1535693359375,-1.2051134561419485,0.2938976061344147,0.07458207051455974
1790108044203514000,5.16351416015625,-1.1316568825259805,0.43959027166068554,0.35212124704420567
1790108044213458200,5.173458251953125,-0.941663887502253,0.2101484788239002,0.5791062943786383
1790108044223403300,5.1834033203125,-0.936669440215826,-0.06318506270945072,0.9697896195292472
1790108044233347000,5.19334716796875,-1.1941302898347377,-0.5085112476736307,1.2117881116002798
1790108044243291100,5.203291015625,-1.5184958072081207,-0.6887994257628918,1.5736135910570621
1790108044253236000,5.213236083984375,-2.007581931182742,-0.5036421803325415,1.8900854325711727
1790108044263180300,5.22318017578125,-2.373210310053825,-0.24975100589394567,1.5809627847760914
1790108044273125000,5.233125,-2.3634666224136947,-0.08062076615691184,1.2446382418006658
1790108044283069200,5.243069091796875,-2.070947611156106,0.11989362288117408,1.6043237866193054
1790108044293014000,5.253013916015625,-1.6012351729542016,0.10157470685839652,1.789848111796379
1790108044302958300,5.262958251953125,-1.1302362020730972,-0.6598533172637224,2.1643086164206267
1790108044312903200,5.272903076171875,-1.1227835479795931,-1.1491524994671345,2.914987867513299
1790108044322847200,5.28284716796875,-1.7279826072528957,-1.2029431263655423,3.4598289041966197
1790108044332791000,5.292791015625,-2.5487638608366248,-1.3054624205976724,3.2280197977066036
1790108044342736100,5.302736083984375,-3.4160312635242938,-1.2390198173969984,2.8244699767202137
1790108044352680200,5.31268017578125,-3.750247143782675,-1.2687871791511773,2.2412024710088967
1790108044362625000,5.322625,-3.3649177468806504,-1.3178121990829705,2.200602749595046
1790108044372569000,5.332569091796875,-2.4854928734093904,-1.3781857115030287,2.592365686675906
1790108044382514200,5.34251416015625,-1.075724275162816,-1.5228396816313265,2.6233482694387433
1790108044392458200,5.352458251953125,-1.0861810795083642,-1.4526397717237471,2.6480595168471335
1790108044402403000,5.362403076171875,-1.3565239147931336,-1.2988041317522525,2.7449726616352796
1790108044412347100,5.37234716796875,-1.3176669453933834,-1.014109822770953,2.751898661506176
1790108044422291000,5.382291015625,-1.2163561501681803,-0.6049187810271978,2.9587995367109774
1790108044432236300,5.392236328125,-0.9164631030112504,-0.19222996029555797,2.9791566805630922
1790108044442180000,5.40218017578125,-0.2581371414452791,0.2634282335907221,2.0965292116582392
1790108044452125200,5.412125244140625,0.11857552601993084,0.6958779858469962,1.2383575540959835
1790108044462069200,5.4220693359375,0.03725742524862289,0.8420686640232801,0.9940022697657346
1790108044472014000,5.43201416015625,-0.09118687609583138,0.5920177983999252,0.9535071777701377
1790108044481958100,5.441958251953125,-0.3904585764840245,0.1964239048540592,0.9719897599220275
1790108044491903000,5.451903076171875,-0.4980515207186341,-0.1669271767348051,1.0000450570613144
1790108044501847300,5.461847412109375,-0.37245296419411894,-0.4210024755686521,0.8630518308192491
1790108044511791000,5.471791015625,-0.22996932384222746,-0.7011562185108661,0.9082891489058732
1790108044521736200,5.481736083984375,0.08880027322024106,-1.0007599273324013,1.0872171445578336
1790108044531680000,5.491679931640625,0.4119380023643374,-1.132591825288534,0.5913216328293085
1790108044541625300,5.501625244140625,0.40412177565544843,-1.0534235960274934,-0.009576222118735312
1790108044551569200,5.511569091796875,0.36987200779020785,-0.9643974050968885,-0.15270985081195831
1790108044561514200,5.52151416015625,0.34223318249732254,-0.8925567422449588,0.011479425391554832
1790108044571458000,5.5314580078125,0.28619273084551095,-0.8627800281405449,0.2896048773765564
1790108044581403100,5.541403076171875,0.1806383067011833,-0.8019459124714136,0.5762117419809103
1790108044591347200,5.55134716796875,-0.023053251068294048,-0.9537824875801801,1.1354992371678352
1790108044601291300,5.561291259765625,-0.19859715723991392,-1.2391723776102066,1.786330459064245
1790108044611236000,5.571236083984375,-0.24458047138825056,-1.5233756882041691,2.203090474757552
1790108044621180200,5.58118017578125,-0.34540099887847897,-1.744036208692193,2.3872177926182747
1790108044631125200,5.591125244140625,-0.43019262097924943,-1.8484218813180922,2.348335396516323
1790108044641069000,5.601069091796875,-0.4328989573284983,-1.7986802375495432,2.2816309275090694
1790108044651014100,5.61101416015625,-0.2532477619685232,-1.553559229543805,2.0229583640128372
1790108044660958000,5.6209580078125,0.025106530336290598,-1.0932482414156197,1.6170482436358928
1790108044670903300,5.6309033203125,0.3666447163067758,-0.545829463198781,0.9582052724584936
1790108044680847000,5.64084716796875,0.7908348820008337,-0.02819967404603958,0.1519017492994666
1790108044690791200,5.650791259765625,1.2403764927029608,0.4671761977225542,-0.6315235870972276
1790108044700736000,5.660736083984375,1.5494449260927736,0.8962164337962866,-1.0858560853376984
1790108044710680300,5.670680419921875,2.0201276706315574,1.245053836864233,-1.3961997993603348
1790108044720625200,5.680625244140625,2.8240508745253083,1.926780547761917,-2.055380039668083
1790108044730569200,5.6905693359375,2.928335424864292,2.7174539555907247,-2.526604051476717
1790108044740514000,5.70051416015625,3.3006267687559125,3.2183442068666217,-3.4272345023229716
1790108044750458400,5.710458251953125,4.114751194798946,3.400793946903944,-3.7160453067123886
1790108044760403200,5.7204033203125,3.6688393189013,2.991639145517349,-3.446262151136994
1790108044770347000,5.730346923828125,2.8636417111575603,2.371550267887115,-3.205251793320477
1790108044780291000,5.740291015625,2.2042776387155056,1.7803560608297586,-2.8723674539268016
1790108044790236200,5.750236083984375,1.4969057605601845,1.3019400916904211,-2.6284301027476786
1790108044800180200,5.76018017578125,0.4293571930684149,0.8831517850399017,-2.3928785948589444
1790108044810124500,5.77012451171875,-0.7340365977190435,0.5832096380442381,-2.094799026864767
1790108044820068600,5.780068603515625,-2.0976282589413224,0.46261926507055756,-1.8932588019102812
1790108044830013700,5.790013671875,-2.780135744953155,0.43073885668516154,-1.4859648259595035
1790108044839957800,5.799957763671875,-2.0104981108903885,0.2692132467329502,-0.9456053186044097
1790108044849902600,5.809902587890625,-0.8888191631518304,0.2916998038291931,-0.7124936050832271
1790108044859846700,5.8198466796875,0.41778132156506176,0.3926408889591694,-0.6616846243441105
1790108044869790700,5.829790771484375,1.5098234020613133,0.453545147255063,-0.39550066230446096
1790108044879735800,5.83973583984375,1.6775168869934975,0.22596388759315011,-0.007138765838742255
1790108044889679600,5.8496796875,1.1696632264457643,0.10890227326750755,0.36531259092018004
1790108044899624700,5.859624755859375,0.25006883967146276,-0.06228139186799526,-0.028638503854721782
1790108044909568800,5.86956884765625,0.558869562035799,-0.649728813612461,-0.5360124180614948
1790108044919513600,5.879513671875,1.304362934923172,-0.9739531689494848,-0.7274550273716449
1790108044929457700,5.889457763671875,1.5457272207438946,-0.7276753921240567,-0.62338280460909
1790108044939402500,5.899402587890625,1.0455540316961704,-0.3299368877649307,-0.8235786292172967
1790108044949346800,5.909346923828125,0.27620076753273604,0.2208271092265844,-1.11871922115013
1790108044959290600,5.91929052734375,0.5054593858223408,0.5623170721411704,-1.466622850499302
1790108044969235700,5.929235595703125,1.2960592169582843,0.6768669959068297,-1.6930455877758561
1790108044979179500,5.939179443359375,1.1148353654541074,0.8933575372338295,-1.3692838815145194
1790108044989124900,5.949124755859375,0.984721596527472,0.7964923232406377,-0.702462771064788
1790108044999068700,5.959068603515625,1.417743814909458,0.7718430351525545,-0.37470308120846746
1790108045009013800,5.969013671875,1.688502683649212,0.9750649295836686,-0.2302884727939963
1790108045018957600,5.97895751953125,1.7766121981263159,1.2746826669305562,-0.7065992863476276
1790108045028902700,5.988902587890625,1.3788077889241277,1.4076666575312613,-1.282394848743081
1790108045038846700,5.9988466796875,0.8950142183996737,1.4902689528942108,-1.7010396552696823
1790108045048790800,6.008790771484375,0.43656062164120374,1.3770879793941975,-1.536588659390062
1790108045058735600,6.018735595703125,1.032179294077307,0.8733008376330137,-1.442545809341222
1790108045068680000,6.028679931640625,0.9999627856053411,0.42869536815881726,-0.9929613824106752
1790108045078624800,6.038624755859375,0.8533541742779314,0.21884850262999533,-0.3540450547136366
1790108045088568600,6.048568603515625,0.47407998576164245,0.13453122004270554,0.5921510693907738
1790108045098513700,6.058513671875,-0.3712719377160072,0.4534831879347562,1.7319029955670238
1790108045108457700,6.068457763671875,0.6024832244433462,0.557086770272255,1.8658046855345367
1790108045118401800,6.07840185546875,1.1990050562642514,0.5872913543999195,1.9428399944201111
1790108045128346600,6.0883466796875,1.0906311907850206,1.039636478215456,2.0781120959579944
1790108045138290700,6.098290771484375,1.0219919543229044,1.47367145383656,2.156289852876961
1790108045148235800,6.10823583984375,1.3053566221356392,1.5514374150842427,1.84344643099308
1790108045158179800,6.118179931640625,1.6493384018659591,1.3592670760214327,1.2663219580814242
1790108045168124700,6.128124755859375,1.0413384598277509,1.178290331146121,1.1279153579100967
1790108045178068700,6.13806884765625,0.23062983357757327,1.1422685851722956,1.2316229851439595
1790108045188013800,6.148013916015625,0.5050748434841632,0.7034872918069363,0.7166334813669324
1790108045197957600,6.15795751953125,0.8744963310278951,0.14705167891979218,0.27892770827859636
1790108045207902700,6.16790283203125,0.9972902053952216,-0.17678455388247966,0.0181470665872097
1790108045217846500,6.177846435546875,0.8544855163954198,-0.2107242328852415,-0.08208645479530095
1790108045227790600,6.18779052734375,1.0150970802426338,-0.06878712050020694,-0.3304974442571401
1790108045237735700,6.197735595703125,1.2263454831324516,0.31149522214531894,-0.5176046547114849
1790108045247679700,6.2076796875,0.9371838194787502,0.8560492585808038,-0.3365425696402788
1790108045257624600,6.21762451171875,0.39607890058383344,1.2056079616606235,-0.4338540660962462
1790108045267568600,6.227568603515625,0.47871071430221196,1.3486474823296069,-1.2334189286500215
1790108045277513700,6.237513671875,1.1967452946387231,1.2270967398911714,-1.7441826314255595
1790108045287457800,6.247457763671875,1.617866574281454,1.044559906092286,-2.2644904076159
1790108045297402600,6.257402587890625,1.7464485305309294,1.1033967104643583,-2.63948691881299
1790108045307346700,6.2673466796875,1.6664986493729055,1.004035588002205,-3.1212481067270037
1790108045317290800,6.277290771484375,1.56184468119964,1.103669682186842,-3.4222704501748082
1790108045327235600,6.287235595703125,1.451212515399605,1.0501794995397329,-3.432752096700668
1790108045337179600,6.2971796875,1.1636651550747454,0.7590987043917179,-3.580964636093378
1790108045347124500,6.30712451171875,0.8748235171556472,0.5661696559160947,-3.345837783357501
1790108045357068800,6.31706884765625,0.9758043497741222,0.20098668272495268,-2.759827993200719
1790108045367013600,6.327013671875,1.1289267269097267,0.0820996065378189,-2.029877641882002
1790108045376957700,6.336957763671875,1.2023545128226278,0.0978378584176302,-1.9472534269481896
1790108045386902800,6.34690283203125,1.1901976265609264,-0.03561725682616233,-1.5539020516321063
1790108045396846800,6.356846923828125,0.7021069433644413,-0.37235505677759645,-1.2250509132772682
1790108045406790700,6.366790771484375,0.3053027972459793,-0.7863339173197745,-0.6616682577311992
1790108045416735700,6.37673583984375,0.18398484065011142,-1.090625491696596,-0.08296762154400349
1790108045426679600,6.386679443359375,-0.2094564049065113,-1.1614999398648738,0.38569910699725146
1790108045436624600,6.396624755859375,-0.9041782064557075,-0.9973550873249769,0.7487023980617523
1790108045446568700,6.406568603515625,-0.8974562047243118,-0.4068757505387068,1.334326111510396
1790108045456513500,6.416513427734375,-0.8703121772110461,0.19440438172519206,1.3315373575747012
1790108045466457600,6.42645751953125,-0.8749357453584671,0.40908056710660456,0.784428960481286
1790108045476402700,6.436402587890625,-0.7053484095036983,0.43595454550683493,0.5441214902371168
1790108045486346800,6.4463466796875,-0.7493216990038752,0.49164253045916556,0.3947165261894464
1790108045496290600,6.45629052734375,-0.4571139456525445,0.4844365446031093,0.5255383703202009
1790108045506235600,6.466235595703125,-0.19370266319662333,0.4112532349705696,0.6633101797193288
1790108045516179700,6.4761796875,-0.04147036676853895,0.41476153535246846,0.8268278402715921
1790108045526124800,6.486124755859375,-0.020251345390081405,0.6383563557267189,0.8101233737081289
1790108045536068600,6.496068603515625,-0.3086149905338883,1.064468721655011,0.7651432452529668
1790108045546013700,6.506013671875,-0.48119624750763174,1.740643643644452,0.401472430190444
1790108045555957800,6.515957763671875,-0.3374015245571732,2.2150836948901413,-0.21935762119591234
1790108045565902600,6.525902587890625,-0.3541056988596916,2.372205516925454,-0.7525701794058084
1790108045575846700,6.5358466796875,0.1378983583882451,2.4572750791847704,-0.6737053170055151
1790108045585790700,6.545790771484375,0.5729612157523631,2.417543957298994,-0.02921148143708706
1790108045595735800,6.55573583984375,0.34509909332245586,2.202163423040509,0.9696610247135162
1790108045605679900,6.565679931640625,-0.127159814491868,1.7294383590191602,1.899484544557333
1790108045615624700,6.575624755859375,-0.9742597506806254,0.6918728418588638,1.9281559277683495
1790108045625568500,6.585568603515625,-2.041744897547364,-0.015338438907265663,1.6267594903111458
1790108045635513900,6.595513916015625,-2.875904395881295,-0.2031423994541168,2.091954743349552
1790108045645457700,6.605457763671875,-2.9472680888712404,-0.6572662233799695,3.17580679538846
1790108045655402800,6.61540283203125,-2.1025492026001213,-1.2169044317007065,4.2093455412507055
1790108045665346600,6.6253466796875,-0.46185295687317846,-2.0336983692139388,4.952863814672828
1790108045675290600,6.63529052734375,-0.14980916093438862,-2.6949574616223573,5.028575766000151
1790108045685235700,6.645235595703125,-1.853226358990371,-2.9497137284576893,4.5564697106599805
1790108045695179800,6.6551796875,-2.929090627145767,-3.3602421562850475,4.273056089138985
1790108045705124600,6.66512451171875,-2.5969860399529336,-4.065058650869131,4.761805820766091
1790108045715068700,6.675068603515625,-1.6567857952624558,-4.3769384884178635,5.5900528801858425
1790108045725013800,6.685013671875,-1.3144459375202655,-4.36467346560657,5.445309478208422
1790108045734957600,6.69495751953125,-1.7187977225393056,-4.214491087445617,4.205247458282113
1790108045744902700,6.704902587890625,-1.971286921225488,-4.051219510608911,3.5013533392399547
1790108045754846700,6.7148466796875,-1.8200804607138037,-3.6499592618644234,3.440288921946287
1790108045764790800,6.724790771484375,-1.1216118738517165,-3.2095167572885748,2.9038094708949327
1790108045774735600,6.734735595703125,-0.5241439933523535,-2.773731723129749,2.227217784798145
1790108045784679700,6.7446796875,-0.1732838522851467,-2.2029741549015043,1.9150398410856722
1790108045794624800,6.754624755859375,0.07830810530036687,-1.5451234096318482,1.733717059251666
1790108045804568800,6.76456884765625,-0.0027817396730184553,-1.0450082343816756,1.4514637136816977
1790108045814513700,6.774513671875,-0.14331921439319847,-0.7148650103896856,1.0709060612261294
1790108045824457700,6.784457763671875,0.02212386126369238,-0.34817806237637994,0.9582856442183255
1790108045834402800,6.79440283203125,0.5562845139786601,0.12480886745154857,0.9002145635217428
1790108045844347000,6.804346923828125,1.303809538824111,0.6593903759270906,0.5079343245685101
1790108045854290700,6.814290771484375,1.824869156295061,1.278688979962468,-0.06707797849476337
1790108045864235500,6.824235595703125,1.6817559858679771,1.705911352959275,-0.5341472087115049
1790108045874179600,6.8341796875,1.0864541973613202,2.0005238293647767,-0.3869096518307924
1790108045884124700,6.844124755859375,0.8327331187926232,2.312379701516032,0.08036182295978068
1790108045894068700,6.85406884765625,0.892454889305681,2.596023624661565,0.41605742038190363
1790108045904013600,6.864013671875,0.9653706340432167,2.728509602612257,0.5898515602767467
1790108045913957600,6.87395751953125,1.2122541216768323,2.739399245417118,0.4450888690769672
1790108045923902700,6.88390283203125,1.717644460850954,2.914271828198433,-0.1739689119398594
1790108045933846800,6.8938466796875,2.1953364996299145,3.3186931713223458,-0.9356167162925004
1790108045943791600,6.90379150390625,2.4021241237185893,3.6552146981745954,-1.8413398141026496
1790108045953735700,6.913735595703125,2.468824062681198,3.766946057388186,-2.146898047414422
1790108045963679700,6.9236796875,2.927764931499958,3.734695646646619,-2.390411035701632
1790108045973624800,6.933624755859375,3.4337329244315624,3.5245986057490106,-2.831379317717254
1790108045983568600,6.943568603515625,3.0255893459141254,2.986920300301909,-2.7343799559503794
1790108045993513500,6.953513427734375,2.4578946723878383,1.81772805236876,-2.3333505933523178
1790108046003457800,6.963457763671875,1.8774632668852804,0.25190496905744075,-1.557729793226719
1790108046013402600,6.973402587890625,1.181121170657873,-1.4522195004850624,-0.7404998023837804
1790108046023346700,6.9833466796875,0.23721301136016845,-3.095096597382426,-0.5342711273521185
1790108046033291500,6.99329150390625,-0.3528082063950598,-4.453789088386297,-0.19947832398861645
1790108046043235800,7.00323583984375,-0.7241010407686234,-5.327242486232519,0.06659253306537866
1790108046053179600,7.0131796875,-1.4256969658710061,-5.490014296853542,0.038844986701011656
1790108046063124700,7.023124755859375,-2.616769767831266,-5.205408835199475,-0.3499915415391326
1790108046073068500,7.033068603515625,-3.0598747696146367,-4.77157961128354,-1.1773270390719175
1790108046083014000,7.043013916015625,-2.6836694671496746,-3.891396028399467,-1.7433169545069336
1790108046092957700,7.052957763671875,-2.1631854576095937,-2.2757500527769325,-1.5550032908722757
1790108046102902500,7.062902587890625,-1.6710519287630914,-0.4731102639466524,-1.6734432078137993
1790108046112846600,7.0728466796875,0.13913696027249098,1.4797849682807922,-1.9989596487879753
1790108046122791700,7.082791748046875,1.4323298280142247,3.160506934925914,-1.797981441630423
1790108046132735700,7.09273583984375,1.5338241631127894,4.157395573782921,-0.9983072734832763
1790108046142679800,7.1026796875,0.48764337782040235,4.824218730059266,-0.06586465718224645
1790108046152624600,7.112624755859375,0.8282828613854945,4.955069800284504,0.23858824523612857
1790108046162568700,7.122568603515625,2.2034617922879756,4.428080062112212,-0.027071985190361737
1790108046172513800,7.132513671875,0.9815268190741538,4.0296792944520705,0.11029095114693045
1790108046182457600,7.14245751953125,-0.7116119999431073,3.1451959685474633,0.08026260036900638
1790108046192402700,7.152402587890625,-0.26848157145753504,1.8356272816747425,-0.38533173498958345
1790108046202346800,7.1623466796875,1.390678259459883,0.7123702709645032,-0.3510486493766308
1790108046212291800,7.172291748046875,1.0221711102820932,0.17991583764553068,0.5463027797989547
1790108046222235600,7.182235595703125,0.7778525047004222,0.10085516041219234,1.1695315628901124
1790108046232180500,7.192180419921875,2.490377722841501,-0.09595452888906002,0.3217885064922273
1790108046242124800,7.202124755859375,3.2408968149363995,-0.18849486542046068,-1.3058430904783307
1790108046252068900,7.21206884765625,2.013346924450248,0.2657879484593868,-2.2834425069756805
1790108046262013700,7.222013671875,1.5004526393868027,0.9172650670439004,-3.853521932557225
1790108046271957800,7.231957763671875,1.3283821084141731,1.2198077519267796,-4.849812020999193
1790108046281902800,7.24190283203125,0.6892458543561398,1.1485475193113088,-4.618431076793373
1790108046291846700,7.2518466796875,0.11943301963210105,0.6399316422194242,-3.9745343303352594
1790108046301791700,7.261791748046875,-0.4946960728108883,0.09323182592689991,-2.938490031392872
1790108046311735600,7.271735595703125,-0.1821254765190184,-0.7258820789664984,-2.0772529949106273
1790108046321679600,7.2816796875,-0.21965981901288031,-1.7092840442627668,-1.097768933710456
1790108046331624700,7.291624755859375,-0.6447254523672163,-2.4007670100212097,-0.2936044684067368
1790108046341568800,7.30156884765625,-1.1549931883193552,-2.8463936392366884,0.3964411580249667
1790108046351513600,7.311513671875,-2.3596515941701828,-2.853209164470434,1.601092549613118
1790108046361457700,7.321457763671875,-1.9835189185500144,-2.472350483241677,2.085335325209796
1790108046371402800,7.33140283203125,-0.6183354580916464,-2.222167515671253,1.6100564850524066
1790108046381346800,7.341346923828125,-0.2573449681542814,-1.453693664690852,1.3421537363961338
1790108046391291600,7.351291748046875,-1.1931798572421073,0.19191724108457564,1.7214429763510821
1790108046401235500,7.3612353515625,0.9680218792043626,1.440396376222372,0.6737739983275532
1790108046411180800,7.371180908203125,1.2916811480045318,2.101262669920921,0.3568292786046862
1790108046421124600,7.38112451171875,-0.8527145612001419,3.6442467294365164,1.370001528264582
1790108046431068700,7.391068603515625,2.035528507250547,4.175639086481929,-0.571048075607419
1790108046441013800,7.401013671875,1.4802350501358508,3.9858629490792747,-0.8189373792827129
1790108046450957800,7.410957763671875,0.8536018654286861,4.114250844061375,-0.8492951081454754
1790108046460902700,7.420902587890625,2.265517997097969,3.1224054600685833,-2.1533964695230123
1790108046470846700,7.4308466796875,1.2617583034276962,2.916753708142042,-1.2669400899797678
1790108046480791800,7.440791748046875,0.912031696435064,2.802716410073638,-0.8170712931498885
1790108046490735900,7.45073583984375,1.0908208681382239,2.4193004455775022,-1.0770774433374404
1790108046500680700,7.4606806640625,0.8924949290551245,2.184343688711524,-1.195327098403871
1790108046510624800,7.470624755859375,1.1814705686174332,1.8120763102173805,-1.3937345782905817
1790108046520568600,7.480568603515625,1.2982662254832684,1.712694729489088,-1.231750703176856
1790108046530513700,7.490513671875,1.0555936335429548,1.5248539440631865,-1.1729743968203663
1790108046540457700,7.500457763671875,0.5896002158641814,1.2203671393752098,-1.4131924352154135
1790108046550402600,7.510402587890625,0.2420984453141689,0.9034446314841509,-1.9440210208982227
1790108046560346600,7.5203466796875,0.22362302355542776,0.7928343852549791,-2.2656492222622036
1790108046570291700,7.530291748046875,0.25572131247520447,0.7168862870842218,-2.0171654598250983
1790108046580235800,7.54023583984375,0.02374664015993476,0.3879068461745977,-1.67211751216799
1790108046590180600,7.5501806640625,-0.1345801737509668,-0.052285483032464976,-1.8414345066487787
1790108046600124700,7.560124755859375,0.012239742239564656,-0.1821376053482294,-1.6776988194316624
1790108046610068700,7.57006884765625,0.149759038182348,-0.18480536325275898,-1.292984631818533
1790108046620013800,7.580013916015625,0.1956077661655843,-0.3935872298985719,-0.6419336296916007
1790108046629957600,7.58995751953125,0.2652200854435563,-0.7064777057945728,0.06900748525261878
1790108046639902500,7.59990234375,0.49472296081781386,-1.0334417152285575,0.3582780161082744
1790108046649846800,7.6098466796875,1.4024889626324175,-1.0472036985993385,0.4654810842424631
1790108046659791600,7.61979150390625,1.5630352061584591,-0.5304366637557745,0.907812179043889
1790108046669735700,7.629735595703125,0.7363057116948067,0.211521520742774,1.4197726903885601
1790108046679680500,7.639680419921875,-0.08930763822048902,0.6435556779354811,1.597871834000945
1790108046689624800,7.649624755859375,-0.8496116267487406,0.6775356889486313,1.668205014899373
1790108046699568600,7.659568603515625,-1.3576990960523485,0.4739484683364629,1.5729712015002966
1790108046709513700,7.669513671875,-1.4013546979054807,0.44576632994711396,1.5595336277782916
1790108046719457500,7.67945751953125,-1.1456421532586216,0.6124293027877807,1.7196540471076964
1790108046729403000,7.68940283203125,-1.0325637633502482,0.9502817859828472,1.5115619162917135
1790108046739346700,7.6993466796875,-0.9565680266454816,1.4091250396460293,0.8575719381034373
1790108046749291800,7.709291748046875,-0.7966235484048724,1.7157313207060099,0.575734772118926
1790108046759235600,7.719235595703125,-0.4700494150713086,2.0730758553564548,0.497827941095829
1790108046769180700,7.7291806640625,0.056199149344861504,2.266381335929036,0.3699304599791765
1790108046779124700,7.739124755859375,0.3062181585252285,2.347238833451271,0.48520635993182654
1790108046789068800,7.74906884765625,0.15373948612064123,2.4677970577210186,0.868244138765335
1790108046799013600,7.759013671875,-0.20861703147292135,2.2473516412883994,1.0517454336822032
1790108046808958200,7.768958251953125,-0.6600564386203884,1.3993956727921961,1.2825520851314067
1790108046818903600,7.778903564453125,-1.27756669793427,0.5482452921688556,1.8419336883425712
1790108046828847400,7.788847412109375,-2.0845631717935205,-0.1718377451300621,2.246274951967597
1790108046838792400,7.79879248046875,-3.1269840200304984,-0.9916302799373865,2.4892922656923533
1790108046848736300,7.808736328125,-4.183206306865811,-1.6799521513164042,2.500064419597387
1790108046858681300,7.818681396484375,-4.2960581945419305,-2.2955466401368376,2.7194840001136065
1790108046868625400,7.82862548828125,-2.8538123910605906,-2.9962206280887127,3.7981700476914644
1790108046878569500,7.838569580078125,-1.5672124918431043,-3.0924925523638724,4.668186456826329
1790108046888514600,7.8485146484375,-1.3707669596791268,-2.9311481441974636,4.817893034169078
1790108046898458400,7.858458251953125,-1.6029720797494054,-2.8941420633614063,4.338741736492515
1790108046908403500,7.868403564453125,-1.9368299403503535,-2.7780548470258712,3.7553228396117686
1790108046918347300,7.87834716796875,-1.876544690735638,-2.63389187528491,3.3814375045269727
1790108046928292600,7.888292724609375,-1.0656111696884036,-2.3249884231984614,3.153897161397338
1790108046938236400,7.898236328125,-0.854467250086367,-1.616003118497133,2.7541116613805294
1790108046948181500,7.908181396484375,-1.0306251965031028,-1.0179086305320262,2.2007009492725134
1790108046958125300,7.918125244140625,-0.3569982054308057,-0.7053893260359764,1.804298077431321
1790108046968070400,7.9280703125,0.025687106703221798,-0.5163163684666157,1.8597177668362854
1790108046978014500,7.938014404296875,-0.11268676024228334,-0.6047288114130497,2.147688905531168
1790108046987958500,7.94795849609375,-0.342612829464674,-0.6118383511573076,2.7916765451431274
1790108046997903400,7.9579033203125,-0.1364873225465417,-0.7058323936283588,2.725448461475968
1790108047007847400,7.967847412109375,0.08083148629814386,-0.8096294527113437,2.4096336225658654
1790108047017792500,7.97779248046875,0.3653662208035588,-0.8045540491431951,2.239958023905754
1790108047027736300,7.987736328125,0.3953463485255837,-0.7336334237456321,2.0645102715849877
1790108047037681400,7.997681396484375,0.377863298805058,-0.6457645861566066,1.945706782028079
1790108047047625200,8.007625244140625,0.5895058155789971,-0.4129132771372795,1.789243716162443
1790108047057570600,8.017570556640624,0.8180702410593629,-0.22708850770890712,1.7605512901633977
1790108047067514400,8.027514404296875,1.2195626911245285,-0.026726678884029388,1.6713707854539155
1790108047077458400,8.03745849609375,1.4185396414622664,0.22566227429807184,1.4689987858504057
1790108047087403300,8.0474033203125,1.3263045714877546,0.5152502005398273,1.5420079079598188
1790108047097347600,8.05734765625,1.3809044689424335,0.8301245437294245,1.6647481524437664
1790108047107292400,8.06729248046875,1.6204698886476456,1.1742939549863338,1.6219436144620178
1790108047117236500,8.077236572265624,1.941856390210241,1.518510127994418,1.4149591526269911
1790108047127181300,8.087181396484375,2.3308885871529577,1.7801204985082149,1.0859142452657222
1790108047137125400,8.09712548828125,2.76828397911787,1.8984914418667553,0.6395856052607297
1790108047147070500,8.107070556640625,3.1092835281670093,1.8926643431484698,0.24779636469483374
1790108047157014300,8.11701416015625,3.199091809386015,1.7824153314471243,-0.3398836967617273
1790108047166958300,8.126958251953125,3.0198236219942567,1.5175228705227375,-0.9772323367506265
1790108047176903400,8.1369033203125,2.5214380470156668,1.2236948224931954,-1.4686539179354905
1790108047186847500,8.146847412109375,1.6592670906841753,1.0263087946087122,-1.7952949790254233
1790108047196792300,8.156792236328124,0.8981064853265881,0.8531506145298481,-2.286905653041601
1790108047206736400,8.166736328125,1.4068378054916857,0.6639005468279123,-2.7124302822098136
1790108047216681500,8.176681396484375,1.2054169691331684,0.8334826219856739,-2.537836808630824
1790108047226625500,8.18662548828125,0.5572355310931801,1.1451964553177356,-2.5276208273038265
1790108047236570400,8.1965703125,-0.12089666244387626,1.2598463323265314,-2.5598227227285504
1790108047246514400,8.206514404296875,-1.9210127780154347,1.1506243255853652,-1.8505007334187626
1790108047256458500,8.21645849609375,-5.111659122878312,0.5709487068861723,-1.7792410853251814
1790108047266403300,8.2264033203125,-5.997886662101745,-0.25278584354519845,-1.693199463163316
1790108047276347400,8.236347412109374,-3.247921014484763,-0.5410357991814613,-1.4670274857774377
1790108047286292200,8.246292236328125,-0.24514789601266382,-0.6288146203994751,-1.8207246038362384
1790108047296236500,8.256236572265625,1.368418058465421,-0.5888093577474355,-1.8265683614283799
1790108047306181400,8.266181396484376,2.158461351697147,-0.37000060260593887,-1.6867787824660538
1790108047316125400,8.27612548828125,1.8878268399894236,0.2220090124875307,-1.1443740330189467
1790108047326070300,8.2860703125,1.1402430706940592,0.8549813370883464,-0.9801517313286662
1790108047336014600,8.2960146484375,0.9829119898222386,1.361801562935114,-1.0556871570453048
1790108047345958400,8.30595849609375,0.8933554914072156,1.5843144332915544,-1.4162243502572178
1790108047355903500,8.315903564453125,0.35660979063510895,1.7906623507887125,-1.734182484806329
1790108047365847300,8.325847412109376,-0.6306966347537935,1.7782938676029443,-1.5364445747442543
1790108047375792400,8.33579248046875,-0.5422537966690957,1.4679752880215644,-1.3769579232737421
1790108047385736400,8.345736328125,0.17486673756241797,0.894128521606326,-1.6537382442601025
1790108047395681300,8.355681396484375,0.7457049698114395,0.5498813689380884,-1.587548885168135
1790108047405625300,8.365625244140626,1.3373157948456704,0.43222588037252424,-1.2175408299081028
1790108047415570400,8.3755703125,1.9239901863910256,0.4577548739045858,-1.1737148399241268
1790108047425514500,8.385514404296876,1.657562478723377,0.5007084649682044,-1.2099424837335944
1790108047435458300,8.395458251953125,0.8660369841098785,0.444065371248126,-1.2485333495430648
1790108047445403400,8.4054033203125,0.664248045091331,0.3452063530892133,-1.5992388845704495
1790108047455347200,8.41534716796875,0.6060884093284606,0.3244967425376177,-1.6081534279100596
1790108047465292500,8.42529248046875,1.4685994112692773,0.41058688001632687,-1.8745275056943296
1790108047475236400,8.435236328125,2.0590648656606674,0.612663696065545,-2.4213401347115635
1790108047485181400,8.445181396484376,1.2521101851165295,0.9563310030192136,-2.11358775235638
1790108047495125200,8.455125244140625,0.9646727149069309,1.065961006039381,-1.498357712934166
1790108047505070300,8.4650703125,0.8675180164478719,0.9294950185418128,-0.9978279655337333
1790108047515014400,8.475014404296875,0.34326866302490233,0.646273120200634,-0.24953897057846186
1790108047524958500,8.48495849609375,0.7158510988175869,0.07924597067236899,0.1444426654651761
1790108047534903300,8.4949033203125,0.7962038616880774,-0.5221627564072608,0.5401692454800009
1790108047544847600,8.50484765625,0.4407622380495071,-0.7980623490363359,1.0345455848172307
1790108047554792400,8.51479248046875,0.18019991528391838,-0.6859528041601181,1.3929846367061138
1790108047564736300,8.524736328125,0.6988425347410142,-0.4903086515069008,1.213630232335627
1790108047574681600,8.534681640625,1.184439939817041,-0.19565525856912136,0.85665306969285
1790108047584625400,8.54462548828125,0.9905411695264279,0.23222002537846564,0.8457403382733464
1790108047594570500,8.554570556640625,-0.4213222090423107,1.0085422517716884,1.735367749068141
1790108047604514300,8.564514404296874,-0.21865561040639875,1.528982422170043,2.0599428175389765
1790108047614459400,8.57445947265625,1.2955424996078013,1.1016261936604976,1.6133523117274045
1790108047624403500,8.584403564453124,1.387701581736654,0.7203805589407682,1.6604621456876396
1790108047634347500,8.594347412109375,0.6458462730906903,0.7634241663753986,2.0254399516955015
1790108047644292400,8.604292236328124,-0.030614041711390018,0.8979992255598306,2.127748233525455
1790108047654236400,8.614236328125,-0.05043605577349662,0.8750193319886922,1.5076526338934897
1790108047664181500,8.624181396484374,-0.06258724294677376,0.8273626778006553,0.3377154128119349
1790108047674125300,8.634125244140625,-0.13444018075838685,0.8308055117309093,-0.9199871854841709
1790108047684070400,8.6440703125,-0.20165902902856467,0.7918027041196822,-2.1288751917287705
1790108047694014200,8.65401416015625,0.12089315531253814,0.7086883675813674,-3.1514103130176663
1790108047703959600,8.66395947265625,0.5417967005513609,0.6556681405335665,-3.694907241615653
1790108047713903400,8.6739033203125,0.3878539469435811,0.8310159396111965,-3.9250516297638414
1790108047723847400,8.683847412109374,0.41817981936335563,1.12911158195734,-3.715935416597128
1790108047733792300,8.693792236328125,0.9905015681684016,1.3981494721233845,-2.928531239697337
1790108047743736600,8.703736572265624,1.3956889272287487,1.4795453143060207,-2.1770848036244512
1790108047753681400,8.713681396484375,1.1538285284541547,1.3758102145433424,-1.6248264764219522
1790108047763625500,8.72362548828125,0.7368386495277285,1.2185638893455266,-0.8681333718672394
1790108047773570300,8.7335703125,0.35837738482952114,0.8181909448295831,-0.3568871462717652
1790108047783514600,8.7435146484375,0.4142322507813573,0.5780220062732696,0.33073651371002194
1790108047793459500,8.75345947265625,0.6035387248456477,0.517764813709259,1.28912970995605
1790108047803403300,8.7634033203125,0.42077188168317076,0.48570904875695703,1.6809025839090346
1790108047813346800,8.773346923828125,0.260979671394825,0.5807084688782692,1.5122189188957214
1790108047823292000,8.7832919921875,0.199180802346766,0.7402443663179874,0.8701496801257133
1790108047833235700,8.793235595703125,0.07528700391352176,0.8850923977136611,0.24211773453652857
1790108047843180800,8.803180908203124,-0.3620905601337552,0.972464391696453,-0.041944706282019614
1790108047853124900,8.813124755859375,-0.15276158099919557,1.0223381374120712,0.20444412970244882
1790108047863069700,8.823069580078124,-0.04686228893995285,0.9400485612601042,0.2577934425741434
1790108047873013800,8.833013671875,0.019978081406652925,0.8302794420301913,0.361111778229475
1790108047882958800,8.842958740234375,0.20184183824956417,0.8501900111585855,0.5212812973976135
1790108047892903000,8.85290283203125,0.6390715182587504,0.9506693239957094,0.1903460462450981
1790108047902846700,8.8628466796875,1.1880325574815274,1.2284744579851627,-0.10169102671444416
1790108047912791800,8.872791748046875,1.0487073811605572,1.7118728917121886,-0.3283142549991607
1790108047922735600,8.882735595703124,0.33127164350003,2.2774901744425295,-0.16212708297669887
1790108047932681000,8.892680908203126,0.09599661446511745,2.544337861087918,0.5273889666229487
1790108047942624800,8.902624755859375,0.007393325121700763,2.2119161707699297,0.8257628413885831
1790108047952569600,8.912569580078125,-0.09779285023212432,1.433393219462037,1.0431208131998777
1790108047962513700,8.922513671875,0.304878142093122,0.6886357596337794,1.2033943772643805
1790108047972458800,8.932458740234376,1.0560483915731311,0.2960363717287779,1.5442624088883399
1790108047982402800,8.94240283203125,1.301324590140581,0.30299978100061414,2.1094062288880346
1790108047992347000,8.952346923828125,1.0204197365701198,0.3625912031322717,2.391979892453551
1790108048002291700,8.962291748046875,0.44204701716303824,0.3370312299400568,2.473086980822682
1790108048012235800,8.97223583984375,-0.35948651511520147,0.2106903306156397,2.449758127683401
1790108048022180900,8.982180908203125,-1.0377063869357108,0.12064473350942134,2.413377485269308
1790108048032124700,8.992124755859376,-1.539588864119351,0.10595745198726654,2.458597852221131
1790108048042069800,9.00206982421875,-1.8182506149381399,-0.19368191266953944,2.5373586697250605
1790108048052013800,9.012013916015626,-1.3805617929846048,-0.9139490743637084,2.812322442808747
1790108048061959000,9.021958984375,-0.7072685639113188,-1.8803648335456846,3.4202602793961763
1790108048071902700,9.03190283203125,-0.4639309321910143,-2.682516497722268,3.906057590958476
1790108048081846800,9.0418466796875,-0.5652741683810949,-3.100626758980751,3.7243472711116072
1790108048091792000,9.0517919921875,-0.8178583518743514,-2.9321611206322906,3.223168850544095
1790108048101736000,9.06173583984375,-1.78263774202615,-2.1941046197474003,3.3418039977967737
1790108048111680800,9.0716806640625,-2.6282757889688013,-1.7068243761509656,3.731119541725516
1790108048121624800,9.081624755859375,-2.2349428260922433,-1.6703262448370455,3.940447936338186
1790108048131570000,9.09156982421875,-1.5291171544656157,-1.8550795856416225,3.6943536993861197
1790108048141513700,9.101513671875,-0.8203469538196921,-1.9893892718881367,3.4112077888906
1790108048151458800,9.111458740234376,0.03807663267701864,-2.1116537155538797,3.0973639577925205
1790108048161402600,9.121402587890625,0.10670067157000303,-2.155299965056777,2.5143933892011643
1790108048171348000,9.131347900390624,-0.23908494271188974,-2.2583213635921475,2.0290660332381725
1790108048181291800,9.141291748046875,-0.5256865466192364,-2.368835748231411,1.6347855603784323
1790108048191235800,9.15123583984375,-0.8406091128647327,-2.3402730860918757,1.4147902258008718
1790108048201180700,9.1611806640625,-1.149733221964538,-2.2539175756752488,1.5396043539494275
1790108048211125000,9.171125,-1.3893711223840712,-2.1984686601758003,1.8803806156367062
1790108048221069800,9.18106982421875,-1.2307821504056453,-2.087932063704729,2.2205665102154013
1790108048231014000,9.191013916015624,-0.939134953546524,-1.9043191251069307,2.4570178895533084
1790108048240958700,9.200958740234375,-0.6693006523057818,-1.6218126815587282,2.4868968949884174
1790108048250902800,9.21090283203125,-0.3762111476838588,-1.2195844645649194,2.399451251247525
1790108048260847900,9.220847900390625,-0.13370441382974385,-0.7712140895992518,2.0093360813736916
1790108048270791700,9.230791748046874,0.10084507740959525,-0.33563889879882336,1.3445382934451102
1790108048280735700,9.24073583984375,0.20828356173485515,0.1281622695326805,1.0021686250865458
1790108048290680800,9.250680908203124,0.23417232849001884,0.6325999841570854,1.1010364110738038
1790108048300625000,9.260625,0.19596768551915883,0.9223954156696796,1.338971891489625
1790108048310569700,9.27056982421875,0.32462694478854537,1.0857482410490513,1.505382350873947
1790108048320513800,9.280513671875,0.5577119164332747,1.3690829521149397,1.444318518102169
1790108048330459000,9.290458984375,0.7061959662437438,1.8035253394931554,1.4662743293225764
1790108048340403000,9.30040283203125,0.9975415498077869,2.2515005776613948,1.289028587669134
1790108048350347800,9.31034765625,1.2528653873980045,2.5683330691814423,0.7420388485193252
1790108048360291800,9.320291748046875,1.4994821869194506,2.9090795202523467,-0.05231763173639774
1790108048370235600,9.330235595703124,2.1176094090878963,3.3493507599145174,-0.653824558493495
1790108048380180700,9.3401806640625,2.3883507421709598,3.589554185262322,-0.8796224418699741
1790108048390124800,9.350124755859374,2.478598437720537,3.7963790726214643,-1.3144845159649847
1790108048400069600,9.360069580078125,2.645188345324993,3.8964614950954912,-2.019953921499848
1790108048410013700,9.370013671875,2.49466928255558,3.548239009055495,-2.778605174385011
1790108048419958800,9.379958740234375,2.215578784930706,2.783607220456004,-3.6414117982715366
1790108048429902800,9.38990283203125,1.7703940542638301,2.027121328911185,-3.739592478777468
1790108048439847700,9.39984765625,0.8391337796151638,1.250566462805867,-3.6498461568787692
1790108048449791700,9.409791748046874,-0.3184532245896756,0.38178807103335854,-3.878867386215925
1790108048459735800,9.41973583984375,-0.9120772891424596,-0.26280747134387494,-3.900610139207542
1790108048469681000,9.429680908203125,-0.5300210686922073,-0.47084114997088905,-3.983054321399331
1790108048479624700,9.439624755859375,-0.36327231726422904,-0.027902736926078794,-3.6142350375324486
1790108048489569800,9.44956982421875,-0.042449002542346716,0.37671208294332026,-2.9021345234200355
1790108048499513900,9.459513916015625,0.2729962724030018,0.3457435287058353,-2.218070309485495
1790108048509458700,9.469458740234375,0.38841260373964903,-0.05797580362856388,-1.6254782183289527
1790108048519402800,9.47940283203125,0.8130534358106553,-0.6259241596549749,-1.1525890497870743
1790108048529347800,9.489347900390625,1.29960594965443,-0.8697907836854457,-0.964236807707697
1790108048539292000,9.4992919921875,1.4362205518424511,-0.6377040292978287,-0.8836847228728234
1790108048549235700,9.509235595703124,0.8719840559460222,-0.3697264618396759,-0.6697000268869102
1790108048559180800,9.519180908203126,-0.13311653093919157,-0.15801964765787124,-0.3417129580155015
1790108048569124600,9.52912451171875,-0.0908919848024845,-0.04611585448682308,0.21746113992482421
1790108048579070000,9.539070068359376,0.19252163671851158,0.25999533653259277,1.1111309579782187
1790108048589013800,9.549013671875,-0.14981529841423033,0.9183236361861229,2.3474907623857257
1790108048598958800,9.558958740234376,0.5573334385097026,1.5247633431702852,3.635295945739746
1790108048608902700,9.568902587890625,1.5831225931584834,1.585238562399149,3.2893007803604006
1790108048618847700,9.57884765625,1.800586655692756,0.6490297254323959,1.6598441599197684
1790108048628791800,9.588791748046875,0.10577274307012557,-0.3348731751233339,0.5650074802689254
1790108048638736600,9.598736572265626,-0.29116087464690205,-0.8057154941380024,-0.4736525541298091
1790108048648680700,9.6086806640625,1.615835652975738,-1.6458406228780746,-1.8525985824808477
1790108048658624800,9.618624755859376,2.9378584554910656,-2.4512404751956463,-2.8333795516237616
1790108048668569900,9.62856982421875,0.5857574228309095,-1.7251158196449279,-2.2477051309011875
1790108048678513700,9.638513671875,-0.0379379548586905,-0.23934184008240697,-2.169778718394786
1790108048688458800,9.648458740234375,0.7382661981128156,0.9240162948697805,-2.039324392402172
1790108048698402800,9.65840283203125,2.302947417912632,1.7862059559017418,-2.711099033606052
1790108048708348000,9.668347900390625,3.2374984046697617,2.3857015428364274,-3.7153704761907456
1790108048718291700,9.678291748046876,0.6545547724641859,2.919015807855129,-2.8890269123047587
1790108048728236800,9.68823681640625,-0.1522561156950891,3.05980375020504,-2.3006664673686026
1790108048738180900,9.698180908203126,1.482943578442186,2.3260627744317053,-2.735491716584563
1790108048748125000,9.708125,2.2378606132350862,1.5832161166608332,-3.2700942678481337
1790108048758069800,9.71806982421875,0.670533116710186,1.2926982160925864,-2.561087920358777
1790108048768013800,9.728013916015625,-1.2746081403896212,1.4818454079419374,-1.3159136719852684
1790108048777959000,9.737958984375,-2.2014090975418688,1.6545470764249561,0.06381108565330505
1790108048787902700,9.74790283203125,-2.236274659217894,1.4113362859547138,1.0278504710927605
1790108048797847800,9.757847900390624,-1.082009639042616,0.8491741121143103,1.269858315514028
1790108048807791600,9.76779150390625,-0.14095233913138508,0.24787469062805173,1.673186310443282
1790108048817737000,9.777737060546874,0.2571770642414689,-0.20667466523349284,2.1811577521517873
1790108048827680800,9.7876806640625,0.22720628886967897,-0.3617114976882934,2.470196812339127
1790108048837624800,9.797624755859376,-0.040041064617782826,-0.21216274125576018,2.2638047634392975
1790108048847569700,9.807569580078125,-0.702665161769092,0.28962299755513665,1.3043661497935652
1790108048857514000,9.817513916015624,-1.09414796673432,0.5262976642549038,0.042836102163791655
1790108048867458800,9.827458740234375,-0.9465341238871217,0.2543599609941244,-0.8137760509967803
1790108048877403000,9.83740283203125,-0.7058620581142604,-0.09297755890488624,-1.192908054563403
1790108048887348000,9.847347900390625,-0.4049813150942325,-0.3299930018663406,-1.0979004511356354
1790108048897291800,9.857291748046874,-0.5597653418317436,-0.574531826069951,-0.9435814115613699
1790108048907236900,9.86723681640625,-0.9429404833093284,-0.6050771864593029,-0.9396022787973284
1790108048917180700,9.8771806640625,-0.8835214951351285,-0.3408832291930914,-0.4673801958620548
1790108048927124700,9.887124755859375,-0.6575897562459111,0.04348024528622627,0.10167904401570559
1790108048937069800,9.89706982421875,-0.541797138942778,0.6322545317202806,0.09302753552645444
1790108048947014000,9.907013916015625,-0.08085486717373132,1.1535422588586806,-0.7660875403657555
1790108048956958700,9.916958740234374,0.5152782575905323,1.641833725324273,-1.9984879396229982
1790108048966902800,9.92690283203125,0.954683528073132,1.913009212040901,-2.523099258226156
1790108048976848000,9.936847900390624,0.7609995695769787,1.8964830246537923,-2.453777300196886
1790108048986792000,9.9467919921875,0.2917369209691882,1.9640759669333696,-2.0420856738090514
1790108048996736800,9.95673681640625,-0.41756519459635016,1.937780080682039,-1.6062638147711752
1790108049006680800,9.966680908203125,-1.4370178396999835,1.8192594997197389,-1.029084104540944
1790108049016625000,9.976625,-1.7330191401153803,1.5965841322779655,-0.6564484772562981
1790108049026569700,9.98656982421875,-1.0124027265921234,1.3030582820653915,-0.5011036017656326
1790108049036513800,9.996513671875,0.33848055196553467,1.1452134064525366,-0.3843547066509723
1790108049046458600,10.006458740234375,1.0720952710106968,1.217585984224081,-0.4705582413762808
1790108049056403000,10.01640283203125,1.270968030321598,1.6458318550497293,-0.9817892694026231
1790108049066347800,10.02634765625,1.239883740749955,2.3077964653789995,-1.7841957851231096
1790108049076291800,10.036291748046875,0.6188450150489807,2.9336230098783966,-2.5431150412946937
1790108049086236700,10.046236572265625,-0.4668032727569341,3.4044688360244035,-2.22241593747437
1790108049096181000,10.056180908203125,-1.643663278838992,3.6566549601107834,-1.0949977154314516
1790108049106124800,10.066124755859375,-2.456347150684893,3.293979001304507,-0.32981121555864806
1790108049116070000,10.07606982421875,-2.557719320708513,2.0786662227094173,0.13368424782454966
1790108049126013700,10.086013671875,-2.0846753999963403,0.8147755834281444,0.8523276077091694
1790108049135958800,10.095958740234375,-1.2034665657177568,-0.2947095070391893,1.7091764922350645
1790108049145902800,10.10590283203125,-0.16920798114836216,-0.7977408619970082,2.4977514664798974
1790108049155847700,10.11584765625,0.19588088401854037,-0.9579115502089262,2.8652088143438097
1790108049165791700,10.125791748046876,-0.8474076869636774,-1.0227665919572115,2.784859266343713
1790108049175736800,10.13573681640625,-2.7753488029375672,-0.9147978001475333,2.6202543950766324
1790108049185681000,10.145680908203126,-4.500220876954495,-0.693062343904376,2.545096570500731
1790108049195625700,10.155625732421875,-5.810487190702557,-0.6050193187922239,2.779093542423844
1790108049205569800,10.16556982421875,-6.1515621430754654,-0.7456880186766386,3.358924059423804
1790108049215513600,10.175513671875,-5.010342774695157,-1.3145038051873446,4.169684561991692
1790108049225459000,10.185458984375,-3.0092414377033707,-2.1108798085719345,4.769397591069341
1790108049235402800,10.19540283203125,-1.0649480296045541,-2.5659493889153002,5.004903213989734
1790108049245347800,10.205347900390626,-1.0395403243646024,-2.3847990410387516,5.243376454544067
1790108049255292000,10.2152919921875,-2.526462012657523,-2.295465976116061,5.081235927563905
1790108049265236700,10.22523681640625,-3.4264573804706333,-2.2607851233571767,4.492281608387827
1790108049275180800,10.235180908203125,-2.616264156396687,-2.3136036903530357,3.5770156062066554
1790108049285125600,10.245125732421876,-1.2747989867866039,-1.944186440593004,2.5793057140946387
1790108049295070000,10.255070068359375,-0.8487006493836641,-1.3191887481331825,1.9201982467621563
1790108049305014000,10.265013916015626,-1.4066817381471395,-0.4478659325748682,2.1690034962385893
1790108049314958800,10.274958740234375,-1.670441103388369,0.0234627086520195,2.2701649461209774
1790108049324902700,10.284902587890626,-1.1398872429937124,-0.0010246668726205826,1.916000795072317
1790108049334848000,10.294847900390625,-0.33990210920125247,-0.2159223860502243,1.6652911732792854
1790108049344791800,10.304791748046876,0.4582616543829441,-0.23633856661319733,1.7080805136919022
1790108049354737000,10.31473681640625,0.7111363452553748,-0.22031565257310867,1.954943981450796
1790108049364680700,10.3246806640625,0.505718694345653,-0.27369477606117726,2.004200472050905
1790108049374626000,10.3346259765625,-0.08377396949082612,-0.44062896705865856,1.9116957913547754
1790108049384569900,10.34456982421875,-0.4766460368573665,-0.5710802243113517,1.6991010884225368
1790108049394514000,10.354513916015625,-0.5237938647404313,-0.40354280672371384,1.415713185864687
1790108049404458800,10.364458740234374,-0.4919295307070017,-0.1826514000892639,1.3809551762163639
1790108049414402800,10.37440283203125,-0.14932108515650033,-0.16337386816740035,1.487252819943428
1790108049424348000,10.384347900390624,0.441948525224626,-0.1262502984315157,1.5160264944851398
1790108049434291700,10.394291748046875,0.8985901771903038,-0.08602700911462306,1.5126082104742526
1790108049444236800,10.40423681640625,1.1459411362051963,-0.143377958843112,1.283782503709197
1790108049454180600,10.4141806640625,1.004889282222092,-0.23220833494067192,0.9972557186037302
1790108049464126000,10.4241259765625,0.8717010012209415,-0.3800444422364235,0.940875075212121
1790108049474069800,10.43406982421875,0.7200646248593926,-0.5357791938275098,1.0737047520339489
1790108049484013800,10.444013916015624,0.5700374372601509,-0.6614589988946914,1.1200216820508242
1790108049493958700,10.453958740234375,0.4375438605248928,-0.6888017638504504,0.7896411421716213
1790108049503903000,10.463903076171874,0.2811705187693238,-0.6165256321907043,0.2837450454324484
1790108049513847800,10.473847900390625,-0.09378069198131561,-0.5566355193734168,-0.3172714674592018
1790108049523792000,10.4837919921875,-0.43695700054764747,-0.3164221571534872,-0.7626081738173961
1790108049533736700,10.49373681640625,-0.908998173958063,0.056335635206103324,-0.9494219542831182
1790108049543681000,10.503680908203124,-0.10226415042728185,0.31749943099617955,-1.8981909976154565
1790108049553625900,10.5136259765625,0.5447545274436474,0.7758394113123417,-2.063037568683922
1790108049563569700,10.523569580078124,0.6528866931214928,1.2897142318457364,-2.1323010745242237
1790108049573513700,10.533513671875,0.8242389928221702,2.1078245126545427,-2.227615551944077
1790108049583458800,10.543458740234374,0.7861594375357032,2.926744940802455,-2.523358785945177
1790108049593403000,10.55340283203125,0.1821004882082343,3.0955741517663,-2.801001422849297
1790108049603347700,10.56334765625,-0.7525605347946286,2.8882664493262764,-2.5646061576128005
1790108049613291800,10.573291748046875,-1.7205083258494733,2.5743407851636406,-2.1502575869753957
1790108049623236900,10.58323681640625,-2.8717317863717673,2.013352331277728,-2.3989409636378287
1790108049633181000,10.593180908203125,-3.9357919272258877,1.830072570157051,-2.034657569634914
1790108049643125800,10.603125732421875,-4.04486341958046,1.563035498419404,-1.0021057889834046
1790108049653069800,10.61306982421875,-2.2134256985500453,1.0854536420166492,-0.1246773500263691
1790108049663015000,10.623014892578125,1.4437547467395662,0.7731722379297018,0.5727852746635675
1790108049672959000,10.632958984375,3.533216504229605,0.6326818172216415,0.8062307501837611
1790108049682902800,10.64290283203125,3.060440879064798,0.6202554663687944,0.8387333821207285
1790108049692847600,10.65284765625,1.0627600180409849,0.7295745037436485,0.6339499374613166
1790108049702792000,10.6627919921875,-0.8272524954244493,0.8281570430487394,-0.0010357727885246277
1790108049712736800,10.67273681640625,-1.3767244067788122,0.9474573762118815,-0.38588790756762026
1790108049722680800,10.682680908203125,-0.40031770719736814,0.8187485787123441,-0.5570265645176172
1790108049732625700,10.692625732421876,0.2861969686292112,0.7710147676348685,-0.7491019187733531
1790108049742570000,10.702570068359375,0.20912541938647627,0.7484498846054076,-0.6179511349491774
1790108049752514800,10.712514892578126,0.7242869187295436,0.5536673172175884,-0.43931437732875345
1790108049762459000,10.722458984375,1.7394632016882299,0.14888766217529772,-0.3163108057335019
1790108049772402700,10.732402587890626,2.2012638438522814,-0.06188450150489807,-0.6608361908212304
1790108049782348000,10.74234814453125,1.2939816800318658,-0.17688450712561607,-1.4338720890201628
1790108049792291800,10.752291748046876,0.6923790378153324,-0.0032750761479139324,-1.6795283729463815
1790108049802236700,10.762236572265625,0.34667876372933387,0.5405325258344411,-1.952082016148418
1790108049812180700,10.7721806640625,0.6006875731982291,1.0704746840715407,-1.941581957183033
1790108049822125600,10.78212548828125,1.1514672061502933,1.403241826826334,-1.7161159361094236
1790108049832070000,10.79206982421875,1.5333540613830088,1.597215415918827,-1.8744141084477304
1790108049842014700,10.8020146484375,1.7487869103506206,1.479966170066595,-2.3154016796857118
1790108049851958800,10.811958740234376,0.3467161731302738,1.3022428740292786,-1.823772300969064
1790108049861902600,10.821902587890625,-0.468467114315927,1.0190940409243106,-0.9472662375539541
1790108049871848000,10.831847900390626,0.26932693624049425,0.5808288803875445,-0.5845867716163397
1790108049881791700,10.841791748046875,1.6042299708560108,0.11198095006048679,-1.1955401566326618
1790108049891736800,10.85173681640625,0.915114464881271,0.030387539479136465,-0.9935703080892563
1790108049901680600,10.8616806640625,0.3798326991818845,0.01863280427753925,-0.45274990522414443
1790108049911626000,10.8716259765625,-0.496404922555387,0.07217910102605819,0.5945663138389587
1790108049921569800,10.88156982421875,-1.3196980128295719,0.5359089576870203,1.6644219892293213
1790108049931514600,10.8915146484375,-0.09906944603919983,0.6056406655609607,1.63954532212615
1790108049941458700,10.901458740234375,1.4245628472745417,0.2227531088531017,1.1311065551668404
1790108049951402800,10.91140283203125,1.2139552265062927,0.1065823058873415,1.1455150197476147
1790108049961347800,10.921347900390625,0.023067425724118948,0.3636082712203264,1.5841276785477996
1790108049971292000,10.9312919921875,-0.18086276310682295,0.5216939698517322,1.3053481465682386
1790108049981236700,10.94123681640625,0.10188479572087526,0.5882692595213651,0.5409948826491833
1790108049991180800,10.951180908203124,-0.6634288376629353,0.9662053313016891,0.322575126825273
1790108050001126000,10.9611259765625,-1.1007472188688814,1.2448428244620562,-0.045186756943166255
1790108050011069700,10.971069580078124,-1.1989093408048153,1.1714110930263995,-0.42635874190479517
1790108050021014800,10.981014892578125,-0.8333233397707343,0.8596504979431628,-0.610393997567892
1790108050030958800,10.990958740234374,0.5281447534263134,0.33219723391234873,-0.9274275646179914
1790108050040903000,11.00090283203125,1.2477604654744268,-0.1648351728916168,-1.2514905919134616
1790108050050847700,11.01084765625,1.130182426059246,-0.36589433633089063,-1.675452501809597
1790108050060791800,11.020791748046875,0.734536217804253,-0.2220610349357128,-2.029148743085563
1790108050070737000,11.03073681640625,0.4400377231672406,0.10723463231623172,-2.053621213302016
1790108050080681000,11.040680908203125,0.01607785909771919,0.3344260158777237,-1.9261983639597893
1790108050090625800,11.050625732421874,-0.30556510144397614,0.5971083995372056,-2.2638056402221323
1790108050100569600,11.060569580078125,-0.25580358393117786,0.7950672588735819,-2.215448144288361
1790108050110515000,11.070514892578124,0.2731009018212557,0.8223615085124969,-2.3108649130389094
1790108050120458800,11.080458740234375,0.6476654513418674,1.271191902205348,-1.9558043976724147
1790108050130402800,11.09040283203125,0.7227262452840805,1.8888135129392145,-1.3340659992694854
1790108050140347600,11.10034765625,0.6714578303396701,2.4245529592782256,-1.0838380235135554
1790108050150291700,11.110291748046874,0.9206056096434593,2.5672698238641023,-1.134887827271223
1790108050160236800,11.12023681640625,0.8820832790255546,2.3246879789471624,-0.940835912245512
1790108050170180900,11.130180908203124,0.17746815223246812,1.6752251227945087,-0.8359580721884965
1790108050180125700,11.140125732421875,-0.18648352559804915,0.8014671890437602,-0.46547523902356625
1790108050190069800,11.15006982421875,-0.31756957362294197,-0.1760907263994217,0.0996720881074667
1790108050200014800,11.160014892578126,-0.20086364086717365,-0.7080892326444387,0.19789806905984877
1790108050209959000,11.169958984375,0.5924737254738808,-0.5798153194308281,0.34343875889480113
1790108050219903700,11.17990380859375,1.035443994961679,0.15796119546890258,0.40560324638485906
1790108050229847600,11.18984765625,0.6887593860134482,1.157528698146343,0.2222048273205757
1790108050239791900,11.1997919921875,0.09958411756306886,1.8342092315703629,0.4557885422676801
1790108050249736700,11.20973681640625,-0.7567115169942379,2.2370868523836136,1.0810293958336115
1790108050259680800,11.2196806640625,-1.619552627672255,2.3440724783748386,1.6190250966668127
1790108050269625600,11.22962548828125,-1.2615431993722914,2.0737194139569994,1.545502179816365
1790108050279570000,11.23956982421875,-0.2914142648860812,1.4984014059454203,0.5884136364281177
1790108050289514800,11.2495146484375,0.6624269671440124,1.1770102282077073,-0.23933599486351012
1790108050299458800,11.259458740234376,1.716400306008756,1.5970926663219929,0.06720540426671505
1790108050309404000,11.26940380859375,1.5182579067990183,2.5932997526556254,0.34690964987576006
1790108050319348000,11.279347900390626,-0.01703910534530878,2.910298248392343,1.0341834735065698
1790108050329291800,11.289291748046875,-1.5842185717016457,2.4156612122923136,2.0398212360084056
1790108050339236900,11.29923681640625,-2.0570728150606152,0.9241244314193725,3.0975662023663517
1790108050349180700,11.3091806640625,-1.588199750292301,-1.0370224963247776,3.6351579985737796
1790108050359125800,11.319125732421876,-0.7656067711114883,-2.3245143759459257,3.5058962433665988
1790108050369069800,11.32906982421875,-0.3776356275290251,-2.426407647234201,3.0143022282242775
1790108050379014700,11.3390146484375,-0.3809931212633848,-1.8843191241294144,2.298012153467536
1790108050388958700,11.348958740234375,-1.021421022567153,-0.7972855194449424,1.6400257991194724
1790108050398903800,11.35890380859375,-2.0488222885876892,0.24468553919792174,1.6236679540365933
1790108050408848000,11.368847900390625,-2.834811337992549,0.7344470782160758,2.3974767363041636
1790108050418791700,11.378791748046876,-3.025308190885186,0.22097499326467512,3.734609721928835
1790108050428736800,11.38873681640625,-2.297334692597389,-1.0403834971904753,4.985355632954835
1790108050438680800,11.398680908203126,-0.6331207931607962,-2.5167910979926584,5.5245209620893
1790108050448626000,11.4086259765625,0.8874617571935057,-3.4958354526013133,5.261377390658855
1790108050458569700,11.41856982421875,0.9008364948123693,-3.4570407347828147,4.537931014406681
1790108050468514600,11.4285146484375,-0.44125119061022994,-2.8370225843012333,3.7176685240000484
1790108050478459000,11.438458984375,-1.8174843067407607,-2.3290759847730396,2.9808529630869627
1790108050488403700,11.44840380859375,-2.4861308790519834,-2.029234960064292,2.8884856450349092
1790108050498347800,11.45834765625,-2.4083497202351687,-2.0389812780529257,3.1317876209199427
1790108050508291800,11.468291748046875,-1.9219094345942138,-2.226924939331412,3.3633734400480986
1790108050518237000,11.47823681640625,-0.6060273267909884,-2.581263277903199,3.3448797519803044
1790108050528180700,11.4881806640625,0.5194783396288752,-2.8807559275656938,3.130167910763621
1790108050538125800,11.498125732421874,0.9449591296553611,-2.9530250449627635,2.7408932833671567
1790108050548069600,11.508069580078125,0.8212649454474449,-2.7003128511756658,2.209526060763001
1790108050558015000,11.518014892578124,0.04218260669112205,-2.2418010214239357,1.8744576553285122
1790108050567958800,11.527958740234375,-0.5705620456561445,-1.8302280529797077,1.8271020299136638
1790108050577903900,11.53790380859375,-0.5168529595613479,-1.3770704437375068,1.7049562441915274
1790108050587847700,11.54784765625,-0.23250176492929459,-0.7697451860904693,1.4311036472201346
1790108050597791700,11.557791748046874,0.11646131034493445,-0.12971475967168808,1.1946832475423812
1790108050607736800,11.56773681640625,0.658034723534435,0.4340659552812576,0.9606213936895132
1790108050617681000,11.577680908203124,1.12004316323027,0.9371943408727645,0.6070972941100597
1790108050627625700,11.587625732421875,1.3720526155754924,1.3926228176563977,0.46181145581901073
1790108050637569800,11.59756982421875,1.5950943321116269,1.849196372821927,0.5113005861312151
1790108050647515000,11.607514892578125,1.7868600358963012,2.3225375229150056,0.4877537063270807
1790108050657458700,11.617458740234374,1.9459879370570181,2.678159471556544,0.37967560892403124
1790108050667403800,11.62740380859375,1.9571666259363292,2.6364205169796944,0.14991525165736674
1790108050677347600,11.63734765625,1.7314423923179507,2.438044309014082,-0.20900398496389389
1790108050687292000,11.6472919921875,1.4574223298251627,2.3150720093399286,-0.6740238814353943
1790108050697236700,11.65723681640625,1.1444579119101166,2.0665484994143246,-1.1418266866236924
1790108050707180800,11.667180908203125,0.19214754270911216,1.7712462871789931,-1.1029501357406377
1790108050717126000,11.6771259765625,0.1791328705742955,1.4256892209559677,-1.3959323805958033
1790108050727070000,11.687070068359375,1.1259995874166489,1.2750415633708239,-2.0466417296782136
1790108050737014800,11.697014892578125,1.859511722870171,1.0981021111875773,-2.0862357811808585
1790108050746958800,11.706958740234375,1.7852131454721092,0.7337170103758573,-1.8304764747828244
1790108050756904000,11.716904052734375,1.2639143124178052,0.5806581999957561,-2.1609137132853267
1790108050766847700,11.72684765625,-0.024469401476532218,0.5147685545027255,-2.6213433593571183
1790108050776792800,11.736792724609375,-1.8318728975772856,0.3896054667860269,-2.668420752352476
1790108050786736600,11.746736572265625,-3.053382192724943,0.20044015475809573,-2.864168073119223
1790108050796680700,11.7566806640625,-4.238283174182475,-0.025277649119496343,-2.6721085009545087
1790108050806626000,11.7666259765625,-3.9842648662328717,-0.5423913054436444,-1.4844316250428558
1790108050816570000,11.776570068359375,-1.7425567837893963,-0.9599678982168436,-0.9314575507864356
1790108050826515000,11.786514892578126,1.7070350962921976,-1.0805021570891142,-0.7446160055309534
1790108050836459300,11.796459228515625,3.0813828370675442,-0.703950233143568,-0.4067787199050188
1790108050846404000,11.806404052734376,2.3590951293312012,-0.19240064068734644,-0.004559563000500202
1790108050856348200,11.81634814453125,1.1865206916138529,0.5208341381520033,0.07458470086306333
1790108050866293000,11.82629296875,0.12241174318194388,1.4952566781789063,-0.04787205050438642
1790108050876237000,11.836237060546875,-0.8873124118506908,2.1877105347961185,-0.3189747642457485
1790108050886181000,11.84618115234375,-1.1582184339761734,2.4589473963111637,-0.6041124330803752
1790108050896126000,11.8561259765625,0.45173269100561736,2.4654256524145604,-0.8092626652255653
1790108050906070000,11.866070068359376,1.7556385298110544,2.184750515946746,-0.6483924504421651
1790108050916015000,11.87601513671875,1.9040588667355476,2.0052911898970605,-0.33125703045278787
1790108050925959200,11.885959228515626,1.4567548058271407,1.8635691815674305,-0.37513124349266286
1790108050935904000,11.895904052734375,1.8252829977929592,1.6212649845480918,-0.35738165179044007
1790108050945848000,11.90584814453125,2.1986427015684544,1.4581681797564028,-1.5885668300390243
1790108050955793200,11.915793212890625,1.4905740733206272,1.4555390002965927,-2.530423609764874
1790108050965737200,11.9257373046875,0.7199358839131891,1.4270704461812973,-2.510258773614466
1790108050975681000,11.935680908203125,1.011759606382996,1.4665671747893094,-2.593687875190377
1790108050985625900,11.9456259765625,1.4922856995441018,1.5534434942096471,-3.021268267844617
1790108050995570200,11.955570068359375,1.063943236476183,1.5036246935516595,-3.149791771905124
1790108051005515000,11.965514892578126,0.9157904644466937,1.0221692105859517,-2.8876214294210074
1790108051015459000,11.975458984375,0.6480313620448113,0.31774376114606856,-2.1859686595648524
1790108051025404000,11.98540380859375,0.579852728831768,-0.4121078059732914,-1.581364351314306
1790108051035348200,11.99534814453125,-0.061324237273633474,-0.8974538666367531,-0.8031304460808635
1790108051045293000,12.00529296875,-0.4860051090940833,-1.111722640261054,0.04220569530576467
1790108051055237000,12.015237060546875,-0.3401552071794867,-1.283299688628316,0.5107376915514469
1790108051065181000,12.025180908203126,-0.3969990841686725,-1.3680436721950768,0.8710486747920513
1790108051075126300,12.035126220703125,-0.2662646260604262,-1.3117337559521198,0.9325190425381064
1790108051085070000,12.045070068359376,-0.5551110862851143,-1.1396598639786242,1.0388342219218611
1790108051095015200,12.05501513671875,-1.445258429300785,-0.6319289530277252,1.3684025686353445
1790108051104959000,12.064958984375,-1.2231157074309884,-0.23674305576086044,1.1220388670921324
1790108051114904000,12.074904052734375,-0.7257248425781726,-0.08859481377601623,0.7919310066744685
1790108051124848000,12.08484814453125,-1.0805164778754115,0.41006548649072644,0.9618193713024258
1790108051134793000,12.09479296875,-1.6110452038288114,1.1600801361948252,1.311540863728523
1790108051144737000,12.104737060546874,-1.1939476267442106,1.6705068621009587,1.1515528386071323
1790108051154681000,12.11468115234375,-0.16457696034684777,1.8218658828258514,0.49889527806639666
1790108051164626200,12.124626220703124,0.4668085334539413,1.674547661924362,-0.3488011627107859
1790108051174570000,12.134570068359375,-0.25012743799090387,1.642615231090784,-0.8345937980979681
1790108051184515000,12.14451513671875,-0.4436076906085014,1.6521838544249534,-1.1166624347507954
1790108051194459000,12.154458984375,0.22138766571879387,1.2690139736443757,-1.989705790491402
1790108051204404200,12.164404296875,0.48456616233214733,1.0479203224360942,-2.437836803743243
1790108051214348000,12.17434814453125,0.6320034795686602,0.9836585704058408,-2.4925401615723968
1790108051224293000,12.184293212890625,0.6628115825474262,0.982570775169134,-2.387821019208431
1790108051234237000,12.19423681640625,0.6968640742748975,1.0941022278964518,-2.025010620367527
1790108051244182000,12.20418212890625,1.3245394615113735,1.0020926372408867,-1.8629411127969622
1790108051254126000,12.2141259765625,1.882851243533939,0.9817898539245128,-1.6071920355319975
1790108051264070100,12.224070068359374,1.7004029648013412,1.1396662937194109,-1.3741963496059177
1790108051274015200,12.23401513671875,1.265561933494359,1.4277911616712808,-1.4849118097752332
1790108051283959000,12.243958984375,0.39444326220601794,1.6675561956018208,-1.176872865563631
1790108051293904100,12.253904052734375,-0.3527884787812829,1.7445932580530643,-0.771508104109764
1790108051303848000,12.263847900390624,-0.6662569006957113,1.804991904914379,-0.6387871483594179
1790108051313793300,12.273793212890626,-0.4294076080814004,1.677294914805889,-0.7272393387943505
1790108051323737000,12.283737060546875,-0.10885288116782903,1.3061480647742747,-0.6523275979340076
1790108051333682200,12.29368212890625,0.09700929863899946,0.6815215437144041,-0.6179197168976068
1790108051343626000,12.3036259765625,0.2391778816923499,0.06836158856451512,-0.3625707448661327
1790108051353570000,12.313570068359375,0.25341449683755635,-0.20516367614865302,0.28268822985589503
1790108051363515100,12.32351513671875,0.5963499823853373,-0.15597089843451975,0.6164081432908773
1790108051373459200,12.333459228515625,0.7311749246776104,-0.016611527583003043,0.4570312358051538
1790108051383404000,12.343404052734375,0.6550742662936448,0.3362473860859871,0.3430523899257183
1790108051393348000,12.35334814453125,0.2667547476649284,0.8429483694672584,0.3742658588349819
1790108051403293200,12.363293212890625,-0.3225859404802322,1.1978081015646458,0.5104892697483301
1790108051413237000,12.373237060546876,-0.4706172780871391,1.2681716776013374,0.6137666888713836
1790108051423182000,12.38318212890625,-0.44346974344253537,1.2148159349888563,0.3607154723882675
1790108051433126000,12.3931259765625,-0.8888444437235593,1.171024139535427,0.08955050706565379
1790108051443070200,12.4030703125,-1.5165347362682222,1.3002362103819847,0.13663023814857006
1790108051453015000,12.41301513671875,-1.9412714299291371,1.1925398057729004,0.3697492581933737
1790108051462959000,12.422958984375,-2.132253435990214,0.9919348158419131,0.8544196115523576
1790108051472904000,12.432904052734376,-2.0726491543769834,1.0913374393582342,1.3946201289534568
1790108051482848300,12.44284814453125,-1.7555565506160258,1.0815046121299265,1.8188585177034138
1790108051492793000,12.45279296875,-1.4690420404702424,0.9589970073580741,2.0407149699777363
1790108051502737200,12.462737060546875,-1.5563260639086365,0.788656807309389,2.298494968548417
1790108051512682000,12.472681884765626,-2.0641963833302257,0.5003682732284068,2.5052292550146578
1790108051522626000,12.4826259765625,-2.6420301735550162,-0.02176642612814903,2.4138187992960214
1790108051532571100,12.492571044921876,-3.0519860621914265,-0.8328659513920545,2.2212720281362532
1790108051542515000,12.502514892578125,-3.5322581805914637,-1.3444313259392977,2.1773171510756013
1790108051552459000,12.512458984375,-3.9986879438608884,-1.5086802233755587,2.359002921003103
1790108051562404000,12.522404052734375,-4.20260308125317,-1.581606927898526,2.822647437468171
1790108051572348200,12.53234814453125,-3.871916251903772,-2.3936299977481363,3.9066228236258027
1790108051582293000,12.54229296875,-2.4287591787964105,-3.6385862194567915,5.086916895809769
1790108051592237000,12.552237060546876,-0.7829372606188059,-3.9603912386924027,5.123658188229799
1790108051602182100,12.56218212890625,-0.60152037076056,-3.1284868258088827,4.093625404661894
1790108051612126200,12.572126220703124,-1.6311159319549797,-2.033403185659647,2.9139503411591052
