time,seconds_elapsed,z,y,x
1790108039102015700,0.062015625,0.12819091975688934,-0.31283649802207947,0.16871730983257294
1790108039111960800,0.0719609375,0.1614324003458023,-0.42404699325561523,0.40387439727783203
1790108039121905000,0.08190478515625,0.17199556529521942,-0.650224506855011,0.6891207695007324
1790108039131849700,0.091849609375,0.1650027632713318,-0.8120034337043762,0.9852628707885742
1790108039141793800,0.101793701171875,0.1572018265724182,-1.1006280183792114,1.2401204109191895
1790108039151739000,0.11173876953125,0.1560663878917694,-1.3648210763931274,1.4413491487503052
1790108039161683000,0.121682861328125,0.1889694780111313,-1.5091263055801392,1.5790127515792847
1790108039171626800,0.131626708984375,0.3262091875076294,-1.4097245931625366,1.701964259147644
1790108039181571800,0.14157177734375,0.5608714818954468,-1.1915230751037598,1.722293734550476
1790108039191516000,0.151515869140625,1.0312581062316895,-1.7821542024612427,1.4434880018234253
1790108039201460700,0.161460693359375,1.3044558763504028,-2.0259101390838623,0.9620828032493591
1790108039211404800,0.17140478515625,1.2395755052566528,-2.179436445236206,0.49007850885391235
1790108039221349600,0.181349609375,0.9013092517852783,-2.3861255645751953,0.1635480523109436
1790108039231294000,0.1912939453125,0.31208696961402893,-2.11254620552063,0.1173638254404068
1790108039241238800,0.20123876953125,0.019571736454963684,-1.5411438941955566,0.28181031346321106
1790108039251182800,0.211182861328125,0.35129639506340027,-1.1593214273452759,0.3827361762523651
1790108039261126700,0.221126708984375,1.0638985633850098,-1.1683199405670166,0.21748995780944824
1790108039271072000,0.231072021484375,1.7710388898849487,-1.2935887575149536,-0.02833741530776024
1790108039281015800,0.241015869140625,2.1884775161743164,-1.549177646636963,-0.18991778790950775
1790108039290961000,0.2509609375,2.3195040225982666,-2.136823892593384,-0.28293055295944214
1790108039300904700,0.26090478515625,2.045969247817993,-3.2158756256103516,-0.303305059671402
1790108039310849800,0.270849853515625,1.6629661321640015,-4.167515277862549,-0.07648026943206787
1790108039320793900,0.2807939453125,1.4675723314285278,-4.934253692626953,0.14010237157344818
1790108039330738700,0.29073876953125,2.1449437141418457,-5.877554416656494,0.7109599113464355
1790108039340682800,0.300682861328125,3.1772470474243164,-6.851313591003418,1.8010084629058838
1790108039350626800,0.310626708984375,3.275815963745117,-7.299153804779053,2.0116419792175293
1790108039360572000,0.320572021484375,3.649829387664795,-7.221434116363525,1.8811359405517578
1790108039370515700,0.330515625,4.272251129150391,-6.940672874450684,1.7771660089492798
1790108039380460800,0.340460693359375,4.626392841339111,-6.439687252044678,1.4247487783432007
1790108039390404900,0.35040478515625,4.841751575469971,-6.0777788162231445,1.0177478790283203
1790108039400350000,0.360349853515625,5.07938289642334,-6.146785736083984,0.9124780297279358
1790108039410293800,0.370293701171875,5.425861358642578,-6.2905449867248535,1.0332027673721313
1790108039420238800,0.38023876953125,5.7091193199157715,-5.96973180770874,0.9880200624465942
1790108039430183000,0.390182861328125,5.814842224121094,-5.183856964111328,0.5905466675758362
1790108039440127000,0.400126953125,5.909214019775391,-4.328840732574463,0.14564533531665802
1790108039450071800,0.41007177734375,6.106016159057617,-3.4688336849212646,-0.019007690250873566
1790108039460015900,0.420015869140625,5.955212593078613,-2.562282085418701,-0.19819635152816772
1790108039469961000,0.4299609375,5.916668891906738,-2.085089683532715,0.2951771020889282
1790108039479904800,0.43990478515625,5.565229892730713,-1.842294692993164,0.24650970101356506
1790108039489849900,0.449849853515625,4.756600856781006,-1.5352364778518677,0.2995336949825287
1790108039499793700,0.459793701171875,4.109788417816162,-1.030362606048584,0.42681390047073364
1790108039509739000,0.469739013671875,3.847301959991455,-0.6691837310791016,0.6661569476127625
1790108039519682800,0.479682861328125,3.4745376110076904,-0.8240657448768616,0.8275431394577026
1790108039529627000,0.489626953125,3.333012580871582,-1.0062198638916016,0.9914147853851318
1790108039539571700,0.49957177734375,3.2217016220092773,-0.6106247901916504,0.6885259747505188
1790108039549515800,0.509515869140625,2.931283712387085,-0.012491417117416859,0.27863553166389465
1790108039559460900,0.5194609375,2.567621946334839,0.1920875608921051,0.47437652945518494
1790108039569405000,0.529405029296875,2.030256986618042,-0.0699077695608139,0.9226577877998352
1790108039579349800,0.539349853515625,1.476662039756775,-0.6585747599601746,1.521811842918396
1790108039589293800,0.5492939453125,0.9891921281814575,-0.9228132367134094,1.8368481397628784
1790108039599238000,0.55923779296875,0.5076990127563477,-0.9991399645805359,1.4571337699890137
1790108039609182700,0.5691826171875,0.02543233521282673,-0.8596933484077454,0.9728285074234009
1790108039619126800,0.579126708984375,-0.41877999901771545,-0.5472491979598999,0.611341655254364
1790108039629071600,0.589071533203125,-0.9015147686004639,-0.34631621837615967,0.2181214541196823
1790108039639016000,0.599015869140625,-1.3516966104507446,-0.3557579219341278,-0.06421356648206711
1790108039648960800,0.608960693359375,-1.588021159172058,-0.3144925534725189,-0.3647686541080475
1790108039658904800,0.61890478515625,-1.5249258279800415,-0.2307548075914383,-0.768626868724823
1790108039668849700,0.628849609375,-1.4102931022644043,-0.25645264983177185,-1.0004668235778809
1790108039678794000,0.6387939453125,-1.2585715055465698,-0.36304354667663574,-1.115153193473816
1790108039688738800,0.64873876953125,-1.2978330850601196,-0.3503949046134949,-1.2028167247772217
1790108039698683000,0.658682861328125,-1.236361026763916,-0.23588459193706512,-1.4730687141418457
1790108039708626700,0.668626708984375,-1.180476427078247,-0.20111489295959473,-1.9655017852783203
1790108039718571800,0.67857177734375,-1.2044174671173096,-0.27588552236557007,-2.020921230316162
1790108039728515800,0.688515869140625,-1.2840813398361206,-0.7678094506263733,-1.8132259845733643
1790108039738460700,0.698460693359375,-1.4946980476379395,-1.00212824344635,-0.9998372197151184
1790108039748404700,0.70840478515625,-1.5637484788894653,-1.5021474361419678,-0.268442839384079
1790108039758349800,0.718349853515625,-1.5028518438339233,-2.013561964035034,0.09471993893384933
1790108039768294000,0.7282939453125,-1.3299480676651,-2.166005849838257,0.2689848840236664
1790108039778238700,0.73823876953125,-0.6933106184005737,-3.1651339530944824,-0.06820567697286606
1790108039788182800,0.748182861328125,-0.9822155237197876,-2.9804160594940186,0.3495239317417145
1790108039798126300,0.758126220703125,-1.171727180480957,-1.0776413679122925,0.9168305397033691
1790108039808071400,0.768071533203125,-0.7172917127609253,-0.17183084785938263,0.7921101450920105
1790108039818015200,0.77801513671875,-0.262844055891037,0.3726755976676941,0.09772306680679321
1790108039827960600,0.787960693359375,0.3728581368923187,0.7241275310516357,-0.1601996272802353
1790108039837904400,0.797904296875,0.9755706191062927,-0.27797791361808777,0.12772643566131592
1790108039847849500,0.807849365234375,1.6428194046020508,-0.6349702477455139,0.20129992067813873
1790108039857793300,0.817793212890625,2.5104987621307373,-0.6296197175979614,0.3311644494533539
1790108039867738400,0.82773828125,2.911748170852661,-0.041579149663448334,0.40708571672439575
1790108039877682400,0.837682373046875,3.318579912185669,-0.5661100745201111,0.4065874218940735
1790108039887626500,0.84762646484375,3.304252862930298,-0.8218750953674316,0.6007044911384583
1790108039897571600,0.857571533203125,3.420269012451172,0.04603416472673416,0.475652277469635
1790108039907515600,0.867515625,3.3229942321777344,1.7646864652633667,0.45565372705459595
1790108039917460500,0.87746044921875,2.6253998279571533,1.271654725074768,-0.14485903084278107
1790108039927404300,0.887404296875,2.175853729248047,-0.09505995362997055,-0.7667209506034851
1790108039937349600,0.897349609375,1.7591872215270996,-1.0183990001678467,-0.5157446265220642
1790108039947293400,0.90729345703125,1.4489672183990479,-1.0620089769363403,0.13843674957752228
1790108039957237500,0.917237548828125,1.6612683534622192,-0.979291558265686,0.42465972900390625
1790108039967182300,0.927182373046875,1.7069350481033325,-1.5575244426727295,0.010682560503482819
1790108039977126400,0.93712646484375,1.1298974752426147,-1.2477309703826904,-0.40147864818573
1790108039987071500,0.947071533203125,0.5922704935073853,-0.5675904750823975,-0.24336130917072296
1790108039997015600,0.957015625,0.6380031108856201,-0.1606096774339676,0.0391169935464859
1790108040006960400,0.96696044921875,0.7670665979385376,-0.32218801975250244,0.09032139182090759
1790108040016904400,0.976904541015625,1.0261975526809692,-0.5694342851638794,-0.0432308092713356
1790108040026849500,0.986849609375,1.326198935508728,-0.6870563626289368,-0.08536272495985031
1790108040036793300,0.99679345703125,1.4730960130691528,-0.2537725567817688,-0.11269181966781616
1790108040046737400,1.0067373046875,1.436918020248413,0.08839665353298187,-0.010919956490397453
1790108040056682200,1.01668212890625,1.2463479042053223,0.22893086075782776,0.1458083987236023
1790108040066626600,1.02662646484375,1.006454348564148,-0.09897198528051376,0.4744722545146942
1790108040076571400,1.0365712890625,0.8981233835220337,-0.7808674573898315,0.7773197293281555
1790108040086515500,1.046515380859375,1.0217022895812988,-1.2506146430969238,0.8772780299186707
1790108040096460300,1.056460205078125,1.260339617729187,-1.5940114259719849,0.9009162187576294
1790108040106404600,1.066404541015625,1.3625274896621704,-1.4091702699661255,0.727682888507843
1790108040116349400,1.076349365234375,1.2954763174057007,-0.5251287817955017,0.31170454621315
1790108040126293500,1.08629345703125,1.2687268257141113,0.25801560282707214,0.019981667399406433
1790108040136237300,1.0962373046875,1.481074571609497,0.6466104984283447,-0.009031342342495918
1790108040146182700,1.1061826171875,1.6832212209701538,0.6158051490783691,0.10916069149971008
1790108040156126500,1.11612646484375,1.913415789604187,-0.02047782577574253,0.3870293200016022
1790108040166071300,1.1260712890625,2.1701738834381104,-0.9602187275886536,0.8465723991394043
1790108040176015400,1.136015380859375,2.261408805847168,-1.4310362339019775,1.1674611568450928
1790108040185960400,1.14596044921875,2.151036024093628,-1.329500436782837,1.1794462203979492
1790108040195904500,1.155904541015625,2.016700029373169,-0.9048951268196106,1.1119303703308105
1790108040205849300,1.165849365234375,1.8601351976394653,0.035918332636356354,1.0051426887512207
1790108040215793400,1.17579345703125,1.7121098041534424,1.4460562467575073,0.7411921620368958
1790108040225737200,1.1857373046875,1.6537072658538818,2.1723318099975586,0.3794163167476654
1790108040235682600,1.1956826171875,1.4363856315612793,2.085066318511963,0.10633577406406403
1790108040245626400,1.20562646484375,1.2286779880523682,1.7969285249710083,-0.3213542103767395
1790108040255571500,1.215571533203125,1.143946886062622,1.5751208066940308,-0.8635433912277222
1790108040265515300,1.225515380859375,0.7843932509422302,0.5034643411636353,-1.0478135347366333
1790108040275460600,1.235460693359375,0.2655537724494934,-0.5736612677574158,-0.1880529373884201
1790108040285404400,1.245404296875,0.7319687604904175,-0.8870193362236023,1.07439386844635
1790108040295349200,1.255349365234375,0.6074801087379456,-1.1611173152923584,1.6467574834823608
1790108040305293600,1.26529345703125,-0.6713986396789551,-0.9643202424049377,2.1183605194091797
1790108040315237600,1.275237548828125,-2.6251115798950195,-0.7574906349182129,2.8241946697235107
1790108040325182500,1.285182373046875,-4.305172443389893,-1.8844707012176514,3.2333195209503174
1790108040335126300,1.295126220703125,-3.941380739212036,-3.0350217819213867,2.5213253498077393
1790108040345071600,1.305071533203125,-2.960977554321289,-3.3782713413238525,2.1146531105041504
1790108040355015400,1.315015380859375,-2.406331777572632,-1.415216326713562,0.8970362544059753
1790108040364960500,1.32496044921875,-1.4259922504425049,0.6658344268798828,0.419740229845047
1790108040374904300,1.334904296875,-1.4475665092468262,-0.053492043167352676,0.1871432065963745
1790108040384848400,1.344848388671875,-1.7391667366027832,1.065161943435669,0.13843770325183868
1790108040394793500,1.35479345703125,-1.6096364259719849,1.0420706272125244,0.16895699501037598
1790108040404737500,1.364737548828125,-0.7491521835327148,0.15259996056556702,0.11234435439109802
1790108040414682400,1.374682373046875,-0.18899938464164734,0.03406504541635513,-0.19275963306427002
1790108040424626400,1.38462646484375,-0.02949514240026474,-0.0452335961163044,-0.5748599171638489
1790108040434571500,1.394571533203125,-0.02750922366976738,-0.25508081912994385,-0.8772900700569153
1790108040444515600,1.404515625,-0.26010143756866455,-0.643702507019043,-1.0557878017425537
1790108040454460400,1.41446044921875,-0.48779958486557007,-0.6943310499191284,-1.0049781799316406
1790108040464404200,1.424404296875,-0.5422752499580383,-0.6863247156143188,-1.1886776685714722
1790108040474348500,1.4343486328125,-0.539023756980896,-0.4521082043647766,-1.3254754543304443
1790108040484293400,1.44429345703125,-0.3923974931240082,-0.5866373181343079,-1.231895089149475
1790108040494237400,1.454237548828125,-0.2321327179670334,-1.168059229850769,-1.113689661026001
1790108040504182300,1.464182373046875,-0.23613981902599335,-1.7226943969726562,-1.182225227355957
1790108040514126600,1.474126708984375,-0.5197432637214661,-1.2720340490341187,-1.2249724864959717
1790108040524071400,1.484071533203125,-0.9133089780807495,-1.439494013786316,-1.0509086847305298
1790108040534015500,1.494015380859375,-1.405963659286499,-2.2286946773529053,-0.8711274862289429
1790108040543960300,1.503960205078125,-1.758492350578308,-2.7063729763031006,-0.7877331972122192
1790108040553904600,1.513904541015625,-1.7100439071655273,-2.735466718673706,-0.6075538396835327
1790108040563848400,1.523848388671875,-1.526764154434204,-2.7586514949798584,-0.430446594953537
1790108040573793500,1.53379345703125,-1.6170908212661743,-1.9231420755386353,-0.4002109169960022
1790108040583737300,1.5437373046875,-1.6649750471115112,-1.742296576499939,-0.41702014207839966
1790108040593682400,1.553682373046875,-1.985581874847412,-2.472463369369507,-0.2722957134246826
1790108040603626500,1.56362646484375,-2.247330665588379,-2.9393272399902344,-0.09654692560434341
1790108040613571300,1.5735712890625,-2.6890456676483154,-2.3755621910095215,-0.1401253044605255
1790108040623515400,1.583515380859375,-2.821439027786255,-1.9851839542388916,-0.14705345034599304
1790108040633459500,1.59345947265625,-2.6563332080841064,-2.582662343978882,-0.025327274575829506
1790108040643404500,1.603404541015625,-2.3793094158172607,-2.7128334045410156,-0.0910845696926117
1790108040653348400,1.613348388671875,-2.0345025062561035,-2.0214693546295166,-0.37936854362487793
1790108040663293400,1.62329345703125,-1.6504886150360107,-1.568464994430542,-0.43642666935920715
1790108040673237500,1.633237548828125,-1.3237128257751465,-1.3922258615493774,-0.2947920560836792
1790108040683182600,1.6431826171875,-1.075626015663147,-1.1144059896469116,-0.27025264501571655
1790108040693126400,1.65312646484375,-0.8317869901657104,-0.5893217921257019,-0.4267556965351105
1790108040703071200,1.6630712890625,-0.3454013466835022,0.34483590722084045,-0.636311411857605
1790108040713015600,1.673015625,0.10028985142707825,1.5713655948638916,-0.778046727180481
1790108040722959600,1.682959716796875,0.372271329164505,2.249584197998047,-0.7891173958778381
1790108040732904400,1.692904541015625,0.5107492804527283,1.55605947971344,-0.5724942684173584
1790108040742848500,1.7028486328125,0.504945695400238,0.6068181395530701,-0.30785101652145386
1790108040752793600,1.712793701171875,0.6328437328338623,0.7773720026016235,-0.1855003386735916
1790108040762737400,1.7227373046875,0.921278715133667,0.858698308467865,-0.10123273730278015
1790108040772682500,1.7326826171875,1.1284327507019043,0.5392406582832336,0.17222729325294495
1790108040782626300,1.742626220703125,1.3829184770584106,0.16222822666168213,0.455280065536499
1790108040792570400,1.7525703125,1.7679917812347412,-0.7814115285873413,0.8505451083183289
1790108040802516000,1.762515869140625,2.1272897720336914,-1.2508257627487183,1.1757351160049438
1790108040812460300,1.772460205078125,2.1165213584899902,-1.0071022510528564,1.4445914030075073
1790108040822405000,1.782405029296875,1.2544465065002441,-0.49453702569007874,1.9052635431289673
1790108040832349200,1.79234912109375,-0.194502592086792,0.2375723421573639,2.0091428756713867
1790108040842294000,1.8022939453125,-1.0598431825637817,1.4255681037902832,1.4492493867874146
1790108040852238000,1.812238037109375,-0.9148612022399902,1.25863778591156,0.9013928771018982
1790108040862183200,1.82218310546875,-0.9121127724647522,0.8399569392204285,0.5865543484687805
1790108040872127000,1.832126953125,-1.2100634574890137,0.966110110282898,0.42531701922416687
1790108040882071000,1.842071044921875,-1.6070071458816528,0.8091719746589661,0.2655963599681854
1790108040892016000,1.85201611328125,-1.596316933631897,0.6556146740913391,0.10066734254360199
1790108040901960200,1.861960205078125,-1.371787190437317,0.8382202982902527,0.28840750455856323
1790108040911905000,1.871905029296875,-1.1002308130264282,0.9160400032997131,0.5009315013885498
1790108040921849000,1.88184912109375,-1.1133545637130737,1.399216890335083,0.7706010341644287
1790108040931794200,1.891794189453125,-1.1047965288162231,1.5331072807312012,1.111859679222107
1790108040941738200,1.90173828125,-1.0475482940673828,1.174623966217041,1.2364860773086548
1790108040951683000,1.91168310546875,-0.3413868546485901,1.12821364402771,1.4042426347732544
1790108040961627000,1.921626953125,0.21552018821239471,1.1093182563781738,1.5039111375808716
1790108040971571000,1.931571044921875,0.5989142060279846,0.2326926738023758,1.437851905822754
1790108040981516000,1.94151611328125,0.5391278266906738,-1.1434381008148193,1.1266101598739624
1790108040991460000,1.951460205078125,0.38891300559043884,-0.9759213328361511,1.0380704402923584
1790108041001405000,1.961405029296875,-0.2821354568004608,-0.8913557529449463,1.0527037382125854
1790108041011349000,1.971348876953125,-1.3007069826126099,-1.3959262371063232,0.8958441019058228
1790108041021294000,1.981294189453125,-1.9344232082366943,-1.544714331626892,0.7915314435958862
1790108041031238100,1.991238037109375,-2.374244451522827,-1.7628597021102905,0.7914702296257019
1790108041041182000,2.001181884765625,-2.454498052597046,-1.7163251638412476,0.8733620047569275
1790108041051127000,2.011126953125,-2.147696018218994,-1.4636911153793335,0.8453612327575684
1790108041061071000,2.021071044921875,-1.54820716381073,-1.4949302673339844,0.5699357390403748
1790108041071016200,2.03101611328125,-0.9070991277694702,-1.136600136756897,0.27281808853149414
1790108041080960000,2.0409599609375,-0.31146684288978577,-0.8455117344856262,0.003497134894132614
1790108041090905000,2.050905029296875,0.10787689685821533,-0.9856009483337402,-0.3078916370868683
1790108041100849200,2.06084912109375,0.30019745230674744,-0.8047106266021729,-0.5333740711212158
1790108041110793200,2.070793212890625,0.2746888995170593,-0.6462423801422119,-0.5800110697746277
1790108041120738000,2.080738037109375,0.3164896070957184,-0.8887441158294678,-0.5263805985450745
1790108041130682000,2.09068212890625,0.7548997402191162,-1.260599136352539,-0.41751983761787415
1790108041140627200,2.100627197265625,1.6360294818878174,-0.8664416074752808,-0.024414293467998505
1790108041150571000,2.110571044921875,1.728495478630066,-0.7574264407157898,0.17107504606246948
1790108041160516000,2.12051611328125,0.8458731770515442,-1.1218540668487549,-0.010963691398501396
1790108041170460000,2.1304599609375,-0.004171057604253292,-1.0073453187942505,-0.15244466066360474
1790108041180405200,2.1404052734375,-0.46414005756378174,-0.8839576840400696,-0.2403744012117386
1790108041190349000,2.15034912109375,-0.26551565527915955,-0.2722676694393158,-0.31746599078178406
1790108041200293000,2.160293212890625,0.3135271370410919,0.20736974477767944,-0.30504101514816284
1790108041210238000,2.170238037109375,0.8472270369529724,0.33306804299354553,-0.0912320613861084
1790108041220182300,2.180182373046875,1.119696021080017,0.0025189127773046494,0.12444674223661423
1790108041230127000,2.190127197265625,0.7350396513938904,-0.3501427471637726,0.12316469103097916
1790108041240071200,2.2000712890625,0.1701795756816864,-0.5673166513442993,0.14273889362812042
1790108041250016000,2.21001611328125,0.1859619915485382,-0.4128887355327606,0.23029616475105286
1790108041259960000,2.2199599609375,1.0598589181900024,0.3826774060726166,0.5682710409164429
1790108041269904100,2.229904052734375,1.456052303314209,0.8221167922019958,0.7938042879104614
1790108041279849000,2.239848876953125,1.3097466230392456,0.8017614483833313,0.8236837387084961
1790108041289793000,2.24979296875,1.0089433193206787,0.7201089262962341,0.888025164604187
1790108041299738000,2.259738037109375,0.8811266422271729,0.4721753001213074,0.9236939549446106
1790108041309682200,2.26968212890625,2.0711231231689453,0.4375440776348114,0.8780249953269958
1790108041319627000,2.279626953125,3.7983546257019043,-0.21979260444641113,0.866628885269165
1790108041329571000,2.289571044921875,4.59197998046875,0.05085726082324982,1.4773684740066528
1790108041339516200,2.29951611328125,3.871553897857666,-0.6491876244544983,2.207549810409546
1790108041349460200,2.309460205078125,2.3571724891662598,-0.6148887872695923,2.9851341247558594
1790108041359404000,2.319404052734375,1.2775582075119019,0.340928316116333,3.1871612071990967
1790108041369349000,2.32934912109375,0.710235059261322,0.7644779682159424,2.8252956867218018
1790108041379293000,2.33929296875,0.04721250757575035,0.22920025885105133,2.2532856464385986
1790108041389238000,2.349238037109375,-0.31127187609672546,0.9775320291519165,1.1900662183761597
1790108041399182000,2.35918212890625,-0.21600735187530518,1.4877654314041138,0.32089489698410034
1790108041409127000,2.369126953125,-0.18925802409648895,0.4707515239715576,-0.24290962517261505
1790108041419071000,2.379071044921875,-0.7831704616546631,-0.32723572850227356,-0.30946084856987
1790108041429015000,2.38901513671875,-1.7468632459640503,-0.8435866832733154,-0.09883357584476471
1790108041438960000,2.398960205078125,-2.5307729244232178,-1.6798335313796997,-0.12661536037921906
1790108041448904000,2.408904052734375,-3.0897693634033203,-2.6001532077789307,-0.3575444519519806
1790108041458849000,2.41884912109375,-3.0414021015167236,-2.789295196533203,-0.7084440588951111
1790108041468793000,2.42879296875,-2.5393919944763184,-2.202387571334839,-1.1799269914627075
1790108041478738200,2.43873828125,-1.7191466093063354,-1.2342956066131592,-1.4850237369537354
1790108041488682000,2.448681884765625,-0.9055361747741699,-0.6675889492034912,-1.6576464176177979
1790108041498627000,2.458626953125,-0.1394236534833908,-0.48981204628944397,-1.4827940464019775
1790108041508571100,2.468571044921875,0.6519026756286621,0.09817501902580261,-0.8722884058952332
1790108041518515200,2.47851513671875,1.2599560022354126,1.4553399085998535,0.6081920266151428
1790108041528460000,2.4884599609375,1.4854559898376465,1.304743766784668,1.8164159059524536
1790108041538404000,2.498404052734375,1.4018629789352417,0.09252817928791046,2.982926368713379
1790108041548349200,2.50834912109375,1.4000667333602905,-0.6916478276252747,4.271405220031738
1790108041558293000,2.51829296875,1.7084987163543701,-0.9215836524963379,4.584559440612793
1790108041568238000,2.528238037109375,2.2907357215881348,-0.8764233589172363,4.0889058113098145
1790108041578182000,2.538181884765625,2.7885189056396484,-0.7200543284416199,3.450263261795044
1790108041588126200,2.548126220703125,2.830174207687378,-0.5328088402748108,2.9521493911743164
1790108041598071000,2.558071044921875,3.9434962272644043,0.40766000747680664,2.7958037853240967
1790108041608015000,2.56801513671875,4.203661918640137,1.1185472011566162,2.6359715461730957
1790108041617960000,2.5779599609375,4.234986782073975,2.193331241607666,1.6170661449432373
1790108041627904300,2.587904296875,3.7106428146362305,2.561404228210449,0.36246225237846375
1790108041637849000,2.59784912109375,3.1054205894470215,1.7634111642837524,-0.10304275155067444
1790108041647793200,2.607793212890625,2.384262800216675,0.5800269842147827,-0.1779889017343521
1790108041657738000,2.617738037109375,1.765884280204773,-0.4589041471481323,-0.2784642279148102
1790108041667682000,2.62768212890625,1.527841567993164,-0.8873242139816284,-0.12924067676067352
1790108041677626000,2.637626220703125,1.3924988508224487,-0.7957719564437866,-0.07881613820791245
1790108041687571000,2.647571044921875,0.8419342637062073,-0.9886953234672546,-0.6053198575973511
1790108041697515000,2.657514892578125,0.030470173805952072,-1.0618842840194702,-1.094247817993164
1790108041707460000,2.667460205078125,-0.5433339476585388,-0.6377401947975159,-1.3238353729248047
1790108041717404200,2.677404052734375,-0.7180655598640442,0.014673789031803608,-1.2422590255737305
1790108041727349000,2.687348876953125,-0.6500232815742493,0.4002048075199127,-0.8566338419914246
1790108041737293000,2.69729296875,-0.4538853168487549,0.7145131230354309,-0.19326388835906982
1790108041747238100,2.707238037109375,-0.42343392968177795,0.48421624302864075,0.4330679178237915
1790108041757182200,2.71718212890625,-0.5695691108703613,-0.2203105092048645,0.833014965057373
1790108041767126000,2.7271259765625,-0.7172850370407104,-0.822648823261261,0.9258649945259094
1790108041777071000,2.737071044921875,-0.5605348348617554,-0.7328989505767822,0.7559401392936707
1790108041787015000,2.747014892578125,-0.3139367997646332,-0.14306364953517914,0.6012698411941528
1790108041796960000,2.7569599609375,-0.16919079422950745,0.20529776811599731,0.38204532861709595
1790108041806903800,2.76690380859375,-0.1458609700202942,0.08087274432182312,0.14342665672302246
1790108041816848600,2.7768486328125,-0.08894132822751999,-0.1637299805879593,0.08960966020822525
1790108041826792700,2.786792724609375,0.037277333438396454,-0.27946165204048157,0.22820056974887848
1790108041836736800,2.79673681640625,-0.10687682777643204,0.6360768675804138,-0.232890784740448
1790108041846681900,2.806681884765625,-0.047774095088243484,-0.07433202117681503,0.11296513676643372
1790108041856626000,2.8166259765625,0.17717395722866058,-1.1937599182128906,0.5959786772727966
1790108041866570800,2.82657080078125,0.12886235117912292,-1.3088798522949219,0.6870955228805542
1790108041876514600,2.8365146484375,-0.028093544766306877,-1.047131061553955,0.5551066994667053
1790108041886460000,2.8464599609375,-0.18091104924678802,-0.8551304936408997,0.38800984621047974
1790108041896403700,2.85640380859375,-0.31481078267097473,-0.7048330903053284,0.2775895893573761
1790108041906347800,2.86634765625,-0.15938392281532288,-0.0728338211774826,-0.9067682027816772
1790108041916292600,2.876292724609375,0.1533878594636917,0.4834948182106018,-0.4638819098472595
1790108041926237000,2.88623681640625,-0.2338045984506607,-0.23303106427192688,0.837059497833252
1790108041936181800,2.896181640625,0.016024921089410782,-1.0889071226119995,0.9862613081932068
1790108041946125800,2.906125732421875,0.22996969521045685,-1.8610161542892456,1.0738193988800049
1790108041956070700,2.916070556640625,0.24692487716674805,-2.2905266284942627,0.9811505675315857
1790108041966015000,2.926014892578125,0.09700623154640198,-2.422619342803955,0.898867666721344
1790108041975959800,2.935959716796875,-0.22745005786418915,-2.3601930141448975,0.9640371799468994
1790108041985903600,2.945903564453125,-0.2748764157295227,-2.545177698135376,1.3163185119628906
1790108041995847700,2.95584765625,0.1408785879611969,-3.0589518547058105,1.7151614427566528
1790108042005792800,2.965792724609375,0.559402346611023,-3.2632784843444824,1.8161051273345947
1790108042015736800,2.97573681640625,0.6186425089836121,-3.0447776317596436,1.6113582849502563
1790108042025681700,2.985681640625,0.5978472232818604,-2.3898775577545166,1.130815029144287
1790108042035625700,2.995625732421875,0.3842948377132416,-1.1523536443710327,0.3227803707122803
1790108042045570800,3.00557080078125,-0.06406190246343613,-0.2698107659816742,-0.27416664361953735
1790108042055515000,3.015514892578125,-0.2527879476547241,0.39481520652770996,-0.8726498484611511
1790108042065458700,3.025458740234375,-0.27834179997444153,0.7765522003173828,-1.3920986652374268
1790108042075403800,3.03540380859375,-0.2879200577735901,0.885690450668335,-1.5839372873306274
1790108042085347800,3.045347900390625,-0.3217478096485138,0.6940549612045288,-1.440232276916504
1790108042095293000,3.05529296875,-0.3940849304199219,0.45993855595588684,-1.2144763469696045
1790108042105236700,3.06523681640625,-0.5152457356452942,0.34275519847869873,-0.8969428539276123
1790108042115181600,3.075181640625,-0.6135780811309814,0.2877140939235687,-0.5161336660385132
1790108042125126000,3.0851259765625,-0.6266978979110718,0.11113772541284561,-0.09174060076475143
1790108042135070700,3.09507080078125,-0.7524082660675049,0.12912796437740326,0.18703794479370117
1790108042145014800,3.105014892578125,-0.8857706189155579,0.6203357577323914,0.40103358030319214
1790108042154958800,3.114958740234375,-1.039872169494629,0.4096738398075104,0.4741879105567932
1790108042164904000,3.124904052734375,-1.1110821962356567,0.5329957604408264,0.5234407186508179
1790108042174847700,3.13484765625,-1.1449460983276367,1.0718016624450684,0.3483811020851135
1790108042184792800,3.144792724609375,-0.6887457966804504,1.53452730178833,0.09481596201658249
1790108042194736600,3.154736572265625,0.2306634783744812,1.5848596096038818,-0.1620987057685852
1790108042204682000,3.164681884765625,0.8694719076156616,1.5013996362686157,-0.37364980578422546
1790108042214625800,3.174625732421875,1.0768147706985474,1.5711567401885986,-0.37125739455223083
1790108042224569900,3.18456982421875,0.8859555721282959,1.1068167686462402,-0.16800226271152496
1790108042234514700,3.1945146484375,0.5082000494003296,-0.004733578767627478,0.09976447373628616
1790108042244458800,3.204458740234375,0.06791265308856964,-1.062462329864502,0.32959553599357605
1790108042254403800,3.21440380859375,-0.37123164534568787,-1.6104940176010132,0.5202134847640991
1790108042264348000,3.224347900390625,-0.7753767371177673,-1.5393126010894775,0.619368314743042
1790108042274292700,3.234292724609375,-0.925834059715271,-1.1595332622528076,0.5632548332214355
1790108042284236500,3.244236572265625,-0.913723886013031,-0.740702748298645,0.38336047530174255
1790108042294182000,3.254181884765625,-0.8516779541969299,-0.4542827904224396,0.17309388518333435
1790108042304125700,3.264125732421875,-0.7605240345001221,-0.19915832579135895,0.02038981392979622
1790108042314069800,3.27406982421875,-0.6355345249176025,0.032440248876810074,-0.0017780829221010208
1790108042324014600,3.2840146484375,-0.48957252502441406,0.22040963172912598,0.08267927914857864
1790108042333959000,3.293958984375,-0.3241799771785736,0.3270038962364197,0.1477636992931366
1790108042343903700,3.30390380859375,-0.17936767637729645,0.3756166994571686,0.17665180563926697
1790108042353847800,3.313847900390625,-0.0718202143907547,0.38113316893577576,0.1917061060667038
1790108042363793000,3.32379296875,-0.05227820575237274,0.32525044679641724,0.190962553024292
1790108042373737000,3.333737060546875,-0.10188165307044983,0.2511822581291199,0.13294008374214172
1790108042383680800,3.3436806640625,-0.1887558251619339,0.25534531474113464,0.0006147958338260651
1790108042393625900,3.3536259765625,-0.28878164291381836,0.2679752707481384,-0.1891063153743744
1790108042403569700,3.363569580078125,-0.40710750222206116,0.19013455510139465,-0.3855589032173157
1790108042413514800,3.3735146484375,-0.5066974759101868,0.0485457107424736,-0.5377243757247925
1790108042423458800,3.383458740234375,-0.5103330016136169,-0.025338366627693176,-0.656417965888977
1790108042433403600,3.393403564453125,-0.4335958957672119,0.03233941271901131,-0.7679421901702881
1790108042443347700,3.40334765625,-0.3367321789264679,0.08003529161214828,-0.8882156014442444
1790108042453292800,3.413292724609375,-0.2821265161037445,0.09562500566244125,-0.9634325504302979
1790108042463236900,3.42323681640625,-0.24967139959335327,0.06846954673528671,-1.006927728652954
1790108042473180700,3.4331806640625,-0.2212110161781311,-0.02284720167517662,-0.9967268109321594
1790108042483125800,3.443125732421875,-0.16181853413581848,-0.0677797868847847,-1.0141491889953613
1790108042493069800,3.45306982421875,-0.09729613363742828,-0.07599543035030365,-1.0740563869476318
1790108042503015000,3.463014892578125,-0.1406228393316269,-0.01374377217143774,-1.0695960521697998
1790108042512958700,3.472958740234375,-0.11854419857263565,-0.012256551533937454,-1.076749324798584
1790108042522903800,3.48290380859375,-0.1525501012802124,-0.1120007261633873,-1.090590238571167
1790108042532847900,3.492847900390625,-0.20216244459152222,-0.2801596522331238,-1.0856965780258179
1790108042542792000,3.5027919921875,-0.2499360889196396,-0.3861928880214691,-1.0871626138687134
1790108042552736800,3.51273681640625,-0.30658435821533203,-0.44329512119293213,-1.103395700454712
1790108042562680800,3.522680908203125,-0.37126001715660095,-0.4617026150226593,-1.1293220520019531
1790108042572626000,3.5326259765625,-0.4310213625431061,-0.36493292450904846,-1.0987712144851685
1790108042582569700,3.54256982421875,-0.3884219527244568,-0.45439597964286804,-1.042005181312561
1790108042592514800,3.552514892578125,-0.379126638174057,-0.496587336063385,-0.9519297480583191
1790108042602458600,3.562458740234375,-0.35961151123046875,-0.4912961721420288,-0.8548868298530579
1790108042612404000,3.572404052734375,-0.35037609934806824,-0.4480903148651123,-0.7618023157119751
1790108042622347800,3.58234765625,-0.35210341215133667,-0.423649400472641,-0.7169754505157471
1790108042632291800,3.592291748046875,-0.42623788118362427,-0.30292555689811707,-0.6844199299812317
1790108042642236700,3.602236572265625,-0.488427996635437,-0.46312135457992554,-0.6713219881057739
1790108042652180700,3.6121806640625,-0.597476065158844,-0.7136626839637756,-0.6320688128471375
1790108042662125800,3.622125732421875,-0.6415950655937195,-0.7690351605415344,-0.5965654253959656
1790108042672070000,3.63206982421875,-0.6743190884590149,-0.6348351836204529,-0.5174777507781982
1790108042682014700,3.6420146484375,-0.7922398447990417,-0.2912037968635559,-0.28971460461616516
1790108042691958800,3.651958740234375,-0.7796952128410339,-0.1993703544139862,-0.12794016301631927
1790108042701902800,3.66190283203125,-0.8079462647438049,-0.14893966913223267,-0.01006306055933237
1790108042711847700,3.67184765625,-0.8917351961135864,-0.13163286447525024,0.04534853249788284
1790108042721791700,3.681791748046875,-0.9291344881057739,-0.05474074184894562,-0.002686637220904231
1790108042731736600,3.691736572265625,-0.9639115333557129,0.13378101587295532,-0.005998650565743446
1790108042741681000,3.701680908203125,-0.9589745402336121,0.2689712941646576,0.08118898421525955
1790108042751625700,3.711625732421875,-0.9059557914733887,0.14390569925308228,0.07215920835733414
1790108042761569800,3.72156982421875,-0.9126275181770325,0.17017245292663574,0.06532900035381317
1790108042771513600,3.731513671875,-0.9091625809669495,0.19481161236763,0.026980997994542122
1790108042781459000,3.741458984375,-0.8782941699028015,0.15687967836856842,0.02588244341313839
1790108042791402800,3.75140283203125,-0.8198172450065613,0.12316179275512695,0.1042027473449707
1790108042801348000,3.76134814453125,-0.7794452905654907,0.1943049430847168,0.2126605063676834
1790108042811292200,3.771292236328125,-0.7768738865852356,0.3185986280441284,0.29600760340690613
1790108042821237200,3.7812373046875,-0.7523741126060486,0.3983405828475952,0.3481738567352295
1790108042831181300,3.791181396484375,-0.6735020875930786,0.41653069853782654,0.36531007289886475
1790108042841126100,3.801126220703125,-0.5658736228942871,0.3640746772289276,0.3763698935508728
1790108042851070200,3.8110703125,-0.4701681435108185,0.3830161392688751,0.4228597581386566
1790108042861014300,3.82101416015625,-0.3747292459011078,0.5712411999702454,0.5510686039924622
1790108042870959400,3.83095947265625,-0.26733583211898804,0.708625078201294,0.6861554980278015
1790108042880903200,3.840903076171875,-0.1658416986465454,0.742920994758606,0.7228118181228638
1790108042890848300,3.85084814453125,-0.08494017273187637,0.7614004015922546,0.7354316115379333
1790108042900792300,3.860792236328125,-0.013599680736660957,0.7791202664375305,0.7658507823944092
1790108042910737200,3.870737060546875,0.012364101596176624,0.7469139099121094,0.7857367396354675
1790108042920681200,3.88068115234375,0.02457389608025551,0.8210139870643616,0.8000696301460266
1790108042930625300,3.890625244140625,0.028388099744915962,0.8773545026779175,0.7983006238937378
1790108042940570400,3.9005703125,0.06237190216779709,0.8102836012840271,0.7883113622665405
1790108042950514400,3.910514404296875,0.08057408034801483,0.662765622138977,0.774643063545227
1790108042960459300,3.920459228515625,0.12033268064260483,0.5478150844573975,0.7848762273788452
1790108042970403000,3.930403076171875,0.1321520060300827,0.4695125222206116,0.7703272104263306
1790108042980348400,3.940348388671875,0.15483307838439941,0.39987194538116455,0.7495441436767578
1790108042990292200,3.950292236328125,0.22238269448280334,0.33201250433921814,0.6956675052642822
1790108043000237300,3.9602373046875,0.3552006781101227,0.2728932499885559,0.651975154876709
1790108043010181000,3.97018115234375,0.42260995507240295,0.3655776083469391,0.6837837100028992
1790108043020125400,3.98012548828125,0.4843739867210388,0.431000292301178,0.741554856300354
1790108043030070300,3.9900703125,0.5469992756843567,0.4446549713611603,0.8096938729286194
1790108043040014300,4.000014404296875,0.558476448059082,0.4572131037712097,0.8664306998252869
1790108043049959200,4.009959228515625,0.6005896925926208,0.449097603559494,0.9051154255867004
1790108043059903500,4.019903564453125,0.649063766002655,0.4912002980709076,0.9211196899414062
1790108043069848300,4.029848388671875,0.7656468152999878,0.46147388219833374,0.8989014625549316
1790108043079792400,4.03979248046875,0.8074477910995483,0.46134844422340393,0.9201692342758179
1790108043089736200,4.049736083984375,0.8436513543128967,0.450514554977417,0.9488784074783325
1790108043099681300,4.059681396484375,0.9179325103759766,0.4627928137779236,0.9692747592926025
1790108043109625300,4.069625244140625,1.0104984045028687,0.5146249532699585,0.9917370676994324
1790108043119570200,4.079570068359375,1.1296637058258057,0.5454300045967102,1.0209242105484009
1790108043129514200,4.08951416015625,1.290080189704895,0.521391749382019,1.0526931285858154
1790108043139459300,4.099459228515625,1.4212442636489868,0.56063312292099,1.0912953615188599
1790108043149403400,4.1094033203125,1.5215649604797363,0.6504496932029724,1.107762098312378
1790108043159348200,4.11934814453125,1.6214497089385986,0.6729879975318909,1.051261305809021
1790108043169292300,4.129292236328125,1.6856375932693481,0.659740149974823,0.964981734752655
1790108043179236000,4.139236083984375,1.723308801651001,0.6776448488235474,0.878754198551178
1790108043189181400,4.149181396484375,1.7597224712371826,0.639904797077179,0.7835788726806641
1790108043199125200,4.159125244140625,1.7648884057998657,0.5752741694450378,0.692795991897583
1790108043209070000,4.169070068359375,1.7832984924316406,0.5140150785446167,0.6269230842590332
1790108043219014100,4.17901416015625,1.8280768394470215,0.44439929723739624,0.5878111124038696
1790108043228959200,4.188959228515625,1.8824567794799805,0.4232826828956604,0.5812512636184692
1790108043238903300,4.1989033203125,1.8650492429733276,0.326588898897171,0.5275939106941223
1790108043248847400,4.208847412109375,1.8277268409729004,0.23455943167209625,0.4436870813369751
1790108043258792200,4.218792236328125,1.7910414934158325,0.17226916551589966,0.3450270891189575
1790108043268736300,4.228736328125,1.7594572305679321,0.11506257951259613,0.2501993477344513
1790108043278681300,4.238681396484375,1.7474931478500366,0.08160369098186493,0.20420336723327637
1790108043288625200,4.248625244140625,1.7390018701553345,0.055785901844501495,0.2116779237985611
1790108043298570500,4.258570556640625,1.7356644868850708,0.011291669681668282,0.2191781848669052
1790108043308514300,4.268514404296875,1.6764763593673706,-0.007348933722823858,0.2256118208169937
1790108043318459400,4.27845947265625,1.5980987548828125,0.018104759976267815,0.18672673404216766
1790108043328403200,4.2884033203125,1.5283327102661133,0.11035630106925964,0.18367122113704681
1790108043338347300,4.29834716796875,1.490769624710083,0.13475938141345978,0.20408861339092255
1790108043348292400,4.308292236328125,1.4238070249557495,0.07333056628704071,0.2113342583179474
1790108043358236400,4.318236328125,1.343619704246521,-0.06569549441337585,0.1616862714290619
1790108043368181200,4.32818115234375,1.2276033163070679,-0.12304498255252838,0.13879510760307312
1790108043378125300,4.338125244140625,1.1563429832458496,-0.17144633829593658,0.10741375386714935
1790108043388070400,4.3480703125,0.9953466057777405,-0.26022493839263916,0.029222017154097557
1790108043398014200,4.35801416015625,0.8743521571159363,-0.5135529041290283,-0.11131662130355835
1790108043407959300,4.367959228515625,0.7585405707359314,-0.8094481825828552,-0.21456684172153473
1790108043417903000,4.377903076171875,0.6510956287384033,-1.0159534215927124,-0.30596840381622314
1790108043427847400,4.387847412109375,0.5242310166358948,-1.0623928308486938,-0.38545793294906616
1790108043437792300,4.397792236328125,0.4110378921031952,-0.9917040467262268,-0.4397752285003662
1790108043447736300,4.407736328125,0.3501962721347809,-0.9312053918838501,-0.4534686803817749
1790108043457681200,4.41768115234375,0.26807236671447754,-0.8609195351600647,-0.3632921874523163
1790108043467625500,4.42762548828125,0.20859158039093018,-0.885874330997467,-0.16439823806285858
1790108043477570300,4.4375703125,0.17981372773647308,-1.1169264316558838,0.02687663957476616
1790108043487514400,4.447514404296875,0.15030719339847565,-1.2743252515792847,0.11064869165420532
1790108043497458200,4.457458251953125,0.11933223158121109,-1.1284841299057007,0.06602077186107635
1790108043507403300,4.4674033203125,0.0819481760263443,-0.7773528695106506,-0.04863182455301285
1790108043517347300,4.477347412109375,0.04611214995384216,-0.6250283122062683,-0.12623713910579681
1790108043527292200,4.487292236328125,-0.03936123102903366,-0.6048356890678406,-0.17427963018417358
1790108043537236200,4.497236328125,-0.056412652134895325,-0.4273543953895569,-0.10746066272258759
1790108043547181300,4.507181396484375,-0.03862665966153145,-0.0032479693181812763,0.12356292456388474
1790108043557125400,4.51712548828125,-0.041065581142902374,0.314668744802475,0.312478244304657
1790108043567070200,4.5270703125,0.027316294610500336,0.603774905204773,0.3470993936061859
1790108043577014300,4.53701416015625,0.09032882004976273,0.7244499325752258,0.2546062171459198
1790108043586958000,4.5469580078125,0.12757575511932373,0.707813024520874,0.14020031690597534
1790108043596903400,4.5569033203125,0.1610594093799591,0.6566010117530823,0.03393672779202461
1790108043606847200,4.56684716796875,0.1517772525548935,0.5613246560096741,-0.06911768019199371
1790108043616792300,4.576792236328125,0.04818321391940117,0.5609651207923889,-0.1318494975566864
1790108043626736000,4.586736083984375,-0.13149650394916534,0.5756124258041382,-0.19860568642616272
1790108043636681200,4.59668115234375,-0.34019407629966736,0.5712288618087769,-0.2974395751953125
1790108043646625300,4.606625244140625,-0.4987058639526367,0.5175864696502686,-0.45759183168411255
1790108043656569300,4.6165693359375,-0.5716319680213928,0.5077828168869019,-0.5956812500953674
1790108043666514400,4.626514404296875,-0.6377736926078796,0.4610033333301544,-0.7141777873039246
1790108043676458200,4.636458251953125,-0.6826676726341248,0.5085977911949158,-0.7376822829246521
1790108043686403300,4.6464033203125,-0.7527269721031189,0.5640559196472168,-0.7553455829620361
1790108043696347100,4.65634716796875,-0.8457440137863159,0.5850685238838196,-0.7887128591537476
1790108043706292500,4.66629248046875,-0.9460209608078003,0.47288769483566284,-0.8982545733451843
1790108043716236300,4.676236328125,-0.9545925855636597,0.49986496567726135,-0.9449645280838013
1790108043726181400,4.686181396484375,-0.8741980791091919,0.6603886485099792,-0.8882141709327698
1790108043736125200,4.696125244140625,-0.7918606400489807,0.7128545641899109,-0.8329066634178162
1790108043746069200,4.7060693359375,-0.7287956476211548,0.6609857678413391,-0.7878884673118591
1790108043756014300,4.716014404296875,-0.6464229822158813,0.6253460049629211,-0.7122352719306946
1790108043765958400,4.72595849609375,-0.5447713136672974,0.6483601927757263,-0.6018781661987305
1790108043775903200,4.7359033203125,-0.4046448767185211,0.7637871503829956,-0.43430835008621216
1790108043785847300,4.745847412109375,-0.32399097084999084,0.7036597728729248,-0.33868440985679626
1790108043795792400,4.75579248046875,-0.28127574920654297,0.6032002568244934,-0.2574758529663086
1790108043805736200,4.765736083984375,-0.24645058810710907,0.5538187026977539,-0.16094008088111877
1790108043815681300,4.775681396484375,-0.23879188299179077,0.4770203232765198,-0.11039009690284729
1790108043825625000,4.785625,-0.25231537222862244,0.3909381330013275,-0.13806591928005219
1790108043835569200,4.795569091796875,-0.2775956988334656,0.37958428263664246,-0.1875130981206894
1790108043845514000,4.805513916015625,-0.31377115845680237,0.41438719630241394,-0.22600339353084564
1790108043855458300,4.815458251953125,-0.3830932378768921,0.43269190192222595,-0.24561917781829834
1790108043865403100,4.825403076171875,-0.4485180079936981,0.42812687158584595,-0.25163012742996216
1790108043875347200,4.83534716796875,-0.4936772286891937,0.402678519487381,-0.2466801106929779
1790108043885292000,4.8452919921875,-0.5280548334121704,0.3388255536556244,-0.2611488997936249
1790108043895236400,4.855236328125,-0.5636870861053467,0.20857781171798706,-0.27470171451568604
1790108043905180200,4.86518017578125,-0.6082949638366699,0.16531705856323242,-0.31449538469314575
1790108043915125200,4.875125244140625,-0.6231370568275452,0.1518997848033905,-0.32986822724342346
1790108043925069000,4.885069091796875,-0.6265389323234558,0.1208362802863121,-0.3113996684551239
1790108043935014100,4.89501416015625,-0.640723466873169,0.09701137244701385,-0.27837222814559937
1790108043944958200,4.904958251953125,-0.6470699310302734,0.12197630107402802,-0.2407589554786682
1790108043954903000,4.914903076171875,-0.6481455564498901,0.13297036290168762,-0.21647198498249054
1790108043964847000,4.92484716796875,-0.6654311418533325,0.14459556341171265,-0.2450844943523407
1790108043974792200,4.934792236328125,-0.67031329870224,0.13049811124801636,-0.2903187870979309
1790108043984736300,4.944736328125,-0.6967920064926147,0.044105611741542816,-0.3206823468208313
1790108043994680000,4.95468017578125,-0.7189241647720337,-0.044043950736522675,-0.28366973996162415
1790108044004625200,4.964625244140625,-0.7220888733863831,-0.10641588270664215,-0.21029919385910034
1790108044014569000,4.97456884765625,-0.7253690361976624,-0.13766461610794067,-0.1635759025812149
1790108044024514300,4.984514404296875,-0.7321408987045288,-0.10352300852537155,-0.12295117974281311
1790108044034458000,4.9944580078125,-0.7429049015045166,-0.05767429620027542,-0.07194232195615768
1790108044044403200,5.0044033203125,-0.7578042149543762,-0.055515263229608536,-0.02708975411951542
1790108044054347000,5.014346923828125,-0.8010842800140381,-0.08664388954639435,-0.006067292764782906
1790108044064291300,5.024291259765625,-0.8716590404510498,-0.14020715653896332,-0.023977024480700493
1790108044074236200,5.034236083984375,-0.909526526927948,-0.23924532532691956,-0.13270483911037445
1790108044084180200,5.04418017578125,-0.930939793586731,-0.33761167526245117,-0.2925545871257782
1790108044094125300,5.054125244140625,-0.9298281669616699,-0.3935926556587219,-0.43532317876815796
1790108044104069000,5.064069091796875,-0.9181299209594727,-0.4982651174068451,-0.5707006454467773
1790108044114014200,5.07401416015625,-0.9358543157577515,-0.6796455383300781,-0.7004165649414062
1790108044123958000,5.0839580078125,-0.9411924481391907,-0.751557469367981,-0.8022143840789795
1790108044133903400,5.0939033203125,-0.9582838416099548,-0.7279956936836243,-0.8310254812240601
1790108044143847200,5.10384716796875,-0.9738194346427917,-0.6966717839241028,-0.7995923161506653
1790108044153792300,5.113792236328125,-1.0108753442764282,-0.6345391273498535,-0.7038136124610901
1790108044163736000,5.123736083984375,-1.0601561069488525,-0.5221731066703796,-0.5949426293373108
1790108044173680000,5.13368017578125,-1.1115339994430542,-0.4125251770019531,-0.5140693783760071
1790108044183625200,5.143625244140625,-1.1642719507217407,-0.4452362656593323,-0.5051640868186951
1790108044193569300,5.1535693359375,-1.1997413635253906,-0.5071142911911011,-0.5066434741020203
1790108044203514000,5.16351416015625,-1.2308645248413086,-0.6032429933547974,-0.5491352081298828
1790108044213458200,5.173458251953125,-1.2540968656539917,-0.6695926785469055,-0.6300209760665894
1790108044223403300,5.1834033203125,-1.2796169519424438,-0.6926079392433167,-0.7116944789886475
1790108044233347000,5.19334716796875,-1.2909334897994995,-0.696097731590271,-0.7652304172515869
1790108044243291100,5.203291015625,-1.243554711341858,-0.7358722686767578,-0.7609623670578003
1790108044253236000,5.213236083984375,-1.191041111946106,-0.6919016242027283,-0.6976145505905151
1790108044263180300,5.22318017578125,-1.2050267457962036,-0.5345019698143005,-0.6283812522888184
1790108044273125000,5.233125,-1.1973707675933838,-0.3873836398124695,-0.5693935751914978
1790108044283069200,5.243069091796875,-1.1598596572875977,-0.34463369846343994,-0.5163122415542603
1790108044293014000,5.253013916015625,-1.1351289749145508,-0.3564152419567108,-0.47839784622192383
1790108044302958300,5.262958251953125,-1.0903733968734741,-0.3291965126991272,-0.48088276386260986
1790108044312903200,5.272903076171875,-1.0236684083938599,-0.2608986794948578,-0.4783833920955658
1790108044322847200,5.28284716796875,-0.9619451761245728,-0.235086128115654,-0.4459509551525116
1790108044332791000,5.292791015625,-0.9018176198005676,-0.2604418098926544,-0.34977567195892334
1790108044342736100,5.302736083984375,-0.8480454087257385,-0.2111850380897522,-0.18372997641563416
1790108044352680200,5.31268017578125,-0.7951001524925232,-0.07753083109855652,-0.02585965022444725
1790108044362625000,5.322625,-0.7064238786697388,0.1003725454211235,0.1355072557926178
1790108044372569000,5.332569091796875,-0.6060022115707397,0.3240423798561096,0.24700209498405457
1790108044382514200,5.34251416015625,-0.5038122534751892,0.390328049659729,0.3243527412414551
1790108044392458200,5.352458251953125,-0.38873010873794556,0.39579153060913086,0.42743226885795593
1790108044402403000,5.362403076171875,-0.2917620539665222,0.44713208079338074,0.5209656953811646
1790108044412347100,5.37234716796875,-0.21020221710205078,0.5279321074485779,0.6141209602355957
1790108044422291000,5.382291015625,-0.09976370632648468,0.5880628824234009,0.7386273741722107
1790108044432236300,5.392236328125,0.025464512407779694,0.6228501796722412,0.8704847693443298
1790108044442180000,5.40218017578125,0.12122411280870438,0.6522122025489807,0.920673131942749
1790108044452125200,5.412125244140625,0.23833395540714264,0.6184942126274109,0.9586189389228821
1790108044462069200,5.4220693359375,0.3690739870071411,0.5934640169143677,0.9802489876747131
1790108044472014000,5.43201416015625,0.4892086386680603,0.5521655678749084,0.9946199655532837
1790108044481958100,5.441958251953125,0.5894085168838501,0.560580313205719,1.0319281816482544
1790108044491903000,5.451903076171875,0.6754323244094849,0.5995638966560364,1.0590500831604004
1790108044501847300,5.461847412109375,0.7590579986572266,0.570202112197876,1.0658737421035767
1790108044511791000,5.471791015625,0.8613492250442505,0.5714753866195679,1.0994188785552979
1790108044521736200,5.481736083984375,0.9630736708641052,0.5649127960205078,1.1111937761306763
1790108044531680000,5.491679931640625,1.014652967453003,0.4305776357650757,1.0710530281066895
1790108044541625300,5.501625244140625,1.0459659099578857,0.36448994278907776,1.0314233303070068
1790108044551569200,5.511569091796875,1.0916450023651123,0.3863121569156647,1.016400694847107
1790108044561514200,5.52151416015625,1.1338586807250977,0.3799538314342499,1.0119447708129883
1790108044571458000,5.5314580078125,1.1811542510986328,0.3473314344882965,1.0088032484054565
1790108044581403100,5.541403076171875,1.2339359521865845,0.2635519504547119,0.9811341762542725
1790108044591347200,5.55134716796875,1.3037954568862915,0.19489219784736633,0.9513323307037354
1790108044601291300,5.561291259765625,1.3703227043151855,0.18195411562919617,0.936627984046936
1790108044611236000,5.571236083984375,1.4163665771484375,0.21380765736103058,0.9400343894958496
1790108044621180200,5.58118017578125,1.451996088027954,0.21844162046909332,0.9722141623497009
1790108044631125200,5.591125244140625,1.478899359703064,0.18885283172130585,1.0043177604675293
1790108044641069000,5.601069091796875,1.5119361877441406,0.1927729845046997,1.0241345167160034
1790108044651014100,5.61101416015625,1.5536577701568604,0.25882285833358765,1.0331588983535767
1790108044660958000,5.6209580078125,1.6098541021347046,0.3084239065647125,1.0172473192214966
1790108044670903300,5.6309033203125,1.6370127201080322,0.36300697922706604,0.9742738008499146
1790108044680847000,5.64084716796875,1.6283550262451172,0.446809858083725,0.9165627360343933
1790108044690791200,5.650791259765625,1.6590617895126343,0.4415844678878784,0.85300213098526
1790108044700736000,5.660736083984375,1.726485013961792,0.3574613928794861,0.7506932020187378
1790108044710680300,5.670680419921875,1.7605055570602417,0.26960688829421997,0.605134129524231
1790108044720625200,5.680625244140625,1.7557750940322876,0.09706025570631027,0.425486296415329
1790108044730569200,5.6905693359375,1.688876748085022,-0.054737262427806854,0.24564355611801147
1790108044740514000,5.70051416015625,1.5494107007980347,-0.26513686776161194,-0.01430136151611805
1790108044750458400,5.710458251953125,1.4663219451904297,-0.3799377381801605,-0.23398737609386444
1790108044760403200,5.7204033203125,1.4252568483352661,-0.6289774775505066,-0.42297425866127014
1790108044770347000,5.730346923828125,1.3852723836898804,-0.8524864912033081,-0.566183865070343
1790108044780291000,5.740291015625,1.343564748764038,-0.914116382598877,-0.6404385566711426
1790108044790236200,5.750236083984375,1.289495587348938,-0.9345015287399292,-0.6402079463005066
1790108044800180200,5.76018017578125,1.2412748336791992,-0.8788335919380188,-0.5158491730690002
1790108044810124500,5.77012451171875,1.1753724813461304,-0.7000039219856262,-0.250251829624176
1790108044820068600,5.780068603515625,1.1236883401870728,-0.45755264163017273,0.09852081537246704
1790108044830013700,5.790013671875,1.0670109987258911,-0.321807324886322,0.41959473490715027
1790108044839957800,5.799957763671875,0.9972601532936096,-0.23108381032943726,0.6435743570327759
1790108044849902600,5.809902587890625,0.9082444906234741,-0.19769468903541565,0.7182976007461548
1790108044859846700,5.8198466796875,0.8605016469955444,-0.21611782908439636,0.6742534041404724
1790108044869790700,5.829790771484375,0.8501768708229065,-0.31501510739326477,0.6315733194351196
1790108044879735800,5.83973583984375,0.926261305809021,-0.3693324029445648,0.5734956860542297
1790108044889679600,5.8496796875,0.9656084179878235,-0.3158484101295471,0.5527283549308777
1790108044899624700,5.859624755859375,0.9248495101928711,-0.2615879476070404,0.5680322051048279
1790108044909568800,5.86956884765625,0.8465629816055298,-0.2784835696220398,0.5322800874710083
1790108044919513600,5.879513671875,0.7705698013305664,-0.2549910843372345,0.46341297030448914
1790108044929457700,5.889457763671875,0.6846200227737427,-0.24095916748046875,0.4088469445705414
1790108044939402500,5.899402587890625,0.5531205534934998,-0.22557903826236725,0.37235569953918457
1790108044949346800,5.909346923828125,0.4178801476955414,-0.2642766237258911,0.3066216707229614
1790108044959290600,5.91929052734375,0.27628570795059204,-0.33778125047683716,0.16949965059757233
1790108044969235700,5.929235595703125,0.13846684992313385,-0.38547468185424805,0.0413145050406456
1790108044979179500,5.939179443359375,0.021428147330880165,-0.36964792013168335,-0.02353338897228241
1790108044989124900,5.949124755859375,-0.11388973146677017,-0.33469581604003906,-0.08032210171222687
1790108044999068700,5.959068603515625,-0.27517637610435486,-0.18991556763648987,-0.14145836234092712
1790108045009013800,5.969013671875,-0.4463545083999634,-0.034577377140522,-0.18883387744426727
1790108045018957600,5.97895751953125,-0.6405619382858276,0.07139730453491211,-0.23395298421382904
1790108045028902700,5.988902587890625,-0.8073450326919556,0.1656436324119568,-0.28355592489242554
1790108045038846700,5.9988466796875,-0.9206593036651611,0.3484180271625519,-0.2747288942337036
1790108045048790800,6.008790771484375,-1.0013467073440552,0.33856725692749023,-0.31047916412353516
1790108045058735600,6.018735595703125,-1.0620520114898682,0.32366135716438293,-0.3476531505584717
1790108045068680000,6.028679931640625,-1.0947010517120361,0.4095616042613983,-0.37592124938964844
1790108045078624800,6.038624755859375,-1.113418698310852,0.4900021255016327,-0.4093514680862427
1790108045088568600,6.048568603515625,-1.0714430809020996,0.7533499002456665,-0.3197619318962097
1790108045098513700,6.058513671875,-1.0220447778701782,0.8036959767341614,-0.2686583697795868
1790108045108457700,6.068457763671875,-0.9977648258209229,0.6054697036743164,-0.29719361662864685
1790108045118401800,6.07840185546875,-0.9362694621086121,0.49536392092704773,-0.2840782403945923
1790108045128346600,6.0883466796875,-0.8136146068572998,0.5076892971992493,-0.237677201628685
1790108045138290700,6.098290771484375,-0.685917317867279,0.5422859191894531,-0.23304088413715363
1790108045148235800,6.10823583984375,-0.620690107345581,0.47167301177978516,-0.3134169578552246
1790108045158179800,6.118179931640625,-0.6005758047103882,0.42788276076316833,-0.3804762065410614
1790108045168124700,6.128124755859375,-0.5463120341300964,0.5749220252037048,-0.35338279604911804
1790108045178068700,6.13806884765625,-0.5168570876121521,0.7000929117202759,-0.3346167504787445
1790108045188013800,6.148013916015625,-0.5726553797721863,0.7017781734466553,-0.361252099275589
1790108045197957600,6.15795751953125,-0.6532435417175293,0.6581507325172424,-0.3801616430282593
1790108045207902700,6.16790283203125,-0.7263225317001343,0.6261091828346252,-0.3642854690551758
1790108045217846500,6.177846435546875,-0.755227267742157,0.6046252846717834,-0.3500872850418091
1790108045227790600,6.18779052734375,-0.7688088417053223,0.5636439919471741,-0.41367825865745544
1790108045237735700,6.197735595703125,-0.7298467755317688,0.5335028767585754,-0.48873865604400635
1790108045247679700,6.2076796875,-0.6197003126144409,0.6396567225456238,-0.5222446918487549
1790108045257624600,6.21762451171875,-0.582793116569519,0.7720630764961243,-0.4994778335094452
1790108045267568600,6.227568603515625,-0.6000202894210815,0.8071989417076111,-0.49044597148895264
1790108045277513700,6.237513671875,-0.6523955464363098,0.7596563100814819,-0.5052276849746704
1790108045287457800,6.247457763671875,-0.7377005815505981,0.6897332072257996,-0.5295791029930115
1790108045297402600,6.257402587890625,-0.8441533446311951,0.5890923142433167,-0.5581472516059875
1790108045307346700,6.2673466796875,-0.8990219235420227,0.45943546295166016,-0.5814597606658936
1790108045317290800,6.277290771484375,-0.9401613473892212,0.39566320180892944,-0.6263868808746338
1790108045327235600,6.287235595703125,-0.9943052530288696,0.43236100673675537,-0.6523817181587219
1790108045337179600,6.2971796875,-1.0390492677688599,0.45937249064445496,-0.6298478245735168
1790108045347124500,6.30712451171875,-1.091835856437683,0.35543861985206604,-0.6126970648765564
1790108045357068800,6.31706884765625,-1.0919663906097412,0.2831187844276428,-0.6425920724868774
1790108045367013600,6.327013671875,-1.1115467548370361,0.24600334465503693,-0.7253141403198242
1790108045376957700,6.336957763671875,-1.1172443628311157,0.2174990177154541,-0.85075443983078
1790108045386902800,6.34690283203125,-1.126574993133545,0.10055427998304367,-0.972610592842102
1790108045396846800,6.356846923828125,-1.1331298351287842,-0.020844481885433197,-1.0591620206832886
1790108045406790700,6.366790771484375,-1.1341111660003662,-0.09047628939151764,-1.15193510055542
1790108045416735700,6.37673583984375,-1.1329327821731567,-0.11704293638467789,-1.2129085063934326
1790108045426679600,6.386679443359375,-1.144417643547058,-0.10411302745342255,-1.2193272113800049
1790108045436624600,6.396624755859375,-1.1250144243240356,-0.11286753416061401,-1.1894993782043457
1790108045446568700,6.406568603515625,-1.0743515491485596,-0.14708009362220764,-1.1765516996383667
1790108045456513500,6.416513427734375,-1.0643000602722168,-0.1640508621931076,-1.1551984548568726
1790108045466457600,6.42645751953125,-1.0811411142349243,-0.19619548320770264,-1.1526111364364624
1790108045476402700,6.436402587890625,-1.1029376983642578,-0.16686151921749115,-1.113890528678894
1790108045486346800,6.4463466796875,-1.1096744537353516,-0.14095908403396606,-1.0794793367385864
1790108045496290600,6.45629052734375,-1.1146774291992188,-0.160569965839386,-1.074032187461853
1790108045506235600,6.466235595703125,-1.1353864669799805,-0.14625519514083862,-1.0946645736694336
1790108045516179700,6.4761796875,-1.1249468326568604,-0.20518624782562256,-1.1277239322662354
1790108045526124800,6.486124755859375,-1.0923182964324951,-0.25359290838241577,-1.1152422428131104
1790108045536068600,6.496068603515625,-1.0235569477081299,-0.22252166271209717,-1.036177396774292
1790108045546013700,6.506013671875,-1.0090526342391968,-0.13435691595077515,-0.9347900152206421
1790108045555957800,6.515957763671875,-1.0297021865844727,-0.007958298549056053,-0.8190522789955139
1790108045565902600,6.525902587890625,-1.012324571609497,0.05582467094063759,-0.6902170777320862
1790108045575846700,6.5358466796875,-0.9655921459197998,0.02905508130788803,-0.614344596862793
1790108045585790700,6.545790771484375,-0.8915131688117981,-0.10069066286087036,-0.5714077353477478
1790108045595735800,6.55573583984375,-0.777596652507782,-0.2645131051540375,-0.5595142245292664
1790108045605679900,6.565679931640625,-0.66141277551651,-0.3259109556674957,-0.5336567759513855
1790108045615624700,6.575624755859375,-0.5941654443740845,-0.2117210477590561,-0.44930943846702576
1790108045625568500,6.585568603515625,-0.5282551050186157,0.002576597034931183,-0.22981062531471252
1790108045635513900,6.595513916015625,-0.4622666835784912,0.1655520498752594,0.06720249354839325
1790108045645457700,6.605457763671875,-0.41313615441322327,0.25275835394859314,0.2719053030014038
1790108045655402800,6.61540283203125,-0.3689196705818176,0.30643773078918457,0.3325905501842499
1790108045665346600,6.6253466796875,-0.3132116496562958,0.13700473308563232,0.3071448504924774
1790108045675290600,6.63529052734375,-0.26246610283851624,-0.06514100730419159,0.32435721158981323
1790108045685235700,6.645235595703125,-0.21532310545444489,-0.1538434475660324,0.40980181097984314
1790108045695179800,6.6551796875,-0.1397225260734558,-0.16404812037944794,0.5415360331535339
1790108045705124600,6.66512451171875,-0.0027649402618408203,-0.05677998065948486,0.6387826800346375
1790108045715068700,6.675068603515625,0.16387523710727692,0.10032419115304947,0.6449562907218933
1790108045725013800,6.685013671875,0.2820591330528259,0.2305527627468109,0.6414821743965149
1790108045734957600,6.69495751953125,0.33999475836753845,0.34490883350372314,0.7184131741523743
1790108045744902700,6.704902587890625,0.41591668128967285,0.42317596077919006,0.8542224168777466
1790108045754846700,6.7148466796875,0.5153241753578186,0.5023702383041382,0.9650437831878662
1790108045764790800,6.724790771484375,0.6058964133262634,0.5228336453437805,0.9938421845436096
1790108045774735600,6.734735595703125,0.6772544384002686,0.5196731090545654,0.9883631467819214
1790108045784679700,6.7446796875,0.7393356561660767,0.592629611492157,0.9951909184455872
1790108045794624800,6.754624755859375,0.775554358959198,0.6191385984420776,0.9977359175682068
1790108045804568800,6.76456884765625,0.8072784543037415,0.5566374063491821,1.0092530250549316
1790108045814513700,6.774513671875,0.8667460083961487,0.5041017532348633,1.0427860021591187
1790108045824457700,6.784457763671875,0.9561214447021484,0.5318036675453186,1.0680735111236572
1790108045834402800,6.79440283203125,1.0649020671844482,0.5506910085678101,1.076440691947937
1790108045844347000,6.804346923828125,1.1751912832260132,0.5290666818618774,1.0384330749511719
1790108045854290700,6.814290771484375,1.2910796403884888,0.4294300675392151,0.9473298192024231
1790108045864235500,6.824235595703125,1.3863412141799927,0.3435383141040802,0.8542100191116333
1790108045874179600,6.8341796875,1.509881854057312,0.36999258399009705,0.8361955881118774
1790108045884124700,6.844124755859375,1.6129209995269775,0.4505079388618469,0.863431453704834
1790108045894068700,6.85406884765625,1.680700659751892,0.49156415462493896,0.8709255456924438
1790108045904013600,6.864013671875,1.7471261024475098,0.512785792350769,0.8779330849647522
1790108045913957600,6.87395751953125,1.8120285272598267,0.5065132975578308,0.8689879775047302
1790108045923902700,6.88390283203125,1.8986324071884155,0.4364631772041321,0.788009524345398
1790108045933846800,6.8938466796875,1.9735658168792725,0.3810150921344757,0.6625280380249023
1790108045943791600,6.90379150390625,2.027224063873291,0.3156913220882416,0.48830661177635193
1790108045953735700,6.913735595703125,2.095637798309326,0.2930133044719696,0.29508063197135925
1790108045963679700,6.9236796875,2.0885727405548096,0.044820792973041534,0.03597823157906532
1790108045973624800,6.933624755859375,2.0582175254821777,-0.3043637275695801,-0.19972237944602966
1790108045983568600,6.943568603515625,1.9981935024261475,-0.5502597689628601,-0.3764076828956604
1790108045993513500,6.953513427734375,1.8854559659957886,-0.7068712115287781,-0.5122727155685425
1790108046003457800,6.963457763671875,1.7805386781692505,-0.8902910947799683,-0.608991801738739
1790108046013402600,6.973402587890625,1.7050809860229492,-1.0464177131652832,-0.6157935857772827
1790108046023346700,6.9833466796875,1.6248342990875244,-1.1201359033584595,-0.5386865735054016
1790108046033291500,6.99329150390625,1.578052282333374,-1.1400327682495117,-0.4270901679992676
1790108046043235800,7.00323583984375,1.565351128578186,-1.132412314414978,-0.2879607677459717
1790108046053179600,7.0131796875,1.5634610652923584,-1.0971064567565918,-0.09464649856090546
1790108046063124700,7.023124755859375,1.5411882400512695,-0.9953129291534424,0.13727249205112457
1790108046073068500,7.033068603515625,1.4342889785766602,-0.8471537232398987,0.36437469720840454
1790108046083014000,7.043013916015625,1.3230005502700806,-0.5606460571289062,0.5923359394073486
1790108046092957700,7.052957763671875,1.1868072748184204,-0.12208554148674011,0.8786526322364807
1790108046102902500,7.062902587890625,1.004450798034668,0.05334087833762169,1.039210319519043
1790108046112846600,7.0728466796875,0.7842214703559875,-0.16752181947231293,0.9594725966453552
1790108046122791700,7.082791748046875,0.6723495125770569,-0.4485279321670532,0.7714822292327881
1790108046132735700,7.09273583984375,0.663574755191803,-0.5370587110519409,0.6836959719657898
1790108046142679800,7.1026796875,0.7142297029495239,-0.5624673962593079,0.6939571499824524
1790108046152624600,7.112624755859375,0.6736683249473572,-0.7411945462226868,0.5553547739982605
1790108046162568700,7.122568603515625,0.5594841837882996,-0.7546759843826294,0.4218997657299042
1790108046172513800,7.132513671875,0.4991520643234253,-0.4381435215473175,0.4399384558200836
1790108046182457600,7.14245751953125,0.39759561419487,-0.18688732385635376,0.47306764125823975
1790108046192402700,7.152402587890625,0.25368523597717285,-0.22613316774368286,0.3753899931907654
1790108046202346800,7.1623466796875,0.22800864279270172,-0.24716761708259583,0.25821784138679504
1790108046212291800,7.172291748046875,0.29187825322151184,0.03155900165438652,0.23075075447559357
1790108046222235600,7.182235595703125,0.2816509008407593,0.16286829113960266,0.09619293361902237
1790108046232180500,7.192180419921875,0.12517347931861877,-0.04851941391825676,-0.17087717354297638
1790108046242124800,7.202124755859375,-0.00003131094854325056,-0.06485364586114883,-0.29976803064346313
1790108046252068900,7.21206884765625,-0.1744638979434967,0.09659059345722198,-0.35116317868232727
1790108046262013700,7.222013671875,-0.4250609576702118,0.1320822834968567,-0.41987672448158264
1790108046271957800,7.231957763671875,-0.6209232807159424,0.11100102961063385,-0.46562740206718445
1790108046281902800,7.24190283203125,-0.7850764989852905,0.10018939524888992,-0.4753202497959137
1790108046291846700,7.2518466796875,-0.9050000905990601,0.26452305912971497,-0.4033653438091278
1790108046301791700,7.261791748046875,-1.0181673765182495,0.33681830763816833,-0.3803492486476898
1790108046311735600,7.271735595703125,-1.1139602661132812,0.27771681547164917,-0.41306072473526
1790108046321679600,7.2816796875,-1.1523300409317017,0.21234768629074097,-0.40141817927360535
1790108046331624700,7.291624755859375,-1.1700899600982666,0.1498970240354538,-0.3544546961784363
1790108046341568800,7.30156884765625,-1.1383432149887085,0.2530452311038971,-0.2350742518901825
1790108046351513600,7.311513671875,-1.0184520483016968,0.49366486072540283,-0.08090286701917648
1790108046361457700,7.321457763671875,-0.9757006168365479,0.3041069209575653,-0.12393955141305923
1790108046371402800,7.33140283203125,-0.9810414910316467,-0.02363574132323265,-0.19631625711917877
1790108046381346800,7.341346923828125,-0.8983564376831055,0.03980341553688049,-0.08893519639968872
1790108046391291600,7.351291748046875,-0.8153970837593079,-0.0002026911824941635,-0.08737611025571823
1790108046401235500,7.3612353515625,-0.8468056321144104,-0.21802130341529846,-0.24384482204914093
1790108046411180800,7.371180908203125,-0.7251801490783691,0.24584540724754333,-0.08700115233659744
1790108046421124600,7.38112451171875,-0.6600334048271179,0.42722639441490173,-0.10431089997291565
1790108046431068700,7.391068603515625,-0.8277001976966858,0.3376721143722534,-0.2072053849697113
1790108046441013800,7.401013671875,-0.874683678150177,0.590766191482544,-0.06620699912309647
1790108046450957800,7.410957763671875,-1.0428423881530762,0.41727399826049805,-0.08023972809314728
1790108046460902700,7.420902587890625,-1.1598252058029175,0.3159785270690918,-0.059155214577913284
1790108046470846700,7.4308466796875,-1.136373519897461,0.47739169001579285,0.010953187942504883
1790108046480791800,7.440791748046875,-1.0941730737686157,0.533823549747467,-0.026033060625195503
1790108046490735900,7.45073583984375,-1.0506839752197266,0.6281760931015015,-0.06528646498918533
1790108046500680700,7.4606806640625,-1.0187572240829468,0.7118353247642517,-0.1697569489479065
1790108046510624800,7.470624755859375,-0.9826146364212036,0.7235418558120728,-0.2841323912143707
1790108046520568600,7.480568603515625,-0.9171054363250732,0.6672013401985168,-0.3765302300453186
1790108046530513700,7.490513671875,-0.8725303411483765,0.5461488366127014,-0.3979440927505493
1790108046540457700,7.500457763671875,-0.8767357468605042,0.3869919180870056,-0.36786261200904846
1790108046550402600,7.510402587890625,-0.9495275020599365,0.22017933428287506,-0.35550177097320557
1790108046560346600,7.5203466796875,-1.0355744361877441,0.17906305193901062,-0.3684713542461395
1790108046570291700,7.530291748046875,-1.0494296550750732,0.2775660455226898,-0.38810667395591736
1790108046580235800,7.54023583984375,-1.0641348361968994,0.3255687355995178,-0.3746494650840759
1790108046590180600,7.5501806640625,-1.1248615980148315,0.22759363055229187,-0.36549273133277893
1790108046600124700,7.560124755859375,-1.1907905340194702,0.11641571670770645,-0.3905176520347595
1790108046610068700,7.57006884765625,-1.2308224439620972,0.07762715220451355,-0.4548146724700928
1790108046620013800,7.580013916015625,-1.2362613677978516,0.08352099359035492,-0.5375751256942749
1790108046629957600,7.58995751953125,-1.2333358526229858,0.05218243598937988,-0.6152192950248718
1790108046639902500,7.59990234375,-1.270612120628357,-0.1638427972793579,-0.7399617433547974
1790108046649846800,7.6098466796875,-1.3055225610733032,-0.4596690833568573,-0.9361765384674072
1790108046659791600,7.61979150390625,-1.3004716634750366,-0.5780934691429138,-1.0664646625518799
1790108046669735700,7.629735595703125,-1.2781882286071777,-0.6002054810523987,-1.1177223920822144
1790108046679680500,7.639680419921875,-1.2627272605895996,-0.5598151683807373,-1.0982842445373535
1790108046689624800,7.649624755859375,-1.2649364471435547,-0.5078834295272827,-1.039478063583374
1790108046699568600,7.659568603515625,-1.2570830583572388,-0.4594120383262634,-0.9788342118263245
1790108046709513700,7.669513671875,-1.225162148475647,-0.3911689519882202,-0.9528212547302246
1790108046719457500,7.67945751953125,-1.1670128107070923,-0.2900066673755646,-0.9439616799354553
1790108046729403000,7.68940283203125,-1.1579253673553467,-0.2535603642463684,-0.9146647453308105
1790108046739346700,7.6993466796875,-1.1792577505111694,-0.2652798295021057,-0.8709510564804077
1790108046749291800,7.709291748046875,-1.1900113821029663,-0.3458229601383209,-0.840100109577179
1790108046759235600,7.719235595703125,-1.1728944778442383,-0.4097801148891449,-0.8734157085418701
1790108046769180700,7.7291806640625,-1.1662973165512085,-0.4804948568344116,-0.9640303254127502
1790108046779124700,7.739124755859375,-1.1179707050323486,-0.5668512582778931,-1.0406923294067383
1790108046789068800,7.74906884765625,-1.0821813344955444,-0.6126648783683777,-1.0762807130813599
1790108046799013600,7.759013671875,-1.059861660003662,-0.6498274207115173,-1.0689133405685425
1790108046808958200,7.768958251953125,-1.023862600326538,-0.7085457444190979,-1.0371215343475342
1790108046818903600,7.778903564453125,-0.9352629780769348,-0.6909888386726379,-0.944853663444519
1790108046828847400,7.788847412109375,-0.8186287879943848,-0.5818346738815308,-0.7529487609863281
1790108046838792400,7.79879248046875,-0.7000877261161804,-0.4395155906677246,-0.4824983775615692
1790108046848736300,7.808736328125,-0.5989627838134766,-0.1861666887998581,-0.1596955806016922
1790108046858681300,7.818681396484375,-0.49163496494293213,0.1368582397699356,0.13478505611419678
1790108046868625400,7.82862548828125,-0.33897119760513306,0.31506577134132385,0.3390754759311676
1790108046878569500,7.838569580078125,-0.21542583405971527,0.3318980038166046,0.46372178196907043
1790108046888514600,7.8485146484375,-0.13481459021568298,0.33104822039604187,0.5415723919868469
1790108046898458400,7.858458251953125,-0.0492115318775177,0.3554161489009857,0.6254806518554688
1790108046908403500,7.868403564453125,0.05937842279672623,0.3341118097305298,0.7560715675354004
1790108046918347300,7.87834716796875,0.18109047412872314,0.3756837248802185,0.8174957633018494
1790108046928292600,7.888292724609375,0.30662083625793457,0.5049411654472351,0.8052440881729126
1790108046938236400,7.898236328125,0.4023910462856293,0.5791727900505066,0.8430980443954468
1790108046948181500,7.908181396484375,0.4767756164073944,0.6164079308509827,0.888274073600769
1790108046958125300,7.918125244140625,0.5641714930534363,0.5787801146507263,0.8582274913787842
1790108046968070400,7.9280703125,0.643432080745697,0.4589560627937317,0.7961205244064331
1790108046978014500,7.938014404296875,0.7321020364761353,0.4196177124977112,0.7679538726806641
1790108046987958500,7.94795849609375,0.8240348100662231,0.46200236678123474,0.7735247015953064
1790108046997903400,7.9579033203125,0.8976847529411316,0.4598976969718933,0.7904976010322571
1790108047007847400,7.967847412109375,0.9705676436424255,0.4838326573371887,0.7940093278884888
1790108047017792500,7.97779248046875,1.0380189418792725,0.5250157713890076,0.7674368023872375
1790108047027736300,7.987736328125,1.0990638732910156,0.5962210297584534,0.7475140690803528
1790108047037681400,7.997681396484375,1.1747443675994873,0.726347029209137,0.7493098378181458
1790108047047625200,8.007625244140625,1.248150110244751,0.800971269607544,0.7505881786346436
1790108047057570600,8.017570556640624,1.3466761112213135,0.8594212532043457,0.7634955048561096
1790108047067514400,8.027514404296875,1.4512174129486084,0.8644363284111023,0.7101317048072815
1790108047077458400,8.03745849609375,1.5495662689208984,0.8007159233093262,0.6303521990776062
1790108047087403300,8.0474033203125,1.6561715602874756,0.7694687247276306,0.5910980105400085
1790108047097347600,8.05734765625,1.7689825296401978,0.8088054656982422,0.5740212798118591
1790108047107292400,8.06729248046875,1.8685142993927002,0.7837619781494141,0.5271356105804443
1790108047117236500,8.077236572265624,1.9669761657714844,0.6840804219245911,0.44494298100471497
1790108047127181300,8.087181396484375,2.0222105979919434,0.577635645866394,0.3197936713695526
1790108047137125400,8.09712548828125,2.0385184288024902,0.44640761613845825,0.1383168250322342
1790108047147070500,8.107070556640625,2.020332098007202,0.2873660922050476,-0.06716866046190262
1790108047157014300,8.11701416015625,1.9913214445114136,0.09061574935913086,-0.2546522617340088
1790108047166958300,8.126958251953125,1.984248161315918,-0.11200322955846786,-0.4028778374195099
1790108047176903400,8.1369033203125,1.9905704259872437,-0.3939307928085327,-0.5357400178909302
1790108047186847500,8.146847412109375,1.9998645782470703,-0.4952262341976166,-0.5436248779296875
1790108047196792300,8.156792236328124,1.916642189025879,-0.7292839884757996,-0.5996039509773254
1790108047206736400,8.166736328125,1.8560298681259155,-0.989721417427063,-0.68006432056427
1790108047216681500,8.176681396484375,1.7932016849517822,-1.1204110383987427,-0.697932243347168
1790108047226625500,8.18662548828125,1.6762396097183228,-1.103809118270874,-0.669498085975647
1790108047236570400,8.1965703125,1.627887487411499,-1.0292928218841553,-0.5593338012695312
1790108047246514400,8.206514404296875,1.6387425661087036,-0.7855855822563171,-0.13022367656230927
1790108047256458500,8.21645849609375,1.6199983358383179,-0.3403652310371399,0.5097490549087524
1790108047266403300,8.2264033203125,1.6370905637741089,-0.10643969476222992,0.9686651229858398
1790108047276347400,8.236347412109374,1.5557482242584229,-0.10740615427494049,1.0844295024871826
1790108047286292200,8.246292236328125,1.4326953887939453,-0.12464742362499237,1.0200884342193604
1790108047296236500,8.256236572265625,1.293139934539795,-0.347878634929657,0.8911503553390503
1790108047306181400,8.266181396484376,1.2150412797927856,-0.5664829015731812,0.7748395800590515
1790108047316125400,8.27612548828125,1.1805107593536377,-0.6347634196281433,0.7370397448539734
1790108047326070300,8.2860703125,1.1593278646469116,-0.6571221947669983,0.7106317281723022
1790108047336014600,8.2960146484375,1.1137889623641968,-0.6949888467788696,0.6534435749053955
1790108047345958400,8.30595849609375,1.0155891180038452,-0.7404959201812744,0.5680826306343079
1790108047355903500,8.315903564453125,0.9019118547439575,-0.6429077982902527,0.5673696994781494
1790108047365847300,8.325847412109376,0.8397205471992493,-0.5021705627441406,0.6045066714286804
1790108047375792400,8.33579248046875,0.7164885997772217,-0.48676660656929016,0.6008533835411072
1790108047385736400,8.345736328125,0.5239489674568176,-0.45371147990226746,0.549055814743042
1790108047395681300,8.355681396484375,0.3540903925895691,-0.39198899269104004,0.5020099878311157
1790108047405625300,8.365625244140626,0.20094245672225952,-0.48551779985427856,0.3780679702758789
1790108047415570400,8.3755703125,0.058729127049446106,-0.5499836206436157,0.2668452858924866
1790108047425514500,8.385514404296876,-0.0420517660677433,-0.4432351887226105,0.21649618446826935
1790108047435458300,8.395458251953125,-0.15433409810066223,-0.2290874868631363,0.20166157186031342
1790108047445403400,8.4054033203125,-0.2987203001976013,-0.05909658223390579,0.16780774295330048
1790108047455347200,8.41534716796875,-0.44515207409858704,0.02282571606338024,0.11060330271720886
1790108047465292500,8.42529248046875,-0.6165919899940491,-0.18121235072612762,-0.07067592442035675
1790108047475236400,8.435236328125,-0.7178741097450256,-0.20613980293273926,-0.1695825308561325
1790108047485181400,8.445181396484376,-0.7811865210533142,-0.11440788209438324,-0.21145601570606232
1790108047495125200,8.455125244140625,-0.8687440156936646,-0.04052167385816574,-0.26421108841896057
1790108047505070300,8.4650703125,-0.9491817951202393,0.09392300993204117,-0.2699328660964966
1790108047515014400,8.475014404296875,-1.0296274423599243,0.20242711901664734,-0.26300305128097534
1790108047524958500,8.48495849609375,-1.1056644916534424,0.2481999695301056,-0.3029283285140991
1790108047534903300,8.4949033203125,-1.1370075941085815,0.3519090712070465,-0.3094557523727417
1790108047544847600,8.50484765625,-1.1122334003448486,0.5091699361801147,-0.25183728337287903
1790108047554792400,8.51479248046875,-1.0793591737747192,0.5086714029312134,-0.23501142859458923
1790108047564736300,8.524736328125,-1.0516400337219238,0.38691532611846924,-0.27949076890945435
1790108047574681600,8.534681640625,-1.031014323234558,0.28923162817955017,-0.3643462657928467
1790108047584625400,8.54462548828125,-0.9487398266792297,0.4910603165626526,-0.32976648211479187
1790108047594570500,8.554570556640625,-0.8331953883171082,0.7364016771316528,-0.24507449567317963
1790108047604514300,8.564514404296874,-0.850060760974884,0.5912474989891052,-0.3244704604148865
1790108047614459400,8.57445947265625,-0.9083536267280579,0.3675909638404846,-0.41917699575424194
1790108047624403500,8.584403564453124,-0.9108489155769348,0.30271998047828674,-0.45484650135040283
1790108047634347500,8.594347412109375,-0.8295508623123169,0.37897080183029175,-0.445492684841156
1790108047644292400,8.604292236328124,-0.7224633693695068,0.38091379404067993,-0.43806391954421997
1790108047654236400,8.614236328125,-0.6666712164878845,0.2541651725769043,-0.4399808645248413
1790108047664181500,8.624181396484374,-0.6631262898445129,0.10642244666814804,-0.41274985671043396
1790108047674125300,8.634125244140625,-0.7067118287086487,0.0012164050713181496,-0.37647491693496704
1790108047684070400,8.6440703125,-0.7979145050048828,0.009098398499190807,-0.3839148283004761
1790108047694014200,8.65401416015625,-0.9099861979484558,0.12560956180095673,-0.4886295199394226
1790108047703959600,8.66395947265625,-1.0333542823791504,0.3287772834300995,-0.5870137810707092
1790108047713903400,8.6739033203125,-1.1276499032974243,0.5101411938667297,-0.6317857503890991
1790108047723847400,8.683847412109374,-1.1567816734313965,0.6012929081916809,-0.6655086278915405
1790108047733792300,8.693792236328125,-1.1331722736358643,0.5600541234016418,-0.7472154498100281
1790108047743736600,8.703736572265624,-1.1465551853179932,0.4039003252983093,-0.793221116065979
1790108047753681400,8.713681396484375,-1.1684613227844238,0.28261303901672363,-0.8187453746795654
1790108047763625500,8.72362548828125,-1.1913565397262573,0.2733926475048065,-0.8246985077857971
1790108047773570300,8.7335703125,-1.2067725658416748,0.2749495506286621,-0.8162248730659485
1790108047783514600,8.7435146484375,-1.162683129310608,0.26985979080200195,-0.8276657462120056
1790108047793459500,8.75345947265625,-1.0806984901428223,0.32852551341056824,-0.8274595737457275
1790108047803403300,8.7634033203125,-1.0116915702819824,0.41051119565963745,-0.8252648711204529
1790108047813346800,8.773346923828125,-1.020495891571045,0.4239897131919861,-0.8239820003509521
1790108047823292000,8.7832919921875,-1.0773382186889648,0.340320885181427,-0.8379043936729431
1790108047833235700,8.793235595703125,-1.1663503646850586,0.32375016808509827,-0.8102834224700928
1790108047843180800,8.803180908203124,-1.197780728340149,0.37290170788764954,-0.7930100560188293
1790108047853124900,8.813124755859375,-1.1969854831695557,0.4197253882884979,-0.7779408097267151
1790108047863069700,8.823069580078124,-1.1804026365280151,0.4706903100013733,-0.736139178276062
1790108047873013800,8.833013671875,-1.1213021278381348,0.5118044018745422,-0.6955166459083557
1790108047882958800,8.842958740234375,-1.0822967290878296,0.4928140342235565,-0.6779962182044983
1790108047892903000,8.85290283203125,-1.0941643714904785,0.3616155683994293,-0.7108572125434875
1790108047902846700,8.8628466796875,-1.1386991739273071,0.20579232275485992,-0.782611072063446
1790108047912791800,8.872791748046875,-1.2103374004364014,0.06719636172056198,-0.807867169380188
1790108047922735600,8.882735595703124,-1.2297399044036865,-0.05890580639243126,-0.8215962052345276
1790108047932681000,8.892680908203126,-1.2376830577850342,-0.18688054382801056,-0.8377219438552856
1790108047942624800,8.902624755859375,-1.2188292741775513,-0.2330354005098343,-0.8228359818458557
1790108047952569600,8.912569580078125,-1.2039480209350586,-0.20926909148693085,-0.7879784107208252
1790108047962513700,8.922513671875,-1.1894150972366333,-0.1916925013065338,-0.819108247756958
1790108047972458800,8.932458740234376,-1.1282715797424316,-0.21399489045143127,-0.9000755548477173
1790108047982402800,8.94240283203125,-1.0344552993774414,-0.31279000639915466,-0.9692097902297974
1790108047992347000,8.952346923828125,-0.95930016040802,-0.3807291090488434,-0.9718245267868042
1790108048002291700,8.962291748046875,-0.8966763615608215,-0.3603355288505554,-0.9142295718193054
1790108048012235800,8.97223583984375,-0.8472768664360046,-0.2728695869445801,-0.8170987367630005
1790108048022180900,8.982180908203125,-0.7705889344215393,-0.17436863481998444,-0.6819738745689392
1790108048032124700,8.992124755859376,-0.6703603267669678,-0.08398894220590591,-0.4992138743400574
1790108048042069800,9.00206982421875,-0.5548163056373596,0.013996254652738571,-0.3508785665035248
1790108048052013800,9.012013916015626,-0.44495823979377747,0.0809933990240097,-0.2928573489189148
1790108048061959000,9.021958984375,-0.318530410528183,0.09694831073284149,-0.21556618809700012
1790108048071902700,9.03190283203125,-0.18963846564292908,0.09627187252044678,-0.09778469800949097
1790108048081846800,9.0418466796875,-0.08178859204053879,0.06928957998752594,-0.01752258464694023
1790108048091792000,9.0517919921875,0.016003750264644623,0.10516875237226486,0.04649768024682999
1790108048101736000,9.06173583984375,0.12601669132709503,0.23556119203567505,0.20376136898994446
1790108048111680800,9.0716806640625,0.22851669788360596,0.45740196108818054,0.4095499515533447
1790108048121624800,9.081624755859375,0.3220003843307495,0.5330352783203125,0.5362807512283325
1790108048131570000,9.09156982421875,0.40900933742523193,0.4981233477592468,0.5978456139564514
1790108048141513700,9.101513671875,0.5115365386009216,0.5061382055282593,0.6186761856079102
1790108048151458800,9.111458740234376,0.6081408262252808,0.4060554802417755,0.5948038697242737
1790108048161402600,9.121402587890625,0.6862980723381042,0.2910440266132355,0.601543128490448
1790108048171348000,9.131347900390624,0.7621209621429443,0.28295332193374634,0.6372819542884827
1790108048181291800,9.141291748046875,0.8416864275932312,0.34286436438560486,0.7011420726776123
1790108048191235800,9.15123583984375,0.9046510457992554,0.39169371128082275,0.767059326171875
1790108048201180700,9.1611806640625,0.9668059349060059,0.44333887100219727,0.8646234273910522
1790108048211125000,9.171125,1.0391874313354492,0.5023617744445801,0.977907121181488
1790108048221069800,9.18106982421875,1.126590371131897,0.529705286026001,1.045707106590271
1790108048231014000,9.191013916015624,1.2048604488372803,0.4990472197532654,1.0805777311325073
1790108048240958700,9.200958740234375,1.2789336442947388,0.4688069820404053,1.1088021993637085
1790108048250902800,9.21090283203125,1.3600130081176758,0.4589708745479584,1.162563443183899
1790108048260847900,9.220847900390625,1.4304081201553345,0.45095229148864746,1.2023730278015137
1790108048270791700,9.230791748046874,1.4662463665008545,0.42480191588401794,1.183071494102478
1790108048280735700,9.24073583984375,1.513060450553894,0.3776911497116089,1.1305326223373413
1790108048290680800,9.250680908203124,1.589863896369934,0.34847521781921387,1.087939977645874
1790108048300625000,9.260625,1.6767067909240723,0.3064233958721161,1.067636251449585
1790108048310569700,9.27056982421875,1.773197889328003,0.30581408739089966,1.058986783027649
1790108048320513800,9.280513671875,1.8888829946517944,0.307353138923645,1.0583847761154175
1790108048330459000,9.290458984375,2.0260775089263916,0.17435835301876068,1.0110862255096436
1790108048340403000,9.30040283203125,2.115668773651123,-0.0014897966757416725,0.9212617874145508
1790108048350347800,9.31034765625,2.1426491737365723,-0.18517839908599854,0.7885029315948486
1790108048360291800,9.320291748046875,2.1099047660827637,-0.23296190798282623,0.6322858929634094
1790108048370235600,9.330235595703124,2.1089224815368652,-0.22637590765953064,0.4935932755470276
1790108048380180700,9.3401806640625,2.164867401123047,-0.28135162591934204,0.41892552375793457
1790108048390124800,9.350124755859374,2.245328187942505,-0.4520607888698578,0.30264872312545776
1790108048400069600,9.360069580078125,2.297661066055298,-0.599433422088623,0.12586091458797455
1790108048410013700,9.370013671875,2.2873823642730713,-0.7187283635139465,-0.07123058289289474
1790108048419958800,9.379958740234375,2.243635654449463,-0.7197195291519165,-0.2103753536939621
1790108048429902800,9.38990283203125,2.1930277347564697,-0.7282764911651611,-0.26837554574012756
1790108048439847700,9.39984765625,2.068833827972412,-0.7299816608428955,-0.23489493131637573
1790108048449791700,9.409791748046874,1.928151249885559,-0.658890962600708,-0.0992279127240181
1790108048459735800,9.41973583984375,1.7780508995056152,-0.5436707139015198,0.07689835131168365
1790108048469681000,9.429680908203125,1.6154545545578003,-0.3819137513637543,0.2165880799293518
1790108048479624700,9.439624755859375,1.4693771600723267,-0.3131354749202728,0.34346532821655273
1790108048489569800,9.44956982421875,1.3503319025039673,-0.4008028507232666,0.4251123368740082
1790108048499513900,9.459513916015625,1.2433801889419556,-0.5160621404647827,0.45881474018096924
1790108048509458700,9.469458740234375,1.1423825025558472,-0.6100714802742004,0.4504454731941223
1790108048519402800,9.47940283203125,1.059855341911316,-0.6865559220314026,0.4066236615180969
1790108048529347800,9.489347900390625,0.9735623002052307,-0.6970812678337097,0.3300681710243225
1790108048539292000,9.4992919921875,0.8518580794334412,-0.5823108553886414,0.23859000205993652
1790108048549235700,9.509235595703124,0.6813046932220459,-0.37236273288726807,0.2302122265100479
1790108048559180800,9.519180908203126,0.491136372089386,-0.20313891768455505,0.25559622049331665
1790108048569124600,9.52912451171875,0.32096144556999207,-0.05988162383437157,0.2377314567565918
1790108048579070000,9.539070068359376,0.23592939972877502,0.11234010010957718,0.23805338144302368
1790108048589013800,9.549013671875,0.2863241136074066,0.3564792573451996,0.19489765167236328
1790108048598958800,9.558958740234376,0.3443848788738251,0.42480456829071045,0.08316822350025177
1790108048608902700,9.568902587890625,0.2517859637737274,0.18548840284347534,-0.11072401702404022
1790108048618847700,9.57884765625,0.15423157811164856,0.12715086340904236,-0.14988377690315247
1790108048628791800,9.588791748046875,0.03512248769402504,0.3540862798690796,-0.07109495997428894
1790108048638736600,9.598736572265626,-0.2317725270986557,0.5195077061653137,-0.08872479945421219
1790108048648680700,9.6086806640625,-0.6483127474784851,0.10926320403814316,-0.3118217885494232
1790108048658624800,9.618624755859376,-0.871113121509552,0.15354837477207184,-0.3196582794189453
1790108048668569900,9.62856982421875,-0.9464040994644165,0.5681522488594055,-0.17692136764526367
1790108048678513700,9.638513671875,-1.0206419229507446,0.8350781798362732,-0.11720757931470871
1790108048688458800,9.648458740234375,-1.1203538179397583,0.8600120544433594,-0.17996975779533386
1790108048698402800,9.65840283203125,-1.24399995803833,0.41411349177360535,-0.42171764373779297
1790108048708348000,9.668347900390625,-1.2258559465408325,0.375396192073822,-0.47028303146362305
1790108048718291700,9.678291748046876,-1.1417378187179565,0.7090855240821838,-0.36534515023231506
1790108048728236800,9.68823681640625,-1.2075756788253784,0.5652588605880737,-0.4900442063808441
1790108048738180900,9.698180908203126,-1.340962529182434,0.10613960772752762,-0.7167654037475586
1790108048748125000,9.708125,-1.3890451192855835,-0.1690264493227005,-0.8291993141174316
1790108048758069800,9.71806982421875,-1.3436260223388672,0.0005955798551440239,-0.7619673609733582
1790108048768013800,9.728013916015625,-1.2747201919555664,0.34897381067276,-0.6478527784347534
1790108048777959000,9.737958984375,-1.1877074241638184,0.5608745813369751,-0.4931389093399048
1790108048787902700,9.74790283203125,-1.17473566532135,0.42974743247032166,-0.38307473063468933
1790108048797847800,9.757847900390624,-1.1889293193817139,0.12290262430906296,-0.34433645009994507
1790108048807791600,9.76779150390625,-1.13385009765625,-0.10930664837360382,-0.35657793283462524
1790108048817737000,9.777737060546874,-1.0056082010269165,-0.2890247106552124,-0.4519478380680084
1790108048827680800,9.7876806640625,-0.7850896716117859,-0.4052613079547882,-0.5912599563598633
1790108048837624800,9.797624755859376,-0.5438860654830933,-0.4246823787689209,-0.6772838830947876
1790108048847569700,9.807569580078125,-0.40911808609962463,-0.37449324131011963,-0.6506429314613342
1790108048857514000,9.817513916015624,-0.42012420296669006,-0.24935702979564667,-0.603938639163971
1790108048867458800,9.827458740234375,-0.5524332523345947,-0.007989955134689808,-0.56784987449646
1790108048877403000,9.83740283203125,-0.7365683913230896,0.34424853324890137,-0.555069088935852
1790108048887348000,9.847347900390625,-0.9114033579826355,0.6561550498008728,-0.5177923440933228
1790108048897291800,9.857291748046874,-1.0935887098312378,0.768926739692688,-0.4046713411808014
1790108048907236900,9.86723681640625,-1.2247813940048218,0.6947510242462158,-0.2728685736656189
1790108048917180700,9.8771806640625,-1.2397880554199219,0.5423256754875183,-0.22984956204891205
1790108048927124700,9.887124755859375,-1.185239553451538,0.4209451973438263,-0.2518608570098877
1790108048937069800,9.89706982421875,-1.1108555793762207,0.2901756167411804,-0.3648788332939148
1790108048947014000,9.907013916015625,-1.1220704317092896,0.2580355405807495,-0.5192340612411499
1790108048956958700,9.916958740234374,-1.1625806093215942,0.37975144386291504,-0.6853124499320984
1790108048966902800,9.92690283203125,-1.2072218656539917,0.4570092260837555,-0.7822533845901489
1790108048976848000,9.936847900390624,-1.2416266202926636,0.3465345501899719,-0.7715411186218262
1790108048986792000,9.9467919921875,-1.277750015258789,0.15964986383914948,-0.7206848859786987
1790108048996736800,9.95673681640625,-1.312316656112671,0.12363732606172562,-0.6150364279747009
1790108049006680800,9.966680908203125,-1.32588791847229,0.14796635508537292,-0.5108644366264343
1790108049016625000,9.976625,-1.362699031829834,0.09762397408485413,-0.4465578496456146
1790108049026569700,9.98656982421875,-1.42037832736969,-0.0033186213113367558,-0.4775059223175049
1790108049036513800,9.996513671875,-1.423950433731079,-0.01434261817485094,-0.5478163361549377
1790108049046458600,10.006458740234375,-1.38825523853302,0.04029027000069618,-0.5957686901092529
1790108049056403000,10.01640283203125,-1.3608763217926025,-0.0657525286078453,-0.6540740728378296
1790108049066347800,10.02634765625,-1.3754690885543823,-0.3322087228298187,-0.7278995513916016
1790108049076291800,10.036291748046875,-1.3951630592346191,-0.6473245024681091,-0.773044764995575
1790108049086236700,10.046236572265625,-1.3517175912857056,-0.8502805233001709,-0.7857264280319214
1790108049096181000,10.056180908203125,-1.2849280834197998,-0.9479923248291016,-0.773628830909729
1790108049106124800,10.066124755859375,-1.2491283416748047,-0.9885535836219788,-0.7382556796073914
1790108049116070000,10.07606982421875,-1.257218360900879,-0.936409592628479,-0.7041674256324768
1790108049126013700,10.086013671875,-1.274855136871338,-0.8970430493354797,-0.685549795627594
1790108049135958800,10.095958740234375,-1.2741607427597046,-0.9361364245414734,-0.745281994342804
1790108049145902800,10.10590283203125,-1.2368820905685425,-1.0431889295578003,-0.8839922547340393
1790108049155847700,10.11584765625,-1.2019147872924805,-1.2296267747879028,-0.9964332580566406
1790108049165791700,10.125791748046876,-1.1648659706115723,-1.3570518493652344,-0.9756688475608826
1790108049175736800,10.13573681640625,-1.1116054058074951,-1.2900327444076538,-0.8129723072052002
1790108049185681000,10.145680908203126,-1.046887755393982,-0.988812267780304,-0.5194975733757019
1790108049195625700,10.155625732421875,-0.9705593585968018,-0.5914257168769836,-0.1290474832057953
1790108049205569800,10.16556982421875,-0.8956909775733948,-0.19374732673168182,0.22529327869415283
1790108049215513600,10.175513671875,-0.8134813904762268,0.060383714735507965,0.4450482726097107
1790108049225459000,10.185458984375,-0.7136735916137695,0.18827855587005615,0.5265920758247375
1790108049235402800,10.19540283203125,-0.5723474025726318,0.14867457747459412,0.5035237669944763
1790108049245347800,10.205347900390626,-0.43923109769821167,0.06706652045249939,0.5405954718589783
1790108049255292000,10.2152919921875,-0.3304983377456665,0.1650543063879013,0.6853541135787964
1790108049265236700,10.22523681640625,-0.24011917412281036,0.29142239689826965,0.8611786961555481
1790108049275180800,10.235180908203125,-0.1454603374004364,0.42357560992240906,0.954961895942688
1790108049285125600,10.245125732421876,-0.04426394775509834,0.44597092270851135,0.9427343010902405
1790108049295070000,10.255070068359375,0.08694204688072205,0.4216932952404022,0.9089520573616028
1790108049305014000,10.265013916015626,0.2196311205625534,0.5004967451095581,0.9364377856254578
1790108049314958800,10.274958740234375,0.3253632187843323,0.6048909425735474,0.9781661033630371
1790108049324902700,10.284902587890626,0.4138811230659485,0.6045567393302917,1.0022214651107788
1790108049334848000,10.294847900390625,0.5118939280509949,0.5365955233573914,0.9747154116630554
1790108049344791800,10.304791748046876,0.6230097413063049,0.4464283585548401,0.891732394695282
1790108049354737000,10.31473681640625,0.724786639213562,0.3497973382472992,0.7916592955589294
1790108049364680700,10.3246806640625,0.8143939971923828,0.2759670615196228,0.7312281727790833
1790108049374626000,10.3346259765625,0.9024211168289185,0.285012811422348,0.7544615268707275
1790108049384569900,10.34456982421875,0.9882239103317261,0.3935326337814331,0.8101980090141296
1790108049394514000,10.354513916015625,1.0689728260040283,0.498916894197464,0.8579673171043396
1790108049404458800,10.364458740234374,1.1645318269729614,0.5521964430809021,0.9208884835243225
1790108049414402800,10.37440283203125,1.2700860500335693,0.6355847716331482,0.9666333198547363
1790108049424348000,10.384347900390624,1.3927264213562012,0.6255369782447815,0.9689571857452393
1790108049434291700,10.394291748046875,1.4989981651306152,0.5122054815292358,0.9174638390541077
1790108049444236800,10.40423681640625,1.5793952941894531,0.35355669260025024,0.8452312350273132
1790108049454180600,10.4141806640625,1.6493827104568481,0.24657325446605682,0.7702856063842773
1790108049464126000,10.4241259765625,1.731237530708313,0.17554140090942383,0.7039997577667236
1790108049474069800,10.43406982421875,1.80973482131958,0.09071829169988632,0.6332079768180847
1790108049484013800,10.444013916015624,1.8804079294204712,-0.03794408217072487,0.5723166465759277
1790108049493958700,10.453958740234375,1.9367669820785522,-0.17851696908473969,0.5215489268302917
1790108049503903000,10.463903076171874,1.948235273361206,-0.30632901191711426,0.4880479574203491
1790108049513847800,10.473847900390625,1.949528694152832,-0.47868114709854126,0.43757113814353943
1790108049523792000,10.4837919921875,1.9765329360961914,-0.5019451379776001,0.4739041328430176
1790108049533736700,10.49373681640625,1.92487370967865,-0.5854176878929138,0.45757895708084106
1790108049543681000,10.503680908203124,1.8592268228530884,-0.7735111713409424,0.3638439178466797
1790108049553625900,10.5136259765625,1.8198925256729126,-0.8897427916526794,0.27728599309921265
1790108049563569700,10.523569580078124,1.8211122751235962,-1.0015912055969238,0.17785125970840454
1790108049573513700,10.533513671875,1.7817867994308472,-1.2594043016433716,0.07449867576360703
1790108049583458800,10.543458740234374,1.662598967552185,-1.4883674383163452,-0.025931257754564285
1790108049593403000,10.55340283203125,1.5154850482940674,-1.4564659595489502,-0.033461976796388626
1790108049603347700,10.56334765625,1.4666866064071655,-1.3727116584777832,0.09626273065805435
1790108049613291800,10.573291748046875,1.3998550176620483,-1.342406153678894,0.33179429173469543
1790108049623236900,10.58323681640625,1.271828055381775,-1.1242536306381226,0.6497727632522583
1790108049633181000,10.593180908203125,1.205801010131836,-0.7977933287620544,0.9677436351776123
1790108049643125800,10.603125732421875,1.1856461763381958,-0.4057222306728363,1.2716095447540283
1790108049653069800,10.61306982421875,1.161869764328003,-0.27397575974464417,1.274776816368103
1790108049663015000,10.623014892578125,1.1314117908477783,-0.4306950569152832,1.0188405513763428
1790108049672959000,10.632958984375,1.1036232709884644,-0.6996269226074219,0.6727744340896606
1790108049682902800,10.64290283203125,1.0865648984909058,-0.7410942316055298,0.5087482333183289
1790108049692847600,10.65284765625,1.0326645374298096,-0.5444517135620117,0.5625607371330261
1790108049702792000,10.6627919921875,0.9537793397903442,-0.3457529842853546,0.6882076263427734
1790108049712736800,10.67273681640625,0.8720301389694214,-0.2646530270576477,0.7410790920257568
1790108049722680800,10.682680908203125,0.7782415747642517,-0.33784496784210205,0.6719463467597961
1790108049732625700,10.692625732421876,0.6927496790885925,-0.22776250541210175,0.5913791656494141
1790108049742570000,10.702570068359375,0.6000551581382751,-0.06046353280544281,0.5022687315940857
1790108049752514800,10.712514892578126,0.5062350034713745,0.0034443875774741173,0.3591393828392029
1790108049762459000,10.722458984375,0.4066508710384369,-0.1300787776708603,0.1754784882068634
1790108049772402700,10.732402587890626,0.24432583153247833,-0.12932392954826355,0.08765628933906555
1790108049782348000,10.74234814453125,0.04574190080165863,0.016909174621105194,0.03597338870167732
1790108049792291800,10.752291748046876,-0.1559353917837143,0.18586541712284088,0.028993617743253708
1790108049802236700,10.762236572265625,-0.3405097424983978,0.22112832963466644,0.03246025741100311
1790108049812180700,10.7721806640625,-0.4603537321090698,0.17499829828739166,0.011407798156142235
1790108049822125600,10.78212548828125,-0.5509288907051086,0.15246956050395966,-0.050154898315668106
1790108049832070000,10.79206982421875,-0.6513156294822693,0.08587846904993057,-0.1947651207447052
1790108049842014700,10.8020146484375,-0.7277544736862183,0.17969924211502075,-0.27593639492988586
1790108049851958800,10.811958740234376,-0.7863470315933228,0.42684707045555115,-0.23199966549873352
1790108049861902600,10.821902587890625,-0.8618838787078857,0.5720332860946655,-0.19492633640766144
1790108049871848000,10.831847900390626,-1.0132502317428589,0.3435189723968506,-0.3211064636707306
1790108049881791700,10.841791748046875,-1.0914957523345947,0.28543755412101746,-0.37640538811683655
1790108049891736800,10.85173681640625,-1.1122695207595825,0.3750016689300537,-0.3761003911495209
1790108049901680600,10.8616806640625,-1.102798581123352,0.5237951874732971,-0.35812458395957947
1790108049911626000,10.8716259765625,-1.004917860031128,0.8395810723304749,-0.2251802235841751
1790108049921569800,10.88156982421875,-0.95102858543396,0.8531331419944763,-0.14979252219200134
1790108049931514600,10.8915146484375,-0.9897252321243286,0.45915892720222473,-0.2407739907503128
1790108049941458700,10.901458740234375,-0.996490478515625,0.14028239250183105,-0.3427150249481201
1790108049951402800,10.91140283203125,-0.8962154388427734,0.11805754154920578,-0.3652006983757019
1790108049961347800,10.921347900390625,-0.7650182843208313,0.21230894327163696,-0.3680766522884369
1790108049971292000,10.9312919921875,-0.7110109925270081,0.09944319725036621,-0.46328863501548767
1790108049981236700,10.94123681640625,-0.6792288422584534,0.08321815729141235,-0.4712357521057129
1790108049991180800,10.951180908203124,-0.6546324491500854,0.17784777283668518,-0.38364624977111816
1790108050001126000,10.9611259765625,-0.6740481853485107,0.3221825659275055,-0.2604407072067261
1790108050011069700,10.971069580078124,-0.7339553833007812,0.5512338876724243,-0.13627079129219055
1790108050021014800,10.981014892578125,-0.8159972429275513,0.655045211315155,-0.12723281979560852
1790108050030958800,10.990958740234374,-0.9135915040969849,0.5334339737892151,-0.1934003382921219
1790108050040903000,11.00090283203125,-0.9934325814247131,0.32969680428504944,-0.25577956438064575
1790108050050847700,11.01084765625,-1.0518689155578613,0.17133401334285736,-0.31553906202316284
1790108050060791800,11.020791748046875,-1.0650001764297485,0.10483913868665695,-0.41718313097953796
1790108050070737000,11.03073681640625,-1.0043221712112427,0.15374484658241272,-0.5195525288581848
1790108050080681000,11.040680908203125,-0.9716001749038696,0.3272079825401306,-0.5826247334480286
1790108050090625800,11.050625732421874,-0.9991579651832581,0.5800225734710693,-0.6135332584381104
1790108050100569600,11.060569580078125,-1.089723825454712,0.7323479056358337,-0.6328662037849426
1790108050110515000,11.070514892578124,-1.2212930917739868,0.7222967147827148,-0.6325145959854126
1790108050120458800,11.080458740234375,-1.2781070470809937,0.644055962562561,-0.608565092086792
1790108050130402800,11.09040283203125,-1.2606297731399536,0.4489878714084625,-0.5752317905426025
1790108050140347600,11.10034765625,-1.2354739904403687,0.12590089440345764,-0.5792521238327026
1790108050150291700,11.110291748046874,-1.1924123764038086,-0.13545265793800354,-0.6689585447311401
1790108050160236800,11.12023681640625,-1.1541306972503662,-0.20753537118434906,-0.7674156427383423
1790108050170180900,11.130180908203124,-1.1358691453933716,-0.1642875075340271,-0.8376390337944031
1790108050180125700,11.140125732421875,-1.1032943725585938,-0.010685701854526997,-0.8687008619308472
1790108050190069800,11.15006982421875,-1.0993590354919434,0.21167747676372528,-0.8467901349067688
1790108050200014800,11.160014892578126,-1.124920129776001,0.33366650342941284,-0.8371680974960327
1790108050209959000,11.169958984375,-1.1722655296325684,0.2944965660572052,-0.8761410117149353
1790108050219903700,11.17990380859375,-1.1988587379455566,0.06032722815871239,-0.9237362742424011
1790108050229847600,11.18984765625,-1.2056910991668701,-0.32523366808891296,-0.9707460403442383
1790108050239791900,11.1997919921875,-1.1478712558746338,-0.6199026107788086,-0.9835537075996399
1790108050249736700,11.20973681640625,-1.0367099046707153,-0.6766696572303772,-0.9194643497467041
1790108050259680800,11.2196806640625,-0.9781007766723633,-0.4904246926307678,-0.8081790804862976
1790108050269625600,11.22962548828125,-1.060158133506775,-0.2101055532693863,-0.7466958165168762
1790108050279570000,11.23956982421875,-1.2776131629943848,0.01806742511689663,-0.6948515176773071
1790108050289514800,11.2495146484375,-1.4187462329864502,0.09203264862298965,-0.717112123966217
1790108050299458800,11.259458740234376,-1.4223936796188354,-0.10380928963422775,-0.8130112290382385
1790108050309404000,11.26940380859375,-1.3481016159057617,-0.4921620786190033,-0.8800197243690491
1790108050319348000,11.279347900390626,-1.2199209928512573,-0.7469429969787598,-0.8349978923797607
1790108050329291800,11.289291748046875,-1.1104899644851685,-0.7197302579879761,-0.7507117390632629
1790108050339236900,11.29923681640625,-1.0447138547897339,-0.5256472826004028,-0.6808168292045593
1790108050349180700,11.3091806640625,-0.9933178424835205,-0.37561067938804626,-0.6250436902046204
1790108050359125800,11.319125732421876,-0.9310443997383118,-0.22201713919639587,-0.5463499426841736
1790108050369069800,11.32906982421875,-0.8121287226676941,-0.09244238585233688,-0.45578116178512573
1790108050379014700,11.3390146484375,-0.6764350533485413,0.09324704855680466,-0.32407107949256897
1790108050388958700,11.348958740234375,-0.5392707586288452,0.294286847114563,-0.151413232088089
1790108050398903800,11.35890380859375,-0.419387549161911,0.44573307037353516,0.058770887553691864
1790108050408848000,11.368847900390625,-0.33804601430892944,0.5708686709403992,0.24815067648887634
1790108050418791700,11.378791748046876,-0.2604028880596161,0.6313522458076477,0.3763675093650818
1790108050428736800,11.38873681640625,-0.16091202199459076,0.553673267364502,0.4541415870189667
1790108050438680800,11.398680908203126,-0.049935970455408096,0.4264388680458069,0.431507408618927
1790108050448626000,11.4086259765625,0.060939330607652664,0.3403874337673187,0.3327610194683075
1790108050458569700,11.41856982421875,0.1638856828212738,0.33137422800064087,0.2783891260623932
1790108050468514600,11.4285146484375,0.25147268176078796,0.3378966450691223,0.33615338802337646
1790108050478459000,11.438458984375,0.34067630767822266,0.36824336647987366,0.46146443486213684
1790108050488403700,11.44840380859375,0.4488905966281891,0.44081324338912964,0.5658734440803528
1790108050498347800,11.45834765625,0.5578951239585876,0.46093928813934326,0.6411341428756714
1790108050508291800,11.468291748046875,0.6542209982872009,0.5507427453994751,0.6883360147476196
1790108050518237000,11.47823681640625,0.7352223992347717,0.6457619667053223,0.6896489262580872
1790108050528180700,11.4881806640625,0.8344855904579163,0.6607088446617126,0.6771727800369263
1790108050538125800,11.498125732421874,0.9522015452384949,0.618990957736969,0.629521906375885
1790108050548069600,11.508069580078125,1.0796390771865845,0.5439543128013611,0.58393394947052
1790108050558015000,11.518014892578124,1.1949838399887085,0.5179810523986816,0.6237572431564331
1790108050567958800,11.527958740234375,1.305271863937378,0.626724362373352,0.7097949385643005
1790108050577903900,11.53790380859375,1.3907662630081177,0.7774366140365601,0.782006025314331
1790108050587847700,11.54784765625,1.4468995332717896,0.8565739393234253,0.8630157709121704
1790108050597791700,11.557791748046874,1.5073257684707642,0.8927993178367615,0.9219064712524414
1790108050607736800,11.56773681640625,1.5679795742034912,0.8608630895614624,0.9336298108100891
1790108050617681000,11.577680908203124,1.6163736581802368,0.7264631986618042,0.876867413520813
1790108050627625700,11.587625732421875,1.6703681945800781,0.5885882377624512,0.7789323925971985
1790108050637569800,11.59756982421875,1.729491114616394,0.48131880164146423,0.6762893795967102
1790108050647515000,11.607514892578125,1.8058274984359741,0.381806343793869,0.5863155722618103
1790108050657458700,11.617458740234374,1.868298888206482,0.26142561435699463,0.49112966656684875
1790108050667403800,11.62740380859375,1.9380273818969727,0.11012346297502518,0.3856057822704315
1790108050677347600,11.63734765625,2.0021095275878906,-0.08705485612154007,0.2745184004306793
1790108050687292000,11.6472919921875,2.0559496879577637,-0.26708850264549255,0.1727214902639389
1790108050697236700,11.65723681640625,2.1098837852478027,-0.3405696451663971,0.14266932010650635
1790108050707180800,11.667180908203125,2.2132086753845215,-0.4203152656555176,0.17289848625659943
1790108050717126000,11.6771259765625,2.194998264312744,-0.6013665199279785,0.11467432975769043
1790108050727070000,11.687070068359375,2.162466049194336,-0.8356621265411377,-0.0008483934216201305
1790108050737014800,11.697014892578125,2.106621503829956,-0.9643343687057495,-0.13023912906646729
1790108050746958800,11.706958740234375,2.0484678745269775,-1.135271430015564,-0.26011353731155396
1790108050756904000,11.716904052734375,1.9511038064956665,-1.3239332437515259,-0.29439374804496765
1790108050766847700,11.72684765625,1.8549946546554565,-1.3606127500534058,-0.15262967348098755
1790108050776792800,11.736792724609375,1.719651222229004,-1.2445842027664185,0.09510129690170288
1790108050786736600,11.746736572265625,1.5544365644454956,-0.933624804019928,0.447061687707901
1790108050796680700,11.7566806640625,1.4874898195266724,-0.4589085876941681,0.8478455543518066
1790108050806626000,11.7666259765625,1.4344276189804077,-0.18626545369625092,1.1260381937026978
1790108050816570000,11.776570068359375,1.3472574949264526,-0.2638036608695984,1.0946331024169922
1790108050826515000,11.786514892578126,1.2154569625854492,-0.5053135752677917,0.8391155004501343
1790108050836459300,11.796459228515625,1.0919145345687866,-0.720023512840271,0.6308997273445129
1790108050846404000,11.806404052734376,0.9984968900680542,-0.8049507141113281,0.5281246900558472
1790108050856348200,11.81634814453125,0.9594644904136658,-0.7874638438224792,0.49479204416275024
1790108050866293000,11.82629296875,0.9234223365783691,-0.6837177276611328,0.5244367718696594
1790108050876237000,11.836237060546875,0.8325273394584656,-0.393312007188797,0.6169967651367188
1790108050886181000,11.84618115234375,0.7146733403205872,-0.3304361402988434,0.5883374214172363
1790108050896126000,11.8561259765625,0.5791538953781128,-0.3629554808139801,0.4553500711917877
1790108050906070000,11.866070068359376,0.483178973197937,-0.35582733154296875,0.29632389545440674
1790108050916015000,11.87601513671875,0.38781410455703735,-0.18747560679912567,0.21555741131305695
1790108050925959200,11.885959228515626,0.3185490369796753,-0.019830942153930664,0.1274426132440567
1790108050935904000,11.895904052734375,0.1945813000202179,-0.01668388396501541,-0.006165248341858387
1790108050945848000,11.90584814453125,-0.009310712106525898,-0.019448023289442062,-0.12214980274438858
1790108050955793200,11.915793212890625,-0.16163581609725952,0.17073683440685272,-0.13706378638744354
1790108050965737200,11.9257373046875,-0.2885357439517975,0.33339160680770874,-0.1730038821697235
1790108050975681000,11.935680908203125,-0.42598870396614075,0.2937384843826294,-0.25930070877075195
1790108050985625900,11.9456259765625,-0.5536367297172546,0.259371280670166,-0.299625426530838
1790108050995570200,11.955570068359375,-0.6818748712539673,0.3019711971282959,-0.3441135287284851
1790108051005515000,11.965514892578126,-0.8109862208366394,0.40521225333213806,-0.40379902720451355
1790108051015459000,11.975458984375,-0.948939323425293,0.4203619360923767,-0.5099238753318787
1790108051025404000,11.98540380859375,-1.0781548023223877,0.45854365825653076,-0.585507869720459
1790108051035348200,11.99534814453125,-1.138823390007019,0.5814200639724731,-0.6019627451896667
1790108051045293000,12.00529296875,-1.1673595905303955,0.6307441592216492,-0.6343798041343689
1790108051055237000,12.015237060546875,-1.1721538305282593,0.6077336072921753,-0.6676405668258667
1790108051065181000,12.025180908203126,-1.1364874839782715,0.47966474294662476,-0.697227418422699
1790108051075126300,12.035126220703125,-1.086768627166748,0.267975389957428,-0.7223237156867981
1790108051085070000,12.045070068359376,-0.9718112945556641,0.2473042905330658,-0.6295236945152283
1790108051095015200,12.05501513671875,-0.8592056632041931,0.20509451627731323,-0.5207956433296204
1790108051104959000,12.064958984375,-0.8119509220123291,0.04666455462574959,-0.4842148721218109
1790108051114904000,12.074904052734375,-0.7879337072372437,-0.014819045551121235,-0.4152427017688751
1790108051124848000,12.08484814453125,-0.7189902067184448,0.1220165267586708,-0.26335641741752625
1790108051134793000,12.09479296875,-0.6531355381011963,0.24744901061058044,-0.1407945454120636
1790108051144737000,12.104737060546874,-0.6689914464950562,0.2883045971393585,-0.11368436366319656
1790108051154681000,12.11468115234375,-0.7443575263023376,0.27673423290252686,-0.14597278833389282
1790108051164626200,12.124626220703124,-0.8399794101715088,0.37755805253982544,-0.12085676938295364
1790108051174570000,12.134570068359375,-0.8977178335189819,0.6100850105285645,-0.04949204623699188
1790108051184515000,12.14451513671875,-0.9873343706130981,0.6279165148735046,-0.07116375118494034
1790108051194459000,12.154458984375,-1.0988267660140991,0.5499444603919983,-0.10714172571897507
1790108051204404200,12.164404296875,-1.1879992485046387,0.4273230731487274,-0.14149048924446106
1790108051214348000,12.17434814453125,-1.2508116960525513,0.31742000579833984,-0.18279771506786346
1790108051224293000,12.184293212890625,-1.2949934005737305,0.3202402591705322,-0.21836638450622559
1790108051234237000,12.19423681640625,-1.2975703477859497,0.3804450035095215,-0.2876666188240051
1790108051244182000,12.20418212890625,-1.29226815700531,0.3756856918334961,-0.40372222661972046
1790108051254126000,12.2141259765625,-1.257088303565979,0.34561753273010254,-0.48087427020072937
1790108051264070100,12.224070068359374,-1.2672500610351562,0.21444512903690338,-0.5312695503234863
1790108051274015200,12.23401513671875,-1.269378662109375,0.051480982452631,-0.5296791195869446
1790108051283959000,12.243958984375,-1.2659608125686646,-0.08246788382530212,-0.4592301845550537
1790108051293904100,12.253904052734375,-1.214002251625061,-0.06950973719358444,-0.4049144685268402
1790108051303848000,12.263847900390624,-1.179645299911499,-0.04894433915615082,-0.3650857210159302
1790108051313793300,12.273793212890626,-1.1793397665023804,-0.006571053061634302,-0.3900243639945984
1790108051323737000,12.283737060546875,-1.2010139226913452,0.02676210179924965,-0.4435102343559265
1790108051333682200,12.29368212890625,-1.2511202096939087,0.017746765166521072,-0.5160425305366516
1790108051343626000,12.3036259765625,-1.2921963930130005,0.045181550085544586,-0.5796366333961487
1790108051353570000,12.313570068359375,-1.297683835029602,0.012746112421154976,-0.6635536551475525
1790108051363515100,12.32351513671875,-1.3077080249786377,-0.1271556168794632,-0.7430535554885864
1790108051373459200,12.333459228515625,-1.3333936929702759,-0.3230724036693573,-0.821251392364502
1790108051383404000,12.343404052734375,-1.3518927097320557,-0.5083032846450806,-0.9078315496444702
1790108051393348000,12.35334814453125,-1.3105980157852173,-0.6187935471534729,-0.9738086462020874
1790108051403293200,12.363293212890625,-1.2341238260269165,-0.7145187258720398,-1.0326464176177979
1790108051413237000,12.373237060546876,-1.1546626091003418,-0.8381152153015137,-1.125960350036621
1790108051423182000,12.38318212890625,-1.1123619079589844,-0.9213939905166626,-1.1874533891677856
1790108051433126000,12.3931259765625,-1.0801992416381836,-0.954159140586853,-1.2010775804519653
1790108051443070200,12.4030703125,-1.060232400894165,-0.9310516119003296,-1.145780324935913
1790108051453015000,12.41301513671875,-1.0731695890426636,-0.858691930770874,-1.0359262228012085
1790108051462959000,12.422958984375,-1.0911718606948853,-0.7662659883499146,-0.9317470192909241
1790108051472904000,12.432904052734376,-1.1019911766052246,-0.6699570417404175,-0.8495072722434998
1790108051482848300,12.44284814453125,-1.0906641483306885,-0.6221147179603577,-0.7903150916099548
1790108051492793000,12.45279296875,-1.0916519165039062,-0.6184076070785522,-0.7448900938034058
